Timestamp,gravityX,gravityY,gravityZ,accelerationX,accelerationY,accelerationZ,rotationRateX,rotationRateY,rotationRateZ,attitudeRoll,attitudePitch,attitudeYaw
1687020062.179657,0.24669702351093292,0.2730902135372162,-0.9298184514045715,0.44782203435897827,0.08245483040809631,0.15239840745925903,-2.5128273963928223,-3.4197723865509033,-2.0602567195892334,0.2593422885972862,-0.27660388953285414,1.8511515533060003
1687020062.185656,0.05476533621549606,0.40279462933540344,-0.9136505126953125,0.43084561824798584,0.22447896003723145,0.312408447265625,-1.912378191947937,-3.0552921295166016,-2.624586343765259,0.059869595578509974,-0.41456806266812657,1.7489201280967561
1687020062.455837,-0.13150906562805176,0.45533981919288635,-0.8805515170097351,0.39591336250305176,0.16631847620010376,0.3801090717315674,-0.8987677097320557,-2.5252416133880615,-3.0527284145355225,-0.14825274158004334,-0.47275386579495215,1.589113809753886
1687020062.736888,-0.306485652923584,0.4519258141517639,-0.8377527594566345,0.4069952666759491,0.10912463068962097,0.3793787360191345,-0.6267766952514648,-2.159564971923828,-3.4530606269836426,-0.35071821045451906,-0.46892300198290426,1.402916874474028
1687020063.414401,-0.4652000069618225,0.40628212690353394,-0.7864628434181213,0.4025626480579376,0.018965065479278564,0.31263166666030884,-0.5344325304031372,-1.8431670665740967,-3.700381278991699,-0.534152866159159,-0.41838153714404236,1.2097794465875205
1687020063.420295,-0.5975039601325989,0.3169071078300476,-0.7365859746932983,0.3828585743904114,0.05458337068557739,0.26179349422454834,0.14504538476467133,-1.5717344284057617,-3.6721506118774414,-0.6815210529102955,-0.3224667225810452,1.0392327894248035
1687020063.421546,-0.6966924071311951,0.18452176451683044,-0.6932326555252075,0.2980870008468628,0.058520227670669556,0.16021263599395752,0.806933581829071,-1.3932639360427856,-3.4783225059509277,-0.7878873503049894,-0.18558524814740057,0.9165651521469462
1687020063.423157,-0.7579303979873657,0.022599447518587112,-0.6519439220428467,0.2563129663467407,0.057112451642751694,0.14753413200378418,1.8914252519607544,-1.2730307579040527,-2.8299241065979004,-0.8604314564456539,-0.022601371746954528,0.861599704201253
1687020063.5461779,-0.7913218140602112,-0.13917694985866547,-0.5953482389450073,0.23040878772735596,0.025483712553977966,0.1212424635887146,1.8397915363311768,-1.3763701915740967,-2.4474008083343506,-0.9257951247966427,0.13963023143748873,0.8550385712785893
1687020063.54747,-0.8060196042060852,-0.2794371247291565,-0.5217732191085815,0.2173812985420227,-0.020443856716156006,0.1086263656616211,1.4422564506530762,-1.4374668598175049,-2.2621982097625732,-0.9962893661330225,0.2832078319723992,0.8560633247314776
1687020064.279694,-0.8026542663574219,-0.3960128724575043,-0.44600456953048706,0.16654586791992188,0.016435235738754272,0.15016716718673706,1.061409831047058,-1.3164702653884888,-2.113044500350952,-1.0636164098578942,0.40717065128489294,0.8491109764689435
1687020064.421423,-0.7841654419898987,-0.49720296263694763,-0.3713134527206421,0.20401102304458618,0.02526390552520752,0.14107367396354675,1.2095410823822021,-1.1643409729003906,-1.8709394931793213,-1.1285609744981329,0.520372024125623,0.85675419786851
1687020064.424796,-0.7539109587669373,-0.5823531746864319,-0.30411019921302795,0.20676136016845703,-0.13267368078231812,0.17686721682548523,0.6788228154182434,-1.018342137336731,-1.6998703479766846,-1.1873823101597738,0.6216203326905716,0.8653759710482798
1687020064.425641,-0.7208050489425659,-0.647724986076355,-0.24676427245140076,0.19488030672073364,-0.09896385669708252,0.15402138233184814,1.149502158164978,-0.802753210067749,-1.2020426988601685,-1.2409569791871795,0.7045945835293828,0.8797919373782674
1687020064.558794,-0.6914505958557129,-0.6983606219291687,-0.18490225076675415,0.19354093074798584,-0.16743838787078857,0.19565974175930023,0.8234201669692993,-0.6071977615356445,-1.0265600681304932,-1.3094981252632445,0.773104501428057,0.9300794458742309
1687020064.559637,-0.6634222865104675,-0.7338938117027283,-0.14584609866142273,0.17787230014801025,-0.193794846534729,0.12214922904968262,0.5277789831161499,-0.427097886800766,-0.7588460445404053,-1.3543995724728777,0.824036733398012,0.9561181727344152
1687020064.560456,-0.6419745683670044,-0.7584841251373291,-0.11211913079023361,0.1050635576248169,-0.22224408388137817,0.1639074683189392,0.7226598262786865,-0.09485706686973572,-0.47158095240592957,-1.397892896684404,0.8609838502365281,0.9969121922343712
1687020064.614845,-0.6309676170349121,-0.7709254622459412,-0.08691373467445374,0.09263753890991211,-0.2723180055618286,0.17231720685958862,0.5403926968574524,0.21278223395347595,-0.11598478257656097,-1.433911010917817,0.8802928833621271,1.0474371294772888
1687020064.615685,-0.6299921870231628,-0.7707909941673279,-0.09482300281524658,0.058230042457580566,-0.33113789558410645,0.24307744204998016,-0.27439090609550476,0.6216413974761963,0.20422066748142242,-1.4214031711007138,0.8800817535522557,1.0579792225983717
1687020064.619515,-0.6431120038032532,-0.7545192241668701,-0.1307973861694336,0.1002347469329834,-0.23002374172210693,0.1706991046667099,-0.1115686446428299,1.0221010446548462,0.7278175950050354,-1.3701510132490848,0.8549212141816441,1.0458555978089286
1687020065.8055801,-0.6675870418548584,-0.7233867049217224,-0.17618003487586975,0.12789887189865112,-0.21719563007354736,0.21422022581100464,-0.3248639404773712,1.3475368022918701,1.048196792602539,-1.3127733417606777,0.8086949556485248,1.0478313060506597
1687020065.926727,-0.693601131439209,-0.6809454560279846,-0.2350125014781952,0.15768194198608398,-0.18663877248764038,0.16531038284301758,-0.29679015278816223,1.5327075719833374,1.304533839225769,-1.2441074290896839,0.7490528724618422,1.0514952677857186
1687020065.929038,-0.7185059189796448,-0.625825822353363,-0.30346569418907166,0.24644476175308228,-0.09084898233413696,0.16694533824920654,-0.4591512382030487,1.6443287134170532,1.5018154382705688,-1.1711668141790306,0.6761898880894737,1.0626525560507418
1687020065.9311519,-0.734294056892395,-0.5609307885169983,-0.3823205530643463,0.23560631275177002,-0.07989263534545898,0.1676294207572937,-0.8289778828620911,1.6118193864822388,1.4848088026046753,-1.0907544443976422,0.5955096639174207,1.063250353305292
1687020066.025317,-0.7390223145484924,-0.48662641644477844,-0.4658764600753784,0.27697092294692993,0.010323315858840942,0.21941649913787842,-0.736981987953186,1.7271549701690674,1.6130181550979614,-1.0083264135194476,0.5082239268507532,1.0673292233121763
1687020066.029159,-0.7292187213897705,-0.4081922173500061,-0.5491986870765686,0.253464937210083,0.0026746392250061035,0.16946852207183838,-0.7939305305480957,1.8077489137649536,1.571516513824463,-0.9252931163679937,0.4204729269211982,1.0790213978414813
1687020066.02998,-0.7037256360054016,-0.3306030333042145,-0.6288655400276184,0.25914549827575684,0.021856695413589478,0.19014489650726318,-0.5364970564842224,1.9334715604782104,1.6772005558013916,-0.8415155005186138,0.33694246882365836,1.10613547606883
1687020066.078546,-0.6600359082221985,-0.25419914722442627,-0.7069197297096252,0.2250535488128662,0.04295644164085388,0.20826250314712524,-0.5962854027748108,2.1575419902801514,1.6800880432128906,-0.7511136245506357,0.25701956877194637,1.1449072317488362
1687020066.079471,-0.5930265188217163,-0.17684893310070038,-0.7855214476585388,0.2526639699935913,0.05363418161869049,0.2552633285522461,-0.698383629322052,2.4334957599639893,1.771819829940796,-0.6466592326180902,0.17778398996771408,1.1923334907236616
1687020066.08044,-0.49845433235168457,-0.09215419739484787,-0.8620039820671082,0.30530858039855957,0.10080592334270477,0.26250147819519043,-0.9322185516357422,2.7220866680145264,1.812487006187439,-0.52427376682438,0.09228513385422082,1.2433269100152793
1687020066.165141,-0.3732443153858185,-0.017627201974391937,-0.9275656342506409,0.2653951942920685,0.19212670624256134,0.23676973581314087,-0.3307461440563202,3.0845885276794434,1.8344064950942993,-0.3825661399755188,0.017628114455501918,1.306029532655332
1687020066.166199,-0.22807954251766205,0.0176348015666008,-0.9734827876091003,0.40064117312431335,0.1702619194984436,0.22920483350753784,-0.49687305092811584,2.9823029041290283,1.6428841352462769,-0.23014121199322915,-0.017635715662144804,1.3906060106801446
1687020066.170697,-0.07620464265346527,0.056465890258550644,-0.9954920411109924,0.3353293836116791,0.19652482867240906,-0.003714442253112793,-0.2943653464317322,2.9848580360412598,1.2864799499511719,-0.07640072137599672,-0.05649594099617382,1.4539099770200319
1687020066.171515,0.07137847691774368,0.0835355669260025,-0.9939451217651367,0.3466207683086395,0.2169862687587738,0.20494365692138672,-0.9871445894241333,2.91855525970459,1.1107561588287354,0.07169022814130456,-0.0836330307118669,1.5175802472580147
1687020066.255525,0.2179703712463379,0.1176396980881691,-0.9688394069671631,0.3372511565685272,0.1048334389925003,-0.04286402463912964,-0.7989563941955566,2.719881057739258,1.103033423423767,0.22129627682547703,-0.11791273622564068,1.57569042582506
1687020066.318522,0.3554655909538269,0.1718803197145462,-0.9187499284744263,0.3593781888484955,0.1834511011838913,0.15324699878692627,-1.8279961347579956,2.8019957542419434,0.9568718075752258,0.3691636897826283,-0.17273807944039757,1.6486509211469065
1687020066.3201718,0.4879434108734131,0.1904982477426529,-0.8518342971801758,0.2514822483062744,0.1244736760854721,0.21471881866455078,-0.5147309899330139,2.802741050720215,1.2115780115127563,0.5201906042509206,-0.19166966025611576,1.7197942109091309
1687020066.321477,0.6200525164604187,0.16663901507854462,-0.766659140586853,0.3151586055755615,0.2664054036140442,-0.1610293984413147,0.8019664287567139,3.0186727046966553,1.218983769416809,0.680066934427117,-0.16742003715285372,1.7740002059148865
1687020066.406601,0.7351146340370178,0.09223906695842743,-0.6716387271881104,0.3223041892051697,0.13008148968219757,0.24587273597717285,0.7177891135215759,3.0987305641174316,0.8059440851211548,0.8304898664628009,-0.09237036545075462,1.7770856888758904
1687020066.411752,0.8278948068618774,0.02689456380903721,-0.5602381825447083,0.2590954899787903,0.18892572820186615,-0.21231430768966675,1.7183570861816406,2.805044651031494,0.5441848635673523,0.9758782681611317,-0.026897807800341626,1.7495735310037503
1687020066.49934,0.8949675559997559,-0.002591924974694848,-0.44612380862236023,0.41325998306274414,0.07470496743917465,0.00985977053642273,-0.23987774550914764,2.490483283996582,-0.10379602015018463,1.1083651181000094,0.0025919279068803607,1.7216469688388185
1687020066.5007849,0.9404723644256592,0.016471238806843758,-0.3394708037376404,0.2668488025665283,0.1728140413761139,-0.24152281880378723,-0.019985059276223183,2.2232742309570312,-0.4142572283744812,1.2243931265359178,-0.016471983214614738,1.730705232529387
1687020066.506918,0.9704574346542358,0.031961068511009216,-0.23914629220962524,0.35125893354415894,0.1331847906112671,-0.30119794607162476,1.0104668140411377,1.9590991735458374,-0.5962219834327698,1.3291839072626384,-0.03196651157542425,1.6943661118987754
1687020066.585839,0.9863499402999878,0.06195807829499245,-0.15256145596504211,0.2067958116531372,0.02108025550842285,-0.3742024898529053,0.591813862323761,1.5965497493743896,-0.8441457152366638,1.4173396189914558,-0.06199778836979316,1.647777330663113
1687020066.587555,0.9914579391479492,0.09517260640859604,-0.08918245136737823,0.24291706085205078,0.07404738664627075,-0.5085653066635132,0.9436033368110657,1.0289714336395264,-0.7186232209205627,1.481086941347012,-0.09531686793124053,1.6056702376683056
1687020066.5890741,0.9894501566886902,0.13227133452892303,-0.059099335223436356,0.21777945756912231,-0.025917544960975647,-0.5729807019233704,1.5483791828155518,0.46651530265808105,-0.8821676969528198,1.5111377350688833,-0.13266009766021092,1.546979003822005
1687020066.5904489,0.9833195805549622,0.16953851282596588,-0.06587286293506622,0.21798956394195557,-0.1534709930419922,-0.4322655200958252,1.8592380285263062,-0.13064636290073395,-0.8029370307922363,1.503905978743768,-0.17036137863338374,1.4484702326983785
1687020067.283772,0.9767894148826599,0.19251996278762817,-0.09390649199485779,0.05658149719238281,-0.053130969405174255,-0.17797456681728363,1.6513820886611938,-0.341217041015625,-0.4189411997795105,1.474952966149034,-0.19372950458321067,1.364259435669489
1687020067.34898,0.9710845947265625,0.2003638744354248,-0.12980380654335022,-0.0004730224609375,0.0030205100774765015,-0.05105859041213989,2.2059597969055176,-0.3337233066558838,-0.38631772994995117,1.437915109486506,-0.20172931569613123,1.2636247968952214
1687020067.3509068,0.9651957154273987,0.19930163025856018,-0.1693398654460907,0.030669093132019043,-0.005438759922981262,0.06883026659488678,2.3626654148101807,-0.36557379364967346,-0.2988235652446747,1.3971178034309137,-0.20064520593052818,1.1422820080723717
1687020067.358018,0.9573848247528076,0.19676752388477325,-0.2114163637161255,0.024106264114379883,-0.11493465304374695,0.19498272240161896,0.8520219922065735,-0.6454513669013977,-0.3638576865196228,1.3534574025419175,-0.1980598920028982,1.0503972386933105
1687020067.359384,0.9449324011802673,0.2256096750497818,-0.2370721995830536,-0.04971444606781006,-0.071648508310318,0.24499154090881348,-1.1499356031417847,-0.5255895256996155,-0.6358284950256348,1.3249820689511516,-0.2275687958505898,1.0603518430027126
1687020067.36064,0.9330827593803406,0.26525163650512695,-0.24289578199386597,-0.055381834506988525,-0.022453755140304565,0.18097564578056335,-1.0313653945922852,-0.292574942111969,-0.4031933844089508,1.3161328822202538,-0.26846490348580676,1.1116913622494413
1687020067.3619518,0.9290278553962708,0.2837391197681427,-0.23748557269573212,-0.07868605852127075,0.0417613685131073,0.1489846110343933,-0.1287957727909088,0.11183352023363113,-0.03425236791372299,1.3205277445354622,-0.2876912450219978,1.1425843445460557
1687020067.395323,0.9320842027664185,0.27778753638267517,-0.2324935495853424,-0.02374368906021118,-0.05053842067718506,0.1332961916923523,0.3290241062641144,0.23443613946437836,0.10988163948059082,1.326350377499174,-0.28149022604289725,1.131691883186177
1687020067.396507,0.9360154271125793,0.27416637539863586,-0.22069892287254333,0.022938430309295654,-0.05987197160720825,0.11304819583892822,0.03174970671534538,0.36295121908187866,-0.030972417443990707,1.3392400457580198,-0.2777227649133531,1.1238585413750402
1687020067.397945,0.9398346543312073,0.2754064202308655,-0.20214402675628662,0.039260804653167725,-0.08586171269416809,0.02900254726409912,-0.007697300985455513,0.4369000196456909,0.016762081533670425,1.3589392352097616,-0.2790124366375411,1.1222088854106613
1687020067.461695,0.9463332295417786,0.26880335807800293,-0.1794382482767105,0.0029923319816589355,-0.0691726803779602,-0.06726579368114471,-0.053894490003585815,0.48099851608276367,0.2860702574253082,1.3834067330621578,-0.272150463556421,1.1262867533284204
1687020067.462878,0.9551448822021484,0.25050976872444153,-0.1579340249300003,0.012781143188476562,-0.039724886417388916,-0.10138905048370361,0.12208513170480728,0.4205470085144043,0.44226306676864624,1.4069281657446013,-0.25320676757270605,1.1280740767312285
1687020067.464065,0.9628761410713196,0.22916197776794434,-0.1426682025194168,0.055831074714660645,-0.04085332155227661,-0.08522175252437592,0.0609675794839859,0.25713810324668884,0.3750413954257965,1.4236977732359426,-0.23121666951646327,1.1256264447764952
1687020067.4652228,0.967154324054718,0.21552908420562744,-0.13475874066352844,0.04934048652648926,-0.016569718718528748,-0.07669752836227417,-0.02476869523525238,0.08079038560390472,0.1893461048603058,1.432352359827009,-0.217233615223875,1.1281229137287627
1687020067.4723558,0.9690551161766052,0.2078527808189392,-0.13315299153327942,0.040573298931121826,-0.003262937068939209,-0.06931586563587189,0.08614350855350494,0.028907611966133118,0.15415535867214203,1.4342464269493471,-0.2093792915312654,1.126885959692358
1687020067.4735332,0.9714385867118835,0.19640658795833588,-0.13315992057323456,-0.011248767375946045,0.00900721549987793,-0.07292525470256805,-0.0179589930921793,-0.0004552039026748389,0.2924914062023163,1.4345703214643333,-0.197691769295737,1.1249348134518622
1687020067.4755402,0.9743412733078003,0.18004518747329712,-0.13506600260734558,-0.026663661003112793,0.05112543702125549,-0.04828356206417084,-0.16161908209323883,-0.030965441837906837,0.3670189082622528,1.4330512723040203,-0.18103239262643675,1.132645598742863
1687020067.548039,0.9767255187034607,0.1652471274137497,-0.1367506980895996,-0.003687739372253418,0.0950830727815628,-0.017088353633880615,-0.148358553647995,-0.10569880157709122,0.2514829933643341,1.431691223080946,-0.1660085813887141,1.1428303728282647
1687020067.588052,0.9768689870834351,0.15935420989990234,-0.14259463548660278,0.009382843971252441,0.11240480840206146,0.003876999020576477,-0.03198539465665817,-0.1697772592306137,1.2928619980812073e-05,1.425848932503974,-0.16003646727101817,1.1487893573237284
1687020067.589495,0.974473237991333,0.1653604954481125,-0.15184801816940308,-0.003724336624145508,0.07656760513782501,0.009712398052215576,0.07079717516899109,-0.21060937643051147,-0.2529759109020233,1.4162137566437758,-0.16612352345228631,1.1459926188422367
1687020067.590774,0.9697755575180054,0.18204762041568756,-0.16246259212493896,-0.009539961814880371,0.04387398064136505,0.036043599247932434,-0.08506020158529282,-0.22558139264583588,-0.40983638167381287,1.4048116820829741,-0.1830684680437975,1.1434667359055914
1687020067.620864,0.9640081524848938,0.20343279838562012,-0.17118263244628906,-0.002963840961456299,0.02164958417415619,0.03968244791030884,-0.06536832451820374,-0.15632230043411255,-0.41450729966163635,1.3950543994081546,-0.20486276072287898,1.1440257857522709
1687020067.6224189,0.9594815373420715,0.22049282491207123,-0.17543728649616241,-0.025643646717071533,0.0005307197570800781,0.019187331199645996,0.06923729181289673,-0.026362968608736992,-0.27408307790756226,1.3899481488293348,-0.22231970519456448,1.1407076266758236
1687020067.623846,0.957687497138977,0.2282782644033432,-0.1752815842628479,-0.014862239360809326,-0.014365315437316895,-0.010204240679740906,0.15984556078910828,0.06177874282002449,-0.10542108118534088,1.3897740333201438,-0.23030888436980168,1.1329802265387205
1687020067.70351,0.9572213888168335,0.23052190244197845,-0.17489127814769745,0.006523787975311279,-0.031379446387290955,-0.020650088787078857,0.12190170586109161,0.003517433535307646,-0.07027614861726761,1.3900823483615332,-0.23261400397247445,1.1245046070771325
1687020067.7586331,0.95548415184021,0.23445533215999603,-0.17911116778850555,0.03825974464416504,-0.04582619667053223,-0.023754417896270752,-0.03091021254658699,-0.12368658930063248,-0.1667315810918808,1.3854909646273856,-0.23665824454050124,1.1206684627883803
1687020067.764827,0.9511664509773254,0.24438761174678802,-0.18856596946716309,0.03307121992111206,-0.06416605412960052,-0.014360666275024414,-0.09681578725576401,-0.2486177384853363,-0.3036111295223236,1.3750868339629068,-0.24688810183931267,1.1215377939816313
1687020067.766259,0.9443278312683105,0.2610279321670532,-0.20027360320091248,0.04253435134887695,-0.08529245853424072,0.025392651557922363,-0.1341482400894165,-0.28139644861221313,-0.35224685072898865,1.3618122646519741,-0.2640868850848148,1.1239436926949335
1687020067.767695,0.938667893409729,0.2744385004043579,-0.20877370238304138,0.005347788333892822,-0.09612426161766052,0.030062764883041382,-0.0851721242070198,-0.14738154411315918,-0.1085154116153717,1.3519437952253333,-0.2780057273202631,1.1269277396535025
1687020067.77386,0.9394888281822205,0.27147242426872253,-0.20895813405513763,-0.06688445806503296,-0.07643461227416992,0.03683900833129883,-0.2140660583972931,0.05128069594502449,0.3055962920188904,1.3519419361130858,-0.2749225818239835,1.1357259018698314
1687020067.7752872,0.9470260143280029,0.2511901557445526,-0.2001129537820816,-0.024632275104522705,-0.0316162109375,0.025415077805519104,-0.13370996713638306,0.19675293564796448,0.5756240487098694,1.362552947882406,-0.2539096293395796,1.1500998607094035
1687020067.776753,0.9561393857002258,0.22374966740608215,-0.1890331506729126,0.020163655281066895,0.01970428228378296,0.032722145318984985,-0.055616892874240875,0.2061493694782257,0.5735526084899902,1.3756088599294334,-0.22565998502842138,1.1607013346097819
1687020067.7782578,0.962772786617279,0.2015126347541809,-0.18017016351222992,0.020564615726470947,0.033640533685684204,0.017984524369239807,-0.06696821004152298,0.12895098328590393,0.341607004404068,1.3857993120927734,-0.2029019930999539,1.167755374566548
1687020067.7797542,0.9652004241943359,0.1936076432466507,-0.17579634487628937,0.008752822875976562,0.038570061326026917,0.004424929618835449,-0.07587895542383194,0.016433632001280785,0.030601464211940765,1.3906366011740885,-0.19483804813350994,1.1730329021268942
1687020067.880435,0.9643256068229675,0.19831636548042297,-0.17534814774990082,0.0050196051597595215,0.021898508071899414,0.018182620406150818,-0.16191616654396057,-0.03014066070318222,-0.1266038715839386,1.390926546462978,-0.19963987017696577,1.1785629213947577
1687020067.88281,0.9633415937423706,0.20481497049331665,-0.17327383160591125,-0.021630167961120605,0.005100175738334656,-0.0009814947843551636,-0.20999833941459656,0.03701014816761017,-0.014895979315042496,1.3928317530757999,-0.20627467249250586,1.1870352171433922
1687020067.8854241,0.9653802514076233,0.20230795443058014,-0.16465871036052704,-0.04570251703262329,0.03472207486629486,-0.023024365305900574,-0.16385367512702942,0.16404253244400024,0.21058109402656555,1.4018584740600333,-0.20371403699477153,1.1986397825782091
1687020067.8917131,0.9691627025604248,0.19073325395584106,-0.15602794289588928,-0.007904648780822754,0.04448099434375763,-0.048500850796699524,-0.06312334537506104,0.1719699651002884,0.26483795046806335,1.4111734700629623,-0.19190905318914672,1.2051885016015358
1687020067.93765,0.9718942046165466,0.1816248595714569,-0.14978046715259552,0.021010518074035645,0.0607762485742569,-0.0579679012298584,-0.037394143640995026,0.05060118809342384,0.0887497216463089,1.4178874049313968,-0.182638534450616,1.2094165196725102
1687020067.945561,0.9705932140350342,0.18508411943912506,-0.1539248824119568,0.01750504970550537,0.04344676434993744,-0.04962737858295441,0.08095766603946686,-0.08450043946504593,-0.19832412898540497,1.4135176786781312,-0.18615745450584634,1.2072073143634705
1687020067.947132,0.96623295545578,0.19939079880714417,-0.16320952773094177,0.015426099300384521,0.012721657752990723,-0.016920462250709534,0.06415465474128723,-0.16640369594097137,-0.3499874174594879,1.403462611320735,-0.20073619188338526,1.200202623667221
1687020067.949331,0.9612547755241394,0.21466313302516937,-0.172941654920578,-0.010250866413116455,-0.008974656462669373,-0.011094555258750916,0.06571140140295029,-0.1354905217885971,-0.24971434473991394,1.3927882356302022,-0.21634690250388613,1.1941388971717724
1687020067.950938,0.9591241478919983,0.2209966480731964,-0.17675234377384186,-0.05226379632949829,-0.015826985239982605,0.0038855671882629395,0.005547664128243923,-0.045627743005752563,-0.02978171780705452,1.388555839016309,-0.2228362730277665,1.191281205729477
1687020067.952773,0.9591865539550781,0.22012944519519806,-0.1774945855140686,-0.025531768798828125,-0.0002960413694381714,0.017719805240631104,-0.025704864412546158,0.0007100622169673443,0.02557847648859024,1.3878191230041894,-0.22194716277656612,1.191893604558664
1687020068.00247,0.9590491652488708,0.2208404242992401,-0.177354097366333,0.0167810320854187,0.01686100661754608,0.025803789496421814,-0.01981634832918644,-0.004366721957921982,-0.05505751445889473,1.3879351313017028,-0.22267608379608292,1.1933450768461682
1687020068.010046,0.9578158855438232,0.22648395597934723,-0.17690080404281616,0.015862762928009033,0.002596244215965271,0.022252976894378662,0.09261719137430191,-0.0052156043238937855,-0.18887682259082794,1.3881625151633232,-0.22846630516314315,1.1903126678559193
1687020068.012043,0.9554535150527954,0.23806044459342957,-0.17445874214172363,0.03172910213470459,-0.02390332520008087,0.013097047805786133,0.06386370211839676,-0.013254621997475624,-0.25758638978004456,1.3901932973504125,-0.24036838752017753,1.185571883696182
1687020068.013736,0.9536477327346802,0.2464747130870819,-0.17264439165592194,0.0073659420013427734,-0.0457758754491806,0.0026920735836029053,0.056127749383449554,0.029211344197392464,-0.10407298803329468,1.3917002666889553,-0.24904105712725294,1.1811485176068877
1687020068.0156121,0.9551112055778503,0.24388565123081207,-0.16817350685596466,-0.018481016159057617,-0.029423385858535767,-0.02430085837841034,0.08513689786195755,0.10171430557966232,0.1308220773935318,1.3965054621308215,-0.24637048452743096,1.1785907493648482
1687020068.017714,0.9585886597633362,0.232880637049675,-0.16393490135669708,-0.008301734924316406,-0.017258688807487488,-0.023656606674194336,-0.025186747312545776,0.10637923330068588,0.22928713262081146,1.4014179635201545,-0.23503871701717957,1.178526248514483
1687020068.0588222,0.9613698720932007,0.2208574116230011,-0.16428668797016144,0.023997008800506592,0.028257593512535095,-0.022984445095062256,0.07508300244808197,0.055966924875974655,0.21366742253303528,1.4015431330263652,-0.2226934960139986,1.1790840904561142
1687020068.065627,0.962541401386261,0.2135450392961502,-0.1670709103345871,0.017179667949676514,0.014558613300323486,-0.009488523006439209,0.024936674162745476,-0.01786535233259201,0.047625720500946045,1.3989358813193495,-0.21520227309484974,1.175693951163826
1687020068.06745,0.9614028334617615,0.21596498787403107,-0.1704801321029663,0.007148683071136475,0.014992013573646545,-0.0063997358083724976,-0.0440167598426342,-0.0871201902627945,-0.0931183397769928,1.3952962808401006,-0.2176800313346319,1.17672769344543
1687020068.069226,0.9592761397361755,0.22170528769493103,-0.1750319004058838,-0.010164141654968262,0.0028278082609176636,0.009306192398071289,-0.021908992901444435,-0.10180472582578659,-0.11883516609668732,1.3903192243734335,-0.22356293223133136,1.176837533762079
1687020068.114414,0.9573258757591248,0.22764283418655396,-0.17806212604045868,-0.013310253620147705,-0.00716853141784668,0.02037779986858368,-0.10966774076223373,-0.07348707318305969,-0.08352057635784149,1.3868983197399587,-0.22965627356586968,1.1794644566100263
1687020068.117059,0.9563959240913391,0.23159942030906677,-0.17795690894126892,-0.016744375228881836,0.0005478113889694214,0.014596343040466309,-0.058853697031736374,-0.028304679319262505,-0.055203720927238464,1.3868298436694444,-0.23372148487842379,1.1835443007412414
1687020068.124692,0.9555458426475525,0.23614268004894257,-0.1765473634004593,-0.01597052812576294,-0.011746913194656372,0.024096831679344177,-0.08762115985155106,-0.006614829413592815,-0.1185494065284729,1.388095906559031,-0.23839434449548047,1.1870105960304338
1687020068.126524,0.9544386863708496,0.2421107143163681,-0.17444007098674774,-0.006684720516204834,-0.016814693808555603,0.024644553661346436,-0.03693374991416931,0.04374368116259575,-0.09998610615730286,1.3900243427847356,-0.2445407062715765,1.1888595983497245
1687020068.1283631,0.9546967148780823,0.24492917954921722,-0.16900911927223206,0.002166748046875,-0.011988520622253418,0.017107903957366943,0.05587754771113396,0.14206518232822418,-0.018922679126262665,1.3955825201682468,-0.2474466474827864,1.188816110820486
1687020068.129411,0.9571071863174438,0.24143096804618835,-0.1601787805557251,0.01889091730117798,-0.015371978282928467,-0.012108221650123596,0.15476098656654358,0.21597589552402496,0.10910479724407196,1.4049758465490596,-0.24384016686862678,1.1833925120552082
1687020068.179096,0.9607261419296265,0.23281985521316528,-0.15099740028381348,0.003873467445373535,-0.010453552007675171,-0.03822682797908783,0.10506047308444977,0.2104949802160263,0.19578243792057037,1.4149015584547497,-0.2349762158166517,1.1783805707577675
1687020068.18302,0.9644770622253418,0.22081124782562256,-0.1450045257806778,0.00025981664657592773,0.013121217489242554,-0.05853240191936493,0.18910756707191467,0.1796417385339737,0.23542572557926178,1.4215687632375418,-0.22264617613581125,1.172064858319139
1687020068.185529,0.967876136302948,0.2087605744600296,-0.1401240974664688,-0.004954993724822998,0.025477051734924316,-0.051785632967948914,0.15439613163471222,0.10227836668491364,0.1918601393699646,1.4270204465155676,-0.2103074351303809,1.1646462204668824
1687020068.192626,0.9698103070259094,0.20069558918476105,-0.13852541148662567,-0.004676640033721924,0.04783955216407776,-0.03890375792980194,0.15324969589710236,0.031592343002557755,0.08667512238025665,1.4289183886415746,-0.2020679052093165,1.1580520613590082
1687020068.19402,0.9695742726325989,0.19941861927509308,-0.14197909832000732,0.00048798322677612305,0.05088658630847931,-0.0178719162940979,0.10562419891357422,-0.027167508378624916,-0.05789671093225479,1.425395258006918,-0.20076458555617996,1.1510044119144638
1687020068.194756,0.9672437310218811,0.20547445118427277,-0.14906390011310577,0.008311748504638672,0.04176372289657593,-0.0008231401443481445,0.10310377925634384,-0.06509704142808914,-0.16815076768398285,1.4178872695722096,-0.20694848011874298,1.1439895246491554
1687020068.195528,0.9643044471740723,0.21527057886123657,-0.15419302880764008,0.006200313568115234,0.02413979172706604,0.006228581070899963,0.1548946052789688,-0.0726136863231659,-0.22477836906909943,1.4122378129679407,-0.21696890223492088,1.1362113142869246
1687020068.245302,0.9612623453140259,0.22561821341514587,-0.15833815932273865,-0.00604701042175293,0.0013256967067718506,0.013791710138320923,0.168684184551239,-0.06535923480987549,-0.22861039638519287,1.4075432909256063,-0.2275775659299919,1.125959040762862
1687020068.248198,0.9584881663322449,0.23516523838043213,-0.16123849153518677,-0.006995797157287598,-0.01806318759918213,0.018538296222686768,0.11503734439611435,-0.05328233167529106,-0.1964263617992401,1.404135043965456,-0.23738856818624837,1.1172976488372206
1687020068.2505898,0.9564734697341919,0.24184173345565796,-0.16331341862678528,-0.003394186496734619,-0.021748945116996765,0.022306978702545166,0.11416842043399811,-0.0162954181432724,-0.12348876893520355,1.4016818210008763,-0.2442634866640233,1.110696811453978
1687020068.253374,0.9557895064353943,0.24489827454090118,-0.16276080906391144,0.0018672347068786621,-0.025888890027999878,0.023722723126411438,0.1179116889834404,0.012206928804516792,-0.076271191239357,1.402124931342528,-0.24741476768510948,1.104305508840403
1687020068.299415,0.9556078314781189,0.24689030647277832,-0.16080714762210846,0.013966143131256104,-0.02653813362121582,0.01607753336429596,0.08669377863407135,0.0251055508852005,-0.06441798806190491,1.4040809099804161,-0.24946990395513252,1.0991302751984362
1687020068.307775,0.9555967450141907,0.24849283695220947,-0.15838707983493805,0.009506583213806152,-0.030368447303771973,0.006302759051322937,0.07162109017372131,0.030017217621207237,-0.05252298340201378,1.406542805789005,-0.25112397276787324,1.0955138856833995
1687020068.309854,0.9558693170547485,0.24897979199886322,-0.15595896542072296,0.00784534215927124,-0.040621042251586914,0.000609278678894043,0.02820497378706932,0.031957462430000305,-0.027152378112077713,1.4090621607230824,-0.2516267348457015,1.0927272715113205
1687020068.312212,0.9564980864524841,0.24783536791801453,-0.15391327440738678,0.018797993659973145,-0.03030608594417572,-0.012865304946899414,0.03813769668340683,0.043667782098054886,0.029946591705083847,1.4112506794755584,-0.2504452800019696,1.0920995582293385
1687020068.314317,0.957776665687561,0.24347944557666779,-0.1529117226600647,0.003527224063873291,-0.0345102995634079,-0.017116978764533997,-0.003926265053451061,0.03478693589568138,0.07682116329669952,1.4124796183518133,-0.24595165466063695,1.0909747785212316
1687020068.316463,0.9590790271759033,0.23821896314620972,-0.1530328243970871,0.008236587047576904,-0.0167834609746933,-0.01878105103969574,-0.046643368899822235,0.006178730167448521,0.11843012273311615,1.4125679021201618,-0.24053161023209182,1.0929578894759182
1687020068.364668,0.960573136806488,0.23096725344657898,-0.154769167304039,0.0016461014747619629,-0.006190061569213867,-0.015610456466674805,-0.06530620157718658,-0.014400447718799114,0.14804260432720184,1.4110475753692444,-0.23307170200588614,1.0960870943874768
1687020068.366973,0.9616450667381287,0.22501987218856812,-0.15685994923114777,0.00013172626495361328,0.010896295309066772,-0.004578053951263428,-0.12345373630523682,-0.03644995763897896,0.11218713223934174,1.4091040686415397,-0.22696343077127124,1.1018091000658856
1687020068.369463,0.9618580937385559,0.22240574657917023,-0.15926310420036316,-0.005299806594848633,0.018179580569267273,0.0050272345542907715,-0.12976714968681335,-0.06096062436699867,0.04505923390388489,1.4067065088875939,-0.22428133054964702,1.1086540361328339
1687020068.3776898,0.961474597454071,0.22282403707504272,-0.1609853059053421,-0.007098257541656494,0.010269209742546082,0.01511131227016449,-0.16118405759334564,-0.06268075853586197,0.007815724238753319,1.4048993594294878,-0.22471038985553915,1.1157272710077089
1687020068.41671,0.9611367583274841,0.2243117094039917,-0.1609361618757248,-0.014130473136901855,0.0104752779006958,0.015474140644073486,-0.18209227919578552,-0.04478725045919418,0.009728407487273216,1.4048918514299518,-0.22623668502340952,1.1249998721048742
1687020068.42528,0.9611600041389465,0.22528813779354095,-0.1594262272119522,-0.006326019763946533,0.0077288150787353516,0.012636721134185791,-0.13140499591827393,-0.020414264872670174,0.013146307319402695,1.406424281808892,-0.22723876358831155,1.1331838691570364
1687020068.427761,0.961410641670227,0.22595196962356567,-0.15695704519748688,0.0019683837890625,0.0043184757232666016,0.0023091882467269897,-0.15937025845050812,0.0014099408872425556,0.02738330140709877,1.408966957651992,-0.22792016229745576,1.140863508374703
1687020068.430088,0.9619462490081787,0.22565437853336334,-0.15407712757587433,0.0005629658699035645,0.008415460586547852,-0.01444089412689209,-0.15328039228916168,0.006331462413072586,0.039996031671762466,1.4119730766479779,-0.2276146805880237,1.149194445549898
1687020068.431298,0.9623115658760071,0.22502118349075317,-0.15271501243114471,0.008010029792785645,0.012085124850273132,-0.025934860110282898,-0.12641596794128418,-0.014218420721590519,0.039860744029283524,1.4134127548158362,-0.22696477083457742,1.156708576245298
1687020068.43223,0.9620935916900635,0.22496268153190613,-0.15416790544986725,0.0016973018646240234,-0.0007653087377548218,-0.025351688265800476,-0.1939130425453186,-0.0550040677189827,0.010884219780564308,1.4119050015889634,-0.22690473973710326,1.1641345373708596
1687020068.4745731,0.9610899686813354,0.22653555870056152,-0.15807531774044037,-0.007125735282897949,0.002773493528366089,-0.018423080444335938,-0.17646467685699463,-0.09488064050674438,-0.005560268182307482,1.4077807897301833,-0.228519291362943,1.1735251951424954
1687020068.4773932,0.9597179889678955,0.2286091148853302,-0.1633380800485611,-0.004716157913208008,-0.007539793848991394,0.0024189352989196777,-0.17748208343982697,-0.11314020305871964,-0.014280255883932114,1.4022178013638404,-0.23064871616594873,1.181716080824785
1687020068.480324,0.9587284922599792,0.2300504744052887,-0.16708265244960785,-0.0015598535537719727,-0.0031522661447525024,0.014677882194519043,-0.16935990750789642,-0.07288319617509842,0.029832344502210617,1.3982539600736021,-0.2321295454719519,1.1907568726567612
1687020068.48463,0.9590404033660889,0.22870749235153198,-0.16713564097881317,-0.004832088947296143,0.0006626099348068237,0.01795049011707306,-0.14860615134239197,-0.029646776616573334,0.06926549971103668,1.3982553530795567,-0.2307497766216712,1.1991274166816446
1687020068.489047,0.9599536657333374,0.22676771879196167,-0.164515882730484,-0.006965994834899902,0.006203457713127136,0.009791791439056396,-0.15163150429725647,8.555094245821238e-05,0.0659426748752594,1.4010662238852645,-0.22875765300464573,1.2081062676656784
1687020068.5360842,0.9610745310783386,0.2244454175233841,-0.1611209660768509,-0.002227485179901123,0.016948625445365906,0.002994135022163391,-0.07590511441230774,0.029524266719818115,0.08174240589141846,1.404694264146494,-0.22637389253709042,1.2151060974621706
1687020068.547046,0.9624008536338806,0.2209581881761551,-0.15799356997013092,-0.0024552345275878906,0.00966314971446991,-0.01218770444393158,-0.09067840129137039,0.03710881620645523,0.09985430538654327,1.4080816370624516,-0.22279683958266575,1.2195133898253159
1687020068.548814,0.9635417461395264,0.21753659844398499,-0.15577377378940582,-0.005777895450592041,0.022240042686462402,-0.02363903820514679,-0.09935631603002548,0.023422565311193466,0.08966797590255737,1.410515216274679,-0.21928991144009544,1.2258098364071606
1687020068.5499392,0.964129626750946,0.2146182805299759,-0.15618333220481873,0.002606213092803955,0.02450220286846161,-0.026601672172546387,-0.03942819684743881,0.0010580042144283652,0.06346087157726288,1.4101973258334106,-0.21630099357369134,1.228938198782588
1687020068.5509439,0.9638484716415405,0.21394318342208862,-0.15882155299186707,-0.0007748007774353027,0.026092782616615295,-0.021766170859336853,-0.0672859326004982,-0.031141210347414017,0.016034506261348724,1.4074852990916573,-0.21560983091496091,1.2319153048939755
1687020068.55533,0.9630736708641052,0.21450817584991455,-0.16271287202835083,-0.004653811454772949,0.02328479290008545,-0.01537245512008667,-0.020509902387857437,-0.04531029239296913,0.0022185593843460083,1.4034252650200805,-0.21618825652404391,1.2331598981661176
1687020068.55633,0.9620385766029358,0.2161000370979309,-0.16668131947517395,-0.007112979888916016,0.020884215831756592,-0.009420335292816162,-0.04282392933964729,-0.05667147412896156,-0.02088170126080513,1.3992409487517814,-0.2178183520783792,1.2346764981329694
1687020068.659101,0.9608064889907837,0.21864643692970276,-0.1704244762659073,0.005715668201446533,0.0026822686195373535,-0.009293481707572937,-0.057267382740974426,-0.07143484055995941,-0.04585655778646469,1.3952457337214375,-0.22042712419028546,1.2362930570258157
1687020068.6625109,0.9589621424674988,0.22331739962100983,-0.17470236122608185,0.005255997180938721,-0.06493116915225983,-0.020793244242668152,-0.37191101908683777,-0.2026989758014679,-0.07519340515136719,1.3905939777041747,-0.22521649638227795,1.2423395086994888
1687020068.6652331,0.9539992213249207,0.2432832568883896,-0.17521098256111145,0.037577927112579346,-0.2169618159532547,0.008112013339996338,-2.4461255073547363,-0.412452757358551,-0.22594402730464935,1.389161045381374,-0.24574937326428337,1.3094939709345603
1687020068.668122,0.9493196606636047,0.27030840516090393,-0.16039159893989563,0.03403294086456299,-0.28631487488746643,-0.02007405459880829,-3.3220739364624023,-0.598649799823761,0.1298963576555252,1.403422716487182,-0.2737133563526656,1.4554118937248293
1687020068.671215,0.9455847144126892,0.2914303243160248,-0.14469923079013824,0.058367252349853516,-0.04457363486289978,-0.00202922523021698,-3.5401175022125244,-0.8833509087562561,0.1983822137117386,1.4189480924286384,-0.2957217203539218,1.640721062033606
1687020068.673758,0.9405072331428528,0.308687686920166,-0.1419798731803894,0.07102853059768677,-0.04887622594833374,-0.06866772472858429,-2.918213129043579,-1.0598435401916504,0.020108342170715332,1.4209667100006202,-0.31381303363983326,1.8039133859499126
1687020068.681813,0.9293597340583801,0.3409106731414795,-0.14167001843452454,0.024314522743225098,0.0014507472515106201,-0.007042095065116882,-3.507854461669922,-1.2578624486923218,-0.19814328849315643,1.41952259077681,-0.34788542792275134,1.9817300616439841
1687020068.6828861,0.9186292290687561,0.3680858016014099,-0.14364273846149445,-0.008808672428131104,0.059236615896224976,-0.016864478588104248,-2.1051981449127197,-1.02686607837677,-0.15646083652973175,1.4156859763988685,-0.37694943636862477,2.1304867931182825
1687020068.683972,0.9087943434715271,0.388298362493515,-0.15269958972930908,0.024250030517578125,-0.014915823936462402,0.041981831192970276,-1.6273082494735718,-0.8825032114982605,-0.09243923425674438,1.404326940911123,-0.3987843487353029,2.2276985755164205
1687020068.68509,0.9025105237960815,0.3984008729457855,-0.1635591685771942,0.024171054363250732,-0.024453729391098022,0.0587313175201416,-0.8258653879165649,-0.6827861070632935,0.05980835482478142,1.3915152633301824,-0.40977273004257103,2.293587044970252
1687020068.777646,0.8997901678085327,0.3988170325756073,-0.17698176205158234,0.0006614327430725098,-0.0157603919506073,0.11565668880939484,-0.5684714913368225,-0.5053713321685791,0.11120949685573578,1.3765833070892208,-0.41022648292063113,2.330061288227112
1687020068.851256,0.898732602596283,0.3963734805583954,-0.187530517578125,-0.011189937591552734,0.0034220218658447266,0.0715332180261612,-0.19850307703018188,-0.35013917088508606,0.14741623401641846,1.3650868539010048,-0.4075633771561871,2.353233870731185
1687020068.8642259,0.8989300727844238,0.39143896102905273,-0.1967242807149887,-0.012714803218841553,-0.026204556226730347,0.0367969274520874,-0.06705616414546967,-0.21073932945728302,0.10682938992977142,1.3553501645325265,-0.40219480659362505,2.3616392251458374
1687020068.86709,0.8989678621292114,0.3878648281097412,-0.20351335406303406,-0.005260586738586426,-0.024064749479293823,0.04100729525089264,-0.1215495616197586,-0.17777539789676666,0.08419838547706604,1.3481634646837553,-0.3983139287393241,2.3673265051733177
1687020068.8828058,0.8984494209289551,0.38665083050727844,-0.20806168019771576,0.010318160057067871,-0.02808457612991333,0.02117207646369934,-0.3111855387687683,-0.2074991911649704,0.048170603811740875,1.3432291601907937,-0.3969971917056582,2.377623967310667
1687020068.884944,0.8975253105163574,0.388139933347702,-0.20927463471889496,0.003658771514892578,0.02070409059524536,0.027145743370056152,-0.47347331047058105,-0.22865015268325806,0.07305091619491577,1.3417207258333306,-0.39861243115592154,2.401986494479729
1687020068.886821,0.8973270654678345,0.3870859146118164,-0.2120586484670639,-0.012225687503814697,0.02053740620613098,0.014197945594787598,-0.13767200708389282,-0.16778147220611572,0.10765416920185089,1.338731371718481,-0.39746901656883704,2.4184389933107333
1687020068.893383,0.8979244232177734,0.3844332993030548,-0.21434248983860016,-0.004980146884918213,-0.01514008641242981,0.037218526005744934,-0.36436495184898376,-0.17018871009349823,0.11771292984485626,1.3364725520411564,-0.39459387352369196,2.4339506222577554
1687020068.8951,0.8990122079849243,0.3814380466938019,-0.21513235569000244,-0.007395446300506592,0.006531894207000732,0.018492355942726135,-0.18317458033561707,-0.13602633774280548,0.1673436015844345,1.3359146566980271,-0.39135145349921785,2.4521410684973524
1687020068.896833,0.9016123414039612,0.3738415539264679,-0.21757233142852783,0.004805505275726318,-0.012238770723342896,0.030453816056251526,-0.2458057999610901,-0.13615217804908752,0.2536963224411011,1.3340085869928886,-0.3831474371999898,2.4659802794168044
1687020069.0101461,0.9052808880805969,0.36392465233802795,-0.2191472351551056,-0.0007093548774719238,0.021161437034606934,0.01718193292617798,-0.1399652510881424,-0.11100155115127563,0.2836068272590637,1.333288862531698,-0.3724780360387698,2.480367417591458
1687020069.012995,0.908931314945221,0.35452771186828613,-0.21944056451320648,-0.021602213382720947,0.011149197816848755,0.029941678047180176,-0.4704864025115967,-0.1304803192615509,0.2571389973163605,1.3339025068219486,-0.36240892564611465,2.499860613343946
1687020069.015788,0.9117918014526367,0.3483264744281769,-0.2174961268901825,-0.024096429347991943,0.06785702705383301,0.021069765090942383,-0.19524329900741577,-0.037597913295030594,0.18262295424938202,1.3366350688331894,-0.3557851747985959,2.520269523346345
1687020069.019207,0.9144459366798401,0.34236082434654236,-0.2158188670873642,-0.010622024536132812,0.05444398522377014,0.02616739273071289,-0.15251654386520386,-0.008350145071744919,0.1444348245859146,1.339026935199629,-0.3494284292878312,2.5296962421512794
1687020069.0220752,0.9164773225784302,0.3385348320007324,-0.2132217288017273,-0.014515101909637451,0.06214570999145508,0.01795502007007599,-0.20415270328521729,-0.005648368038237095,0.10267458856105804,1.3422091550265784,-0.3453593363163397,2.5413553350478306
1687020069.032603,0.9179269075393677,0.33723634481430054,-0.2090023308992386,-0.0198708176612854,0.06626707315444946,0.014101862907409668,-0.05556635558605194,0.06343469023704529,0.05283327028155327,1.3469234351954908,-0.3439797224565306,2.5484439307257123
1687020069.0346,0.9181216359138489,0.33937305212020874,-0.2046431452035904,-0.0012819170951843262,0.043393731117248535,-0.001060575246810913,0.03416819125413895,0.07336002588272095,-0.003324011340737343,1.3514879969643516,-0.34625030709366045,2.5490112868393626
1687020069.03611,0.91782146692276,0.3420405089855194,-0.20152448117733002,0.00480121374130249,0.05093437433242798,-0.007551431655883789,0.11700734496116638,0.10053106397390366,-0.0026374487206339836,1.3546578476606448,-0.34908752644514096,2.5463752789992227
1687020069.061691,0.9180502891540527,0.34252697229385376,-0.1996474415063858,0.004282474517822266,0.0006584823131561279,0.01883077621459961,0.022307002916932106,0.08670512586832047,-0.04092225432395935,1.356661499475393,-0.34960525576820906,2.5386621228894137
1687020069.063014,0.9164051413536072,0.3496024012565613,-0.19488412141799927,-0.015358388423919678,0.03331688046455383,-0.015351459383964539,-0.06888255476951599,0.11028023064136505,-0.14971691370010376,1.3612563800788868,-0.35714669756980816,2.541655437615457
1687020069.124158,0.9144613146781921,0.35826995968818665,-0.1881575733423233,-0.03135889768600464,-0.007531404495239258,-0.030317723751068115,0.038091160356998444,0.15288788080215454,-0.2210070639848709,1.3678705793150128,-0.36641418331921677,2.539660016124002
1687020069.1477551,0.910966157913208,0.36802923679351807,-0.1862662136554718,0.04891842603683472,-0.041247040033340454,-0.04852072894573212,0.1624392867088318,0.09192932397127151,-0.14591337740421295,1.3691053915575033,-0.3768886188230517,2.5332434531913486
1687020069.252778,0.9106947779655457,0.3663652539253235,-0.19081845879554749,0.051692306995391846,-0.0496995747089386,0.013297736644744873,0.1494923233985901,-0.021554363891482353,0.07376997172832489,1.3642537045249832,-0.37509966376482284,2.5198301537552927
1687020069.26372,0.9116763472557068,0.3619624078273773,-0.19449813663959503,-0.04143708944320679,0.01875963807106018,0.031046032905578613,-0.05375680699944496,-0.02563406154513359,0.02581070363521576,1.3606062032679995,-0.37037220005760757,2.5191032386647128
1687020069.2667031,0.9115810394287109,0.3635703921318054,-0.19192864000797272,-0.027578353881835938,0.02665787935256958,0.014957249164581299,0.08628159016370773,0.11308906972408295,-0.12146130204200745,1.3632824113303077,-0.3720977279990223,2.5186340377762306
1687020069.2699819,0.9094287753105164,0.3722291588783264,-0.18543152511119843,-0.013615787029266357,-0.027746737003326416,-0.017846032977104187,0.007113136351108551,0.15451879799365997,-0.23540277779102325,1.3696546495189168,-0.3814096068306607,2.514320737832772
1687020069.273041,0.907102644443512,0.3801453113555908,-0.18070603907108307,0.06158649921417236,-0.04605403542518616,-0.04301829636096954,0.11062940955162048,0.0537535734474659,-0.05264735221862793,1.3741582395368126,-0.3899533812277845,2.5105295704079236
1687020069.275475,0.9082805514335632,0.3751029074192047,-0.18526853621006012,0.01579183340072632,-0.0027578771114349365,0.003368481993675232,0.15256907045841217,-0.051707204431295395,0.13313423097133636,1.3695794687214404,-0.384507793632849,2.5028510832213726
1687020069.277979,0.9099198579788208,0.36832383275032043,-0.19074486196041107,-0.036750853061676025,0.019035786390304565,0.022806644439697266,0.046053145080804825,-0.00010499826748855412,0.0324169397354126,1.3641602482626538,-0.37720547116442965,2.4970695961436826
1687020069.280435,0.9092671871185303,0.371353417634964,-0.1879626363515854,-0.019511938095092773,0.012832403182983398,0.009831547737121582,-0.019945180043578148,0.08731752634048462,-0.15049375593662262,1.3669487922389747,-0.3804662475531966,2.497113577443684
1687020069.366116,0.9069423675537109,0.37984877824783325,-0.1821276843547821,0.0057315826416015625,-0.013851463794708252,-0.002335771918296814,0.058827731758356094,0.12947097420692444,-0.17449362576007843,1.37261717045484,-0.38963280399475286,2.494603113736217
1687020069.369306,0.9053520560264587,0.3851929306983948,-0.1787850707769394,0.02694469690322876,-0.04864510893821716,-0.01259063184261322,0.07410581409931183,0.07344218343496323,-0.07477156817913055,1.3758291159503275,-0.395416887905726,2.4887348939779295
1687020069.372343,0.9055601954460144,0.38442808389663696,-0.17937694489955902,0.011447370052337646,-0.0193309485912323,0.003855094313621521,0.01150149293243885,-0.0022654877975583076,0.03376849740743637,1.3752437924170833,-0.39458820314378684,2.486543791061075
1687020069.382379,0.9068915843963623,0.3812241852283478,-0.17948795855045319,-0.01524418592453003,-0.007490664720535278,0.017668485641479492,-0.08075446635484695,0.04297482967376709,-0.00424093846231699,1.3754058376797684,-0.3911201137184878,2.487528056542709
1687020069.384556,0.9068930745124817,0.38367751240730286,-0.17417393624782562,-0.0065177083015441895,0.013554573059082031,-0.0016378164291381836,-0.059040579944849014,0.08581909537315369,-0.08008056879043579,1.3810511085255175,-0.39377531923603365,2.4926452599822553
1687020069.3861918,0.9060391187667847,0.3880964517593384,-0.16874320805072784,-0.009936213493347168,-0.011784195899963379,-0.01610177755355835,0.016036657616496086,0.11693453788757324,-0.10850316286087036,1.3866632254404883,-0.398565263023529,2.492315214674833
1687020069.393091,0.9047711491584778,0.3928913176059723,-0.1643953025341034,-0.007447481155395508,-0.02753487229347229,-0.01655864715576172,-0.019765615463256836,0.09701316058635712,-0.08713288605213165,1.39105894807646,-0.40377365202838666,2.4920771181016255
1687020069.421126,0.9044505953788757,0.3940652906894684,-0.1633460372686386,0.014922022819519043,-0.036536574363708496,-0.006957292556762695,0.043050095438957214,0.07727567851543427,0.0010243980213999748,1.3921198523702183,-0.40505061779181434,2.48954562061767
1687020069.428005,0.9057441353797913,0.39077654480934143,-0.1640770435333252,0.02150195837020874,-0.01187029480934143,0.0013268142938613892,0.07800601422786713,0.04116973653435707,0.0709688663482666,1.3915880985844145,-0.401475059294777,2.4861644754587022
1687020069.42946,0.9083871841430664,0.38410913944244385,-0.1652059108018875,0.019743919372558594,0.014557242393493652,-9.250640869140625e-05,0.17515121400356293,0.03250727429986,0.11837978661060333,1.3908952943168074,-0.39424275992762936,2.480105942232959
1687020069.487187,0.9109850525856018,0.37738314270973206,-0.16639827191829681,0.003245413303375244,0.03417700529098511,0.012788042426109314,0.12412012368440628,0.002829805249348283,0.10903662443161011,1.390130467871537,-0.3869688553754975,2.4739169758248925
1687020069.536395,0.9124687910079956,0.3732815086841583,-0.16751694679260254,-0.01326817274093628,0.04548075795173645,0.009908899664878845,0.09546930342912674,0.004646081477403641,0.03935474157333374,1.389231627962313,-0.38254369222434054,2.469467621154041
1687020069.548473,0.9126313924789429,0.37287840247154236,-0.1675289422273636,0.0009886622428894043,0.03561466932296753,0.018236994743347168,0.15510113537311554,0.03317346051335335,-0.018516812473535538,1.38925055187556,-0.3821092171971859,2.4632899665807555
1687020069.550527,0.9118871688842773,0.37485867738723755,-0.16716064512729645,-0.00032716989517211914,0.009266048669815063,0.019409850239753723,0.12007031589746475,0.04006625711917877,-0.046482402831315994,1.389496349099464,-0.38424434486671116,2.4553403806212604
1687020069.5525641,0.9111196994781494,0.3775751292705536,-0.1652204990386963,-0.01378089189529419,0.010394781827926636,0.017484918236732483,0.09093213826417923,0.035217441618442535,-0.05531051382422447,1.3914078188217833,-0.38717619830299305,2.4510529352192427
1687020069.560001,0.910622775554657,0.37949079275131226,-0.16356298327445984,-0.009240388870239258,-0.0038194656372070312,0.01639200747013092,0.17127403616905212,0.07781562954187393,-0.06867346167564392,1.3930747646694286,-0.3892458516929475,2.443634857000188
1687020069.5616798,0.9101393818855286,0.38189002871513367,-0.16064350306987762,0.0053116679191589355,-0.026451826095581055,0.014647439122200012,0.11491256952285767,0.10474112629890442,-0.073582723736763,1.396091440249505,-0.39184047427874197,2.435203203073921
1687020069.623908,0.9097811579704285,0.3844524025917053,-0.1565077155828476,0.008462250232696533,-0.03359180688858032,-0.008805975317955017,0.01803755760192871,0.07400930672883987,-0.058099374175071716,1.4004359155458939,-0.3946145651693258,2.431476944008718
1687020069.663049,0.9100603461265564,0.3847856819629669,-0.1540457308292389,0.009434223175048828,-0.012211829423904419,-0.020148560404777527,0.13479551672935486,0.06380154192447662,-0.007115820422768593,1.403115945167513,-0.3949756163805619,2.4280177101994047
1687020069.66647,0.9106729626655579,0.3826342523097992,-0.15577568113803864,0.011583685874938965,-0.02606678009033203,-0.009858444333076477,0.09616637974977493,0.024153735488653183,0.010105777531862259,1.4013804229059055,-0.39264585261359275,2.4202545744298107
1687020069.66986,0.9110413789749146,0.38066864013671875,-0.15841393172740936,0.005081057548522949,-0.00601959228515625,0.00024133920669555664,0.08346070349216461,0.015297659672796726,0.022372562438249588,1.3986353960970195,-0.3905192666165941,2.415404098500383
1687020069.678679,0.9114724397659302,0.3790789544582367,-0.15974071621894836,-0.0006143450736999512,-0.010075658559799194,-1.87605619430542e-05,0.02165825664997101,0.01487355213612318,-0.0018685944378376007,1.397302595305612,-0.3888007603257637,2.4121358243130397
1687020069.680727,0.9115989208221436,0.37905335426330566,-0.1590784341096878,-0.004326581954956055,0.004766285419464111,0.0004175901412963867,0.03605630248785019,0.034518226981163025,-0.015068551525473595,1.3980311419605418,-0.3887730891353756,2.411498069284603
1687020069.682478,0.9116817116737366,0.3790999948978424,-0.1584918051958084,0.014664113521575928,-0.016566425561904907,-0.009049654006958008,0.006148539483547211,0.02488490752875805,-0.01883186399936676,1.3986710269388056,-0.3888235038554376,2.408603927005018
1687020069.684163,0.9113439917564392,0.37991172075271606,-0.15849071741104126,0.024355530738830566,0.0035721659660339355,-0.02379077672958374,0.005505519453436136,-0.027199599891901016,-0.0015069367364048958,1.3986096597514872,-0.3897008599585339,2.4088880915455597
1687020069.685852,0.9114208221435547,0.37819743156433105,-0.16210700571537018,0.007326066493988037,0.012488603591918945,-0.006792470812797546,0.0695556104183197,-0.06509025394916534,0.036318473517894745,1.394775197987002,-0.38784832395295926,2.4067602680658693
1687020069.6875448,0.9111338257789612,0.3766162097454071,-0.16731813549995422,-0.015610754489898682,0.0055401623249053955,0.013494312763214111,0.04441450163722038,-0.05720743164420128,-0.007538463920354843,1.3891825041764405,-0.3861408320559109,2.4025425831001477
1687020069.723157,0.90975421667099,0.37936320900917053,-0.168614000082016,-0.023066043853759766,0.005142956972122192,0.029209747910499573,-0.054587580263614655,-0.009226856753230095,-0.08712489902973175,1.387535658889063,-0.38910797341083275,2.403404678376365
1687020069.7403731,0.9083382487297058,0.38406825065612793,-0.16556990146636963,-0.004865288734436035,-0.017964094877243042,0.03097212314605713,-0.019007347524166107,0.0632215067744255,-0.10199199616909027,1.390497956185067,-0.3941984579167548,2.4041508924809434
1687020069.7418509,0.9072819948196411,0.3888828754425049,-0.16002969443798065,0.019338488578796387,-0.028027772903442383,0.0013840794563293457,0.005836883559823036,0.08046121150255203,-0.0924922376871109,1.3962084618404442,-0.39941870207183183,2.404896916945653
1687020069.7433019,0.9074980020523071,0.39013394713401794,-0.15570124983787537,0.025256454944610596,-0.034710973501205444,-0.015883788466453552,0.035624273121356964,0.021781791001558304,0.014935152605175972,1.4008787221272934,-0.40077705962730287,2.4038854857022294
1687020069.792017,0.908603310585022,0.38687863945961,-0.1573694497346878,0.0011410117149353027,0.0008929967880249023,-0.014688611030578613,0.014413593336939812,-0.04993913322687149,0.065859854221344,1.3992983888820802,-0.3972442231319759,2.4033325049611896
1687020069.850317,0.9096150994300842,0.3826601505279541,-0.16177710890769958,-0.007744312286376953,0.011749058961868286,-0.005962729454040527,0.04533049464225769,-0.0345415323972702,0.04800868406891823,1.3947844960729554,-0.39267387070571225,2.401217165295986
1687020069.861288,0.9093173146247864,0.38227522373199463,-0.16434010863304138,0.004089057445526123,0.0019715726375579834,-0.0009583085775375366,-0.03795440495014191,-0.026544328778982162,-0.036022305488586426,1.3919972450986513,-0.39225728770665863,2.4001268701551495
1687020069.864615,0.9081102013587952,0.3849972188472748,-0.16466034948825836,0.002946317195892334,-0.0022762715816497803,-0.007901251316070557,-0.11851036548614502,-0.039609529078006744,-0.03015296347439289,1.391423185563719,-0.3952048043680991,2.4040831475565945
1687020069.867837,0.9074405431747437,0.38603222370147705,-0.16592489182949066,-0.000519096851348877,0.00952136516571045,-0.012587666511535645,-0.00367026892490685,-0.05790531262755394,-0.011518292129039764,1.3899448616707604,-0.3963265313340627,2.4070148143120806
1687020069.8711019,0.906623363494873,0.3865353465080261,-0.16918852925300598,0.005837082862854004,-0.00541648268699646,-0.004792168736457825,-0.0532875582575798,-0.07763680815696716,-0.01721825636923313,1.3863045172190225,-0.39687196877378716,2.4076512400948533
1687020069.906034,0.9055315256118774,0.3874772787094116,-0.17284101247787476,-0.0004869699478149414,-0.0033067166805267334,0.006230294704437256,-0.08565860986709595,-0.09283293783664703,0.00120469368994236,1.3821924689420337,-0.3978935148538939,2.4105492212374364
1687020069.9141278,0.9047548770904541,0.3881637752056122,-0.175349622964859,-0.004547417163848877,0.0026290714740753174,0.01517815887928009,-0.06901844590902328,-0.075426384806633,-0.01497960276901722,1.3793606995095635,-0.3986383125918194,2.4148551636282005
1687020069.9158502,0.9039382338523865,0.38996249437332153,-0.17556998133659363,-0.01139068603515625,-0.006371825933456421,0.02791072428226471,-0.06513489782810211,-0.03169115260243416,-0.0481514036655426,1.378957016215052,-0.40059087802903054,2.417891947377787
1687020069.917547,0.9030076861381531,0.39320704340934753,-0.173105388879776,0.005637943744659424,-0.008899182081222534,0.014063060283660889,-0.07824403792619705,0.0030162264592945576,-0.04981428012251854,1.381395388163733,-0.4041170078890468,2.4224440574019006
1687020069.919038,0.902708888053894,0.39520102739334106,-0.17009752988815308,0.007752716541290283,-0.011442422866821289,-0.0006330758333206177,0.002065847162157297,-0.0011771868448704481,-0.014571339823305607,1.3845500098702759,-0.4062866988792417,2.424955623020875
1687020069.9640222,0.9031620621681213,0.3942583501338959,-0.16987819969654083,0.004506945610046387,-0.014238178730010986,-0.004316076636314392,-0.03244931995868683,-0.036338504403829575,0.03866977617144585,1.3848758537707073,-0.40526067985476233,2.4254963066992765
1687020069.966356,0.9036810994148254,0.392837256193161,-0.17040976881980896,-0.00989753007888794,0.012466728687286377,-0.005524039268493652,-0.04995400831103325,-0.027205457910895348,0.020307548344135284,1.3844121134262346,-0.40371484634496135,2.4284488391143406
1687020069.967918,0.9035214781761169,0.3933563530445099,-0.170058935880661,-0.020556211471557617,0.006149321794509888,-0.0015108734369277954,-0.05962361767888069,0.0024838605895638466,-0.028730567544698715,1.3847549178634952,-0.4042794014208002,2.431322869825679
1687020069.969388,0.9027698636054993,0.3956531584262848,-0.16871659457683563,-0.0024555325508117676,-0.00644722580909729,-0.011977970600128174,-0.0779377743601799,0.01080863643437624,-0.024170704185962677,1.38603993504847,-0.4067789452187329,2.434209476691871
1687020069.9749842,0.9020826816558838,0.3978460729122162,-0.1672286093235016,-0.0006239414215087891,-0.0201757550239563,-0.025306761264801025,-0.10554324090480804,-0.007855196483433247,-0.02357735112309456,1.3874966062825604,-0.4091679112314597,2.4387574167922246
1687020070.024401,0.9019737839698792,0.3977554738521576,-0.1680290251970291,0.005634188652038574,-0.01057898998260498,-0.018051907420158386,-0.007739512715488672,-0.02176954783499241,0.03958137705922127,1.3866171926797812,-0.40906918366882355,2.440883223398997
1687020070.030077,0.9023892283439636,0.39527827501296997,-0.1716058999300003,0.008560359477996826,-0.011763900518417358,-0.0005894750356674194,-0.09000442177057266,-0.06695246696472168,0.05704745277762413,1.382871876059125,-0.40637078735146176,2.442383336924588
1687020070.031554,0.9027674198150635,0.3933064341545105,-0.1741296499967575,-0.0041620731353759766,0.03216966986656189,0.011287868022918701,-0.023608623072504997,-0.042563509196043015,0.0424775667488575,1.3802520711429818,-0.4042250939881437,2.447073571030397
1687020070.070308,0.9034029245376587,0.3911724090576172,-0.1756342202425003,0.008889555931091309,0.014604568481445312,0.020772814750671387,0.026051141321659088,-0.023929238319396973,0.03452802821993828,1.3787775983303374,-0.40190518132090297,2.4461606449582827
1687020070.079581,0.9036218523979187,0.39090391993522644,-0.175105020403862,0.0015753507614135742,0.03020814061164856,0.019083917140960693,0.057715725153684616,0.0008805044926702976,0.010702058672904968,1.379387369598917,-0.40161346297020106,2.445927081172716
1687020070.0813231,0.9037990570068359,0.39136311411857605,-0.17315447330474854,-0.005483448505401611,0.019098371267318726,0.015622720122337341,0.024420488625764847,0.02248859405517578,-0.023785345256328583,1.3815049048779893,-0.40211240423962047,2.4441877392270936
1687020070.083013,0.9032704830169678,0.3938613831996918,-0.1702222228050232,-0.0028798580169677734,0.008879095315933228,0.006525933742523193,-0.036119021475315094,0.013321194797754288,-0.05384470894932747,1.384529838553202,-0.4048287807132316,2.4449359315939128
1687020070.089343,0.9024806022644043,0.3965906500816345,-0.16806134581565857,-0.008315563201904297,0.011490404605865479,-0.003920435905456543,0.02990506961941719,0.02980176731944084,-0.052746422588825226,1.3866836809993166,-0.4077999328720582,2.44499439021067
1687020070.1385012,0.9014031887054443,0.3996394872665405,-0.16661427915096283,-0.0018213987350463867,-0.004772603511810303,-0.008770212531089783,-0.03567726910114288,0.02124662883579731,-0.07887628674507141,1.3880204479928306,-0.4111235387090202,2.4444483984034306
1687020070.142046,0.8997759222984314,0.4036615490913391,-0.16571281850337982,0.0037274956703186035,-0.010671436786651611,-0.00838993489742279,-0.04814372584223747,0.017282381653785706,-0.07970267534255981,1.3886660395945323,-0.4155154379809972,2.445266087975495
1687020070.1448479,0.898244321346283,0.40715402364730835,-0.16547854244709015,-0.0016224384307861328,-0.011813998222351074,-0.014742985367774963,-0.02412733994424343,0.013923335820436478,-0.0656835287809372,1.3886145726524481,-0.41933594689288806,2.44605765264038
1687020070.1463408,0.8971436619758606,0.4093172252178192,-0.16611072421073914,0.00475764274597168,-0.018768519163131714,-0.0055201053619384766,-0.006746552884578705,0.0027070336509495974,-0.0402066633105278,1.3877145926917929,-0.4217056151374719,2.4458022815612663
1687020070.1477041,0.8964595794677734,0.4103224575519562,-0.16731980443000793,0.0004673600196838379,-0.020735055208206177,0.008353769779205322,-0.006885969080030918,0.0037326167803257704,-0.020302727818489075,1.386274343184827,-0.4228076323265394,2.4446967020040735
1687020070.1751208,0.8965867757797241,0.40996041893959045,-0.167525514960289,-0.004329025745391846,-0.005098938941955566,0.005828142166137695,0.057644687592983246,0.02546454407274723,0.0069864168763160706,1.3860782290286053,-0.42241066373025626,2.443617040235003
1687020070.187021,0.897287130355835,0.40877071022987366,-0.16668038070201874,0.005621194839477539,-0.0047942399978637695,0.013711035251617432,0.03473338112235069,0.02576042152941227,0.012366268783807755,1.3871294681503217,-0.42110669907298637,2.4410526873227907
1687020070.192155,0.8978114724159241,0.40830695629119873,-0.16498523950576782,-0.003066539764404297,0.003298938274383545,0.0028300881385803223,-0.020749453455209732,0.03003399446606636,0.0017687510699033737,1.3890601182186166,-0.420598603334028,2.4414090210156907
1687020070.207368,0.8981391191482544,0.40887418389320374,-0.1617654412984848,-0.0026313066482543945,-0.004195839166641235,-0.016579270362854004,-0.04203616827726364,0.033762551844120026,-0.016565781086683273,1.3925951226287911,-0.4212200810237979,2.443245726899981
1687020070.224608,0.8978673815727234,0.4101054072380066,-0.16014917194843292,0.0029962658882141113,-0.007349669933319092,-0.028495192527770996,-0.029306257143616676,0.01387459971010685,-0.007385066244751215,1.3942863903166092,-0.4225696182127082,2.445372606625073
1687020070.2260818,0.8977664113044739,0.4097885489463806,-0.1615200787782669,0.004851937294006348,-0.010313451290130615,-0.016031190752983093,0.012436929158866405,-0.002125937957316637,0.01894267648458481,1.3927874215921692,-0.4222222345910874,2.444833338953025
1687020070.231859,0.8977983593940735,0.4085254669189453,-0.16451549530029297,0.00321805477142334,-0.009096086025238037,-0.011250510811805725,-0.03419768437743187,-0.03064919263124466,0.027791827917099,1.3895636977662325,-0.4208379873770418,2.444588268334664
1687020070.295981,0.8982757329940796,0.4064260721206665,-0.167088583111763,0.00267946720123291,0.0006326436996459961,-0.0018567442893981934,-0.04068727418780327,-0.04613227769732475,0.054312121123075485,1.3868878307156938,-0.41853909583386106,2.4461999166091997
1687020070.299346,0.8988821506500244,0.4041201174259186,-0.16940449178218842,0.0018289685249328613,0.011361449956893921,0.0011610984802246094,-0.031808096915483475,-0.05064859986305237,0.04976237937808037,1.3845198851867224,-0.416016705311352,2.448401632340306
1687020070.302549,0.8992605209350586,0.4025913178920746,-0.17102830111980438,-0.002303183078765869,0.008449912071228027,0.00759144127368927,-0.007267001084983349,-0.040134575217962265,0.03292267397046089,1.3828532056435694,-0.4143459566284053,2.4497161736504833
1687020070.311775,0.8994576334953308,0.4017256498336792,-0.17202463746070862,-0.0035683512687683105,0.007469296455383301,0.007107675075531006,-0.0539858378469944,-0.04937560856342316,0.022169630974531174,1.38182459786449,-0.41340045744478354,2.4515736124473584
1687020070.315084,0.8993536829948425,0.40170615911483765,-0.1726132035255432,-0.0062413811683654785,0.016445785760879517,0.009161040186882019,-0.01767110638320446,-0.03637991473078728,0.006121154874563217,1.381172016908545,-0.4133791835385127,2.454204427430163
1687020070.3168402,0.8992069959640503,0.40195006132125854,-0.1728093922138214,-0.006186306476593018,0.008023083209991455,0.012775242328643799,-0.05695252865552902,-0.03714543953537941,0.005815690383315086,1.3809314050416257,-0.41364553304493173,2.456049482207172
1687020070.318181,0.8987699747085571,0.40332189202308655,-0.17188413441181183,-0.0068631768226623535,0.01298367977142334,0.01018679141998291,-0.04789452254772186,-0.019198797643184662,-0.020130421966314316,1.38183423829947,-0.4151441924911353,2.459887022375871
1687020070.3195128,0.8983157873153687,0.40508943796157837,-0.17009228467941284,-0.005432486534118652,-0.0016317963600158691,0.009676650166511536,-0.04322853311896324,0.0002745022065937519,-0.027952659875154495,1.3836658971105693,-0.41707663709186044,2.462145585425491
1687020070.320754,0.8978701829910278,0.4065888226032257,-0.16886290907859802,0.003405451774597168,-0.010516434907913208,0.00568544864654541,-0.033623043447732925,-0.008366123773157597,-0.011964371427893639,1.3848972966091335,-0.4187172118264843,2.4643714481015624
1687020070.4159188,0.897890031337738,0.406897634267807,-0.16801169514656067,0.011167585849761963,-0.0011511743068695068,0.006650030612945557,-0.028504712507128716,-0.004868061747401953,-0.0007402133196592331,1.385817093270357,-0.41905525574719604,2.46618546258792
1687020070.420834,0.897778332233429,0.40772566199302673,-0.16659563779830933,-0.0029417872428894043,0.0013320446014404297,-0.004607990384101868,-0.06460771709680557,-0.00026798370527103543,-0.022164545953273773,1.3873189608361283,-0.41996189434859743,2.4690481471128325
1687020070.429421,0.8975207805633545,0.40889063477516174,-0.16512173414230347,-0.009413361549377441,-0.005799144506454468,-0.007867172360420227,-0.040552251040935516,-0.004561665002256632,-0.02171766757965088,1.3888554550566374,-0.42123811276156453,2.4712871129297826
1687020070.4326181,0.8969250321388245,0.4101696014404297,-0.16518649458885193,0.0008411407470703125,0.0011005699634552002,-0.0022939443588256836,-0.01987733505666256,-0.014999392442405224,-0.013998759910464287,1.3886674158985874,-0.4226400105554106,2.473424913118004
1687020070.435874,0.8965872526168823,0.41051599383354187,-0.1661568284034729,0.0014535784721374512,-0.016122043132781982,0.0112038254737854,-0.04790657386183739,-0.0034367460757493973,-0.010347832925617695,1.3875537908109539,-0.423019865707194,2.4737103461848755
1687020070.439302,0.8962821960449219,0.41151389479637146,-0.1653314232826233,0.0011634230613708496,0.00367775559425354,0.003679826855659485,-0.030676785856485367,-0.0034432706888765097,-0.009672455489635468,1.3883832885581135,-0.42411451000538686,2.4765155920239446
1687020070.440701,0.8965027928352356,0.41143694519996643,-0.16432443261146545,-0.007586777210235596,0.0008097589015960693,0.007921874523162842,0.008037254214286804,0.011642870493233204,0.0024036485701799393,1.3895136979380969,-0.4240300803333748,2.476860687980808
1687020070.465568,0.8965204358100891,0.412030428647995,-0.16273340582847595,0.0007269978523254395,0.0036343038082122803,0.005476340651512146,-0.056622497737407684,0.01009038183838129,-0.012553196400403976,1.3912347062781458,-0.4246813219330758,2.478628743542971
1687020070.467989,0.8966160416603088,0.4126363694667816,-0.16065829992294312,-0.0010166168212890625,0.0076212286949157715,0.0033707022666931152,-0.00056475680321455,0.026358433067798615,-0.005218850914388895,1.3934949142704023,-0.4253464313505051,2.4806439147835753
1687020070.469472,0.8965619206428528,0.4135341942310333,-0.15863865613937378,-0.002579987049102783,0.0006198883056640625,-0.005118668079376221,-0.040510840713977814,0.029318271204829216,-0.026454098522663116,1.3956678618370573,-0.42633231196806676,2.4813877914837903
1687020070.536179,0.8960498571395874,0.4155043363571167,-0.15636880695819855,-0.002693355083465576,-0.0014875531196594238,-0.010180845856666565,-0.04713192582130432,0.02678733505308628,-0.0330536775290966,1.39802706294579,-0.4284972001640513,2.483927258574547
1687020070.5443401,0.8954159021377563,0.4172976613044739,-0.15521909296512604,0.003235161304473877,-0.008301079273223877,-0.013222679495811462,-0.025435619056224823,0.020204933360219002,-0.02947731874883175,1.399153448042535,-0.4304696502485252,2.4853871721329113
1687020070.547533,0.8948352336883545,0.41858986020088196,-0.15508851408958435,0.004258394241333008,-0.01485753059387207,-0.007692217826843262,-0.058130715042352676,0.0029796080198138952,-0.023240728303790092,1.399185897468422,-0.4318920376455463,2.486625581422973
1687020070.55074,0.8943051695823669,0.4196832478046417,-0.15519040822982788,0.003247201442718506,-0.007009327411651611,-0.008887320756912231,-0.04383806139230728,-0.0006766457809135318,-0.016698939725756645,1.3989755572749678,-0.43309630658096204,2.489146043789271
1687020070.554048,0.894059956073761,0.42024824023246765,-0.15507562458515167,0.0007918477058410645,-0.0033627748489379883,-0.004012539982795715,-0.035219207406044006,0.0035970620810985565,-0.009914802387356758,1.3990539972074527,-0.43371885909482405,2.490891247043907
1687020070.556532,0.8937547206878662,0.4208284616470337,-0.15526145696640015,0.00517117977142334,-0.011541873216629028,-0.007946565747261047,-0.047443315386772156,-0.005434915889054537,-0.00884687528014183,1.3987946483301004,-0.434358393428814,2.492341545303649
1687020070.5580359,0.8937122821807861,0.42082521319389343,-0.15551407635211945,0.005518734455108643,-0.005725115537643433,-0.005588173866271973,-0.03396858647465706,-0.017122862860560417,0.001927209086716175,1.3985122663984693,-0.4343548167919939,2.4941651998726675
1687020070.595021,0.8936208486557007,0.4206763803958893,-0.15643984079360962,0.003245115280151367,-0.00839906930923462,-0.0016564875841140747,-0.02310495264828205,-0.016285432502627373,0.0027293534949421883,1.397489642076936,-0.43419076352858715,2.495543910170145
1687020070.653153,0.8934661149978638,0.4207301735877991,-0.15717713534832,0.005322396755218506,-0.006469279527664185,-0.002475559711456299,-0.04215141758322716,-0.02183053269982338,-0.008156850002706051,1.3966596857403328,-0.4342500347373545,2.496872467798533
1687020070.663159,0.8931241631507874,0.42148515582084656,-0.15709754824638367,0.0007967948913574219,-0.00986403226852417,-0.007422685623168945,-0.05487839877605438,-0.024492628872394562,-0.01260672602802515,1.3966807814139548,-0.43508242500123284,2.4997277045270287
1687020070.666506,0.8931918740272522,0.42093732953071594,-0.1581776738166809,0.011516988277435303,-0.015007734298706055,-0.015619933605194092,0.006176835857331753,-0.047747354954481125,0.041133735328912735,1.3955209736784382,-0.43447840136269605,2.5008595823502313
1687020070.670158,0.8939526677131653,0.4180288016796112,-0.16155654191970825,0.006270051002502441,-0.008727043867111206,-0.0015293806791305542,-0.042133305221796036,-0.0923856645822525,0.08253151178359985,1.392004550154785,-0.43127433284787137,2.5027061007835063
1687020070.676725,0.8951587677001953,0.4138478636741638,-0.16559171676635742,-0.006212294101715088,0.014741003513336182,0.014606013894081116,-0.02548881433904171,-0.0755867063999176,0.08443327248096466,1.3878782319805176,-0.4266768201604883,2.5052060595566052
1687020070.718193,0.8961131572723389,0.41086021065711975,-0.16785527765750885,-0.0024973154067993164,0.020017534494400024,0.012688681483268738,0.01536980178207159,-0.056039903312921524,0.05126413330435753,1.3856272760298347,-0.4233973834282566,2.506549193070887
1687020070.7247891,0.8967985510826111,0.4091067910194397,-0.16847622394561768,-0.0028623342514038086,0.014233052730560303,0.020160794258117676,-0.028607575222849846,-0.05429886281490326,0.03739199414849281,1.385096701143068,-0.4214749876600156,2.507966533503648
1687020070.726493,0.8970664739608765,0.40854910016059875,-0.16840271651744843,-0.003435492515563965,0.015706270933151245,0.013831213116645813,-0.0036561540327966213,-0.02548559010028839,0.02101142331957817,1.3852300375251987,-0.4208638673496251,2.5097451968854276
1687020070.72819,0.897020161151886,0.40920162200927734,-0.16705940663814545,0.0038434863090515137,0.0038385391235351562,0.006308078765869141,-0.03965097293257713,-0.026067355647683144,-0.014688785187900066,1.386667623621021,-0.4215789053325923,2.511403352494723
1687020070.7714,0.8964965343475342,0.41084063053131104,-0.1658436506986618,0.0015137791633605957,0.014803320169448853,0.006786048412322998,-0.030657945200800896,-0.017791716381907463,-0.025351282209157944,1.387873411214348,-0.4233759032212519,2.5143449762657055
1687020070.778191,0.895879328250885,0.41257497668266296,-0.16487053036689758,0.004419803619384766,0.002952396869659424,0.004027664661407471,-0.03995996341109276,-0.0043725804425776005,-0.0361514687538147,1.3888006161054438,-0.4252790274945581,2.516356719990035
1687020070.7798839,0.8946674466133118,0.41573673486709595,-0.1635027676820755,-0.0029438138008117676,0.007603108882904053,-0.009074077010154724,-0.02817288413643837,0.02167593128979206,-0.10133126378059387,1.3900384878615828,-0.42875272058750785,2.517645848736597
1687020070.781372,0.8921753764152527,0.4221345782279968,-0.16070306301116943,-0.0017945170402526855,-0.021606653928756714,-0.015978440642356873,-0.09610386192798615,0.031750135123729706,-0.14970625936985016,1.392582346987347,-0.4357987078179067,2.52032045413241
1687020070.782866,0.8894763588905334,0.42803147435188293,-0.16006524860858917,0.017124593257904053,-0.041648417711257935,-0.027465209364891052,0.03497439622879028,0.015250789001584053,-0.10096748173236847,1.3927474899991963,-0.44231351446850053,2.51946656690951
1687020070.9102058,0.8881852626800537,0.4296587109565735,-0.16285067796707153,0.01666092872619629,-0.048219501972198486,-0.019919082522392273,-0.018755611032247543,-0.06023504585027695,-0.0043344153091311455,1.3894583428924452,-0.44411478623195455,2.5180779591768268
1687020070.960998,0.8887373805046082,0.42604827880859375,-0.16920046508312225,0.02012193202972412,-0.03719329833984375,-0.009678304195404053,0.03588899224996567,-0.09378927946090698,0.10209508240222931,1.382664777414137,-0.44012028520702134,2.5159059139346485
1687020070.9647431,0.8906747698783875,0.4193457365036011,-0.1756347268819809,0.0025289058685302734,0.003536313772201538,0.0035156160593032837,-0.015882527455687523,-0.13234825432300568,0.12738287448883057,1.3761013720323285,-0.4327245137995662,2.5169735825078425
1687020070.9679751,0.8920583128929138,0.41440123319625854,-0.18028783798217773,-0.003340601921081543,0.009426891803741455,0.007359981536865234,-0.06184303015470505,-0.1087072417140007,0.06513094902038574,1.3713792717162219,-0.4272847978918057,2.5193494349083676
1687020070.9940062,0.8919291496276855,0.4137701392173767,-0.18236485123634338,0.0005422830581665039,0.005602478981018066,-0.0031820088624954224,-0.05364308878779411,-0.11301876604557037,0.024983525276184082,1.3691149158071396,-0.42659146793845604,2.5238725018590156
1687020070.9972348,0.8915532827377319,0.4132542312145233,-0.18534773588180542,0.0001398921012878418,-0.008652180433273315,0.0003501772880554199,-0.03992301598191261,-0.13827484846115112,0.05705144628882408,1.365822929262245,-0.4260248322384954,2.5283838973196926
1687020071.016062,0.8917951583862305,0.41136977076530457,-0.18835149705410004,-0.026972830295562744,-0.042702168226242065,0.019238382577896118,-0.1918366402387619,-0.12847308814525604,0.06220280006527901,1.3626504164326172,-0.4239563568862859,2.535381741625859
1687020071.019619,0.8918822407722473,0.41110989451408386,-0.1885070949792862,-0.017614543437957764,-0.0580061674118042,0.022110015153884888,-0.25706738233566284,-0.1141456812620163,0.05741603299975395,1.3625031441950908,-0.4236712601377317,2.548607406868453
1687020071.022671,0.8926369547843933,0.4102288782596588,-0.18684634566307068,-0.00031822919845581055,-0.06408324837684631,0.032946228981018066,-0.318209171295166,-0.10445576906204224,0.10272306203842163,1.3644559570013426,-0.4227050291428543,2.565699700757331
1687020071.024569,0.8944676518440247,0.407634973526001,-0.18374234437942505,-0.0030492544174194336,-0.047237664461135864,0.019710376858711243,-0.2715798020362854,-0.05689797177910805,0.16008995473384857,1.368193847828817,-0.419862595841881,2.5846069902520847
1687020071.0713181,0.8976417183876038,0.40097424387931824,-0.1829179972410202,0.00030750036239624023,-0.035617828369140625,0.01226373016834259,-0.2526176869869232,-0.11182300746440887,0.2024478018283844,1.3697724830983784,-0.41258009331032397,2.597955779938372
1687020071.079327,0.9006773829460144,0.39448705315589905,-0.18209996819496155,-0.01936018466949463,-0.01294100284576416,0.010102927684783936,-0.34078019857406616,-0.11230557411909103,0.22467640042304993,1.371304410970389,-0.40550955256311266,2.617211779896049
1687020071.0810652,0.9041051268577576,0.38662323355674744,-0.18197952210903168,-0.016440272331237793,0.05913180112838745,-0.02412092685699463,-0.15807901322841644,-0.10126157104969025,0.19504740834236145,1.3721689727256507,-0.3969672708986721,2.6324220050415423
1687020071.0829601,0.9061982035636902,0.38088545203208923,-0.18365995585918427,-0.02417922019958496,0.12875807285308838,-0.07515959441661835,-0.04892762750387192,-0.09167073667049408,0.12705770134925842,1.3708339686731739,-0.3907537489209609,2.640916030948027
1687020071.084704,0.9066070318222046,0.3758663833141327,-0.19180212914943695,0.009454309940338135,0.2202945053577423,-0.12327657639980316,0.2803831100463867,-0.1813967525959015,0.0053360555320978165,1.3623101286412225,-0.38533152678758814,2.633739669134104
1687020071.086432,0.9017380475997925,0.3801553547382355,-0.20579227805137634,0.05166161060333252,0.15823578834533691,-0.14320671558380127,-0.21262961626052856,-0.39091840386390686,-0.20248371362686157,1.3464216735506904,-0.3899642519457055,2.629731854111665
1687020071.131443,0.8919333219528198,0.3930497169494629,-0.22353288531303406,0.051853299140930176,0.0738692581653595,-0.13614726066589355,-0.40001773834228516,-0.692126452922821,-0.19763942062854767,1.3252378488816623,-0.403945904783363,2.6441888324925236
1687020071.134581,0.8804304599761963,0.4018329977989197,-0.2517384886741638,0.03839266300201416,0.036124736070632935,-0.034226447343826294,0.04651753604412079,-0.7358710169792175,-0.06878770887851715,1.2923003878312436,-0.41351769814254125,2.6565442408878654
1687020071.136283,0.8703333139419556,0.4010315239429474,-0.2858211398124695,0.025296568870544434,-0.04527285695075989,0.14385336637496948,0.5335667729377747,-0.4821874797344208,-0.11302840709686279,1.2534885039439383,-0.41264260585288604,2.6376840772849204
1687020071.137981,0.8633340001106262,0.39710506796836853,-0.31138694286346436,0.021126389503479004,-0.08416256308555603,0.32823267579078674,0.9875092506408691,0.024240821599960327,-0.20692400634288788,1.2246392681936755,-0.4083603697283288,2.5954817832843746
1687020071.1952481,0.8648957014083862,0.3887244462966919,-0.31756719946861267,0.00790703296661377,-0.185004323720932,0.38134896755218506,0.6915485858917236,0.4599282443523407,-0.025472190231084824,1.2189044125550503,-0.3992467401890445,2.547033010631234
1687020071.198649,0.8768563270568848,0.3717724680900574,-0.30480873584747314,-0.01738971471786499,-0.1249157190322876,0.22939980030059814,0.7510342597961426,0.6662009954452515,0.31490564346313477,1.236247483852076,-0.38091759877848536,2.5149706082982726
1687020071.202755,0.8952202796936035,0.34090670943260193,-0.2869899570941925,0.028195858001708984,-0.06455481052398682,0.14909633994102478,0.717090368270874,0.7321327328681946,0.5667570233345032,1.2605670795813344,-0.34788121014561263,2.4857526374377925
1687020071.206406,0.9162716865539551,0.29995885491371155,-0.26546332240104675,0.061892926692962646,0.011961281299591064,-0.004830807447433472,0.9200905561447144,0.7820170521736145,0.7277224659919739,1.288796109091525,-0.3046495137843895,2.4542013750618215
1687020071.211642,0.9368796944618225,0.250438928604126,-0.24400168657302856,0.01423114538192749,0.05603387951850891,-0.13180702924728394,1.1815930604934692,0.7426154613494873,0.7969502806663513,1.3160154398763118,-0.2531335990681697,2.4117299858697483
1687020071.213124,0.9537527561187744,0.20129624009132385,-0.2232389599084854,-0.016496896743774414,0.12618792057037354,-0.17722797393798828,1.2604610919952393,0.6886422634124756,0.6782617568969727,1.3408717938796624,-0.20268107158044202,2.3630441819927834
1687020071.250897,0.9654366374015808,0.15942253172397614,-0.20619601011276245,-0.05192333459854126,0.14430367946624756,-0.26607879996299744,1.7102165222167969,0.5646677017211914,0.32878950238227844,1.36037975253818,-0.16010568085204616,2.290243313745409
1687020071.254077,0.9715915322303772,0.13534769415855408,-0.1941416710615158,-0.05444669723510742,0.1427590250968933,-0.2108418345451355,1.3852592706680298,0.3872717618942261,0.09534317255020142,1.3735755713987787,-0.13576437610285344,2.2188462573725256
1687020071.255581,0.9743064045906067,0.12146253138780594,-0.18966786563396454,-0.01588660478591919,0.07491809129714966,-0.16119270026683807,1.2436972856521606,0.15399308502674103,-0.03183101862668991,1.3785313365791056,-0.12176319410062399,2.149847874730294
1687020071.260598,0.9751459360122681,0.11071328818798065,-0.19191989302635193,-0.01021045446395874,0.14275048673152924,-0.06181851029396057,1.5082006454467773,0.10788485407829285,0.01781003549695015,1.376468541714294,-0.11094072131925937,2.087300007775051
1687020071.261936,0.9769155383110046,0.0907837450504303,-0.19337715208530426,-0.025331497192382812,0.1040557324886322,0.010805755853652954,2.2303144931793213,0.22577792406082153,0.08569666743278503,1.375375915208463,-0.09090890881921834,1.9968258489610242
1687020071.3087192,0.980113685131073,0.05997452884912491,-0.18915626406669617,-0.06086325645446777,0.0744858980178833,0.10555341839790344,2.7683138847351074,0.3909958004951477,0.17836377024650574,1.3801460979492988,-0.060010542107448855,1.8730341642743507
1687020071.317449,0.9841055870056152,0.031735170632600784,-0.1747254878282547,-0.07198101282119751,-0.030239805579185486,0.1851014643907547,1.7932043075561523,0.38972172141075134,-0.07567623257637024,1.3950799289996938,-0.03174050078141075,1.7520290540255374
1687020071.318798,0.9865493774414062,0.035623595118522644,-0.15953455865383148,-0.05747222900390625,-0.011453695595264435,0.11702360212802887,0.34990590810775757,0.30049678683280945,-0.47459325194358826,1.4104745279546707,-0.035631134979629706,1.697536354530543
1687020071.320135,0.9869176149368286,0.06902361661195755,-0.1457027643918991,-0.03457087278366089,0.06607768684625626,-0.015109583735466003,-0.17718173563480377,0.27478504180908203,-0.8632842898368835,1.4242209476247487,-0.06907854280511833,1.6908551337880648
1687020071.3257818,0.9840966463088989,0.11683706194162369,-0.13380283117294312,0.05389779806137085,0.0048059821128845215,-0.11786037683486938,-0.6743549704551697,0.11217040568590164,-0.9711710810661316,1.4356598554670807,-0.11710453170233195,1.7035344972743998
1687020071.327142,0.9766025543212891,0.1730499267578125,-0.1276768296957016,0.07460600137710571,0.054458603262901306,-0.1601496934890747,-0.7790705561637878,-0.0826769694685936,-1.1498215198516846,1.4407979040568204,-0.17392547043466994,1.7360265302198716
1687020071.372227,0.9629429578781128,0.2381535768508911,-0.1265854388475418,0.09623068571090698,-0.03803457319736481,-0.1626448631286621,-0.7522349953651428,-0.1959192454814911,-1.304137945175171,1.4400889557001022,-0.24046427855916516,1.7645968951349047
1687020071.378051,0.9446516633033752,0.3022458255290985,-0.12759661674499512,0.0789690613746643,-0.041366249322891235,-0.13139082491397858,-0.8313957452774048,-0.29167747497558594,-1.1062413454055786,1.4365362391219356,-0.30704779085796047,1.7983917271677583
1687020071.37942,0.9261253476142883,0.35375168919563293,-0.1309642642736435,0.10092848539352417,-0.08579209446907043,-0.07574653625488281,-0.7363294959068298,-0.38396477699279785,-0.9082738757133484,1.4303168386152414,-0.3615791098555105,1.8317500816648347
1687020071.470072,0.9077891111373901,0.39682573080062866,-0.1358237862586975,0.06701856851577759,-0.12216758728027344,-0.052118703722953796,-0.7064224481582642,-0.41958948969841003,-0.7428955435752869,1.422277639903188,-0.40805605698265324,1.8643885919640322
1687020071.481271,0.891193687915802,0.4311525225639343,-0.14100106060504913,0.0542561411857605,-0.1566316783428192,-0.009160622954368591,-0.7099767923355103,-0.44386446475982666,-0.5775052905082703,1.4138810547758955,-0.4457697402277219,1.8964511155475683
1687020071.485312,0.8771857023239136,0.4579574465751648,-0.1442922204732895,0.053096890449523926,-0.16831514239311218,0.0055745989084243774,-0.7067815065383911,-0.4163767695426941,-0.40665203332901,1.4077618504836307,-0.4756961824162602,1.9318010370043457
1687020071.493732,0.8670296669006348,0.47553592920303345,-0.14874546229839325,0.04712444543838501,-0.17188602685928345,0.016207635402679443,-0.3927769362926483,-0.36402302980422974,-0.19891294836997986,1.4008927913781637,-0.4955731436613545,1.9598762581357072
1687020071.526143,0.8622903227806091,0.4813472330570221,-0.1573544591665268,0.03364473581314087,-0.18033704161643982,0.014440655708312988,-0.24818387627601624,-0.34453654289245605,0.014059772714972496,1.3902980910717235,-0.5021910617134925,1.9740433460645923
1687020071.533611,0.8622632622718811,0.47873932123184204,-0.16525955498218536,0.026240766048431396,-0.12710052728652954,0.037726640701293945,-0.34346771240234375,-0.3712140917778015,0.2084638774394989,1.3814347498522723,-0.49921824065091275,1.992751863441611
1687020071.5356688,0.8650888800621033,0.4711499512195587,-0.17215979099273682,0.014458239078521729,-0.11763432621955872,0.024180054664611816,-0.6129733920097351,-0.4269828200340271,0.3128935992717743,1.3743546003685279,-0.4905940436383901,2.0203148038005767
1687020071.592803,0.8694603443145752,0.46192270517349243,-0.1751180738210678,0.015732645988464355,-0.02208802103996277,0.01567898690700531,-0.7410619258880615,-0.448504239320755,0.36191922426223755,1.3720452950133364,-0.4801618379866396,2.063048909035951
1687020071.600549,0.8730828762054443,0.45352402329444885,-0.17900404334068298,0.01691657304763794,0.017301201820373535,0.009784102439880371,-0.6955887675285339,-0.45621103048324585,0.2998307943344116,1.3685734819230262,-0.4707154332458913,2.1052227865401734
1687020071.602604,0.8749715685844421,0.44797757267951965,-0.1836867332458496,0.007840871810913086,0.05243441462516785,0.019685283303260803,-0.621509850025177,-0.4357728362083435,0.2270873636007309,1.3638668603829271,-0.46450195815029427,2.1448892861210713
1687020071.609604,0.8752743601799011,0.4452045261859894,-0.18891218304634094,-0.001479804515838623,0.09468197822570801,0.037148311734199524,-0.44255906343460083,-0.35697510838508606,0.12165388464927673,1.3582250913278493,-0.46140265331138036,2.177617251380644
1687020071.611289,0.8742169141769409,0.44379010796546936,-0.19696500897407532,-0.0017040371894836426,0.08578145503997803,0.018986523151397705,-0.11095551401376724,-0.28201231360435486,0.04826541244983673,1.3491920631432743,-0.4598236824842155,2.192289699265921
1687020071.612977,0.8718844652175903,0.4439237415790558,-0.20675954222679138,-0.008130013942718506,0.06517058610916138,0.04011830687522888,-0.07926049828529358,-0.26561403274536133,-0.006275060586631298,1.337956385741357,-0.4599728005261678,2.197980957904182
1687020071.6372108,0.8688557147979736,0.44523748755455017,-0.21645663678646088,-0.003789186477661133,0.03263726830482483,0.05086827278137207,-0.013424629345536232,-0.23035991191864014,-0.03653522580862045,1.3266381630247779,-0.4614394672023727,2.2000076604027
1687020071.6387072,0.865487277507782,0.4485618770122528,-0.22298894822597504,-0.011590123176574707,0.0037696659564971924,0.06983649730682373,-0.052382081747055054,-0.16279031336307526,-0.08528812229633331,1.3186348975680928,-0.46515559976298193,2.202023244057079
1687020071.640195,0.862440824508667,0.45506274700164795,-0.22161658108234406,-0.009993255138397217,-0.02348312735557556,0.06908971071243286,-0.12055500596761703,-0.10492488741874695,-0.12248742580413818,1.319273761070286,-0.472442676392258,2.2075943840865766
1687020071.709251,0.859789252281189,0.46205759048461914,-0.21740584075450897,-0.005876898765563965,-0.02046823501586914,0.041822969913482666,-0.12428530305624008,-0.041549112647771835,-0.12025222182273865,1.3231282275194691,-0.48031390353303677,2.21559397057462
1687020071.723363,0.8573395013809204,0.4687402844429016,-0.21272426843643188,0.00319516658782959,-0.03890019655227661,0.02839811146259308,-0.17471671104431152,-0.01253650151193142,-0.13097065687179565,1.3275865441044097,-0.48786414408413237,2.22367700961426
1687020071.7251348,0.8552390933036804,0.47517409920692444,-0.20682287216186523,-0.00494307279586792,-0.03858962655067444,0.041966915130615234,-0.09252284467220306,0.056844040751457214,-0.12496896088123322,1.3335212943480759,-0.49516189733661775,2.2305929032983505
1687020071.7268271,0.8536885380744934,0.4812195301055908,-0.1991073042154312,0.0001780390739440918,-0.11488649249076843,0.001338183879852295,-0.3668155074119568,0.02107512205839157,-0.061230454593896866,1.3416607005578287,-0.5020453982479649,2.2411662515971
1687020071.7729359,0.8549864292144775,0.48293331265449524,-0.18913927674293518,-0.004202127456665039,-0.05997490882873535,-0.04332834482192993,-0.2687149941921234,0.024689964950084686,0.11493764817714691,1.3530835538865689,-0.5040014630435597,2.2612938396941265
1687020071.776468,0.8596140742301941,0.4760773777961731,-0.1855095475912094,0.006138980388641357,-0.026736587285995483,-0.0492774099111557,-0.01857365109026432,0.04121368005871773,0.2307121902704239,1.3582502625246562,-0.49618875103915566,2.269652212430249
1687020071.779858,0.8656594157218933,0.46563810110092163,-0.18388931453227997,-0.011868953704833984,0.020003467798233032,-0.025705412030220032,0.020686602219939232,0.05408939719200134,0.24676519632339478,1.3614809048801377,-0.4843555013162352,2.2725918777696643
1687020071.783031,0.8710117340087891,0.45505696535110474,-0.1850990653038025,-0.010339796543121338,0.03798496723175049,-0.037160441279411316,0.08609843254089355,0.048167191445827484,0.21628157794475555,1.361400969785986,-0.4724362011185911,2.271157253366437
1687020071.826014,0.8741176128387451,0.4473921060562134,-0.18909934163093567,-0.006579279899597168,0.036509811878204346,-0.041857630014419556,0.039714690297842026,0.03225214406847954,0.15818925201892853,1.3577476570229599,-0.46384719220471543,2.26730398487752
1687020071.83501,0.8755318522453308,0.44350746273994446,-0.1916906237602234,-0.00539928674697876,0.03329923748970032,-0.0226801335811615,-0.05715819448232651,0.008475973270833492,0.06776374578475952,1.355255478282328,-0.45950831162287,2.2662587816739372
1687020071.8373919,0.8756291270256042,0.44250190258026123,-0.19356100261211395,-0.008502602577209473,0.04645076394081116,-0.020626604557037354,-0.010474312119185925,-0.002830210840329528,0.03470566123723984,1.353241240657745,-0.4583866594738636,2.2677735624084066
1687020071.888793,0.8752283453941345,0.44258812069892883,-0.19516918063163757,-0.003356456756591797,0.02556672692298889,-0.0004942119121551514,0.009169629774987698,0.012868191115558147,-0.008441807702183723,1.3513936603862398,-0.4584828070695974,2.2667286294364075
1687020071.899519,0.8739824891090393,0.44492244720458984,-0.19544553756713867,-0.02319800853729248,0.00948438048362732,0.006770581007003784,-0.06509368121623993,0.017156412824988365,-0.036611929535865784,1.3507896939031625,-0.4610876473931103,2.267746013997862
1687020071.9022841,0.873120129108429,0.4472760558128357,-0.19392141699790955,-0.015271008014678955,0.015233099460601807,0.012708067893981934,0.11450923979282379,0.07862349599599838,-0.025177378207445145,1.3522422888390107,-0.46371744804350024,2.266720179260078
1687020071.9039779,0.8736932873725891,0.4461918771266937,-0.19383719563484192,0.0021458864212036133,-0.010767042636871338,0.0192156583070755,0.21372650563716888,0.10359036922454834,0.017475008964538574,1.3524730190134437,-0.46250560232487414,2.255969990220491
1687020071.909277,0.8756458163261414,0.4430559277534485,-0.19221332669258118,-0.009617924690246582,0.009733378887176514,0.016691505908966064,0.2357770800590515,0.12679342925548553,0.07536360621452332,1.354713098118312,-0.45900458169312364,2.245891522521215
1687020071.91076,0.8792527914047241,0.43651026487350464,-0.1907183676958084,-0.011348128318786621,0.013837665319442749,0.005934476852416992,0.32820215821266174,0.1713474541902542,0.08678564429283142,1.3571956597530066,-0.45171621215071345,2.2314990591512904
1687020071.912236,0.8827465772628784,0.42958012223243713,-0.19031372666358948,0.004323065280914307,0.02221733331680298,-0.003533869981765747,0.35980093479156494,0.18649044632911682,0.07762250304222107,1.3584537107538512,-0.4440277683717084,2.21329703800033
1687020072.007635,0.8863106369972229,0.42200547456741333,-0.19069638848304749,0.02015310525894165,0.030066728591918945,-0.014625877141952515,0.40107017755508423,0.15114429593086243,0.10445784032344818,1.3588696291018851,-0.4356562898987595,2.194165303977445
1687020072.016461,0.8903003931045532,0.4115821421146393,-0.1948472112417221,0.012424826622009277,0.04390794038772583,-0.015205249190330505,0.5291579365730286,0.11580175906419754,0.13520857691764832,1.3553378628970183,-0.42418937195819134,2.1695462375184733
1687020072.019786,0.8935319781303406,0.40103548765182495,-0.20191873610019684,0.002067387104034424,0.06321313977241516,-0.020233914256095886,0.5660499930381775,0.06361965090036392,0.08051469922065735,1.3485510167014216,-0.41264694337659485,2.1418192794911466
1687020072.0232248,0.8947422504425049,0.39407750964164734,-0.2100938856601715,-0.011883914470672607,0.05544641613960266,0.012080609798431396,0.4171656370162964,0.02484176494181156,-0.027690604329109192,1.3401650064470205,-0.4050639106048021,2.115649319225622
1687020072.026459,0.892815887928009,0.39568689465522766,-0.21520189940929413,-0.022439241409301758,0.04535314440727234,0.023459970951080322,0.356167733669281,0.07941193133592606,-0.2277326136827469,1.3342707960030153,-0.40681565572411715,2.0947758558148806
1687020072.028965,0.888229250907898,0.40508005023002625,-0.2167002409696579,-9.143352508544922e-05,-0.013447940349578857,0.04442852735519409,0.2946076989173889,0.14351101219654083,-0.3486883342266083,1.331502074499761,-0.4170663723809233,2.0731324322600324
1687020072.030962,0.8827338814735413,0.4180351495742798,-0.21454082429409027,-0.007031917572021484,-0.0500999391078949,0.037737250328063965,0.24830904603004456,0.18701589107513428,-0.3425348401069641,1.332377632130434,-0.43128133023497733,2.0550831636886535
1687020072.0325642,0.8782024383544922,0.429425984621048,-0.2106030136346817,0.011461138725280762,-0.09046730399131775,0.022004395723342896,0.17095540463924408,0.18854933977127075,-0.2798043489456177,1.335429629386712,-0.44385709159851633,2.0391742939980886
1687020072.034037,0.8750418424606323,0.4383176565170288,-0.20537611842155457,0.018894314765930176,-0.0837797224521637,-0.001243099570274353,0.17616979777812958,0.19667769968509674,-0.19117513298988342,1.3402645579895114,-0.45372609979112927,2.028338829180481
1687020072.035527,0.8737205862998962,0.4434150159358978,-0.199989452958107,0.024243950843811035,-0.09852057695388794,-0.0227583646774292,0.06957877427339554,0.16096843779087067,-0.09870752692222595,1.3457785650149126,-0.459405170151416,2.0197486991806572
1687020072.1279778,0.8739985823631287,0.444685697555542,-0.19591130316257477,0.024484694004058838,-0.08233526349067688,-0.03635793924331665,0.09042766690254211,0.10619374364614487,0.0010518282651901245,1.3502861439362897,-0.4608233296292165,2.014688704398227
1687020072.131678,0.8759120106697083,0.44012728333473206,-0.19765214622020721,0.0210455060005188,-0.06601220369338989,-0.03603622317314148,-0.030757546424865723,0.046699389815330505,0.03141719102859497,1.3488604718193824,-0.4557404082789561,2.0108565208855196
1687020072.135371,0.8773131966590881,0.4362208843231201,-0.20008306205272675,0.02101767063140869,-0.023455321788787842,-0.03726741671562195,-0.06300690025091171,0.002300102496519685,0.026697270572185516,1.3465679824838812,-0.45139461943421644,2.0124162601433624
1687020072.138793,0.8780089020729065,0.43302223086357117,-0.20394174754619598,0.03435993194580078,-0.02440708875656128,-0.019401133060455322,-0.09111303091049194,-0.04781459644436836,0.006578685715794563,1.3425659050021232,-0.4478429788408319,2.013679883909804
1687020072.148556,0.8772974610328674,0.4334495961666107,-0.2060839682817459,0.007712304592132568,-0.029213756322860718,-0.0016186684370040894,-0.22191758453845978,-0.08807719498872757,-0.02231448143720627,1.3400717949792658,-0.44831715391948435,2.0215229358114377
1687020072.150751,0.8763124346733093,0.43505948781967163,-0.20688076317310333,0.04392975568771362,-0.03176972270011902,0.013170450925827026,-0.1935109794139862,-0.11313967406749725,-0.02388574555516243,1.3389601408353635,-0.4501043299218598,2.031403895080272
1687020072.152093,0.8752175569534302,0.4379073679447174,-0.20550315082073212,0.0152243971824646,-0.03798973560333252,0.02502220869064331,-0.35933801531791687,-0.11038623005151749,-0.036254797130823135,1.340171664405216,-0.4532696591129074,2.047314728721931
1687020072.1534262,0.8735721707344055,0.44330930709838867,-0.20086942613124847,0.028634190559387207,-0.04697751998901367,0.017626672983169556,-0.3796081244945526,-0.08430882543325424,-0.07055497914552689,1.3447846585808503,-0.45928721268370876,2.0661843199824146
1687020072.15469,0.8717886805534363,0.44916728138923645,-0.19553329050540924,0.0033181309700012207,-0.04302412271499634,-0.005302906036376953,-0.34576722979545593,-0.11007091403007507,-0.02809460461139679,1.3501579951785363,-0.4658331031397626,2.086023838302008
1687020072.1862612,0.8703852295875549,0.4534015655517578,-0.19198083877563477,0.0019749999046325684,-0.05185127258300781,-0.007039546966552734,-0.4146866798400879,-0.16271188855171204,0.014954328536987305,1.353702436661062,-0.4705780186192704,2.106649859311877
1687020072.1907449,0.8700069189071655,0.4549138844013214,-0.19010841846466064,0.008014261722564697,-0.0338934063911438,-0.018051952123641968,-0.39814072847366333,-0.2160949409008026,0.09057638049125671,1.355664155482361,-0.47227551382335387,2.1303083064240056
1687020072.192091,0.8701207041740417,0.4548538625240326,-0.18973089754581451,0.017528772354125977,-0.0054367780685424805,-0.00944201648235321,-0.4645629823207855,-0.2581842243671417,0.12185734510421753,1.3561055756560985,-0.472208122921716,2.1565169066685734
1687020072.1933799,0.871135413646698,0.4525357782840729,-0.1906166821718216,0.0025218725204467773,0.03103053569793701,-0.0071372389793396,-0.3790541887283325,-0.27923330664634705,0.16435393691062927,1.355377482892523,-0.4696069131985287,2.1829793343055144
1687020072.194608,0.8720455169677734,0.44943860173225403,-0.19375644624233246,0.014612197875976562,0.010430783033370972,0.0037997961044311523,-0.4034048318862915,-0.28536257147789,0.14885833859443665,1.3521617424413837,-0.46613678306619905,2.2049433942986583
1687020072.239513,0.8726940751075745,0.4470204710960388,-0.19641242921352386,-0.002058088779449463,0.02998453378677368,0.0029157400131225586,-0.41529250144958496,-0.31752848625183105,0.1482226401567459,1.349420531118086,-0.4634317134433503,2.230260590081954
1687020072.242724,0.8727286458015442,0.44533607363700867,-0.2000516802072525,-0.0037100911140441895,0.03148582577705383,0.014718472957611084,-0.41611140966415405,-0.31554150581359863,0.1217375099658966,1.3454636279002627,-0.461549589324268,2.2547504578433055
1687020072.245477,0.8723729848861694,0.4445224404335022,-0.2033843696117401,-0.008695006370544434,0.01122710108757019,0.009994521737098694,-0.4632596969604492,-0.3244000971317291,0.107720747590065,1.341748475345059,-0.4606410573105531,2.2794394427271962
1687020072.253242,0.8714675903320312,0.44461268186569214,-0.20703603327274323,-0.00884246826171875,0.02210792899131775,0.028492987155914307,-0.37941572070121765,-0.31891465187072754,0.09870541095733643,1.3375486591354244,-0.46074182247086853,2.3042139879445016
1687020072.2573152,0.8710002303123474,0.4434242844581604,-0.21150298416614532,-0.004774034023284912,0.0092276930809021,0.035096123814582825,-0.3518446981906891,-0.2970602512359619,0.12891578674316406,1.3325793667703518,-0.4594154945091938,2.325655528617336
1687020072.308961,0.8719217777252197,0.4390990734100342,-0.21666698157787323,-0.01672762632369995,-0.04952692985534668,0.025779545307159424,-0.2720477283000946,-0.2983481287956238,0.24586984515190125,1.3272359461045826,-0.4545956538246165,2.3453804245041834
1687020072.315783,0.8767759799957275,0.4261733293533325,-0.22280114889144897,0.01798415184020996,-0.06026753783226013,0.023673951625823975,-0.47955480217933655,-0.3646292984485626,0.5633140802383423,1.3219493221531426,-0.440258507664516,2.3712510482160325
1687020072.317131,0.8856866955757141,0.4031597971916199,-0.23026371002197266,-0.051137685775756836,0.046547263860702515,-0.0006017684936523438,-0.3199886679649353,-0.3251687288284302,0.5966669917106628,1.3164439535055394,-0.4149670721696857,2.400269130793163
1687020072.31847,0.8937733769416809,0.3821563124656677,-0.2347886562347412,-0.11960345506668091,0.13209542632102966,-0.08454728126525879,-0.05093332380056381,-0.11893764138221741,0.518642246723175,1.3139067692227835,-0.39212858505082754,2.4212548424229325
1687020072.3198109,0.9014987349510193,0.36101406812667847,-0.2386813759803772,-0.20128822326660156,0.21874359250068665,-0.06562462449073792,0.23889251053333282,0.00695743877440691,0.31116655468940735,1.311974272659251,-0.369355076271246,2.4216921132677
1687020072.321213,0.9042708277702332,0.3539885878562927,-0.23871812224388123,-0.08627766370773315,0.16844183206558228,-0.07660472393035889,-0.05318862199783325,0.04583905637264252,0.02165989950299263,1.3126949097955851,-0.36183241689895884,2.4202954262853478
1687020072.325838,0.9039725065231323,0.35769617557525635,-0.23428016901016235,0.023822903633117676,0.16027870774269104,-0.016955792903900146,-0.06720949709415436,0.08611377328634262,-0.1594446301460266,1.3172083463947086,-0.36579966161450833,2.4236184112245414
1687020072.3270612,0.901806652545929,0.36639708280563354,-0.22912468016147614,0.12843626737594604,0.03599247336387634,0.020094573497772217,-0.08444288372993469,0.10039538145065308,-0.16760961711406708,1.3219879854278611,-0.37513386200516324,2.4243256604838033
1687020072.365246,0.9005649089813232,0.3727465569972992,-0.22370262444019318,0.06734585762023926,-0.03244501352310181,0.028710544109344482,-0.04897376522421837,0.05114993453025818,-0.0658169537782669,1.3273217141220457,-0.3819671403347766,2.4258858476450844
1687020072.366493,0.9001396894454956,0.37397509813308716,-0.2233639508485794,0.04434901475906372,-0.03394818305969238,0.0696316659450531,0.15152937173843384,-0.015675703063607216,-0.026864225044846535,1.3275655647101507,-0.38329142577549546,2.4249018358812373
1687020072.367722,0.8996704816818237,0.3743249177932739,-0.22466441988945007,0.01051640510559082,-0.12876519560813904,0.10209056735038757,0.02923901192843914,0.040227245539426804,-0.0709877461194992,1.3260825616913439,-0.3836686726319926,2.41702916230509
1687020072.372683,0.8997524380683899,0.377781480550766,-0.21846432983875275,0.018857181072235107,-0.10806712508201599,0.06810426712036133,0.020675616338849068,0.04003522917628288,-0.06360306590795517,1.3326008734055945,-0.38739905360506893,2.41876460965027
1687020072.426177,0.9008424282073975,0.3781721889972687,-0.21323445439338684,0.00601804256439209,-0.1132032573223114,0.04813435673713684,0.046023450791835785,-0.015654129907488823,-0.008968581445515156,1.3383686344289958,-0.38782106733375643,2.418544055205201
1687020072.434668,0.9014520645141602,0.3758280575275421,-0.21479658782482147,0.0007696151733398438,-0.042270928621292114,0.007185518741607666,0.19437730312347412,-0.044641707092523575,-0.02255629561841488,1.3368797843046565,-0.385290191014924,2.41254152221846
1687020072.435904,0.9002453684806824,0.3777528703212738,-0.2164747714996338,0.1408923864364624,-0.025290071964263916,0.006956338882446289,0.02008652500808239,-0.05546306073665619,-0.10023564100265503,1.334814576896447,-0.38736814977480355,2.408273801052293
1687020072.437131,0.8993960618972778,0.3792082667350769,-0.21745756268501282,0.03456389904022217,-0.018749862909317017,-0.003062427043914795,-0.10663220286369324,-0.03440398350358009,0.02130357176065445,1.3335673044442962,-0.3889404967039433,2.408448095583422
1687020072.438391,0.8995774984359741,0.37929174304008484,-0.21655936539173126,-0.058223187923431396,0.03327536582946777,-0.05344484746456146,-0.20211917161941528,-0.11679153889417648,0.0315314419567585,1.334556939676245,-0.38903073071218597,2.418636370709876
1687020072.442476,0.8984792828559875,0.37995249032974243,-0.2199345827102661,-0.03362631797790527,0.06716057658195496,-0.03273570537567139,0.0057030594907701015,-0.09980496019124985,-0.013537234626710415,1.330731528745298,-0.3897449274357565,2.4248423169881534
1687020072.550006,0.8959960341453552,0.38304924964904785,-0.22464312613010406,-0.02232348918914795,0.01886725425720215,-0.01731550693511963,-0.21189677715301514,-0.04766878858208656,-0.031028077006340027,1.3251411819036079,-0.39309508800931403,2.4280574036001332
1687020072.554268,0.8932055830955505,0.387307345867157,-0.22842223942279816,-0.06099128723144531,0.03604772686958313,-0.045167773962020874,-0.0922536700963974,-0.018690267577767372,0.02118639275431633,1.3204291066626357,-0.3977091784705796,2.4341077242129883
1687020072.55846,0.8921297788619995,0.38863205909729004,-0.2303682565689087,-0.03545564413070679,0.03005385398864746,-0.051431044936180115,-0.14467085897922516,-0.03568189963698387,-0.01611464098095894,1.318093643424473,-0.3991464770076642,2.4388389587554147
1687020072.5680342,0.8887431025505066,0.3931962251663208,-0.2356531322002411,0.0003712177276611328,0.0355147123336792,-0.04320119321346283,-0.11410123854875565,-0.034925296902656555,-0.041193362325429916,1.311607398128537,-0.4041052237447916,2.4426511809789413
1687020072.569992,0.8854427933692932,0.39676085114479065,-0.24201656877994537,0.029809892177581787,0.07069218158721924,-0.09102177619934082,0.004197841044515371,-0.10052001476287842,-0.03976777195930481,1.3039849526358358,-0.40798535658183327,2.4439173812519703
1687020072.5714688,0.881320595741272,0.40125659108161926,-0.2495342195034027,-0.005298256874084473,0.08172988891601562,-0.0971454381942749,-0.17647966742515564,-0.23480884730815887,-0.11741356551647186,1.2948813202925493,-0.4128882983542963,2.446407317814419
1687020072.5730639,0.8743285536766052,0.40829554200172424,-0.26238229870796204,0.026489317417144775,0.16473305225372314,-0.11374682188034058,0.04497010260820389,-0.3590102791786194,-0.21441280841827393,1.2792516847472735,-0.42058608114280754,2.445884706676552
1687020072.574532,0.8622859120368958,0.4220966696739197,-0.2798171639442444,0.007312595844268799,0.14313474297523499,-0.0505203902721405,-0.11524572968482971,-0.4644244611263275,-0.38892337679862976,1.2570110898694893,-0.43575686211955333,2.4432793327345683
1687020072.68813,0.8455880284309387,0.44222941994667053,-0.2990221381187439,0.045479536056518555,0.15599143505096436,-0.016178667545318604,0.002449675463140011,-0.46586644649505615,-0.5584104061126709,1.2308946231740947,-0.45808284836886853,2.436294409655834
1687020072.699069,0.8232734799385071,0.4700338542461395,-0.31825944781303406,0.032424211502075195,0.16889744997024536,-0.023842573165893555,0.017389409244060516,-0.45930638909339905,-0.7598063349723816,1.2019138676546317,-0.4893291287698737,2.4236566557711203
1687020072.702301,0.7947627902030945,0.5015938878059387,-0.3416953980922699,0.06827431917190552,0.22361057996749878,-0.07293164730072021,0.30698609352111816,-0.47625449299812317,-0.9878600239753723,1.1647541238594719,-0.5254402158486707,2.3936329994717416
1687020072.7059321,0.7550706267356873,0.5441829562187195,-0.36569568514823914,0.08547502756118774,0.22800332307815552,-0.07473397254943848,0.1224389299750328,-0.5505280494689941,-1.329478144645691,1.1197713470446433,-0.575414902442203,2.3565325541413844
1687020072.7249079,0.703052818775177,0.5919527411460876,-0.3940921723842621,0.14809763431549072,0.22529274225234985,-0.10660967230796814,0.29896363615989685,-0.6579045653343201,-1.529508113861084,1.059893828785652,-0.6334795246449975,2.303058048806229
1687020072.727045,0.6372275352478027,0.6441245675086975,-0.42313671112060547,0.17896509170532227,0.16945880651474,-0.03859424591064453,0.030677519738674164,-0.7262440919876099,-1.8133257627487183,0.9846229593490229,-0.6998782437197928,2.238245419458903
1687020072.729,0.5572717785835266,0.6991319060325623,-0.44795387983322144,0.2072240114212036,0.21316051483154297,-0.08418110013008118,0.15547457337379456,-0.816197395324707,-1.9711949825286865,0.8937220991990266,-0.7741826728884602,2.1597761410803
1687020072.735228,0.4609730541706085,0.7518882751464844,-0.47134703397750854,0.23888659477233887,0.1073036789894104,-0.024090588092803955,-0.0866309329867363,-0.8936508297920227,-2.2159361839294434,0.774271545347731,-0.8509214973636907,2.0549653119849456
1687020072.7369452,0.353193998336792,0.7979914546012878,-0.48832762241363525,0.2748882472515106,0.16485345363616943,-0.06629884243011475,0.14198121428489685,-0.9041987657546997,-2.2156729698181152,0.6261750377572122,-0.9239550263119214,1.9219726624462232
1687020072.738626,0.23945702612400055,0.8243776559829712,-0.5128956437110901,0.29664528369903564,0.08429849147796631,-0.023328781127929688,0.1743563860654831,-1.00216543674469,-2.2542805671691895,0.4367964271911318,-0.9691018873312509,1.7470338663788938
1687020072.799006,0.11778922379016876,0.8415371179580688,-0.527201235294342,0.30642038583755493,0.09814488887786865,0.009943544864654541,0.1953807920217514,-0.9941238760948181,-2.325683832168579,0.2198135508926188,-1.000122394642777,1.5477788251551035
1687020072.802503,-0.007116630207747221,0.8375494480133057,-0.5463152527809143,0.3185027241706848,0.046834707260131836,0.0871019959449768,0.5404316782951355,-0.9144790172576904,-2.416334629058838,-0.013025863330819445,-0.9927824763070566,1.3276881357660855
1687020072.809516,-0.12930060923099518,0.8136780858039856,-0.5667532682418823,0.323117733001709,0.01888716220855713,0.1226310133934021,0.6196469664573669,-0.8159677386283875,-2.3077943325042725,-0.224303666848215,-0.9504516017522963,1.124796633030502
1687020072.810993,-0.2396947294473648,0.767034649848938,-0.5951507091522217,0.3103734254837036,0.011239886283874512,0.11935120820999146,1.1444417238235474,-0.7391113042831421,-2.1472740173339844,-0.38287159858085196,-0.8742064968709319,0.9732489588267201
1687020072.812463,-0.341071218252182,0.7099921703338623,-0.6161019206047058,0.2794409394264221,-0.0950477123260498,0.14832854270935059,0.46400776505470276,-0.8081293702125549,-2.076333999633789,-0.5055994389394641,-0.789487116966856,0.8598124671646127
1687020072.857789,-0.4353426396846771,0.660190999507904,-0.612065851688385,0.23124104738235474,-0.08746767044067383,0.14966356754302979,0.28603047132492065,-0.785486102104187,-1.9633169174194336,-0.6182481801218642,-0.7210730493955994,0.7546096675618013
1687020072.866291,-0.5157291889190674,0.6072477102279663,-0.6043787598609924,0.19170880317687988,-0.08893716335296631,0.13736820220947266,0.3929315507411957,-0.6334850192070007,-1.7344602346420288,-0.7064190139235399,-0.6525918993787787,0.6717453990444817
1687020072.910516,-0.5787167549133301,0.5469419360160828,-0.6049309968948364,0.14455842971801758,-0.08672159910202026,0.12939083576202393,0.7914683222770691,-0.5270268321037292,-1.402769923210144,-0.7632547629893078,-0.5787070080605574,0.623960801262871
1687020072.91781,-0.6252294778823853,0.47722604870796204,-0.6175301671028137,0.12007200717926025,-0.045997411012649536,0.13541346788406372,1.3284003734588623,-0.39404457807540894,-1.1698179244995117,-0.7915934475046668,-0.49749541508091116,0.6134980291436638
1687020072.921021,-0.660664975643158,0.39538097381591797,-0.6381189227104187,0.11845916509628296,-0.08394905924797058,0.13099300861358643,1.4893062114715576,-0.3493984043598175,-1.0272538661956787,-0.8027558095314259,-0.40648256990922343,0.630452662842996
1687020072.927993,-0.6904500126838684,0.31794726848602295,-0.6497602462768555,0.09726452827453613,-0.03330981731414795,0.09289073944091797,1.2443424463272095,-0.38312429189682007,-0.994016706943512,-0.8157495711819405,-0.32356360366120684,0.6452931427710029
1687020072.9295979,-0.7181050181388855,0.24096867442131042,-0.6528854370117188,0.09499704837799072,-0.038255661725997925,0.06800079345703125,1.1829477548599243,-0.47897663712501526,-1.0615758895874023,-0.832933492465219,-0.24336381347995137,0.6591781752074528
1687020072.931072,-0.7477070093154907,0.16942162811756134,-0.6420518755912781,0.08008915185928345,0.005535632371902466,0.07209032773971558,0.7016608715057373,-0.5889556407928467,-1.229568600654602,-0.8612762878508045,-0.17024279130426104,0.6538904752499335
1687020072.932545,-0.7756267786026001,0.10195133835077286,-0.6229037046432495,0.1036754846572876,-0.018241621553897858,0.10378450155258179,0.5055955052375793,-0.6687859892845154,-1.2973625659942627,-0.8941696611739351,-0.10212878361239265,0.6403282892276614
1687020073.044292,-0.8003319501876831,0.03587206453084946,-0.5984832048416138,0.09661179780960083,0.054643064737319946,0.05598747730255127,0.4351874589920044,-0.6260642409324646,-1.447079062461853,-0.9287087337284526,-0.03587976136496627,0.6112945189582147
1687020073.055927,-0.8176570534706116,-0.038860518485307693,-0.5743927359580994,0.07965034246444702,0.0453607439994812,0.08171695470809937,0.8531793355941772,-0.5614286065101624,-1.3916165828704834,-0.9584037568732315,0.03887030522536402,0.5955086479431022
1687020073.059299,-0.8280401825904846,-0.12078287452459335,-0.5475042462348938,0.08272463083267212,0.04314613342285156,0.06474673748016357,1.0437320470809937,-0.5134851932525635,-1.3979603052139282,-0.9865844784511913,0.12107849337772222,0.5957367866539647
1687020073.062521,-0.8312522172927856,-0.21018415689468384,-0.5146284103393555,0.07879555225372314,0.014795348048210144,0.005732536315917969,1.6187124252319336,-0.5397865176200867,-1.3097792863845825,-1.01645083451636,0.21176332425816624,0.6131780804749403
1687020073.0654058,-0.8288910388946533,-0.30294832587242126,-0.47027868032455444,0.01768803596496582,-0.08059662580490112,0.014513909816741943,1.8924881219863892,-0.4803902506828308,-0.9694181680679321,-1.0547235215103001,0.3077848540375151,0.6643703116724244
1687020073.067109,-0.828259289264679,-0.3748018443584442,-0.41654545068740845,-0.017474353313446045,-0.08457928895950317,0.05399662256240845,2.6080920696258545,-0.3276350796222687,-0.3096032440662384,-1.1048180857593985,0.3841830348690982,0.7454177593499186
1687020073.0688,-0.8300708532333374,-0.42818284034729004,-0.3572700619697571,0.0364612340927124,-0.19861775636672974,0.11192405223846436,1.4978892803192139,-0.3251684606075287,-0.216853067278862,-1.1643530647319629,0.4424810036512427,0.8549358007477441
1687020073.096541,-0.8311210870742798,-0.4479580223560333,-0.32950183749198914,0.07225567102432251,-0.13813206553459167,0.06917166709899902,0.03901887312531471,-0.398447185754776,-0.22355437278747559,-1.1933499888505004,0.46448008781870953,0.8801889177557962
1687020073.098038,-0.8330132365226746,-0.45960623025894165,-0.3079793155193329,0.07166063785552979,-0.023944824934005737,0.15816855430603027,0.5410335659980774,-0.24574005603790283,-0.16502155363559723,-1.2166651822904662,0.4775517744070558,0.8947963712357961
1687020073.099505,-0.8298150300979614,-0.47253406047821045,-0.29684752225875854,0.021526575088500977,-0.14945995807647705,0.2577851116657257,-0.03999631851911545,0.07942671328783035,-0.18265114724636078,-1.2272541397877688,0.4921638944337371,0.9067225158738789
1687020073.161052,-0.8248223662376404,-0.4704679846763611,-0.31357279419898987,0.06478208303451538,-0.23277908563613892,0.27447980642318726,-0.33888500928878784,0.47464942932128906,0.13456648588180542,-1.2075006964792319,0.48982105731090037,0.8952437467025685
1687020073.1720781,-0.820643424987793,-0.4472554922103882,-0.35567808151245117,0.07618236541748047,-0.2514139711856842,0.25832706689834595,-0.6427292227745056,0.8953031301498413,0.5781213045120239,-1.1618208737872557,0.46369446015079324,0.8715878562317935
1687020073.174942,-0.8174510598182678,-0.40157315135002136,-0.4129319489002228,0.09732776880264282,-0.24810034036636353,0.25765857100486755,-0.6722845435142517,1.2298771142959595,0.9982724785804749,-1.103040570476328,0.41323393896561444,0.8582964097891896
1687020073.218536,-0.8084444403648376,-0.34189826250076294,-0.4790857434272766,0.13663047552108765,-0.21242302656173706,0.2084863781929016,-0.45557376742362976,1.5168757438659668,1.3387389183044434,-1.0358343576476703,0.3489361527475483,0.8627748495314951
