Timestamp,gravityX,gravityY,gravityZ,accelerationX,accelerationY,accelerationZ,rotationRateX,rotationRateY,rotationRateZ,attitudeRoll,attitudePitch,attitudeYaw
1687009957.074185,0.054016150534152985,0.14858748018741608,-0.9874229431152344,-0.00018309429287910461,0.0059382617473602295,0.013912200927734375,-0.019693536683917046,0.00407743826508522,0.008962036110460758,0.054649698089847154,-0.14913974119990855,0.671071135185098
1687009957.0932121,0.054078955203294754,0.14889250695705414,-0.9873735308647156,0.00015082955360412598,-0.006207585334777832,0.0010148882865905762,-0.0034748180769383907,0.006125808693468571,0.012601778842508793,0.05471584485226365,-0.14944819656653854,0.6716296558099211
1687009957.1577039,0.054898109287023544,0.14865322411060333,-0.9873643517494202,0.005007941275835037,-0.01623748242855072,0.0034929513931274414,-0.004290544427931309,0.012361600063741207,-0.0008996492251753807,0.055543468385292706,-0.1492062188196847,0.6717981733578275
1687009957.161355,0.055282119661569595,0.14821554720401764,-0.9874087572097778,0.002563994377851486,0.002709105610847473,0.003506779670715332,-0.00658698845654726,0.004636302124708891,-0.01215230394154787,0.05592867904795978,-0.1487636496350352,0.6716254578066768
1687009957.250503,0.05547292158007622,0.148609459400177,-0.9873388409614563,0.002022240310907364,0.007976219058036804,-0.0246545672416687,0.02274433523416519,-0.0023591560311615467,0.011434515006840229,0.056125274476287006,-0.14916196183573624,0.6718374572650438
1687009957.264563,0.05544522777199745,0.1478986144065857,-0.9874471426010132,0.0033316761255264282,0.002827674150466919,0.010304808616638184,0.00175602943636477,0.0029803491197526455,-0.005387075711041689,0.05609117328938812,-0.14844318325082875,0.6722227827411208
1687009957.341557,0.05524624139070511,0.14819011092185974,-0.9874145984649658,-0.010980449616909027,0.007632613182067871,0.01124882698059082,0.0032934723421931267,0.0015116154681891203,-0.006796154659241438,0.055892128305264244,-0.14873792463576138,0.6720604677641304
1687009957.346178,0.05544624850153923,0.14861996471881866,-0.9873387813568115,0.0004009641706943512,-0.0030358880758285522,0.0028111934661865234,-0.014528601430356503,-0.00955874565988779,0.008821954019367695,0.0560983490468611,-0.14917259495850307,0.6721788656595642
1687009957.399444,0.054930053651332855,0.1485084891319275,-0.9873843789100647,-0.007368359714746475,-0.0008949935436248779,0.007159769535064697,0.0011216646526008844,-0.0021971026435494423,0.0019936086609959602,0.05557459796025006,-0.14905986888561662,0.6723349800431145
1687009957.521873,0.05539890378713608,0.1483619213104248,-0.9873802065849304,0.008810125291347504,0.008895143866539001,-0.00302201509475708,0.011727903038263321,0.0044928910210728645,-0.001930026337504387,0.056048198789240465,-0.1489116492968534,0.6724107579558112
1687009957.5403352,0.05492932349443436,0.14928796887397766,-0.9872668981552124,0.0029473118484020233,0.004779994487762451,-0.014365792274475098,-0.030545851215720177,-0.009180177003145218,0.005848000757396221,0.055580461483132115,-0.14984813007011538,0.6722414296244665
1687009957.606951,0.05529726669192314,0.15032829344272614,-0.9870884418487549,0.00125185027718544,0.001374557614326477,-0.016421079635620117,0.016631050035357475,0.006036992184817791,0.0020612534135580063,0.05596208698562454,-0.1509003324574194,0.6722173042830955
1687009957.610869,0.05547352880239487,0.14966130256652832,-0.9871799349784851,-0.0025102272629737854,0.007870420813560486,0.014172732830047607,0.004537701141089201,0.0061481790617108345,-0.0063026705756783485,0.056134903095656295,-0.15022570247854825,0.6721185737599511
1687009957.731964,0.05538618192076683,0.1499272733926773,-0.9871444702148438,-0.0038572028279304504,0.00011236965656280518,0.01087188720703125,-0.026043975725769997,0.002037456724792719,-0.01010353397578001,0.05604870795289087,-0.15049471560770453,0.6717984401331204
1687009957.750898,0.0555679015815258,0.15002724528312683,-0.9871190786361694,0.004322890192270279,0.003369346261024475,-0.0018488168716430664,0.0260651633143425,0.0033615801949054003,0.004087918438017368,0.0562336601239556,-0.15059583126650405,0.6716000381258586
1687009957.81924,0.05518602579832077,0.1505458950996399,-0.9870615005493164,0.00601702556014061,-0.0021084249019622803,0.009522438049316406,-0.030659902840852737,-0.0045213764533400536,-0.012273211032152176,0.05585126223958088,-0.15112043695316113,0.6715812652278573
1687009957.834446,0.05506151169538498,0.15081524848937988,-0.9870273470878601,-0.0009690560400485992,0.0070216357707977295,-0.011553585529327393,0.00012970366515219212,-0.006299036554992199,-0.00219101645052433,0.05572743290768391,-0.1513929089876109,0.6712793150182713
1687009957.9446511,0.05530531704425812,0.1512283831834793,-0.9869505167007446,0.0032884813845157623,-0.0005783736705780029,-0.01599442958831787,-0.004307522438466549,-0.005350152030587196,0.01095621008425951,0.05597802129171673,-0.15181082542227023,0.6714275640945013
1687009957.950008,0.054758768528699875,0.15085060894489288,-0.987038791179657,-0.004648856818675995,-0.001970633864402771,-0.005652248859405518,0.007980968803167343,0.0016113509191200137,0.0005605621263384819,0.05542101603977703,-0.15142867205788352,0.6714711509086638
1687009958.0367231,0.05514686554670334,0.15130211412906647,-0.9869480729103088,-0.007966641336679459,0.000248149037361145,-0.003072679042816162,-0.007709311321377754,0.0027237532194703817,0.006963334046304226,0.05581811308190767,-0.15188542151726664,0.6715674500906108
1687009958.0528631,0.055343061685562134,0.15127426385879517,-0.9869413375854492,0.006668698042631149,-0.017119035124778748,-0.002850472927093506,-0.024164583534002304,-0.0017476942157372832,0.006845355965197086,0.05601666596269643,-0.1518572523079659,0.6717629913418519
1687009958.056417,0.055422451347112656,0.1523912400007248,-0.9867650270462036,-0.009218789637088776,0.01006905734539032,0.010355114936828613,-0.008685626089572906,0.014416095800697803,-0.006195345427840948,0.05610685297382704,-0.15298731920916364,0.6718775635774112
1687009958.119319,0.05606135353446007,0.15157485008239746,-0.9868546724319458,0.0035395175218582153,-0.0035493671894073486,-0.012244999408721924,-0.003914173226803541,-0.004905404523015022,0.01270217914134264,0.056747123830102754,-0.1521613410647274,0.6721308028774379
1687009958.245223,0.055459823459386826,0.15224653482437134,-0.9867852926254272,0.019811827689409256,-0.016580671072006226,-0.010758042335510254,-0.034928612411022186,-0.014268679544329643,-0.007103483192622662,0.05614346039618635,-0.15284091046972864,0.6724182594723214
1687009958.251113,0.05554807931184769,0.15270161628723145,-0.9867100119590759,-0.020040832459926605,0.012032240629196167,0.004684865474700928,0.012961279600858688,0.007971378974616528,-0.010386361740529537,0.05623689832549978,-0.15330137388616885,0.67192149320939
1687009958.333638,0.05640485882759094,0.15259356796741486,-0.9866781234741211,0.01924826204776764,-0.0008754581212997437,0.013854026794433594,-0.011244524270296097,-0.0020393102895468473,-0.002122838981449604,0.057104272650513446,-0.15319204954198268,0.6721690722178711
1687009958.351702,0.055055130273103714,0.15436549484729767,-0.9864786863327026,-0.014131017029285431,0.007209792733192444,0.012281358242034912,-0.03563881292939186,0.00033995776902884245,-0.004770021885633469,0.05575191625595934,-0.15498521727738904,0.6718777068821009
1687009958.419821,0.05609239265322685,0.15422706305980682,-0.9864419102668762,0.008345518261194229,-0.015860378742218018,0.004081070423126221,-0.008236350491642952,0.000856078346259892,-0.003764677792787552,0.056802182469866194,-0.15484510150180006,0.6718669411245155
1687009958.435081,0.05516177415847778,0.15443840622901917,-0.986461341381073,0.0021502822637557983,-0.007206380367279053,0.001979529857635498,-0.004017237573862076,-0.0042982036247849464,-0.01087984535843134,0.055860665861491715,-0.15505901023315222,0.6714445435955708
1687009958.5065122,0.055441103875637054,0.15472079813480377,-0.9864014387130737,0.0024050138890743256,0.01143212616443634,-0.00851738452911377,0.013262616470456123,-0.006134586408734322,-0.004181729629635811,0.056146344156781734,-0.1553448486712056,0.6710105979275788
1687009958.521216,0.05514253303408623,0.15480457246303558,-0.9864050149917603,0.0037106648087501526,-0.008304968476295471,-0.011123061180114746,-0.020005324855446815,-0.0017094777431339025,0.002966994419693947,0.05584440251570906,-0.15542964345511354,0.6708600801558661
1687009958.599513,0.05479632690548897,0.15560247004032135,-0.9862987399101257,-0.012071676552295685,0.005881264805793762,0.012650728225708008,0.0010155376512557268,0.005395036656409502,-0.007960755378007889,0.055500478944728295,-0.1562373155553934,0.6705050070468019
1687009958.614097,0.05513978376984596,0.15556302666664124,-0.9862858057022095,-0.001383025199174881,-0.002807334065437317,-0.006359398365020752,0.012691302224993706,-0.00016870599938556552,0.005229082889854908,0.05584835633335165,-0.1561973907366461,0.6702208291685637
1687009958.691311,0.05478334054350853,0.15559248626232147,-0.986301064491272,0.0013080127537250519,-0.008070528507232666,0.007114052772521973,-0.0013471522834151983,0.003270499873906374,-0.0032091429457068443,0.055487223886924855,-0.1562272107464145,0.6699967333876007
1687009958.6950421,0.05487334355711937,0.15534797310829163,-0.9863345623016357,-0.005953621119260788,-0.007597178220748901,0.009344875812530518,0.0021180196199566126,3.1563686206936836e-05,-0.007156213745474815,0.05557630734255023,-0.15597969985077603,0.6695346877656869
1687009958.813614,0.05523655563592911,0.15512891113758087,-0.9863488078117371,0.012420959770679474,-0.0019612163305282593,-0.00805121660232544,0.007172433193773031,-0.00012449751375243068,-0.006132761016488075,0.055942606336371645,-0.15575795011574212,0.6693774261535165
1687009958.819092,0.05508691817522049,0.15391841530799866,-0.9865467548370361,-0.002276204526424408,0.0002868920564651489,-0.008051633834838867,0.08603595197200775,-0.010925745591521263,0.0060589248314499855,0.0557801983397069,-0.15453272823926067,0.6690171908240248
1687009958.904566,0.055174507200717926,0.14534689486026764,-0.9878411293029785,-0.003096211701631546,0.03260108828544617,0.011843204498291016,0.15361520648002625,-0.01283563207834959,-0.057947754859924316,0.05579565217365582,-0.1458635759980701,0.6675021904435121
1687009958.920532,0.05123375728726387,0.1310904622077942,-0.9900456666946411,0.05685954913496971,0.10647359490394592,0.024637341499328613,0.3340506851673126,-0.05752627179026604,-0.055604174733161926,0.05170276486151289,-0.13146885560062135,0.6667430182038532
1687009958.993114,0.050605565309524536,0.12078345566987991,-0.9913881421089172,-0.037513479590415955,0.044209808111190796,0.008874714374542236,0.12394518405199051,0.031339019536972046,0.003146491013467312,0.05100089567172265,-0.12107907961011562,0.6644981919786606
1687009958.997973,0.05172570049762726,0.11093153059482574,-0.9924810528755188,-0.024671822786331177,-0.028076335787773132,0.004733920097351074,0.18075329065322876,0.0042558698914945126,0.0010995855554938316,0.05207045862768646,-0.11116031738906486,0.663533865187899
1687009959.048876,0.052450019866228104,0.10578830540180206,-0.9930044412612915,0.013544291257858276,-0.043807126581668854,0.017830491065979004,-0.006615150719881058,0.013168404810130596,0.0076834531500935555,0.05277048314399306,-0.10598662189262274,0.6638340639268648
1687009959.142233,0.0527697429060936,0.10616470128297806,-0.9929473400115967,-0.019551310688257217,-0.03501299023628235,-0.0027649402618408203,-0.061694517731666565,0.007655394729226828,0.0035462314262986183,0.053094604273696784,-0.1063651482779691,0.6638399888362921
1687009959.147202,0.05335686728358269,0.1043158695101738,-0.9931119084358215,-0.015042003244161606,0.0009392350912094116,0.013024628162384033,0.03029825910925865,0.01736448146402836,0.000698513351380825,0.05367533770358406,-0.10450599169762359,0.6640942643066038
1687009959.233708,0.05349668115377426,0.10322514176368713,-0.9932183623313904,-0.00703362375497818,0.0005498602986335754,0.01053708791732788,-0.001396220875903964,0.007151124998927116,-0.0007390612736344337,0.053809960349527085,-0.10340934760138602,0.6642908781359289
1687009959.324827,0.054232705384492874,0.10372496396303177,-0.9931263327598572,0.004956185817718506,-0.00014832615852355957,0.006081044673919678,-0.013033969327807426,0.0002178518334403634,2.127140760421753e-05,0.05455387681735093,-0.1039118626440545,0.6648154907055581
1687009959.330989,0.05417769029736519,0.10378626734018326,-0.993122935295105,0.00012838467955589294,-0.02564603090286255,0.014180123805999756,-0.027352653443813324,0.009278591722249985,0.013654791750013828,0.054498833057811086,-0.10397349781706518,0.6648099162323726
1687009959.445125,0.05432870611548424,0.10422664880752563,-0.9930685758590698,0.0018694587051868439,0.017584234476089478,-0.016712307929992676,0.016775792464613914,-0.01187010295689106,0.010092814452946186,0.05465342879813557,-0.10441628652559178,0.6650972099144675
1687009959.451133,0.05409671366214752,0.10630989074707031,-0.9928603768348694,-0.009815666824579239,0.0084666907787323,0.01648104190826416,-0.0678211897611618,4.5279040932655334e-05,0.019393637776374817,0.05443190103664238,-0.10651116660052455,0.6659077344610986
1687009959.566468,0.053900543600320816,0.10868406295776367,-0.9926139712333679,0.005440935492515564,-0.026927493512630463,-0.01977616548538208,-0.10053379088640213,0.0016020298935472965,0.0009248824790120125,0.054248337552855797,-0.10889917789789219,0.6663815640214943
1687009959.582415,0.054807569831609726,0.11371123045682907,-0.992000937461853,-0.008436065167188644,0.01760587841272354,0.015331685543060303,-0.07904388010501862,0.02221662923693657,0.0095186373218894,0.05519339949982033,-0.11395771917486269,0.6668778728059068
1687009959.5860162,0.05528455972671509,0.11833548545837402,-0.9914335012435913,-0.022295009344816208,0.003582216799259186,-0.005514740943908691,-0.12065830081701279,0.022662173956632614,0.012736267410218716,0.0557045594087956,-0.11861342110038108,0.6677928859717139
1687009959.649207,0.05643991008400917,0.12577110528945923,-0.9904525279998779,-0.01116703450679779,-0.011330202221870422,-0.0006668567657470703,-0.11175894737243652,0.028562940657138824,0.03956947848200798,0.05692240494462083,-0.12610506388945447,0.6694334299887128
1687009959.663765,0.05698799714446068,0.13004985451698303,-0.9898684024810791,0.00021724775433540344,-0.023284122347831726,0.0041048526763916016,-0.060035232454538345,0.039793092757463455,0.025573235005140305,0.05750780901802086,-0.13041926724792502,0.6710082693686892
1687009959.7397351,0.05811731517314911,0.13373959064483643,-0.9893109202384949,0.06323587894439697,0.016910403966903687,0.020850837230682373,-0.1374361515045166,-0.02053256705403328,-0.05364461988210678,0.0586778097490628,-0.13414151995681567,0.6726454839088165
1687009959.753417,0.05781588330864906,0.13613902032375336,-0.9890012741088867,0.014022540301084518,0.00010667741298675537,-0.012188911437988281,-0.04219285026192665,-0.0324973501265049,0.007815810851752758,0.05839240150484509,-0.13656310253112572,0.6731775718836969
1687009959.7956882,0.05713760852813721,0.13899552822113037,-0.9886432886123657,-0.0042200833559036255,0.01783427596092224,0.0012317895889282227,-0.05281919613480568,-0.011561575345695019,0.004186456091701984,0.05772974118315035,-0.13944702124390765,0.673585156110297
1687009959.8952951,0.0575471930205822,0.14202092587947845,-0.9881894588470459,0.003274388611316681,0.015510782599449158,-0.0041811466217041016,-0.03191278129816055,-0.00657414086163044,0.016248978674411774,0.058169282250971566,-0.14250273655224185,0.6741066257034043
1687009959.9004478,0.05647186189889908,0.14286762475967407,-0.9881294369697571,-0.011427868157625198,0.0015415400266647339,0.00981217622756958,-0.008052991703152657,-0.009847698733210564,0.021385416388511658,0.057088168700470704,-0.14335815243666467,0.6747566335071548
1687009959.9886,0.05691727250814438,0.143716961145401,-0.9879807233810425,-0.0018177404999732971,-0.010919749736785889,0.0056198835372924805,-0.024012185633182526,0.00032144878059625626,0.0016798879951238632,0.05754609440036064,-0.14421635275797673,0.6752962958948961
1687009960.0760698,0.05661990866065025,0.145135298371315,-0.9877904057502747,0.00243164598941803,-0.002358853816986084,0.0029577016830444336,-0.03555638715624809,-0.00928470678627491,0.0032266518101096153,0.057257106691929224,-0.1456497170213696,0.6755901817820591
1687009960.0816,0.05628642812371254,0.1459456980228424,-0.9876900911331177,0.0017275325953960419,0.003056347370147705,-0.013652682304382324,-0.02946893684566021,-0.010120939463376999,0.007732453756034374,0.05692637484973927,-0.1464688458812089,0.6757923619163952
1687009960.162621,0.05638483911752701,0.14736542105674744,-0.9874736070632935,0.001323949545621872,0.0031625032424926758,-0.003996729850769043,-0.02169017307460308,-0.0034948610700666904,0.00481922272592783,0.05703815831873023,-0.14790407988179857,0.6761065904136769
1687009960.1683102,0.055854760110378265,0.1477108746767044,-0.9874521493911743,0.0016709230840206146,-0.005331143736839294,0.006678223609924316,-0.03846815600991249,-0.004592216573655605,-0.005661914125084877,0.056504311499948105,-0.14825335827360633,0.6761107235312436
1687009960.315788,0.0559203177690506,0.1494561731815338,-0.9871857762336731,-0.009808212518692017,0.0033911019563674927,0.006839096546173096,-0.006913624703884125,0.0047452254220843315,-0.007286176085472107,0.05658572358133203,-0.15001824203821768,0.6759914151468098
1687009960.33209,0.05585240572690964,0.1498653143644333,-0.9871276021003723,0.005655817687511444,0.0035770386457443237,0.009084999561309814,-0.00807735975831747,0.0008994878735393286,-0.002622980624437332,0.05652047381087187,-0.15043204875876665,0.6757728239000039
1687009960.406302,0.05567627772688866,0.14969635009765625,-0.9871631860733032,0.0005524083971977234,0.0028152167797088623,0.0033222436904907227,0.004185298457741737,0.00021026167087256908,-0.011534184217453003,0.0563405868066175,-0.15026116124490227,0.6754019270013291
1687009960.420594,0.055866584181785583,0.150363028049469,-0.9870511293411255,0.012233436107635498,-0.004244878888130188,-0.004526019096374512,-0.022951047867536545,-0.0038498605135828257,-0.004079730249941349,0.05653916303885459,-0.15093545988927473,0.6752691010599894
1687009960.424183,0.055631816387176514,0.15152607858181,-0.9868865013122559,0.0032061226665973663,0.008416518568992615,-0.01775217056274414,-0.019490869715809822,0.0012779230019077659,0.0017419401556253433,0.05631144066023922,-0.15211200121549295,0.6750714571729274
1687009960.491465,0.055969513952732086,0.1512940675020218,-0.9869030117988586,-0.002243269234895706,0.0019957125186920166,-0.005604922771453857,0.0033735670149326324,0.0005207863869145513,-0.003218463622033596,0.05665159053847387,-0.15187727591197034,0.6748512799135703
1687009960.495129,0.055768709629774094,0.1514584720134735,-0.986889123916626,0.0005362667143344879,-0.0022428035736083984,0.0064661502838134766,-0.010433059185743332,0.007731561083346605,-0.014564328826963902,0.05644956416563345,-0.15204360063942413,0.6744512268727375
1687009960.583561,0.0559818372130394,0.15193817019462585,-0.9868033528327942,-0.009595070034265518,0.007210969924926758,0.0006430745124816895,0.0057723429054021835,0.010438531637191772,-0.006153800059109926,0.05666974750318828,-0.15252892048926586,0.6738813396208908
1687009960.598413,0.05667664855718613,0.1523946076631546,-0.986693263053894,0.009180329740047455,-0.006001800298690796,0.001021265983581543,-0.014693384990096092,0.0003318350063636899,-0.007882989943027496,0.05737795120744814,-0.15299072362342084,0.6738283564416775
1687009960.63765,0.05591864883899689,0.1531461924314499,-0.9866201877593994,-0.0004986822605133057,0.013159319758415222,0.005388498306274414,-0.00763653963804245,0.0004974837647750974,-0.011472931131720543,0.05661640811918582,-0.153751249393123,0.6734098388195927
1687009960.733574,0.05639796331524849,0.15377363562583923,-0.9864952564239502,0.008345119655132294,-0.007212996482849121,-0.006806075572967529,-0.02434954047203064,-0.002579399384558201,-0.006678708828985691,0.05710786643421217,-0.15438619943949328,0.6731695010027522
1687009960.749223,0.05588192865252495,0.15422573685646057,-0.9864540696144104,0.0011249557137489319,0.007639467716217041,-0.0058249831199646,0.009834595024585724,0.001790981157682836,-0.004076267592608929,0.056588812352059474,-0.15484376699501506,0.6728641522044669
1687009960.79055,0.05588410794734955,0.15377309918403625,-0.9865245819091797,-0.006842311471700668,0.009923160076141357,0.009931564331054688,0.004765600897371769,-0.00016604282427579165,-0.002148139290511608,0.056586977747342074,-0.15438566356171063,0.6726857263046481
1687009960.8807511,0.05588919296860695,0.15401464700698853,-0.9864866137504578,0.0018806271255016327,0.003990083932876587,0.005331218242645264,-0.0004210381302982569,0.0053536249324679375,-0.005299457814544439,0.05659429070814276,-0.15463013014993654,0.6726049235018735
1687009960.887944,0.05601741373538971,0.1539916694164276,-0.9864829778671265,-0.002489537000656128,-0.0016632080078125,0.0006126165390014648,-0.013161733746528625,0.0033413399942219257,-0.0007774103432893753,0.05672406269163238,-0.15460686814095595,0.6723129977358249
1687009960.935981,0.05615203082561493,0.15347513556480408,-0.986555814743042,0.004715323448181152,-0.002214774489402771,0.007399320602416992,0.008735309354960918,-0.004473173059523106,-0.0023739757016301155,0.05685589507002064,-0.15408411880306128,0.6722801954368676
1687009961.039017,0.05574852228164673,0.15352702140808105,-0.9865705966949463,0.0043711550533771515,0.0077431052923202515,-0.011567831039428711,0.009511953219771385,-0.006958568003028631,-0.005335144232958555,0.05644735168123097,-0.1541366305136481,0.6722292863514256
1687009961.054956,0.056018780916929245,0.1528932750225067,-0.9866536855697632,-0.00030889734625816345,-0.0023958832025527954,-0.010141909122467041,0.022328749299049377,0.007153388578444719,-0.0008210865780711174,0.05671564613143537,-0.15349530589897856,0.67194105922593
1687009961.0878959,0.05622928589582443,0.1505708396434784,-0.9869988560676575,0.002486579120159149,0.008318901062011719,0.007735550403594971,0.041651248931884766,0.007864054292440414,-0.0055082496255636215,0.056908448890922676,-0.15114567203098378,0.6717397413267993
1687009961.179992,0.05629458650946617,0.14853399991989136,-0.9873036742210388,-0.004796132445335388,-3.549456596374512e-05,-0.0007028579711914062,0.010694996453821659,0.004738168325275183,-0.0006282730028033257,0.05695684053113847,-0.14908565533569426,0.6715262324803917
1687009961.1853151,0.05637647956609726,0.14760537445545197,-0.9874382615089417,0.001927398145198822,-0.004981502890586853,0.004146695137023926,0.001503495266661048,-0.007103843614459038,0.005670369602739811,0.057031759436901676,-0.1481466802602055,0.67158222997061
1687009961.24213,0.056143637746572495,0.1467037945985794,-0.9875859022140503,0.001137901097536087,0.011209383606910706,0.009512782096862793,0.0618119090795517,-0.0014183943858370185,0.00313583854585886,0.05678824921751053,-0.14723518111892764,0.6718365017613478
1687009961.362189,0.05638847500085831,0.1453583687543869,-0.9877708554267883,0.003960084170103073,-0.00046093761920928955,-0.00577467679977417,-0.006831799168139696,-0.00275516789406538,0.004433064721524715,0.05702470154920891,-0.14587517390713564,0.6719997499935402
1687009961.367457,0.05609964579343796,0.14499343931674957,-0.9878409504890442,0.0033028647303581238,0.0047868043184280396,-0.0005623698234558105,0.02305605821311474,-0.0024499697610735893,-0.002177434042096138,0.056729227746182116,-0.14550633996626952,0.6718869862036851
1687009961.45158,0.0564400851726532,0.14358703792095184,-0.9880269765853882,0.0012992173433303833,0.003324553370475769,-0.004969239234924316,0.018759114667773247,0.005674136336892843,-5.462858825922012e-05,0.05706202078644235,-0.14408507123364198,0.6718054275967993
1687009961.4662762,0.05620381981134415,0.14210838079452515,-0.988254189491272,-0.0017146356403827667,-0.00610680878162384,0.007434487342834473,0.043763600289821625,-0.004102727398276329,0.0033137379214167595,0.05681062827582768,-0.14259108134374815,0.6720070373388385
1687009961.5416322,0.05631648004055023,0.1398508995771408,-0.9885697364807129,-0.010570589452981949,0.02743116021156311,0.007475435733795166,0.07939010113477707,0.007339943200349808,0.008268016390502453,0.05690612745935202,-0.14031083552827323,0.6723476721616146
1687009961.546536,0.057194337248802185,0.13597077131271362,-0.9890605211257935,0.019816815853118896,0.017486855387687683,-0.012205958366394043,0.12425611168146133,-0.01714276149868965,-0.03613007441163063,0.05776260468660029,-0.13639326935890636,0.6712567702060079
1687009961.596634,0.05330660939216614,0.12523898482322693,-0.9906935095787048,0.026756305247545242,-0.011072739958763123,0.025514066219329834,0.21864712238311768,-0.07761316001415253,-0.0044794706627726555,0.053755528905046264,-0.125568704179032,0.6715149715350422
1687009961.693861,0.051816876977682114,0.11664346605539322,-0.9918212294578552,0.0018178150057792664,-0.03531413525342941,-0.050018370151519775,0.11027571558952332,-0.00680144177749753,-0.01910741627216339,0.05219671506149596,-0.11690960091919617,0.6701763346412671
1687009961.6992002,0.05227210000157356,0.10892251133918762,-0.9926749467849731,-0.004969805479049683,-0.06108622997999191,-0.013932108879089355,0.13445527851581573,0.008629845455288887,-0.01831645704805851,0.05260923135121605,-0.1091390460267478,0.6687759209523652
1687009961.786627,0.05250101909041405,0.10387811809778214,-0.9932034015655518,-0.024852048605680466,-0.007824063301086426,-0.017447233200073242,0.021145572885870934,0.019359588623046875,-0.009016964584589005,0.05281113917295907,-0.10406585269060237,0.6676761620551527
1687009961.872284,0.053395528346300125,0.10388355702161789,-0.9931551218032837,-0.016209814697504044,0.005003131926059723,0.03258389234542847,0.016805220395326614,0.013027256354689598,0.013052650727331638,0.05371181881437556,-0.10407132001921508,0.6679309499241162
1687009961.888721,0.05317792668938637,0.10308525711297989,-0.9932500123977661,-0.0015726536512374878,-0.02543330192565918,-0.016393542289733887,-0.008914923295378685,0.012150278314948082,-0.0037553571164608,0.05348824973642767,-0.10326871185282309,0.6676763364888344
1687009961.967797,0.05363744497299194,0.10285474359989166,-0.9932491779327393,0.007916558533906937,0.023716889321804047,0.017388582229614258,0.012221653945744038,-0.006451901979744434,-0.011299826204776764,0.053949599888210915,-0.1030369674991801,0.6673925091534569
1687009961.98106,0.05317915230989456,0.1026860773563385,-0.9932912588119507,0.010480564087629318,-0.025354556739330292,-0.028818726539611816,0.003182152286171913,-0.003028807695955038,-0.002689293585717678,0.05348725926122588,-0.10286739811616252,0.6669827013345154
1687009962.050088,0.05378042906522751,0.10571151971817017,-0.9929414391517639,0.010016612708568573,0.030320554971694946,-0.0026639699935913086,-0.034924086183309555,0.01111630629748106,-0.0011262847110629082,0.05410986761803709,-0.10590940174235138,0.6670486980980731
1687009962.062955,0.05386198312044144,0.10639207065105438,-0.9928643703460693,-0.011595092713832855,0.013938717544078827,0.003713369369506836,0.013521342538297176,0.007679763250052929,0.003802427090704441,0.05419596309781641,-0.10659381266993413,0.6669730744642662
1687009962.144944,0.05455280840396881,0.10817379504442215,-0.9926340579986572,0.01069381833076477,0.03620483726263046,4.988908767700195e-05,-0.013570462353527546,0.023825708776712418,0.0060341572389006615,0.05490239109783996,-0.1083858839434841,0.66698788290202
1687009962.149821,0.055387042462825775,0.10874747484922409,-0.9925252199172974,-0.016019318252801895,-0.010648742318153381,0.005235791206359863,-0.029041897505521774,0.018731482326984406,-0.00012946315109729767,0.05574634914136485,-0.10896296423660246,0.6665746443685082
1687009962.198337,0.05615729093551636,0.10953103750944138,-0.9923957586288452,0.0027264244854450226,-0.018909119069576263,0.0008186101913452148,0.005368141457438469,0.007500132545828819,-0.005902930162847042,0.056527312763042584,-0.10975123994503105,0.6665832836690027
1687009962.291265,0.056083932518959045,0.11005280911922455,-0.9923421740531921,0.006492409855127335,-0.013281591236591339,-0.0035532116889953613,-0.04695738106966019,0.005417007952928543,0.001817041076719761,0.05645666822086984,-0.11027618243854674,0.6666578435226379
1687009962.296832,0.056459493935108185,0.11115428805351257,-0.99219810962677,0.0035228505730628967,-0.011819593608379364,-0.02135169506072998,-0.026597581803798676,0.003071961458772421,-0.002491421066224575,0.056842151430386435,-0.11138445898289524,0.6665985323750997
1687009962.350698,0.05662136897444725,0.11387939006090164,-0.9918797612190247,0.008808359503746033,0.010693326592445374,0.008191466331481934,-0.06705538928508759,-0.0024402490817010403,4.6838074922561646e-05,0.0570230250230561,-0.11412698132305793,0.6665259504445114
1687009962.443791,0.056691065430641174,0.11566189676523209,-0.9916695356369019,-0.0036667287349700928,0.0004421994090080261,0.0077217817306518555,-0.028210991993546486,0.007131018675863743,-0.017980631440877914,0.05710514357189637,-0.115921344112433,0.6663679817005767
1687009962.450113,0.056830182671546936,0.11793256551027298,-0.9913941025733948,-0.0003115832805633545,-0.0001499950885772705,-0.005996644496917725,-0.07425564527511597,0.001292969798669219,0.0006987797096371651,0.05726084090418078,-0.11820765707148312,0.6661337367729858
1687009962.535697,0.05655151978135109,0.12343569844961166,-0.9907398819923401,0.01008366048336029,-0.0033337920904159546,0.009523451328277588,-0.12622325122356415,0.0012149394024163485,-0.014602412469685078,0.057018214883065875,-0.12375132092574248,0.6660903279790363
1687009962.655478,0.05697997659444809,0.12720191478729248,-0.9902388453483582,-0.017276562750339508,-0.024037256836891174,-0.0033677220344543457,-0.13200409710407257,-0.0071925269439816475,0.039895981550216675,0.05747826994519389,-0.12754746507508458,0.6666458079245188
1687009962.671428,0.0579582117497921,0.1334540694952011,-0.9893587827682495,0.008295495063066483,-0.0044715553522109985,-0.026830732822418213,0.0029125071596354246,0.04351472482085228,0.04088055342435837,0.05851471376593799,-0.13385341245963928,0.6687912354909511
1687009962.7757611,0.05829579755663872,0.13426029682159424,-0.9892298579216003,-0.009238746017217636,-0.006498485803604126,0.03607439994812012,-0.07296081632375717,0.02444010227918625,-0.024951189756393433,0.05886240952055423,-0.13466696260092806,0.6688847441427662
1687009962.780984,0.05854867026209831,0.13785600662231445,-0.9887202978134155,0.01257259026169777,0.01439616084098816,0.0019038915634155273,-0.045748841017484665,-0.009673794731497765,0.0030290456488728523,0.05914754818228746,-0.13829643231001765,0.6690752806974292
1687009962.784966,0.058381080627441406,0.14231762290000916,-0.9880978465080261,-0.008194874972105026,0.015000462532043457,0.011550605297088623,-0.06262868642807007,-0.004609660245478153,-0.01084895245730877,0.059015700642021135,-0.14280248430520312,0.669293822567776
1687009962.862716,0.05837666615843773,0.1449933499097824,-0.9877089858055115,0.0006138607859611511,-0.008808672428131104,0.0009230971336364746,-0.06187048181891441,-0.006716753356158733,0.0029587382450699806,0.059034424756723027,-0.14550624461191006,0.6691252648554376
1687009962.8668752,0.05789691582322121,0.14675170183181763,-0.9874775409698486,0.0005290322005748749,0.01071898639202118,-0.004984617233276367,-0.0062405108474195,-0.005799560341984034,-0.0017870152369141579,0.05856407800979246,-0.14728361995327005,0.6693305485182633
1687009962.953083,0.05801692232489586,0.1475464105606079,-0.9873520731925964,0.0008515305817127228,0.001455649733543396,-0.010298073291778564,-0.05430251359939575,0.001079517649486661,0.004998187534511089,0.058692629484785465,-0.14808706968926827,0.6695041041437653
1687009962.966432,0.058355797082185745,0.15133699774742126,-0.9867581725120544,0.004602011293172836,0.006347298622131348,-0.0021944642066955566,-0.050280407071113586,0.0034099167678505182,-0.003482382744550705,0.05907010424434719,-0.15192071379751232,0.6696112385140176
1687009963.045185,0.05805585905909538,0.15175549685955048,-0.9867116212844849,-0.004192285239696503,-0.007239535450935364,-0.006452441215515137,-0.017639771103858948,-0.001199748832732439,0.003590705804526806,0.058769961766549514,-0.15234410437663992,0.6696979579918076
1687009963.050684,0.058122504502534866,0.15263088047504425,-0.9865726232528687,-0.004274196922779083,0.016314387321472168,0.014252126216888428,0.013430462218821049,0.004289691802114248,-0.005046990234404802,0.05884554164252633,-0.15322980740654046,0.6698409859800222
1687009963.133343,0.05807492509484291,0.15288087725639343,-0.9865367412567139,-0.004150319844484329,0.00559687614440918,-0.007161378860473633,0.0020951831247657537,-0.0034240209497511387,0.006469317711889744,0.05879961585163708,-0.1534827638847068,0.6698084718862198
1687009963.148345,0.058197010308504105,0.1532851755619049,-0.9864668250083923,0.004135191440582275,0.004277065396308899,0.006562650203704834,-0.0062752654775977135,0.003334815613925457,-0.001966245472431183,0.05892710506586431,-0.1538918847363516,0.6699379467134895
1687009963.187571,0.0580085888504982,0.15323913097381592,-0.9864850640296936,0.0031639449298381805,0.002965077757835388,-0.0039934515953063965,-0.0012260451912879944,-0.009058204479515553,0.0049776798114180565,0.058735674712410646,-0.1538452859603762,0.6700595942462968
1687009963.251477,0.05804862082004547,0.1531277745962143,-0.9865000247955322,0.002101574093103409,-0.005270123481750488,-0.0041310787200927734,-0.006916155107319355,0.0018983064219355583,0.008984140120446682,0.058775227582450504,-0.1537326031582427,0.6703893187754904
1687009963.344263,0.05810452625155449,0.15339212119579315,-0.9864556193351746,0.0022287704050540924,0.0024916380643844604,-0.00034552812576293945,-0.0068051014095544815,0.0006258480716496706,-0.002135888673365116,0.058834342704154496,-0.1540001088714718,0.6704926370132375
1687009963.349917,0.05834541842341423,0.15397730469703674,-0.9863502383232117,-0.01127200573682785,0.003859579563140869,0.00545424222946167,-0.01695580594241619,0.008531041443347931,-0.0028815744444727898,0.05908399076975081,-0.15459232845798004,0.6704526556939612
1687009963.433207,0.058601975440979004,0.15445002913475037,-0.9862611293792725,-0.005486082285642624,0.001113295555114746,0.001916646957397461,-0.0015973562840372324,0.009802435524761677,-0.0012581106275320053,0.05934853715568722,-0.15507077968647454,0.670543212915076
1687009963.448658,0.05872112140059471,0.15464508533477783,-0.9862234592437744,0.0024208910763263702,0.008761242032051086,0.00027680397033691406,0.02408723346889019,0.00044754950795322657,0.0024271709844470024,0.05947118462453966,-0.1552682131039957,0.6704983960804685
1687009963.49118,0.059404708445072174,0.15272192656993866,-0.9864822030067444,-0.022646240890026093,0.015811368823051453,0.047975122928619385,-0.09387921541929245,0.054656729102134705,-0.03859083727002144,0.060146103797548804,-0.15332192332503708,0.6701008675732153
1687009963.580278,0.05729009956121445,0.1436498612165451,-0.987968921661377,-0.005196545273065567,-0.025256946682929993,-0.028724193572998047,0.4514636695384979,-0.13283607363700867,-0.00164773128926754,0.05792288873542026,-0.14414855212182853,0.6695202932563994
1687009963.584398,0.053182799369096756,0.12134116888046265,-0.9911851286888123,-0.062338024377822876,-0.16760583221912384,0.054982125759124756,0.11668521165847778,0.009385917335748672,-0.00862574577331543,0.053604365867564466,-0.12164092092857093,0.6658547210580315
1687009963.63961,0.053717970848083496,0.11439256370067596,-0.9919822216033936,-0.002936672419309616,-0.005368530750274658,0.0012290477752685547,0.10142289847135544,0.020669730380177498,-0.02614268846809864,0.05409930940590986,-0.11464352594012622,0.665843195584173
1687009963.733695,0.05516419932246208,0.11331646889448166,-0.9920263290405273,-0.0249975323677063,0.03631118685007095,-0.004631936550140381,-0.04235164076089859,0.037644583731889725,0.023524999618530273,0.055550384857735884,-0.11356039221125738,0.6653048667388324
1687009963.747323,0.05600498616695404,0.11500456184148788,-0.991784930229187,-0.0031942762434482574,-0.029463820159435272,-0.03363615274429321,0.0033957376144826412,0.0058746724389493465,0.00196165032684803,0.05640897474363338,-0.11525959537401322,0.6662304687845141
1687009963.7888489,0.055873289704322815,0.11953544616699219,-0.9912564754486084,-0.021830882877111435,-0.007322333753108978,0.007949590682983398,-0.14675061404705048,0.013272134587168694,0.003432248719036579,0.05630654418574627,-0.11982195935659258,0.6659824560775985
1687009963.885052,0.05645211786031723,0.12106886506080627,-0.9910376071929932,0.015142165124416351,-0.010900430381298065,-0.006673574447631836,-0.02010066621005535,-0.00907817855477333,0.0010274136438965797,0.05690115146794388,-0.12136659653101094,0.6664883544279704
1687009963.8969011,0.056191977113485336,0.12373389303684235,-0.9907231330871582,0.012991413474082947,0.007262781262397766,-0.013305127620697021,-0.05684629827737808,0.0019132201559841633,0.022814199328422546,0.05665743961885701,-0.12405181734315865,0.6672372521462513
1687009964.001892,0.05651646852493286,0.12444452941417694,-0.9906156659126282,-0.0020425505936145782,0.010595723986625671,-0.0003358125686645508,-0.0170257817953825,-0.0010854991851374507,-0.00011588167399168015,0.0569900832734643,-0.12476798959096704,0.6675499378795481
1687009964.0167608,0.05676446482539177,0.12650035321712494,-0.990341067314148,0.0029127001762390137,0.02358505129814148,0.0018767714500427246,-0.016245607286691666,0.0029989909380674362,0.010254734195768833,0.05725545052897685,-0.1268401936320664,0.6680744836200582
1687009964.09324,0.05654630810022354,0.12811268866062164,-0.990146279335022,-0.0015078112483024597,-0.004775926470756531,-0.004024863243103027,-0.016462255269289017,0.002724419115111232,0.002973386086523533,0.057047080770660626,-0.12846575793344175,0.6683966261655299
1687009964.09905,0.05661890283226967,0.12923158705234528,-0.9899967312812805,-0.0029842108488082886,-0.00882449746131897,0.008383572101593018,-0.0480036698281765,0.0038155161309987307,-0.0010152310132980347,0.057128768220857176,-0.12959402436332282,0.6682368307287089
1687009964.148611,0.0566224530339241,0.13115334510803223,-0.9897437691688538,0.005770780146121979,-0.01149393618106842,0.0029883980751037598,-0.029277121648192406,-0.007849129848182201,-0.004860835149884224,0.057146914007516814,-0.13153228290291186,0.6684528422134489
1687009964.24195,0.0563708059489727,0.13276216387748718,-0.989543616771698,0.0023145414888858795,0.0060012489557266235,-0.008365929126739502,-0.0524260476231575,0.002524015959352255,0.004103098995983601,0.05690496857245865,-0.13315528978909022,0.6684253823939523
1687009964.2565799,0.056847698986530304,0.13403670489788055,-0.9893444776535034,-0.004784666001796722,-0.006351187825202942,0.003519892692565918,-0.03358418494462967,0.0036478699184954166,0.01173332054167986,0.057396852866750024,-0.13444132714325946,0.6686808920512323
1687009964.300756,0.05689791589975357,0.13646459579467773,-0.9890096187591553,-0.010984174907207489,0.007196858525276184,-0.003071010112762451,-0.027718771249055862,0.014707311987876892,0.004044775851070881,0.05746684900832179,-0.136891743304119,0.6691092666943734
1687009964.388908,0.05753087252378464,0.13957881927490234,-0.9885382652282715,-0.011830758303403854,0.0052880942821502686,0.00813060998916626,-0.08323043584823608,0.020029772073030472,0.010757804848253727,0.058132349818504646,-0.1400360533661273,0.669660500585657
1687009964.404375,0.05833226814866066,0.14378070831298828,-0.9878888726234436,-0.005857247859239578,-0.006756797432899475,0.0058637261390686035,-0.09005352109670639,0.024761810898780823,0.010529306717216969,0.05897891805591253,-0.14428076265353312,0.6702924118341483
1687009964.484309,0.05959256365895271,0.1482677161693573,-0.9871501326560974,-0.00704125314950943,-0.014814391732215881,-0.0072498321533203125,-0.12179972976446152,0.0409354567527771,0.01863383874297142,0.0602951140182816,-0.1488163970209713,0.6717149955492402
1687009964.49827,0.06248210743069649,0.15169553458690643,-0.9864504337310791,0.0006740652024745941,0.03054015338420868,-0.0074307918548583984,0.03257825970649719,0.0870419591665268,0.004930275492370129,0.06325583857987858,-0.1522834305491751,0.6722718424615864
1687009964.540234,0.06280336529016495,0.15336155891418457,-0.9861723780632019,0.021730370819568634,-0.039469972252845764,-0.024478256702423096,-0.06110788881778717,-0.03222956880927086,0.00041968002915382385,0.06359807610545035,-0.15396917720739953,0.6725331969649279
1687009964.630279,0.062137216329574585,0.15645188093185425,-0.9857290387153625,0.005489781498908997,-0.021716803312301636,0.02058011293411255,-0.06687256693840027,-0.0016375725390389562,-0.02284090220928192,0.06295351578325269,-0.15709727286392697,0.672281673055931
1687009964.637181,0.06288129091262817,0.15733104944229126,-0.9855419397354126,-0.019790425896644592,0.007997900247573853,0.005317330360412598,-0.0049734460189938545,0.0031189662404358387,-0.013848205097019672,0.06371740002194617,-0.15798746383150983,0.6719292652091502
1687009964.689733,0.06339303404092789,0.15873023867607117,-0.9852847456932068,0.009772904217243195,-0.0037314891815185547,0.008005082607269287,-0.043314844369888306,0.00888763926923275,0.00524213258177042,0.06425125041760935,-0.159404459414619,0.6722436072233018
1687009964.8138552,0.06279056519269943,0.1594480574131012,-0.9852074384689331,-0.007294304668903351,-0.017602384090423584,0.008309245109558105,-0.0322691835463047,0.008725053630769253,-0.018089288845658302,0.06364726125807445,-0.16013153729218615,0.6718039396264208
1687009964.819638,0.06446089595556259,0.16168764233589172,-0.9847344160079956,0.00768270343542099,0.008157908916473389,0.009041666984558105,-0.07380478084087372,0.007533022668212652,-0.007808688096702099,0.06536692539418816,-0.16240056526018895,0.6718540252736442
1687009964.9030762,0.06391175091266632,0.16380417346954346,-0.9844203591346741,-0.004371918737888336,0.029723018407821655,-0.017990469932556152,-0.002077723853290081,-0.00017230137018486857,0.0018900120630860329,0.0648322401308457,-0.1645456866007951,0.6718351573682544
1687009964.915154,0.06431332230567932,0.16521090269088745,-0.9841591119766235,0.00459541380405426,0.002483159303665161,0.004697442054748535,-0.05346927419304848,-0.001137164537794888,-0.005129548255354166,0.06525571743316912,-0.1659718543722554,0.6721521577729884
1687009964.993916,0.06421303749084473,0.16750209033489227,-0.9837782979011536,0.006511494517326355,-0.0019137412309646606,-0.0009018778800964355,-0.03625660017132759,-0.002821614034473896,0.010665659792721272,0.06517939747857299,-0.1682954183167062,0.672368209075161
1687009964.998536,0.06449950486421585,0.167929008603096,-0.9836867451667786,-0.009750932455062866,-0.00273740291595459,0.0009139776229858398,-0.007339730858802795,0.013832729309797287,0.0021384842693805695,0.06547542470531391,-0.16872847034964966,0.6720992115448324
1687009965.084336,0.06483180820941925,0.1690605729818344,-0.9834710955619812,0.001757591962814331,0.005225285887718201,0.002376735210418701,-0.02223346009850502,-0.0018980295863002539,0.0033424990251660347,0.06582617912393954,-0.1698764503594643,0.6721340902323031
1687009965.0975819,0.06439387053251266,0.17055189609527588,-0.9832423329353333,0.005552463233470917,0.004344314336776733,-0.004489600658416748,-0.031105447560548782,-0.0060785263776779175,3.778282552957535e-05,0.06539795806992535,-0.17138974964493248,0.6723123510045321
1687009965.137344,0.06456118822097778,0.17153513431549072,-0.9830603003501892,0.0007769912481307983,0.00520738959312439,-0.005648195743560791,-7.429462857544422e-05,0.00012077949941158295,-0.004582002758979797,0.06557950601574129,-0.17238769018786626,0.6719924742549015
1687009965.323204,0.0646800845861435,0.17137055099010468,-0.9830811619758606,0.005983404815196991,0.01359643042087555,-0.001980423927307129,0.013419010676443577,-0.0023250675294548273,-0.002209925092756748,0.06569853770257024,-0.17222063636538557,0.6720432473769639
1687009965.33688,0.06529346108436584,0.17177407443523407,-0.9829701781272888,-0.00450240820646286,0.0012300461530685425,0.007216453552246094,-0.00580475153401494,0.011073028668761253,0.0014873417094349861,0.06632722400739399,-0.1726302299415363,0.6722014836908865
1687009965.3482761,0.06580694019794464,0.1716907024383545,-0.9829505085945129,0.025196515023708344,-0.08102300763130188,0.007639288902282715,-0.045330122113227844,-0.01189873181283474,0.007336442358791828,0.0668486203606716,-0.17254559627253452,0.6727322672333229
1687009965.351862,0.06598937511444092,0.1725824922323227,-0.9827821254730225,-0.017618969082832336,-0.02974499762058258,0.01975417137145996,0.006570558529347181,0.011099128052592278,-0.004349508322775364,0.06704484482391666,-0.17345090190146684,0.6729628209086471
1687009965.3545299,0.06673213839530945,0.1673646718263626,-0.9836339950561523,-0.004048988223075867,-0.00040303170680999756,0.016058921813964844,0.0851740837097168,0.003311379812657833,0.028222814202308655,0.06773865197108789,-0.16815603255709613,0.6744895931780375
1687009965.407191,0.06715084612369537,0.16369450092315674,-0.9842230081558228,0.005893021821975708,0.005784839391708374,0.006195664405822754,0.06825036555528641,0.0009225241374224424,0.038210466504096985,0.06812170184580642,-0.16443451868221362,0.6765812886461683
1687009965.532741,0.06730673462152481,0.16269807517528534,-0.9843775629997253,-0.00865190476179123,-0.012002289295196533,-0.025021851062774658,0.010372154414653778,-0.00988351833075285,0.04606785997748375,0.06826866058388072,-0.16342454949356833,0.6780727288142477
1687009965.539287,0.06729666888713837,0.16209545731544495,-0.9844776391983032,-0.004766106605529785,-0.005845487117767334,0.010783791542053223,0.009973280131816864,-0.009354215115308762,0.0361316055059433,0.0682515652880821,-0.1628138179418163,0.6800053535525432
1687009965.5897589,0.06664586812257767,0.1598758101463318,-0.9848847985267639,-0.006678782403469086,-0.005289047956466675,0.020361483097076416,-0.00015725195407867432,-0.007695598527789116,0.02904972806572914,0.06756569165212686,-0.1605648373353461,0.6814055631181566
1687009965.6881251,0.06652311980724335,0.1617022007703781,-0.9845948815345764,-0.007975101470947266,-0.0048723965883255005,-0.004052579402923584,-0.02763414941728115,-0.003692867001518607,0.018584836274385452,0.06746142214622851,-0.1624153177085238,0.6825597542885746
