Timestamp,gravityX,gravityY,gravityZ,accelerationX,accelerationY,accelerationZ,rotationRateX,rotationRateY,rotationRateZ,attitudeRoll,attitudePitch,attitudeYaw
1687008120.679662,0.09054690599441528,0.1505689173936844,-0.9844441413879395,0.0027453452348709106,-0.010203376412391663,-0.010550975799560547,-0.01575949415564537,-0.013995971530675888,0.0065273744985461235,0.09171963116413488,-0.15114373044321477,1.599150889129583
1687008120.769634,0.0903540775179863,0.15153563022613525,-0.9843134880065918,0.0019005611538887024,-0.007248595356941223,-0.006348073482513428,-0.017992423847317696,-0.007684546522796154,-0.0011952603235840797,0.09153747936138777,-0.15212165892917032,1.599333750265467
1687008120.791596,0.09015493094921112,0.15173611044883728,-0.9843009114265442,0.0004517659544944763,-0.0040005892515182495,0.0063193440437316895,-0.022757817059755325,-0.0034731561318039894,0.0007073022425174713,0.09133800997506318,-0.15232448121297953,1.5993844516019873
1687008120.861,0.09004126489162445,0.15232840180397034,-0.9842197895050049,0.0008706077933311462,-0.0008239448070526123,0.005536317825317383,-0.004580411594361067,-0.005681715905666351,-0.00213056243956089,0.09123096496443873,-0.15292373587869632,1.5994342940052013
1687008120.864907,0.0900660827755928,0.15204691886901855,-0.9842610359191895,-0.00817214697599411,0.00310438871383667,0.004662036895751953,0.006992022041231394,0.014623954892158508,0.0034599443897604942,0.09125216308837886,-0.15263893694745373,1.5995013489246586
1687008120.920598,0.0898929238319397,0.15198130905628204,-0.9842870235443115,-0.005435511469841003,-0.005603805184364319,0.0048406124114990234,-0.015441715717315674,-0.003937079105526209,-0.014047675766050816,0.09107530402740115,-0.15257256244745812,1.5992404367449011
1687008120.985475,0.08973080664873123,0.15264807641506195,-0.9841986298561096,-0.001992754638195038,0.008194759488105774,-0.004113137722015381,0.010381827130913734,0.0039513371884822845,-0.0009491844102740288,0.09092007836214855,-0.15324719788026991,1.5992509233623047
1687008121.077549,0.08998073637485504,0.15222162008285522,-0.9842418432235718,0.0032809972763061523,-0.011016845703125,-0.008937478065490723,-0.0220388974994421,0.002930414630100131,0.002569383941590786,0.09116794040375749,-0.1528156954883709,1.5992552484457572
1687008121.083576,0.08991710841655731,0.15297046303749084,-0.9841315746307373,0.003161512315273285,-0.00544854998588562,0.0034797191619873047,-0.01954737678170204,-0.010234655812382698,-0.006902148015797138,0.09111398574519945,-0.15357341504659425,1.5991104296064045
1687008121.136472,0.08977402001619339,0.15373298525810242,-0.9840258359909058,-0.002417445182800293,-0.0013587921857833862,0.007997393608093262,-0.015819748863577843,0.0021133567206561565,-0.003936984576284885,0.09097951200485074,-0.15434506367588072,1.5987240461842227
1687008121.2276301,0.08994848281145096,0.15307208895683289,-0.9841129183769226,-0.004773907363414764,0.007007807493209839,0.0006381869316101074,0.03844941407442093,0.0067756203934550285,-0.0016706343740224838,0.09114732148132608,-0.15367624933015564,1.5986329199886522
1687008121.233516,0.08984562009572983,0.15381036698818207,-0.9840071797370911,-0.004732087254524231,-0.0019702166318893433,0.0028212666511535645,-0.0400102436542511,0.002435465808957815,-0.01503597479313612,0.09105339071712465,-0.15442338300285904,1.598410527218457
1687008121.283277,0.0898994654417038,0.15490713715553284,-0.9838302135467529,0.0019432008266448975,-0.004608139395713806,0.00484156608581543,-0.0218978151679039,0.0002071991330012679,-0.008268349803984165,0.09112395188704912,-0.15553346020903394,1.5979898962274555
1687008121.376178,0.0897974744439125,0.1554097682237625,-0.9837602376937866,-0.0018457993865013123,-0.0007467418909072876,-0.013584733009338379,-0.014802622608840466,0.0058890534564852715,-0.0031990231946110725,0.0910275812536475,-0.15604225452171872,1.597822963713709
1687008121.395845,0.08979067206382751,0.155648872256279,-0.9837230443954468,0.0016857832670211792,-0.001138433814048767,0.008472800254821777,-0.006148014683276415,-0.00859295018017292,-0.012074273079633713,0.09102414541528395,-0.15628430074998423,1.5972978953865382
1687008121.4299932,0.0898556262254715,0.156479611992836,-0.9835852980613708,0.00029330700635910034,0.0017844736576080322,-0.000698089599609375,-0.02504214458167553,0.008458605036139488,-0.009116034023463726,0.09110231207371833,-0.15712533624831343,1.5971508654950999
1687008121.5283508,0.08976039290428162,0.1580808013677597,-0.983337938785553,-0.0017782002687454224,0.00904865562915802,-0.0009607672691345215,-0.01524750329554081,0.0017571590142324567,-0.007428921293467283,0.09102905646558693,-0.15874670664081778,1.596745800176033
1687008121.534188,0.09011702239513397,0.15780086815357208,-0.9833502769470215,0.0012526214122772217,-0.008417382836341858,0.0016913414001464844,-0.010722126811742783,0.0019470422994345427,0.002914530225098133,0.09138758050349442,-0.15846321432346022,1.59675558206902
1687008121.579564,0.08996704965829849,0.15902304649353027,-0.9831671118736267,-0.007462762296199799,0.00015658140182495117,0.004010617733001709,-0.023198436945676804,0.006531274411827326,-0.001990213990211487,0.09125323931208931,-0.15970102900720784,1.5967475671767104
1687008121.673994,0.09056594222784042,0.15861821174621582,-0.9831775426864624,0.0013377591967582703,-0.01166088879108429,-0.013846993446350098,-0.006730647291988134,0.006883077789098024,0.0009272787719964981,0.09185632991056467,-0.1592909952284466,1.5968681869334573
1687008121.692972,0.09040486812591553,0.15937206149101257,-0.983070433139801,-0.0005000680685043335,-0.0008027851581573486,-0.011344850063323975,-0.0056149824522435665,0.0014615480322390795,-0.0021518683061003685,0.09170380397237952,-0.16005454797334398,1.5968300152504176
1687008121.733954,0.09065300971269608,0.15978403389453888,-0.9829807281494141,0.0024256184697151184,0.004217371344566345,0.0037021636962890625,-0.005259051453322172,0.002266088966280222,-0.00324269849807024,0.09196244928070789,-0.16047187687746542,1.596802146042682
1687008121.824899,0.09062149375677109,0.15945717692375183,-0.9830366969108582,-0.004287257790565491,-0.0029020607471466064,0.0020338892936706543,-0.0007819444872438908,0.0022092305589467287,0.0022095907479524612,0.09192545309513481,-0.16014076590846055,1.5965856132950649
1687008121.8413382,0.09086751192808151,0.158849835395813,-0.9831123352050781,0.0002885088324546814,0.007180988788604736,0.002765655517578125,0.03600902855396271,0.0008343736408278346,-0.004666424356400967,0.09216655118326715,-0.15952558908197312,1.5965911459493338
1687008121.880467,0.09100267291069031,0.15753279626369476,-0.9833117127418518,-0.00021286308765411377,0.007994487881660461,0.004460394382476807,0.03072185255587101,0.005026189610362053,0.0030322419479489326,0.09228425179023804,-0.15819174548701007,1.5968473565992887
1687008122.034349,0.09076094627380371,0.1578555554151535,-0.9832822680473328,-0.003724806010723114,-0.015246987342834473,0.004781961441040039,-0.04603617265820503,-0.007577220909297466,-0.004624346271157265,0.09204324844165447,-0.15851860298645307,1.5967736576978824
1687008122.052851,0.09076854586601257,0.15834900736808777,-0.9832022190093994,-0.0012604817748069763,-0.0004511326551437378,-0.01576012372970581,0.014102528803050518,0.00843317061662674,0.004386193118989468,0.09205835971103633,-0.15901834020075323,1.5967135006871909
1687008122.1230268,0.09029088169336319,0.15798231959342957,-0.9833052158355713,0.007655292749404907,-0.002022296190261841,0.0006392002105712891,-0.006785441655665636,-0.02759646810591221,-0.01383755262941122,0.09156708657169661,-0.1586469781219275,1.5963969292061944
1687008122.138684,0.08986673504114151,0.15942561626434326,-0.9831110835075378,0.003898531198501587,0.013654753565788269,0.008410215377807617,-0.008017288520932198,-0.0012423594016581774,-0.0026003438979387283,0.0911572190011667,-0.16010880235920122,1.5959871476603644
1687008122.1415281,0.08973374217748642,0.15820084512233734,-0.9833210706710815,-0.008358605206012726,0.005922630429267883,-0.003571629524230957,0.03502805158495903,0.013006351888179779,0.006729775108397007,0.09100373566358248,-0.1588682867220406,1.5958828168650898
1687008122.181079,0.08959560841321945,0.15772277116775513,-0.9834104776382446,0.004154406487941742,-0.0007709264755249023,0.003491044044494629,0.01367795467376709,-0.01963108591735363,-0.014340356923639774,0.09085620365405073,-0.15838412717657682,1.595759425415634
1687008122.2770119,0.08950415253639221,0.15592360496520996,-0.9837056398391724,-0.001277826726436615,0.00465981662273407,0.004488170146942139,0.05579245090484619,0.00843583419919014,0.001312105916440487,0.09073688185706469,-0.1565624287914026,1.5955694578766133
1687008122.292887,0.0894533321261406,0.15525895357131958,-0.9838154315948486,-0.0032564178109169006,-0.012680888175964355,-0.0018870830535888672,-0.02886258065700531,-0.003330410923808813,0.0015672361478209496,0.09067558132345097,-0.15588957724205232,1.5956298865473155
1687008122.334056,0.08941707760095596,0.1561247855424881,-0.9836816787719727,0.0035547465085983276,-0.008084073662757874,-0.004141807556152344,-0.0015076561830937862,-0.00489022396504879,-0.0034866444766521454,0.09065128389557395,-0.1567660992948805,1.595605146475083
1687008122.423472,0.0892128124833107,0.1559227555990219,-0.983732283115387,-0.0009407103061676025,-0.001503869891166687,0.003080427646636963,0.005243723746389151,0.00043077149894088507,0.0027105314657092094,0.09044070885286619,-0.15656156472677432,1.5954956121734047
1687008122.440032,0.08840154111385345,0.15424510836601257,-0.9840699434280396,0.0010454952716827393,0.0029966533184051514,0.006790280342102051,0.05794322118163109,-0.02958718314766884,-0.011507020331919193,0.08959210024452455,-0.1548633717883384,1.594966956855263
1687008122.484212,0.08813319355249405,0.15238440036773682,-0.9843838214874268,-0.005705215036869049,-0.005793288350105286,0.005639374256134033,0.00994899682700634,0.016197750344872475,-0.020746324211359024,0.0892932526133177,-0.1529804000893447,1.5941033769372086
1687008122.576668,0.09067375957965851,0.14769813418388367,-0.9848672747612,0.016107261180877686,-0.02033306658267975,-0.011440098285675049,0.14284533262252808,0.05192658677697182,0.021662648767232895,0.09180816927108348,-0.1482404672451792,1.593907660281807
1687008122.594037,0.08780412375926971,0.14870651066303253,-0.9849755167961121,-0.013966836035251617,0.038442462682724,0.011281728744506836,-0.04737674444913864,-0.05325136333703995,0.005313505418598652,0.08890844620681336,-0.1492601059653766,1.5935385610371693
1687008122.6662579,0.0859878808259964,0.1441640704870224,-0.9858107566833496,0.008570849895477295,-0.018340155482292175,-0.02172708511352539,0.07027219235897064,-0.042851854115724564,0.004009888507425785,0.08700533759425537,-0.14466816800306784,1.5927316002917982
1687008122.754654,0.08343339711427689,0.14316117763519287,-0.9861763119697571,0.0007798746228218079,-0.008304059505462646,0.02853471040725708,0.0005959745030850172,-0.06491121649742126,-0.010581837967038155,0.08440192674212327,-0.1436547586414744,1.592618464757817
1687008122.7718248,0.08351220935583115,0.1379944533109665,-0.9869058728218079,-0.03996361047029495,0.028341546654701233,-0.05739039182662964,0.2308153361082077,0.14050638675689697,-0.05362651124596596,0.08441912047355497,-0.13843621155668429,1.5896072069305687
1687008122.8458061,0.08884812146425247,0.13509836792945862,-0.9868406653404236,0.031299591064453125,-0.023617729544639587,0.051904141902923584,-0.011825008317828178,0.028181442990899086,0.04185580089688301,0.0897908065402101,-0.135512744695229,1.5902620243509458
1687008122.849849,0.08767642080783844,0.13720780611038208,-0.9866544008255005,-0.035949110984802246,-0.022324442863464355,-0.006250262260437012,-0.0703863874077797,-0.011080342344939709,-0.022378042340278625,0.08862954555086336,-0.1376420030819256,1.5900015135903591
1687008122.936798,0.08778045326471329,0.1339496374130249,-0.9870927333831787,0.021762408316135406,0.005393564701080322,0.01846480369567871,0.13179805874824524,-0.02456539124250412,0.0036138752475380898,0.08869495664531196,-0.13435347083354918,1.589821713231255
1687008122.955545,0.08691681176424026,0.1359112411737442,-0.9869009852409363,-0.02476774901151657,-0.005402877926826477,-0.01381617784500122,-0.10050248354673386,0.00581821333616972,-0.022127440199255943,0.08784379405616438,-0.13633318536896666,1.5889888156944845
1687008123.0241241,0.08772134780883789,0.1346927136182785,-0.9869968891143799,0.0071120485663414,0.03655661642551422,-0.0014979839324951172,0.15194155275821686,0.02941448614001274,0.014609268866479397,0.08864410926918956,-0.1351033387199871,1.588878416536101
1687008123.0390449,0.08720734715461731,0.1369333267211914,-0.9867340922355652,0.010967716574668884,0.005812585353851318,0.0046631693840026855,-0.10028296709060669,-0.02012723498046398,-0.002677842043340206,0.08815074824324427,-0.1373649169247294,1.589242483506829
1687008123.083315,0.08715702593326569,0.1351061761379242,-0.9869903326034546,-0.013533353805541992,-0.02513614296913147,-0.00629580020904541,0.015794236212968826,-0.003962112590670586,0.0018149102106690407,0.08807738869339095,-0.13552062230507794,1.5887966344092488
1687008123.206327,0.08659056574106216,0.13776099681854248,-0.9866731762886047,0.0031616464257240295,0.029856741428375244,0.008539021015167236,0.03877365216612816,0.006430207751691341,0.006277835927903652,0.08753585530280354,-0.13820050089750632,1.589187839223596
1687008123.221746,0.08608154952526093,0.1368044912815094,-0.9868507981300354,-0.012793570756912231,-0.007822006940841675,-0.0020560622215270996,-0.027889328077435493,-0.011742804199457169,-0.014357667416334152,0.08700830386727076,-0.13723485421991966,1.5886824866362692
1687008123.3261142,0.08605356514453888,0.1388034224510193,-0.9865740537643433,0.012731850147247314,-0.0014743804931640625,-0.004224896430969238,-0.006257936358451843,-0.018696317449212074,-0.006134092807769775,0.08700443405911984,-0.13925304356916093,1.5887762470315874
1687008123.3311028,0.0851702094078064,0.1380583643913269,-0.9867552518844604,-0.010203756392002106,-0.0037047863006591797,-0.01710522174835205,0.004988060332834721,0.007390410173684359,0.0052581122145056725,0.08610001364858583,-0.13850074176909696,1.5881766330132703
1687008123.4171848,0.08535797148942947,0.1385347843170166,-0.9866722226142883,0.001052558422088623,0.004363700747489929,0.011101603507995605,0.0003502313047647476,-0.009530116803944111,-0.0025414880365133286,0.08629611539806205,-0.1389817766163181,1.5884144215500173
1687008123.423037,0.08494593948125839,0.13683125376701355,-0.9869455099105835,0.0025479719042778015,-0.016958266496658325,-0.007988572120666504,0.00451874453574419,-0.00500940065830946,-0.0008764797821640968,0.08585794289602665,-0.13726186646464253,1.588159133210646
1687008123.5067391,0.08418601006269455,0.13900819420814514,-0.9867063760757446,-0.0024751797318458557,0.012877732515335083,0.006756424903869629,-0.014818267896771431,-0.0050870319828391075,-0.005435545463114977,0.08511409512040422,-0.1394598133632128,1.588067063578747
1687008123.522732,0.08389747887849808,0.1392994523048401,-0.9866898655891418,0.0017653778195381165,0.0022257566452026367,-0.007435500621795654,-0.002665132749825716,-0.0017949652392417192,0.004646384157240391,0.08482519500542657,-0.1397539276756104,1.5878936547557732
1687008123.599925,0.08349236845970154,0.1405460238456726,-0.9865474104881287,-0.0009575709700584412,0.005282148718833923,0.0045375823974609375,-0.037875186651945114,-0.02075640670955181,-0.013547001406550407,0.08442968297576726,-0.14101289067628958,1.5878370518771483
1687008123.604809,0.08288854360580444,0.1412167102098465,-0.9865025877952576,0.0052920132875442505,-0.010326877236366272,-0.01760202646255493,-0.028719834983348846,-0.017683250829577446,-0.0017473334446549416,0.08382573840851451,-0.14169033249240942,1.587793358200806
1687008123.688573,0.0820201188325882,0.14283527433872223,-0.9863421320915222,0.000636756420135498,0.0011618584394454956,0.002730071544647217,-0.03320000693202019,-0.009350619278848171,-0.005588144529610872,0.08296497027673937,-0.1433254694045851,1.5878235403858036
1687008123.705565,0.08207478374242783,0.14328739047050476,-0.9862719774246216,0.004961363971233368,0.010505884885787964,-0.00045287609100341797,0.005020816810429096,-0.005497691221535206,-0.005323426332324743,0.0830258906114397,-0.1437822951299277,1.5876362187011184
1687008123.772846,0.08159596472978592,0.14397956430912018,-0.9862109422683716,0.0024494603276252747,0.0013908594846725464,-0.004191279411315918,-0.012186266481876373,-0.004661991260945797,-0.005203317850828171,0.08254881342760105,-0.1444817157818927,1.5875384513805062
1687008123.7867389,0.08170968294143677,0.14387570321559906,-0.98621666431427,-0.0005329102277755737,-0.0073553770780563354,0.0040389299392700195,-0.01705259457230568,-0.00010226015001535416,-0.013446866534650326,0.08266285861575061,-0.14437675530528277,1.5873680063491102
1687008123.830405,0.08159934729337692,0.144057497382164,-0.9861992597579956,0.006443880498409271,-0.0012352913618087769,-0.0047980546951293945,0.037182413041591644,0.005743378307670355,0.01683647185564041,0.08255318745100275,-0.1445604672672896,1.5873722682573488
1687008123.925561,0.0812411904335022,0.14503881335258484,-0.9860849976539612,-0.008899256587028503,-0.003986641764640808,-0.008971154689788818,-0.0530087947845459,-0.007548857945948839,-0.0021145837381482124,0.08220196316137279,-0.1455522058544652,1.5873602063052679
1687008123.94221,0.08187709748744965,0.14567334949970245,-0.9859388470649719,-0.018995612859725952,0.04445110261440277,0.007270634174346924,0.052992068231105804,0.037502240389585495,-0.0038245990872383118,0.08285468561706591,-0.14619354699254275,1.5872523938287946
1687008123.979377,0.08286228775978088,0.1433476209640503,-0.9861974120140076,-0.00501193106174469,-0.03195852041244507,-5.441904067993164e-05,-0.027343913912773132,-0.0005876212380826473,-0.018157199025154114,0.08382512158360576,-0.14384314233233136,1.587202968391997
1687008124.07461,0.08393309265375137,0.14466698467731476,-0.9859141707420349,-0.018778055906295776,-0.022520452737808228,0.0005778670310974121,-0.0498221255838871,0.056971147656440735,-0.010518986731767654,0.08492748072839391,-0.14517641380210203,1.5862495984486664
1687008124.091588,0.08485767245292664,0.1506129801273346,-0.9849441051483154,0.001842781901359558,0.027792707085609436,0.00998377799987793,-0.17961907386779785,0.0422394722700119,-0.04607405140995979,0.08594258829097774,-0.15118830209439713,1.5869721245104933
1687008124.162961,0.08585778623819351,0.15473920106887817,-0.9842175841331482,0.006518937647342682,-0.006606936454772949,0.004282891750335693,-0.16444137692451477,-0.030904380604624748,-0.0047018444165587425,0.08701428155710779,-0.15536346915440868,1.5881625824324215
1687008124.166867,0.08553088456392288,0.15661996603012085,-0.9839485287666321,0.006800062954425812,0.012523651123046875,-0.0019981861114501953,0.03805246949195862,-0.008966059423983097,-0.006864331196993589,0.08670822452752674,-0.15726744666299824,1.588074190292085
1687008124.224556,0.08510909229516983,0.15611259639263153,-0.9840657114982605,0.008824028074741364,-0.013336166739463806,-0.004825890064239502,-0.01862965151667595,-0.019133342429995537,0.005202717147767544,0.08627252454514879,-0.15675376161333207,1.5882555719598699
1687008124.312788,0.08483186364173889,0.15736329555511475,-0.9838904142379761,-0.0037466436624526978,0.03083854913711548,0.0005835294723510742,0.03765952214598656,0.0058890534564852715,0.0001970399171113968,0.08600813728717407,-0.15802011024221516,1.5882769272676747
1687008124.319751,0.08488637953996658,0.15482275187969208,-0.9842886924743652,0.004759021103382111,-0.03806255757808685,-0.0005135536193847656,-0.02674277126789093,-0.015678822994232178,0.00963688176125288,0.08602848717061047,-0.15544804335889006,1.587961147935606
1687008124.374994,0.08410409092903137,0.15701134502887726,-0.9840090870857239,-0.002667926251888275,0.027421563863754272,-0.006957650184631348,0.05241802707314491,-0.003630016464740038,-0.0031476235017180443,0.08526362706551481,-0.15766372620279995,1.5880293368500376
1687008124.466711,0.08457455039024353,0.15389274060726166,-0.9844613671302795,-0.0010936930775642395,-0.002006828784942627,0.001719057559967041,0.02187935821712017,0.011748007498681545,0.009951400570571423,0.08569904532472296,-0.15450675149651022,1.5881958601054402
1687008124.473608,0.08424001187086105,0.1551433652639389,-0.9842937588691711,0.0016059428453445435,-0.000678718090057373,-0.009144961833953857,-0.025889895856380463,-0.010665688663721085,-0.010682771913707256,0.08537617731620964,-0.15577257826072802,1.5884017494932816
1687008124.523785,0.08446702361106873,0.15435677766799927,-0.9843979477882385,-0.0037785321474075317,0.010407567024230957,-0.006889283657073975,0.044471219182014465,0.02090155892074108,0.019440773874521255,0.08559610819406006,-0.1549763887964303,1.588526089271522
1687008124.613852,0.08472660928964615,0.15476727485656738,-0.9843111634254456,0.004399999976158142,0.003252685070037842,-0.011080682277679443,-0.01464536227285862,0.001305753132328391,0.0039036283269524574,0.08586540445068129,-0.15539188448208838,1.5889644571262445
1687008124.620444,0.08521639555692673,0.15462249517440796,-0.984291672706604,0.00461210310459137,-0.0018057972192764282,0.007073044776916504,0.004690385423600674,-0.0030719512142241,-0.004699714481830597,0.08636102458939506,-0.15524534395246065,1.5889126555650133
1687008124.677062,0.08512996137142181,0.15466566383838654,-0.9842923283576965,-0.005234934389591217,-0.011370450258255005,-0.0003114938735961914,-0.003658291883766651,0.006503311451524496,0.008541523478925228,0.08627380598903522,-0.1552890410839109,1.5891059973853907
1687008124.7372499,0.08574524521827698,0.1537458449602127,-0.9843830466270447,-0.006033316254615784,0.002397283911705017,0.0011982321739196777,0.02819318138062954,0.01974734477698803,0.003730255179107189,0.08688626364806626,-0.15435808179342125,1.5892728713400541
1687008124.8276129,0.08609601855278015,0.15364238619804382,-0.9843685626983643,0.0016420334577560425,-0.0062272995710372925,-0.0008761286735534668,-0.014832716435194016,0.0033555880654603243,0.000987466424703598,0.08724118314749771,-0.15425338524492951,1.589417980433758
1687008124.844851,0.08588539808988571,0.15357275307178497,-0.984397828578949,-0.0017331615090370178,-0.0031974464654922485,-0.0004654526710510254,-0.0019254395738244057,-0.0021853847429156303,0.0040900493040680885,0.08702626574806505,-0.15418290418030145,1.5892755280669046
1687008124.912607,0.08638391643762589,0.15242508053779602,-0.9845325946807861,7.239729166030884e-05,-0.003362029790878296,-0.012278318405151367,0.02459252066910267,0.007852734997868538,-0.006795621942728758,0.08751692161926092,-0.153021564994435,1.589191817486765
1687008124.916579,0.08621981739997864,0.15327098965644836,-0.9844156503677368,0.0011367648839950562,0.00993695855140686,0.006113648414611816,0.00829197745770216,-0.002537587657570839,0.010375908575952053,0.08736183853085007,-0.1538775349853451,1.5892470176326723
1687008124.9723802,0.08615026623010635,0.1527608186006546,-0.9845010042190552,-0.0008383691310882568,-0.010991483926773071,0.008167445659637451,-0.025304730981588364,-0.011606450192630291,-0.003825930878520012,0.08728418768191618,-0.15336127316164103,1.5892526994974019
1687008125.042479,0.08624260127544403,0.15297451615333557,-0.9844597578048706,0.001892179250717163,0.0026192963123321533,-0.00029671192169189453,0.020257025957107544,0.004854281898587942,-0.00026901252567768097,0.08738091069153761,-0.15357752563967905,1.589308207420719
1687008125.099313,0.08618438243865967,0.1529046595096588,-0.9844757318496704,0.003018505871295929,-0.0010187476873397827,0.00795900821685791,-0.008281872607767582,-0.009319727309048176,0.001196524128317833,0.08732081586337857,-0.1535068310623931,1.589251555452931
1687008125.184873,0.08597196638584137,0.15246017277240753,-0.9845632314682007,-0.0019112825393676758,-0.002756252884864807,-0.005259156227111816,-0.0016422788612544537,0.0033021916169673204,-0.0017846180126070976,0.08709898624398547,-0.15305706989260545,1.5893110866335445
1687008125.191258,0.08600392192602158,0.15359444916248322,-0.9843841195106506,0.008203856647014618,0.01536606252193451,-0.0035461783409118652,0.01510960329324007,-0.012571979314088821,-0.003591839224100113,0.08714696481704033,-0.15420486222013058,1.589487941917532
1687008125.305486,0.08551101386547089,0.15383295714855194,-0.9843897819519043,-0.0007331743836402893,-0.01270449161529541,-0.005386769771575928,-0.06098836287856102,-0.008097602054476738,-0.00883560348302126,0.08664951343242512,-0.15444624755888284,1.589091761925178
1687008125.321388,0.08578354865312576,0.15451134741306305,-0.984259843826294,-0.0008225962519645691,0.005232855677604675,0.006263017654418945,0.04205979406833649,0.01713544875383377,0.004871419630944729,0.08693570965798804,-0.15513283549456267,1.5889251977645502
1687008125.3967261,0.08582503348588943,0.15358364582061768,-0.9844014048576355,0.001684144139289856,-0.007572352886199951,0.004543006420135498,-0.0067779854871332645,-0.03043246828019619,-0.01136427465826273,0.0869650913173276,-0.1541939284739785,1.5889049807701372
1687008125.401809,0.08516255766153336,0.14940457046031952,-0.9851018190383911,-0.04770221561193466,0.1313418298959732,-0.012548327445983887,0.35810092091560364,0.10663430392742157,0.04800610616803169,0.08623610644282792,-0.14996605195459894,1.5892555450743244
1687008125.482758,0.08167828619480133,0.14661897718906403,-0.985815167427063,0.017641186714172363,-0.0715763121843338,0.01810276508331299,-0.20732718706130981,-0.21755681931972504,0.006899417378008366,0.08266474005419382,-0.14714943681579434,1.5898098914718222
1687008125.486084,0.07591447979211807,0.14528721570968628,-0.9864727854728699,0.0004557669162750244,-0.02266766130924225,-0.03955864906311035,0.05715572461485863,-0.0845835879445076,-0.06121492385864258,0.07680409816234053,-0.14580325715000833,1.5884168730296842
1687008125.577012,0.07619523257017136,0.14216899871826172,-0.9869053959846497,0.020118258893489838,-0.03963001072406769,-0.019015014171600342,-0.013534890487790108,0.005976005457341671,-0.01777184009552002,0.07705336246395399,-0.14265233520684917,1.5860492679948814
1687008125.59268,0.07878880947828293,0.13881899416446686,-0.9871786236763,0.005485497415065765,0.014638587832450867,0.009868443012237549,0.1080644428730011,0.07608278840780258,0.031347502022981644,0.07964328938615767,-0.139268764810389,1.58572046110727
1687008125.664676,0.08011716604232788,0.13940808176994324,-0.9869886636734009,0.004126623272895813,-0.030765563249588013,0.001087784767150879,-0.11710043251514435,0.005332585424184799,0.015059343539178371,0.08099575377004786,-0.1398636371292542,1.5866603873000358
1687008125.669883,0.07932618260383606,0.1449686735868454,-0.986251175403595,0.009800411760807037,0.022359132766723633,0.010024428367614746,-0.04369072988629341,-0.007543664891272783,-0.009419634938240051,0.08025924938603737,-0.14548131110425727,1.5869234940414974
1687008125.7251282,0.07926706224679947,0.14632607996463776,-0.9860554933547974,-0.013867877423763275,-0.007165983319282532,0.006593823432922363,-0.024963445961475372,0.010956382378935814,0.002497478388249874,0.08021553781291134,-0.14685334960103438,1.5863173885833866
1687008125.8493528,0.0793086364865303,0.14635203778743744,-0.9860482811927795,0.00171554833650589,-0.004475876688957214,-0.012349545955657959,-0.005855000112205744,-0.009927594102919102,-0.007788181770592928,0.0802580169947869,-0.14687959152530242,1.5864148794133464
1687008125.854459,0.07846056669950485,0.14928478002548218,-0.9856764078140259,0.0008393749594688416,0.022361278533935547,0.008457779884338379,0.018734365701675415,0.0050889067351818085,0.008571882732212543,0.07943325018372581,-0.14984491096833666,1.5862015787624781
1687008125.9368138,0.07842050492763519,0.14722569286823273,-0.9859892725944519,-0.002981036901473999,-0.036675825715065,-0.005572617053985596,-0.05852706730365753,-0.011035335250198841,-0.011442305520176888,0.07936777737426971,-0.1477628059861572,1.5861245401064057
1687008125.9532819,0.07849089056253433,0.1499904990196228,-0.9855668544769287,0.007263518869876862,0.011645793914794922,0.013032674789428711,0.01733480766415596,-0.009487506002187729,-0.00036941375583410263,0.0794726147539552,-0.1505586635205073,1.5861833089443478
1687008126.0247931,0.07787076383829117,0.14800074696540833,-0.985916793346405,-0.0033620819449424744,-0.0114041268825531,-0.02018672227859497,-0.02353772334754467,0.0053656091913580894,-0.023700304329395294,0.07881946924281238,-0.14854645067954206,1.5857311562297742
1687008126.0381122,0.07782804220914841,0.15015190839767456,-0.9855948686599731,2.2314488887786865e-05,0.019281625747680664,-0.0020760297775268555,-0.0004992503672838211,0.0028664986602962017,-0.005911185871809721,0.0788020363282079,-0.15072192168684123,1.5854219843512205
1687008126.1147509,0.07801694422960281,0.14947929978370667,-0.9856821298599243,0.006898224353790283,-0.006687626242637634,-0.007878601551055908,-0.013100329786539078,-0.0016266535967588425,0.005314570851624012,0.0789855419502932,-0.15004162864546122,1.5856277072389882
1687008126.119803,0.07735109329223633,0.1518762856721878,-0.9853681325912476,0.0034289509057998657,-0.01144970953464508,-0.004133820533752441,-0.06436744332313538,-0.012390485033392906,-0.0024165865033864975,0.07833903950066363,-0.1524663056352705,1.585344647859284
1687008126.177043,0.07733069360256195,0.15190912783145905,-0.9853646755218506,-0.003798574209213257,0.01004759967327118,2.8371810913085938e-05,0.05025620758533478,0.0160526093095541,-0.0007638279348611832,0.07831873889090776,-0.15249952785485504,1.5851263392207213
1687008126.2642379,0.07703138142824173,0.1518286168575287,-0.9854005575180054,0.002497442066669464,-0.006427675485610962,0.007190108299255371,-0.045436032116413116,-0.012538689188659191,-0.004946589004248381,0.07801400647536148,-0.15241807620751519,1.58543699070333
1687008126.270646,0.07616399228572845,0.15388254821300507,-0.9851493239402771,-0.006095610558986664,0.005373373627662659,0.0020102858543395996,-0.00487109599635005,-0.0024244035594165325,-0.006528506521135569,0.07715863997671428,-0.15449643645956457,1.5848015792626393
1687008126.3236098,0.07635925710201263,0.15276074409484863,-0.9853087663650513,-0.0015454068779945374,-0.0001119077205657959,-0.003857433795928955,0.015497492626309395,-0.003836544696241617,-0.012076936662197113,0.07734320377297242,-0.15336121088745783,1.5848503240544525
1687008126.393312,0.07588959485292435,0.15271782875061035,-0.9853517413139343,-0.004661545157432556,0.001487433910369873,0.0012513995170593262,0.011939309537410736,0.0008760521886870265,-0.01130701694637537,0.07686602645638914,-0.15331777851722558,1.584128028892247
1687008126.4082189,0.0764617919921875,0.15245679020881653,-0.9853479266166687,0.00833132117986679,0.0009702742099761963,-0.0332677960395813,0.0028420183807611465,0.007742613088339567,-0.013209312222898006,0.077443578104756,-0.15305365188190395,1.5841425337068853
1687008126.441169,0.07788894325494766,0.15209709107875824,-0.9852917194366455,-0.01728101819753647,-0.010098874568939209,0.021958589553833008,-0.008147915825247765,0.0710374265909195,0.017455123364925385,0.07888760049312958,-0.15268971141711785,1.5833459628471607
1687008126.5030088,0.08187811076641083,0.15302814543247223,-0.984824001789093,0.008087724447250366,0.083757683634758,-0.0004054903984069824,0.07392311841249466,0.059924591332674026,-0.032413631677627563,0.08294906887662239,-0.1536317806795239,1.5842436834854898
1687008126.565919,0.08267104625701904,0.15066826343536377,-0.9851216077804565,-0.010069712996482849,-0.037692248821258545,0.007262110710144043,-0.038180384784936905,0.010749055072665215,0.0036010919138789177,0.08372346341050493,-0.15124421094306856,1.584379791042266
1687008126.6284618,0.08267895132303238,0.15400168299674988,-0.9846053123474121,0.0029381215572357178,0.002629712224006653,-0.0017380118370056152,-0.02990647405385971,-0.011750660836696625,0.002044741064310074,0.08377512820886357,-0.15461700391068153,1.584541646298991
1687008126.687728,0.08280300348997116,0.15314893424510956,-0.9847279191017151,-0.006020762026309967,-0.0032313913106918335,0.002168715000152588,0.021577423438429832,0.01791895180940628,0.007024054415524006,0.08388984273400832,-0.15375401570550717,1.5845975144347222
1687008126.777025,0.08266621828079224,0.15446972846984863,-0.9845330715179443,0.0046903640031814575,-0.004231765866279602,0.006841421127319336,-0.021130027249455452,-0.023661116138100624,-0.01241755485534668,0.08376840661185503,-0.1550907241173749,1.584408924961567
1687008126.792619,0.08242709189653397,0.1549248844385147,-0.9844816327095032,0.0007638409733772278,-0.004122331738471985,-0.006561458110809326,-0.02315536141395569,0.010286730714142323,-0.0031196605414152145,0.08353156787338695,-0.15555142484578838,1.5844432544298817
1687008126.8654761,0.08234132081270218,0.1567586362361908,-0.9841984510421753,0.00022399425506591797,0.002024248242378235,-0.0007715821266174316,-0.03485236316919327,-0.01708044484257698,-0.003249889239668846,0.08346894592072823,-0.15740784657799786,1.5842677822496156
1687008126.870565,0.08239025622606277,0.1565496176481247,-0.9842276573181152,-0.003258161246776581,-0.01297973096370697,0.0031943321228027344,0.0014399304054677486,0.010690865106880665,0.007571066729724407,0.08351585391259385,-0.1571962227778129,1.583959310106297
1687008126.918839,0.08234664797782898,0.1569252908229828,-0.984171450138092,-0.0034129247069358826,0.012691333889961243,0.0021768808364868164,0.003547822590917349,0.004369853064417839,-0.004322877153754234,0.08347659950431514,-0.15757660100655016,1.5840910410121336
1687008127.013084,0.08249227702617645,0.1569930911064148,-0.9841484427452087,-0.005206495523452759,-0.01232457160949707,0.00514453649520874,-0.028628889471292496,0.00011305650696158409,0.0030322419479489326,0.0836254875006399,-0.1576452502478104,1.5839223042516881
1687008127.0296788,0.08245847374200821,0.15675386786460876,-0.9841894507408142,-0.0027160346508026123,-0.008270666003227234,-0.008837282657623291,0.016622012481093407,0.004974523559212685,0.0052591776475310326,0.08358791531392387,-0.15740302909151935,1.5839019430131775
1687008127.073166,0.08299685269594193,0.15656910836696625,-0.984173595905304,0.0017352253198623657,0.00044377148151397705,-0.007418811321258545,-0.003731528762727976,0.008414662443101406,0.0004993090406060219,0.0841324478943878,-0.1572159603406186,1.5840069150092522
1687008127.1996489,0.0830068588256836,0.15735939145088196,-0.9840466976165771,4.67449426651001e-05,0.0024611055850982666,0.0020825862884521484,-0.017027761787176132,0.004183964338153601,0.011718674562871456,0.08415334781295375,-0.15801616141619015,1.58403531076409
1687008127.205168,0.08340714871883392,0.15657274425029755,-0.9841383099555969,0.0013096630573272705,0.007489681243896484,-0.0014726519584655762,0.0411519892513752,0.0027494526002556086,0.0038687409833073616,0.08454940120222858,-0.1572196433821739,1.5845895141648068
1687008127.286386,0.08380767703056335,0.15648169815540314,-0.9841187596321106,-0.0005099326372146606,0.006955131888389587,0.004596054553985596,0.00037959287874400616,0.015897611156105995,0.009524495340883732,0.08495514853226038,-0.15712745733614106,1.5846540268158131
1687008127.292552,0.08380425721406937,0.15598660707473755,-0.9841976761817932,-0.0019866153597831726,0.0034676790237426758,-0.0017642378807067871,0.00905517302453518,-0.002329728100448847,-0.008523747324943542,0.08494491833671772,-0.15662621112134817,1.58487191950844
1687008127.375022,0.08387967944145203,0.15616606175899506,-0.9841627478599548,-0.0005971938371658325,0.011405885219573975,0.007096767425537109,0.01905720680952072,0.00259951688349247,0.010459265671670437,0.08502400055237203,-0.15680789001020998,1.5849674406907415
1687008127.387912,0.0842905268073082,0.15403108298778534,-0.9844641089439392,0.0024556964635849,-0.02095925807952881,-0.009813845157623291,-0.0014026612043380737,0.0025742165744304657,0.00662644300609827,0.0854124111726614,-0.15464676519844595,1.5850998577089048
1687008127.463228,0.08424656838178635,0.15442849695682526,-0.9844055771827698,0.0039034709334373474,0.007650300860404968,-0.007080018520355225,0.031689178198575974,-0.0038196337409317493,0.0027470169588923454,0.08537313557083569,-0.1550489806897913,1.585225623081666
1687008127.475105,0.08444295078516006,0.15335941314697266,-0.9845559000968933,-0.002564273774623871,0.012106835842132568,0.0052620768547058105,0.01913490518927574,0.011631228029727936,0.006641623564064503,0.08555817662450955,-0.1539670093469628,1.5855035382872054
1687008127.522787,0.0843595340847969,0.15324819087982178,-0.9845803380012512,-0.00025307387113571167,0.0012775063514709473,3.74913215637207e-05,-0.010146217420697212,-0.0053329747170209885,-0.0023111244663596153,0.08547195241764523,-0.15385446264275573,1.5853353422665262
1687008127.615938,0.08470507711172104,0.152849942445755,-0.9846125841140747,-0.003070540726184845,0.00903049111366272,0.008050084114074707,0.03819401562213898,0.017240775749087334,0.01379034761339426,0.0858175441759526,-0.1534514619352087,1.5855402242071182
1687008127.621748,0.08531223237514496,0.1510724276304245,-0.9848344922065735,0.00021329522132873535,-0.010462746024131775,-0.0012037158012390137,0.011723993346095085,0.005797041114419699,0.0029877666383981705,0.08641024643878745,-0.1516530577376116,1.585779731963427
1687008127.674726,0.08492065221071243,0.1493513137102127,-0.985130786895752,-0.001104108989238739,0.008958563208580017,0.002403736114501953,0.08109521120786667,-0.014300237409770489,-0.0044730789959430695,0.08598983986195262,-0.14991219180845428,1.5855403465897993
1687008127.798625,0.08522702008485794,0.14415369927883148,-0.9858783483505249,-0.009299278259277344,0.010494038462638855,0.009178519248962402,0.12323128432035446,0.03164235129952431,0.03938465565443039,0.08623341934631978,-0.1446576931495893,1.5858707882546055
1687008127.804132,0.08533542603254318,0.1408490538597107,-0.9863464832305908,0.013449989259243011,-0.05645275115966797,0.00651860237121582,-0.05226031690835953,-0.08904264867305756,0.012088852934539318,0.08630178081717955,-0.1413189702656429,1.586546662969987
1687008127.8885012,0.08161862939596176,0.14401891827583313,-0.9862033128738403,-0.011718101799488068,0.0317164808511734,0.012326359748840332,0.08096225559711456,-0.017931589856743813,0.012925085611641407,0.08257227189537614,-0.14452148973678514,1.5861758316472057
1687008127.903895,0.07963159680366516,0.14002113044261932,-0.9869411587715149,0.002033449709415436,-0.031195521354675293,0.009859919548034668,-0.010174914263188839,-0.06991849094629288,-0.006209992803633213,0.08051084504193513,-0.1404827581067491,1.5863010486194875
1687008127.974994,0.07853983342647552,0.1367437243461609,-0.9874880313873291,0.000485442578792572,0.012914404273033142,-0.007064521312713623,0.17833887040615082,0.0006799102993682027,0.005337207578122616,0.07936789904537739,-0.13717350970487918,1.5861789136182283
1687008127.9881349,0.07799337804317474,0.13298434019088745,-0.9880446195602417,-0.004751168191432953,0.020976781845092773,-0.0219193696975708,0.018718985840678215,0.012487300671637058,-0.03600810095667839,0.07877375416611643,-0.133379465661809,1.5853893124056038
1687008128.066029,0.0812477394938469,0.13129815459251404,-0.9880079030990601,0.0065818652510643005,-0.011593014001846313,-0.0003954172134399414,0.047766949981451035,0.05078235641121864,0.044415898621082306,0.08204927795340733,-0.13167835980758552,1.5856933806727587
1687008128.07157,0.08133696764707565,0.130071759223938,-0.9881627559661865,0.006050132215023041,-0.026556193828582764,0.0054204463958740234,-0.01655018888413906,-0.01003292202949524,0.0068730516359210014,0.0821261693957944,-0.1304413597558555,1.5868192982641687
1687008128.124412,0.07960902899503708,0.13188868761062622,-0.9880626201629639,0.002941042184829712,-0.018103957176208496,-0.012303590774536133,-0.08788402378559113,-0.03721394017338753,-0.029215708374977112,0.08039715856991272,-0.1322740667634966,1.586879993831425
1687008128.215314,0.08081342279911041,0.13277003169059753,-0.9878467917442322,0.004605293273925781,0.01894804835319519,0.007927358150482178,0.057295605540275574,0.009707095101475716,0.009222227148711681,0.0816258780536986,-0.13316324127974793,1.5869039126286595
1687008128.223062,0.08063937723636627,0.13108517229557037,-0.9880859851837158,-0.004024989902973175,-0.03606876730918884,0.0035126805305480957,-0.07979933172464371,-0.010369278490543365,-0.011266270652413368,0.08143122453487013,-0.1314635153037821,1.586784853456569
1687008128.273902,0.07942615449428558,0.13413317501544952,-0.9877751469612122,0.0019947513937950134,0.04672917723655701,0.007550597190856934,0.0527561791241169,-0.010358892381191254,0.004048236645758152,0.08023651171825891,-0.13453868647362865,1.587081839909289
1687008128.365553,0.079865001142025,0.1322270929813385,-0.9879967570304871,-0.0082554891705513,-0.0017339885234832764,-0.0054877400398254395,0.010369043797254562,0.02631816267967224,0.01916753500699997,0.08065990599029828,-0.13261547242865535,1.5866883924709299
1687008128.371643,0.07956401258707047,0.13268305361270905,-0.9879599213600159,0.0035658925771713257,0.01505248248577118,0.0011282563209533691,0.019151482731103897,-0.009912545792758465,0.009161773137748241,0.08036021183884703,-0.13307547602065162,1.587495180522698
1687008128.4249182,0.07927371561527252,0.1315593421459198,-0.9881334900856018,-0.000813014805316925,-0.00034908950328826904,0.009526371955871582,0.011865340173244476,0.0008950936608016491,0.005449592135846615,0.08005425925544314,-0.13194183321784314,1.5875152476368302
1687008128.519524,0.07899881154298782,0.13170640170574188,-0.9881359338760376,0.00457359105348587,-0.004829630255699158,0.00022089481353759766,-0.028624827042222023,-0.016736896708607674,-0.005545534193515778,0.07977763387865694,-0.13209018700600392,1.5875577561306313
1687008128.525698,0.07852547615766525,0.13385289907455444,-0.9878851771354675,-0.0033606737852096558,0.009106621146202087,0.008820295333862305,-0.016131605952978134,0.0072015924379229546,0.005380083806812763,0.0793216815434252,-0.1342558589051094,1.587472090833265
1687008128.573513,0.07781360298395157,0.13300900161266327,-0.9880554676055908,-0.007836781442165375,-0.00036440789699554443,-0.0034148693084716797,-0.017703335732221603,-0.0003379499539732933,-0.008059557527303696,0.07859206916417762,-0.1334043393301827,1.5874335964358852
1687008128.6644812,0.0779111385345459,0.13399462401866913,-0.9879146218299866,0.009582772850990295,0.008629217743873596,-0.0010532736778259277,0.017640139907598495,-0.013859884813427925,-1.6544945538043976e-05,0.07870135365814108,-0.13439886955189645,1.587463356931945
1687008128.670731,0.07728554308414459,0.13285285234451294,-0.9881179332733154,0.00021386146545410156,-0.015360221266746521,-0.01606297492980957,-0.0290052592754364,-0.009836645796895027,-0.01103723794221878,0.07805598654493201,-0.13324678980604368,1.5871761239437727
1687008128.72468,0.07683632522821426,0.13507352769374847,-0.9878518581390381,0.00707177072763443,-0.0029477328062057495,0.003904104232788086,-0.03144724667072296,-0.018241848796606064,-0.00036834925413131714,0.07762493202311263,-0.1354876759296295,1.5870391814399123
1687008128.81315,0.0761515274643898,0.13550736010074615,-0.9878454804420471,-0.01905311644077301,0.00807778537273407,-0.0013360381126403809,0.011750091798603535,0.013455227017402649,0.008167081512510777,0.07693633772032533,-0.1359255308171491,1.5869327951928789
1687008128.827769,0.07667429000139236,0.13379839062690735,-0.9880380034446716,0.01156730204820633,-0.014413699507713318,0.003617227077484131,-0.008643729612231255,-0.023869240656495094,-0.009187939576804638,0.07744735327084797,-0.13420084995812606,1.5873301156328914
1687008128.8736172,0.07521754503250122,0.13749639689922333,-0.9876421689987183,-0.005606934428215027,0.023468509316444397,-0.006590008735656738,-0.012032801285386086,-0.003828554879873991,-0.0036269929260015488,0.07601197012050118,-0.1379333515448033,1.5866853411801334
1687008128.964415,0.0755726546049118,0.13413821160793304,-0.9880767464637756,0.0038493499159812927,-0.017057597637176514,0.00341188907623291,0.020991060882806778,-0.015048985369503498,-0.0015164371579885483,0.0763359787437523,-0.13454376915367383,1.5868642659210281
1687008128.977884,0.07441599667072296,0.13662901520729065,-0.9878232479095459,0.00021475553512573242,-0.012178391218185425,-0.014267206192016602,-0.047355372458696365,-0.02021152339875698,-0.007027316838502884,0.07519129055740902,-0.1370577155424438,1.5863758522957876
1687008129.026196,0.0750228762626648,0.13509270548820496,-0.9879886507987976,0.004200771450996399,-0.010260626673698425,0.00021094083786010742,0.029453521594405174,0.006285065319389105,0.003956357948482037,0.07578951276604007,-0.13550702962660527,1.5863227444974863
1687008129.1477451,0.0747576653957367,0.13677778840065002,-0.9877768754959106,-0.0039110854268074036,-0.004163727164268494,-0.0040291547775268555,-0.061180975288152695,-0.00013355229748412967,-0.0216858871281147,0.07553873891624333,-0.13720790099002295,1.5860361341132094
1687008129.1619492,0.07536295056343079,0.1376611888408661,-0.9876081347465515,-0.03495766222476959,-0.018856316804885864,0.006879985332489014,-0.06617486476898193,0.07966473698616028,-0.024440128356218338,0.07616095499138506,-0.13809972792905534,1.5844103665173905
1687008129.235928,0.07930808514356613,0.1377561390399933,-0.9872859120368958,0.014457188546657562,0.03404250741004944,0.023922264575958252,0.10943171381950378,0.1351301372051239,-0.006084823980927467,0.0801572842188937,-0.13819560331201197,1.5846477728998059
1687008129.241679,0.0807943120598793,0.13645559549331665,-0.9873459935188293,0.003556281328201294,-0.06817258894443512,-0.01637709140777588,-0.1552133411169052,-0.028614195063710213,0.0005946503952145576,0.08164786472537788,-0.1368826542563669,1.5854369115177342
1687008129.327252,0.08092910796403885,0.14152689278125763,-0.9866207838058472,0.009387671947479248,0.0067426711320877075,-0.008999884128570557,-0.04484907165169716,-0.012289950624108315,-0.020567093044519424,0.08184332607877902,-0.1420036704344156,1.5852006093279483
1687008129.339782,0.08065482974052429,0.1425865888595581,-0.9864906668663025,0.0019715353846549988,0.01129823923110962,-0.01250225305557251,-0.015772812068462372,-0.0033633008133620024,0.008033658377826214,0.08157789069769555,-0.14307421078516702,1.5852541282864594
1687008129.418017,0.08093060553073883,0.14342451095581055,-0.9863466024398804,0.007997632026672363,-0.0005870461463928223,0.002673506736755371,-0.005918583367019892,-0.011004708707332611,0.0180966779589653,0.08186748549343217,-0.14392083396402655,1.5859084814290814
1687008129.423562,0.08062545955181122,0.14429335296154022,-0.9862448573112488,0.0027485713362693787,-0.004858613014221191,0.004158735275268555,-0.04530094563961029,-0.001865139463916421,-0.009577825665473938,0.0815685558223566,-0.1447988109444261,1.5861457323203827
1687008129.472364,0.08026136457920074,0.14592136442661285,-0.9860350489616394,-0.0036774948239326477,0.015775948762893677,0.0014159083366394043,0.01471638772636652,-0.0005850912421010435,-0.006797219626605511,0.08121902656992343,-0.1464442491626629,1.5857674483595372
1687008129.565751,0.08075051754713058,0.14366811513900757,-0.9863259196281433,0.00022789090871810913,-0.0036382675170898438,0.0022713541984558105,0.0500870943069458,0.00732436403632164,0.013833223842084408,0.08168783080952567,-0.14416698662251137,1.5859834906880437
1687008129.569951,0.08079709112644196,0.14296124875545502,-0.9864248037338257,-0.004808306694030762,-0.017579838633537292,-0.0022531747817993164,-0.020244458690285683,-0.0038097798824310303,-0.008043845184147358,0.08172657934345759,-0.14345275706047522,1.5859731736923879
1687008129.625126,0.08053740113973618,0.14464980363845825,-0.9861998558044434,0.0021652504801750183,-0.00021016597747802734,-0.00816965103149414,-0.0175235066562891,-0.002208421006798744,-0.0012474581599235535,0.0814835617661207,-0.14515903851559556,1.5856409727257956
1687008129.7500582,0.08058808743953705,0.14295785129070282,-0.9864423871040344,0.0005886852741241455,-5.9351325035095215e-05,-0.003700435161590576,0.02839551493525505,-0.00022702920250594616,0.0014788191765546799,0.08151465758239207,-0.14344931877183906,1.5857995216748821
1687008129.756887,0.08058374375104904,0.1434803456068039,-0.986366868019104,0.004377201199531555,0.004392504692077637,0.004341781139373779,-0.008132003247737885,-0.001990840770304203,0.0084887919947505,0.08151649463551632,-0.1439772600839381,1.5860113937398563
1687008129.8369699,0.08042174577713013,0.14350074529647827,-0.9863771200180054,-0.003395363688468933,0.004036426544189453,-0.002270340919494629,0.014088014140725136,-0.0006402187282219529,0.0031408993527293205,0.08135250675297741,-0.14399787529980418,1.585834997013943
1687008129.842694,0.08075918257236481,0.14278188347816467,-0.9864538908004761,9.715557098388672e-05,0.0007422268390655518,0.008930087089538574,0.006026026792824268,0.00419248640537262,0.004043976776301861,0.08168600853792546,-0.14327152400373386,1.585978688004632
1687008129.9266229,0.08058580011129379,0.1425962597131729,-0.9864948987960815,-0.004017189145088196,0.003262430429458618,-0.007844030857086182,0.008456693962216377,0.007577097974717617,0.0022524679079651833,0.08150803530127136,-0.14308399079523612,1.5861044066167773
1687008129.938618,0.08053003251552582,0.14234207570552826,-0.9865362048149109,0.000951915979385376,-0.0029073208570480347,0.00046747922897338867,0.010715986602008343,-0.011072486639022827,-0.0039811935275793076,0.08144848854439296,-0.14282717824002475,1.5859489522890529
1687008130.017056,0.08048012107610703,0.1423700749874115,-0.9865362048149109,0.004450313746929169,0.0030766427516937256,-0.00046330690383911133,-0.0009360751137137413,-0.003962778486311436,-0.003021922893822193,0.0813982293900564,-0.142855477937149,1.5859268933036974
1687008130.022256,0.08029595762491226,0.14197759330272675,-0.9866077899932861,2.6322901248931885e-05,-0.005442023277282715,-0.003687620162963867,0.0044883843511343,-0.00808002520352602,0.007617405615746975,0.0812069163191734,-0.14245896836760638,1.585858407628209
1687008130.070918,0.08035123348236084,0.14145122468471527,-0.9866788983345032,-0.002409324049949646,-0.0036186426877975464,0.006271183490753174,0.005021815188229084,0.004633639007806778,0.0005504414439201355,0.08125674258988196,-0.14192722305209046,1.5859447330324838
1687008130.1680079,0.08005669713020325,0.14276185631752014,-0.9865140318870544,-0.00498344749212265,0.011214494705200195,0.0026731491088867188,-0.004526215605437756,0.003290740307420492,0.00026495102792978287,0.08097366043781397,-0.14325129958649385,1.5858065765655356
1687008130.173612,0.08043909817934036,0.14022454619407654,-0.9868468046188354,-0.0019326135516166687,-0.0069238245487213135,0.007781863212585449,0.046677518635988235,0.0033539901487529278,0.0063220439478755,0.08133142203963492,-0.14068819745118674,1.585941610612597
1687008130.2877269,0.08047585189342499,0.14012274146080017,-0.9868582487106323,-0.001038573682308197,-0.004762083292007446,-0.016773343086242676,-0.00913028884679079,0.008596023544669151,-0.001334276981651783,0.08136747832185197,-0.14058537838576776,1.586111836966792
1687008130.2947822,0.08063221722841263,0.1400025486946106,-0.9868625402450562,0.0032148435711860657,0.003002762794494629,-0.0032497644424438477,0.028455236926674843,0.003988621756434441,-0.0027100667357444763,0.08152452808372558,-0.1404639845520889,1.585848664324333
