Timestamp,gravityX,gravityY,gravityZ,accelerationX,accelerationY,accelerationZ,rotationRateX,rotationRateY,rotationRateZ,attitudeRoll,attitudePitch,attitudeYaw
1687008086.394629,0.9496457576751709,0.28938689827919006,-0.12011680006980896,-0.0010679960250854492,-0.08897805213928223,0.07418769598007202,-1.4607295989990234,-0.23608656227588654,0.3868297040462494,1.4449785643435027,-0.2935862720214532,2.7332731145639673
1687008086.395174,0.9555715322494507,0.2740412950515747,-0.1085546687245369,0.01270526647567749,0.13379552960395813,-0.037731461226940155,-1.0871552228927612,-0.1092296838760376,0.5676093101501465,1.457679446419495,-0.2775927036745794,2.8077847977427473
1687008086.4194388,0.962280809879303,0.25206258893013,-0.10237205028533936,0.001769423484802246,0.1387302279472351,-0.0685570240020752,-0.3362167179584503,0.043362125754356384,0.4018658995628357,1.4648101648701093,-0.25481106175606044,2.846068761228716
1687008086.420996,0.9657523036003113,0.24104715883731842,-0.0960126668214798,0.022406697273254395,0.13027538359165192,-0.04627566039562225,0.2631915807723999,0.13198547065258026,0.1278897523880005,1.471704454837982,-0.243444674736325,2.8526236126549636
1687008086.480757,0.9674539566040039,0.2334049940109253,-0.09774913638830185,0.03485006093978882,0.09574228525161743,-0.03362917900085449,0.8884928822517395,0.10223104059696198,0.07421267777681351,1.4701005467095485,-0.23557793355363316,2.819176727148858
1687008086.570273,0.968459963798523,0.22613567113876343,-0.1046309843659401,-0.0010223984718322754,0.020186886191368103,-0.03172164410352707,0.5732052326202393,-0.004601138178259134,0.04058893769979477,1.463175240160833,-0.2281087527378143,2.779396208352888
1687008086.689053,0.9679993391036987,0.22501309216022491,-0.11111326515674591,-0.04905414581298828,0.018852800130844116,0.0005937293171882629,0.05433676764369011,-0.11599157750606537,-0.048190731555223465,1.4565100047713835,-0.22695647250738607,2.766425884775644
1687008086.691093,0.966215968132019,0.22977270185947418,-0.11675284057855606,-0.01747030019760132,0.05066852271556854,0.0201798677444458,0.13994474709033966,-0.07748626172542572,-0.16191276907920837,1.450544197346808,-0.2318441342310715,2.7610695043021978
1687008086.780429,0.9636485576629639,0.2369602918624878,-0.12341479957103729,0.04909247159957886,0.021889731287956238,0.058473289012908936,0.32766303420066833,-0.0822979286313057,-0.17189855873584747,1.4434193789771508,-0.23923583919059346,2.7485946971288917
1687008086.785553,0.9608877897262573,0.2441384196281433,-0.13073213398456573,0.027301788330078125,-0.022641882300376892,0.06614154577255249,0.2706582844257355,-0.0663507878780365,-0.20696227252483368,1.435573111173807,-0.24663113056790015,2.7304302353452954
1687008086.870678,0.9576476216316223,0.25335124135017395,-0.13683529198169708,0.01641225814819336,-0.020044445991516113,0.07889755070209503,0.2580077350139618,-0.08173267543315887,-0.25514844059944153,1.4288701278565288,-0.2561429615179927,2.7163227649524093
1687008086.87499,0.9532166123390198,0.2652360200881958,-0.14500929415225983,0.003463566303253174,-0.06693285703659058,0.09705080091953278,0.1076505184173584,-0.16796675324440002,-0.308197021484375,1.4198275341165538,-0.2684486871759577,2.704307469936892
1687008086.993921,0.9482508301734924,0.2789701521396637,-0.15164287388324738,0.004065215587615967,-0.10401296615600586,0.11518950760364532,-0.001803732942789793,-0.03657744824886322,-0.28902411460876465,1.41222051030175,-0.2827215083398741,2.698317040656577
1687008086.995788,0.9444149136543274,0.29087984561920166,-0.15319624543190002,0.08988666534423828,-0.10455486178398132,0.10862524807453156,-0.09989435225725174,-0.10819677263498306,-0.15792201459407806,1.4099841758145477,-0.29514631627197985,2.7000686265885308
1687008087.0856838,0.9422472715377808,0.29712608456611633,-0.1545511931180954,-0.022005021572113037,-0.1264565885066986,0.08114105463027954,-0.09331673383712769,0.042765580117702484,-0.06645894795656204,1.4082199646354538,-0.3016813870956892,2.705318651995408
1687008087.0906792,0.9437100291252136,0.295586496591568,-0.1484583169221878,0.042404353618621826,-0.11663147807121277,0.04300469160079956,0.028945457190275192,0.01809658482670784,0.07807772606611252,1.4147616149458724,-0.3000693987269374,2.7066808054509024
1687008087.1709042,0.9462243914604187,0.28819409012794495,-0.14698033034801483,-0.07900655269622803,-0.1273818016052246,0.04355616867542267,-0.04282040894031525,0.04543353244662285,0.12946981191635132,1.4166943828420469,-0.29234036316180495,2.707197992964827
1687008087.17296,0.9492164850234985,0.2811279892921448,-0.14126244187355042,0.024370551109313965,-0.08929455280303955,0.025356575846672058,-0.19372376799583435,0.06580378115177155,0.20253629982471466,1.4230605727254744,-0.2849693032865012,2.715993478008212
1687008087.267158,0.9530589580535889,0.2708870768547058,-0.13527192175388336,0.1027727723121643,-0.08190709352493286,0.01858784258365631,-0.46106985211372375,0.020507942885160446,0.2435724139213562,1.429803601027742,-0.2743144435507461,2.7330387696775484
1687008087.272676,0.9556488394737244,0.2640976309776306,-0.1303372085094452,0.10991817712783813,-0.04640054702758789,-0.008960440754890442,-0.6638362407684326,-0.14139947295188904,0.20289155840873718,1.435246576205659,-0.26726822564484887,2.765644397333501
1687008087.350167,0.9567087888717651,0.26108843088150024,-0.12861159443855286,0.05136299133300781,-0.05996242165565491,-0.024022206664085388,-0.7716484665870667,-0.18883422017097473,0.11265221238136292,1.437166174597563,-0.2641495720276877,2.8035652730574103
1687008087.504322,0.9555006623268127,0.26446250081062317,-0.1306820958852768,0.035389721393585205,-0.12243378162384033,0.01909448206424713,-1.1294347047805786,-0.423911452293396,0.04424785450100899,1.4348714603904236,-0.2676465283180223,2.852619340207552
1687008087.507914,0.9530794024467468,0.27120721340179443,-0.1344848871231079,0.0343167781829834,-0.1482366919517517,0.01508474349975586,-1.4707658290863037,-0.4866838753223419,0.0544285885989666,1.4306161599607352,-0.2746470316492344,2.9204498399869303
1687008087.5926971,0.9512516260147095,0.2755222022533417,-0.13859203457832336,0.028591454029083252,-0.13547709584236145,0.007778286933898926,-1.3620915412902832,-0.5127455592155457,0.19210389256477356,1.4261198738323306,-0.27913289199951813,2.994270340204549
1687008087.5948548,0.9499620795249939,0.2770994305610657,-0.14417926967144012,0.014484822750091553,-0.14076223969459534,0.05909617245197296,-1.8934651613235474,-0.6506569981575012,0.2729244530200958,1.4201721561528593,-0.28077400096709904,3.0803686446324723
1687008087.5967278,0.9499106407165527,0.27330586314201355,-0.15156978368759155,0.02514106035232544,-0.054861098527908325,0.042560890316963196,-1.6998907327651978,-0.7102392315864563,0.4255925416946411,1.4125680114938048,-0.27682805885126355,-3.1094380229331438
1687008087.7137961,0.948657214641571,0.27098414301872253,-0.1631482094526291,0.0010346174240112305,-0.011569470167160034,0.08136098086833954,-2.4756920337677,-0.9335784316062927,0.34026485681533813,1.4004843178266015,-0.27441527784993563,-2.99879064219168
1687008087.714923,0.9447716474533081,0.27858665585517883,-0.17261537909507751,-0.01743406057357788,0.09697788953781128,0.12308520078659058,-2.437955141067505,-0.9039218425750732,0.18788331747055054,1.390083625179506,-0.28232218257670166,-2.869635068979235
1687008087.7160192,0.9368475675582886,0.30217671394348145,-0.17608384788036346,-0.0230599045753479,0.10901707410812378,0.1420414000749588,-2.898341178894043,-0.8674107193946838,-0.20751380920410156,1.385010249921323,-0.3069752833146754,-2.7340123952317916
1687008087.771189,0.925704836845398,0.3401612341403961,-0.16541147232055664,-0.006668031215667725,0.12362965941429138,0.09750974178314209,-2.5439612865448,-0.6141656637191772,-0.3414819836616516,1.393975417157105,-0.3470883401788645,-2.592326772879104
1687008087.862339,0.9157630205154419,0.3729711174964905,-0.14923326671123505,-0.0015327930450439453,0.10998478531837463,0.04887610673904419,-2.2326583862304688,-0.5661938786506653,-0.21213892102241516,1.4092557381087003,-0.3822091413879692,-2.4680356585866265
1687008087.86432,0.9105013012886047,0.38964518904685974,-0.1384333223104477,-0.03647798299789429,0.06586012244224548,0.04630066454410553,-1.9511595964431763,-0.6738507151603699,0.07745188474655151,1.419911106573326,-0.4002463037141338,-2.362479392180858
1687008088.010275,0.9075213074684143,0.4005855321884155,-0.12623801827430725,-0.11479687690734863,0.1468234658241272,0.079072967171669,-2.3549747467041016,-0.6919471621513367,0.1335308700799942,1.4325812388330563,-0.4121557878748164,-2.2385099409427984
1687008088.013009,0.9077068567276001,0.40311917662620544,-0.1164604052901268,-0.12381720542907715,0.21417513489723206,0.02696746587753296,-1.1971584558486938,-0.49113550782203674,0.2250317484140396,1.443191682467563,-0.41492268776506813,-2.1409540336169712
1687008088.1023269,0.9093022346496582,0.39949658513069153,-0.11649877578020096,-0.0668339729309082,0.21831658482551575,0.09892050921916962,-0.7324693202972412,-0.3978552222251892,0.21886147558689117,1.4433716322427295,-0.41096763074227033,-2.086851419797924
1687008088.108489,0.9116807579994202,0.39299389719963074,-0.11997378617525101,-0.08582949638366699,0.191829651594162,0.12146902829408646,-0.49991920590400696,-0.22423668205738068,0.19453004002571106,1.4399519057743368,-0.40388521103243846,-2.0582376640103717
1687008088.110149,0.9122188091278076,0.39362508058547974,-0.11364904046058655,-0.10177886486053467,0.2610227167606354,0.09416341781616211,-0.9979873299598694,-0.18443109095096588,0.0410214327275753,1.4468496873063101,-0.40457171632341604,-2.0108807385005445
1687008088.223963,0.9121071696281433,0.39701637625694275,-0.10216804593801498,-0.10175883769989014,0.24566853046417236,0.04403192549943924,-0.3717402517795563,0.08848991990089417,-0.028211697936058044,1.4592481001040245,-0.4082637557351915,-1.9738796025793406
1687008088.2258549,0.9103941917419434,0.40329936146736145,-0.09236827492713928,-0.07863771915435791,0.23528093099594116,-0.01508425921201706,-0.07098226994276047,0.0634026750922203,-0.15301434695720673,1.4696826851800826,-0.41511958228128976,-1.9614613866531365
1687008088.31112,0.9067176580429077,0.4137037396430969,-0.08192762732505798,-0.11637353897094727,0.10898604989051819,-0.04435420036315918,-0.44625967741012573,0.1944199502468109,-0.1909548044204712,1.480684750052553,-0.4265185392414609,-1.9484458223970889
1687008088.31326,0.903926432132721,0.4219934642314911,-0.06955856829881668,-0.030681312084197998,0.2085759937763214,-0.04375332593917847,0.08114414662122726,0.16067516803741455,-0.10875634104013443,1.4939960952219231,-0.43564302014719974,-1.935001610429857
1687008088.401528,0.9021996259689331,0.42664051055908203,-0.06335201859474182,-0.06176096200942993,0.1083020567893982,-0.023028068244457245,0.3034403324127197,0.28301894664764404,-0.10846205800771713,1.5006918871456698,-0.44077497552526756,-1.9478745668734334
1687008088.408908,0.9011718034744263,0.4296036660671234,-0.05770707130432129,-0.03319084644317627,0.10733789205551147,-0.12625306844711304,0.5409038662910461,0.4067549705505371,-0.03361125662922859,1.5068480475948243,-0.4440538463374578,-1.9743632293571203
1687008088.4566212,0.9024272561073303,0.42819300293922424,-0.0477035827934742,0.14745360612869263,0.11999422311782837,-0.11671000719070435,0.2586064636707306,0.270397812128067,0.03505595400929451,1.517984063727383,-0.44249225207646037,-1.9942247070316692
1687008088.547696,0.9019549489021301,0.429627001285553,-0.04356042295694351,0.22678321599960327,0.09754881262779236,-0.07501572370529175,0.31444165110588074,0.15098325908184052,-0.14968380331993103,1.5225382589558123,-0.44407968761026095,-2.0108797590973313
1687008088.549833,0.8967243432998657,0.44074299931526184,-0.04038141295313835,0.12280666828155518,-0.2424093782901764,0.00589645653963089,-0.5450772643089294,-0.08828192204236984,-0.3362464904785156,1.5257945930979093,-0.45642624395014675,-2.008630737431015
1687008088.61005,0.8879349827766418,0.4592736065387726,-0.025276916101574898,0.019642353057861328,-0.44299250841140747,0.062019944190979004,-1.9541285037994385,-0.4244163930416107,-0.39921826124191284,1.542336933933442,-0.47717727562716944,-1.943843540489253
1687008088.729323,0.8841326236724854,0.4672268331050873,0.0029017706401646137,0.1344677209854126,-0.5011624097824097,-0.18466460704803467,-2.8107593059539795,-0.8716601729393005,0.09921630471944809,1.574078368519998,-0.48615158411863535,-1.8050201116863
1687008088.731412,0.8876625299453735,0.4598551392555237,0.024258390069007874,0.015062689781188965,-0.2230234444141388,-0.08974921703338623,-1.9358783960342407,-0.9049032926559448,0.09847940504550934,1.5981179178240572,-0.4778320669282309,-1.6530461569965045
1687008088.8231091,0.8875123858451843,0.4598945081233978,0.028610965237021446,-0.020294487476348877,-0.2258552610874176,0.06805336475372314,-1.31467866897583,-0.49807649850845337,-0.1576317399740219,1.6030224244922784,-0.47787641007413073,-1.5726608402368814
1687008088.83081,0.8822891116142273,0.4674948751926422,0.05490148440003395,0.03018629550933838,-0.1905326247215271,0.045058723539114,-2.130589008331299,-0.22263839840888977,-0.3631303012371063,1.6329423812419586,-0.48645477738179443,-1.4655542662750334
1687008088.910718,0.8745343685150146,0.47706669569015503,0.08716011792421341,0.1974259614944458,-0.05406254529953003,-0.09558308124542236,-1.0010886192321777,-0.1561867892742157,-0.258696049451828,1.6701328875584096,-0.49731407685981865,-1.3714147219080064
1687008088.913156,0.870893120765686,0.4812040627002716,0.09993661195039749,0.21798908710479736,-0.0694456696510315,-0.12859272956848145,-1.3271381855010986,-0.3291572332382202,-0.21925649046897888,1.6850484452195802,-0.5020277422978117,-1.3186977771894277
1687008089.0308309,0.866003155708313,0.4867948293685913,0.11432218551635742,-0.1750851273536682,0.08211392164230347,-0.19163857400417328,-0.9408532977104187,-0.2745131850242615,-0.40143880248069763,1.7020486783870592,-0.508416703863639,-1.2430533155604109
1687008089.034457,0.855880856513977,0.5009138584136963,0.1286575049161911,0.08747828006744385,-0.06973117589950562,-0.13279274106025696,-1.1774801015853882,-0.44460636377334595,-0.47976022958755493,1.720000929420773,-0.5246543620460765,-1.1785337750131146
1687008089.1214151,0.8480564951896667,0.5131585597991943,0.13216882944107056,0.03484755754470825,-0.22429436445236206,0.002154245972633362,-0.3362971842288971,-0.2518612742424011,-0.3418010473251343,1.7254016827395762,-0.5388608299659369,-1.1313617934052662
1687008089.123794,0.8457101583480835,0.5152406096458435,0.13893011212348938,0.211647629737854,-0.16293030977249146,0.17492786049842834,-0.8502156734466553,-0.40077444911003113,0.03936414793133736,1.7336183062586616,-0.5412883488644029,-1.0874990172926373
1687008089.216187,0.8544390201568604,0.5006061792373657,0.13902144134044647,-0.32764482498168945,0.001941978931427002,0.10893379151821136,-0.9876613020896912,-0.38576486706733704,0.2522023916244507,1.7320878764068006,-0.5242988592236661,-1.043948991761299
1687008089.2245898,0.856504499912262,0.48964735865592957,0.16323356330394745,-0.1802198886871338,0.25888776779174805,0.09984301030635834,-1.0019184350967407,-0.16700749099254608,-0.09665786474943161,1.7591190577561049,-0.5116852566951566,-0.9691138025008772
1687008089.301925,0.8573409914970398,0.4864078760147095,0.16844376921653748,-0.0757860541343689,0.06078749895095825,0.2619149684906006,-0.3005399703979492,0.055467527359724045,0.01934756338596344,1.7647975944532066,-0.5079737767354756,-0.9414695876405627
1687008089.309801,0.8585373163223267,0.4824097156524658,0.1737651228904724,0.2119276523590088,0.07398676872253418,0.2416858673095703,0.02535824663937092,-0.09669511020183563,0.13232284784317017,1.7704953512285873,-0.5034036201816895,-0.9345692666901186
1687008089.360818,0.8594716191291809,0.4799686372280121,0.17589396238327026,-0.12868237495422363,0.02914091944694519,0.10296036303043365,0.3305230736732483,0.3285326063632965,0.002099602483212948,1.7726624713067367,-0.5006189774973493,-0.9425706530917752
1687008089.480698,0.8547130227088928,0.4857487082481384,0.18306776881217957,0.07827025651931763,0.0005946755409240723,-0.03601884841918945,0.5121697783470154,0.3327687680721283,0.001792806200683117,1.7817945368522032,-0.5072194997906716,-0.9648149289656405
1687008089.4844441,0.8552694320678711,0.48586392402648926,0.1801399439573288,0.11804282665252686,0.00333288311958313,-0.07631921768188477,0.5646933913230896,0.15426720678806305,0.15260282158851624,1.7783857346274663,-0.5073513155299837,-0.9947870249599124
1687008089.571682,0.8563938140869141,0.48783496022224426,0.16913430392742157,-0.0029394030570983887,0.01005929708480835,-0.017202630639076233,0.885083794593811,0.12069806456565857,0.0628175437450409,1.7657829894092338,-0.5096078498301643,-1.035637905446625
1687008089.580807,0.8580250144004822,0.4897059500217438,0.15485811233520508,-0.06990867853164673,-0.006139665842056274,0.015475749969482422,0.44956424832344055,0.11349967122077942,0.11074459552764893,1.7493561339535586,-0.5117524680791723,-1.0761086123235328
1687008089.6641688,0.8599449992179871,0.48705416917800903,0.15255431830883026,-0.02493828535079956,-0.10176968574523926,-0.15838323533535004,0.1024942398071289,-0.014844854362308979,0.10119929164648056,1.7463697987919238,-0.5087136381305596,-1.0918896712241888
1687008089.6662211,0.863555908203125,0.48123207688331604,0.1506204754114151,-0.0016939043998718262,-0.03581279516220093,-0.05537523329257965,0.17781628668308258,0.0654289498925209,0.13124054670333862,1.7434781038958407,-0.5020597150344217,-1.099737497335253
1687008089.750766,0.8676756024360657,0.475128173828125,0.14626123011112213,0.047439754009246826,-0.031417787075042725,-0.060537442564964294,0.15171799063682556,-0.14359751343727112,0.2744211256504059,1.7377931249625749,-0.4951096836940184,-1.1082980467894692
1687008089.757438,0.8746368885040283,0.46491342782974243,0.13735222816467285,-0.03282487392425537,0.02907460927963257,0.022315621376037598,-0.029251601547002792,-0.0548616461455822,0.167730912566185,1.726563311888306,-0.4835368417528484,-1.1180744361934556
1687008089.8411179,0.8773165941238403,0.46029046177864075,0.1358243077993393,0.027910947799682617,0.07057806849479675,0.014398336410522461,0.19183556735515594,-0.013295693323016167,0.09855104237794876,1.7243947879991133,-0.4783223539412721,-1.1192205083954654
1687008089.9339561,0.8789336681365967,0.45847341418266296,0.13144487142562866,0.00827336311340332,0.02497085928916931,0.033945098519325256,0.045568712055683136,0.007989754900336266,0.04017241671681404,1.719246524881017,-0.4762766898324314,-1.1321931996162176
1687008089.944391,0.8780176639556885,0.4597880244255066,0.1329655945301056,-0.04214131832122803,0.0895741879940033,-0.003998398780822754,0.12525369226932526,0.06529618799686432,-0.04625381529331207,1.7210927226055646,-0.47775647033417395,-1.1322477765952965
1687008090.023473,0.8763296008110046,0.46282681822776794,0.13355684280395508,0.06402361392974854,0.03895843029022217,-0.06031478941440582,-0.20697298645973206,-0.0923091471195221,-0.08606487512588501,1.72203732284313,-0.4811814740606097,-1.134155400161972
1687008090.032995,0.8730766773223877,0.46821603178977966,0.13605333864688873,-0.01876777410507202,0.18794238567352295,-0.07224120199680328,-0.29289934039115906,-0.16127356886863708,-0.1761375069618225,1.7253850640285855,-0.4872707614607245,-1.1124890351574188
1687008090.145669,0.867969810962677,0.47760096192359924,0.13610897958278656,0.06011539697647095,0.25256261229515076,-0.037888288497924805,-0.9070279002189636,-0.3395056426525116,-0.47532927989959717,1.7263426382951002,-0.49792207360909857,-1.0852452187121904
1687008090.1497478,0.8542850017547607,0.4997788667678833,0.1428910195827484,-0.06253713369369507,0.4372938573360443,-0.031807079911231995,-0.7050924301147461,-0.3189709186553955,-0.8375248312950134,1.7365260152713953,-0.5233434444599667,-1.0260376478990496
1687008090.233491,0.8267167210578918,0.5419501662254333,0.15109388530254364,0.08858168125152588,0.40812307596206665,0.02657938003540039,-0.674055278301239,-0.12272338569164276,-1.4000917673110962,1.7515650341083784,-0.5727558601039552,-0.9803608999101835
1687008090.24418,0.7840958833694458,0.5980916023254395,0.16576986014842987,0.09087342023849487,0.3360360860824585,0.08780048787593842,-0.7217105031013489,-0.07163982838392258,-1.6087088584899902,1.779143652514117,-0.6411177646065335,-0.9168652833088986
1687008090.32901,0.7308672666549683,0.6609301567077637,0.17030587792396545,0.08912467956542969,0.558750569820404,0.09431195259094238,-0.3464231789112091,-0.0664498582482338,-2.0940847396850586,1.7997300283968207,-0.7220575689854447,-0.8759076816922916
1687008090.332932,0.644411027431488,0.7386712431907654,0.19773399829864502,0.30390727519989014,0.5246495604515076,0.14421531558036804,-0.30093392729759216,0.2866007387638092,-2.5607454776763916,1.8685206033035129,-0.8310969954049894,-0.7904029125466362
1687008090.472849,0.5331102013587952,0.820400595664978,0.2067277729511261,0.45378243923187256,0.32826584577560425,0.11118891835212708,-0.5658208131790161,0.28309017419815063,-3.072739362716675,1.940721270813985,-0.9621112861582004,-0.7216019727965891
1687008090.4761581,0.3917887210845947,0.8815473914146423,0.26339223980903625,0.4845386743545532,0.5294937491416931,0.0994921624660492,-0.6054654717445374,0.5824257731437683,-3.284799575805664,2.1626759340586594,-1.0791299191528834,-0.48378508275044263
1687008090.479337,0.2270515114068985,0.9356191158294678,0.2703038454055786,0.6639853715896606,0.08607876300811768,0.10286495089530945,0.004732862114906311,0.8272593021392822,-3.5276381969451904,2.4429409140431266,-1.2100087899785743,-0.21803291551928736
1687008090.557878,0.05434560775756836,0.9597960710525513,0.2753866910934448,0.6484131217002869,0.07000422477722168,0.07567214965820312,0.714283287525177,0.8006221055984497,-3.302170753479004,2.9467532907231035,-1.2862748707335614,0.2744455978972345
1687008090.565308,-0.10924515873193741,0.9699177742004395,0.2175428718328476,0.7840192914009094,-0.5162129402160645,-0.03884729743003845,0.6179845929145813,0.4143175482749939,-3.0127151012420654,-2.6762044944550802,-1.324892921315232,0.9143943992984226
1687008090.652077,-0.24337878823280334,0.9482344388961792,0.20400545001029968,0.40408432483673096,-0.24983972311019897,-0.02656102180480957,0.757185697555542,0.4563409090042114,-2.5609238147735596,-2.2684128049377152,-1.2476293174928867,1.3226270555391795
1687008090.6623878,-0.36046043038368225,0.9235959649085999,0.13053196668624878,0.37080588936805725,-0.2576109766960144,0.0768805742263794,1.4097117185592651,0.35009142756462097,-2.34097957611084,-1.9182323888666803,-1.1773569738823013,1.6742396803269008
1687008090.743948,-0.4707038104534149,0.8762880563735962,0.10274798423051834,0.40629640221595764,-0.1505190134048462,0.13869179785251617,-0.31578928232192993,0.19293950498104095,-2.344499111175537,-1.7857110343889595,-1.0681028617537265,1.7997282926081994
1687008090.7473168,-0.5748227834701538,0.8140024542808533,0.08353843539953232,0.3727658987045288,0.16693919897079468,0.12588834762573242,1.052909255027771,0.7107308506965637,-2.436938762664795,-1.715114978092338,-0.9510097638477069,1.8525258869462353
1687008090.834636,-0.6656734347343445,0.7462370991706848,-0.002988354070112109,0.23662680387496948,0.15328365564346313,0.11643737554550171,1.9146546125411987,0.6710694432258606,-2.2626192569732666,-1.5663071374452244,-0.8423913278324852,2.000975082163869
1687008090.95329,-0.7507686018943787,0.6536518931388855,-0.09531699866056442,0.5092220902442932,0.17947781085968018,0.04891492426395416,1.8612315654754639,0.45110058784484863,-2.6188912391662598,-1.4445127156975384,-0.7123999132925355,2.125975353019424
1687008090.964888,-0.8286536335945129,0.5446144938468933,-0.12933695316314697,0.3371375799179077,-0.11045628786087036,0.1183047890663147,-0.3601311147212982,0.3013308346271515,-2.7136216163635254,-1.4159647186191924,-0.5759294046149069,2.1487215269475355
1687008091.044372,-0.8922263979911804,0.43232735991477966,-0.1304805725812912,0.37681496143341064,-0.14921584725379944,0.10838572680950165,-0.3522241413593292,0.33778485655784607,-2.617741107940674,-1.4255841287260416,-0.44707223344645786,2.101009670195695
1687008091.0486279,-0.9381942749023438,0.3109806478023529,-0.15192925930023193,0.393623411655426,-0.22267809510231018,-0.009371459484100342,0.6712279319763184,0.3965129852294922,-2.5676050186157227,-1.4102520486631804,-0.31622465491419544,2.0803157444214646
1687008091.1349502,-0.9631063938140869,0.19519725441932678,-0.1852676272392273,0.1711295247077942,-0.43254777789115906,-0.0010269880294799805,1.05451238155365,0.5238924026489258,-1.999343752861023,-1.380753103664892,-0.19645857033139333,2.1064868594453254
1687008091.1469278,-0.9725053906440735,0.09424248337745667,-0.2129589319229126,0.15318483114242554,-0.5831799507141113,-0.031074941158294678,0.9690930247306824,0.23042070865631104,-1.508310317993164,-1.355219440196862,-0.0943825456326918,2.1497289204297925
1687008091.2289538,-0.9762475490570068,0.028803300112485886,-0.21473486721515656,0.11203563213348389,-0.21605920791625977,-0.19279694557189941,0.3620639741420746,-0.10451068729162216,-1.2406344413757324,-1.354284702318193,-0.0288072837466445,2.1553574298439595
1687008091.2340379,-0.9784743189811707,-0.01910976879298687,-0.2054809331893921,0.023182809352874756,-0.6706027984619141,0.008932441473007202,-0.3092696964740753,-0.20383886992931366,-0.4458065330982208,-1.363802832909188,0.01911093150521581,2.154007856468662
1687008091.3413339,-0.9800349473953247,-0.02525925263762474,-0.19721373915672302,0.027962982654571533,-0.33217793703079224,0.006875544786453247,-0.13932405412197113,-0.06540883332490921,-0.019787853583693504,-1.3722170710524235,0.025261939010683295,2.1435149983203257
1687008091.348536,-0.9809821844100952,-0.011770402081310749,-0.19374027848243713,0.08597803115844727,-0.3113802969455719,0.09393246471881866,-0.7399598956108093,-0.08515310287475586,0.4000498950481415,-1.3758093958958562,0.01177067424795801,2.118204205986712
1687008091.430902,-0.9811657071113586,0.016069110482931137,-0.1924983263015747,0.017039179801940918,-0.08421493321657181,-0.02902883291244507,0.2220846265554428,0.04147714003920555,0.5722559690475464,-1.377063535930731,-0.016069801434309777,2.1128836605178045
1687008091.434881,-0.9795206189155579,0.047145675867795944,-0.19574549794197083,0.03292661905288696,-0.02219761535525322,0.0015773475170135498,-0.14329475164413452,0.03550327196717262,0.6697801351547241,-1.3735564871113484,-0.04716315791736563,2.119104559718416
1687008091.521583,-0.9774261713027954,0.08060834556818008,-0.19529514014720917,-0.010809183120727539,0.03964608907699585,-0.012621209025382996,-0.1488824486732483,-0.02107558585703373,0.61403489112854,-1.3735877705161055,-0.08069589886984375,2.1208128921915645
1687008091.530764,-0.9749361872673035,0.1102902889251709,-0.1932232677936554,-0.016747593879699707,0.14341750741004944,-0.031996533274650574,-0.1289711445569992,-0.04167580232024193,0.5035603046417236,-1.375141106729388,-0.11051511461845916,2.113104212678685
1687008091.6157808,-0.9725639224052429,0.1337612420320511,-0.1903349757194519,-0.008454084396362305,0.06937894225120544,-0.02504289150238037,-0.16421307623386383,-0.11130721122026443,0.4313255250453949,-1.3775346058364732,-0.13416336583240843,2.1168650079538245
1687008091.6197991,-0.9714093804359436,0.15271829068660736,-0.18177101016044617,-0.01818394660949707,0.12020033597946167,0.0354238897562027,-0.3940335512161255,-0.09474407881498337,0.19254279136657715,-1.38581461964333,-0.15331824864099655,2.1005079626574807
1687008091.7287722,-0.9709471464157104,0.1604391485452652,-0.1775410920381546,-0.01251220703125,0.002463623881340027,-0.021784543991088867,0.15962204337120056,-0.0694672167301178,0.11384770274162292,-1.389940811171428,-0.16113554727723048,2.0956720822212276
1687008091.731885,-0.9701722264289856,0.1674528419971466,-0.17528630793094635,-0.010128617286682129,-0.31900322437286377,0.002297341823577881,0.11310820281505585,-0.10547368973493576,0.32464754581451416,-1.3920492096120372,-0.16824545769373025,2.1080640164171247
1687008091.827241,-0.965592086315155,0.1943281590938568,-0.17282427847385406,0.09211808443069458,-0.467033326625824,0.05240185558795929,0.13004231452941895,-0.03206152468919754,0.8647025227546692,-1.393688935787308,-0.19557250779408789,2.117612489907553
1687008091.831181,-0.9532845616340637,0.2477179914712906,-0.17287057638168335,0.09262794256210327,-0.32306596636772156,0.10661685466766357,0.13322225213050842,0.038014233112335205,1.3548741340637207,-1.3914037724885238,-0.25032412045277264,2.134076777112824
1687008091.917458,-0.9321612119674683,0.3147256076335907,-0.17894971370697021,0.09771925210952759,-0.25686436891555786,0.03888924419879913,0.14837270975112915,0.08310314267873764,1.5997120141983032,-1.3811308934414168,-0.32016755298512967,2.1588724463300974
1687008091.92948,-0.9004102349281311,0.39511895179748535,-0.1820506602525711,0.11380445957183838,0.057517677545547485,0.025190234184265137,-0.057537566870450974,0.06298802047967911,1.7649047374725342,-1.3712993870743146,-0.4061973472749154,2.1752307266776443
1687008092.035773,-0.8660725355148315,0.4648627042770386,-0.18390442430973053,0.1280965805053711,-0.3423500061035156,0.016271308064460754,-0.17136618494987488,0.11637894809246063,1.5672848224639893,-1.3615611738379658,-0.4834795286301814,2.1852891333534115
1687008092.048275,-0.8173128366470337,0.5401156544685364,-0.20068508386611938,0.19725680351257324,-0.1194310188293457,0.027558818459510803,1.0204752683639526,0.21580660343170166,2.096747398376465,-1.33001728343897,-0.5705745524159864,2.2321931866193148
1687008092.124412,-0.7537498474121094,0.6201756596565247,-0.21735481917858124,0.20527273416519165,-0.4549384117126465,0.14801885187625885,-0.4844571352005005,0.15528932213783264,2.233107328414917,-1.290048029546147,-0.6689666195369819,2.28410154446966
1687008092.128522,-0.672252357006073,0.6998600959777832,-0.24139739573001862,0.3598285913467407,-0.14035087823867798,0.08601704239845276,1.0236936807632446,0.5765112638473511,2.336540699005127,-1.2260488118980475,-0.775201618551173,2.346342724152136
1687008092.21459,-0.5693684220314026,0.7785189747810364,-0.26406002044677734,0.3316517472267151,-0.21768230199813843,0.17984670400619507,-0.7408278584480286,0.6649881601333618,2.9831278324127197,-1.1365446637299215,-0.8923026033343909,2.432135953741674
1687008092.218879,-0.44426876306533813,0.8582488894462585,-0.25697091221809387,0.46067193150520325,-0.1261170506477356,-0.14842462539672852,-0.3411944508552551,0.46875205636024475,2.5770678520202637,-1.046400692276273,-1.0318480008597715,2.4973923017234805
1687008092.3044171,-0.31357306241989136,0.9150474071502686,-0.2536925673484802,0.24402350187301636,-0.09796994924545288,0.13481131196022034,0.07734142243862152,0.8193036317825317,2.8938727378845215,-0.890568568776596,-1.1556254507626929,2.6476879962746054
1687008092.317533,-0.17133861780166626,0.9549517631530762,-0.24230143427848816,0.4703497886657715,0.06860768795013428,0.11307471990585327,-0.8810173273086548,0.16261155903339386,3.268653392791748,-0.6154952016808644,-1.2694972757803245,2.9091273835742095
1687008092.4297671,-0.02357322722673416,0.9731662273406982,-0.2288919985294342,0.4965956211090088,-0.15102285146713257,-0.10875456035137177,-0.01725492626428604,1.1739906072616577,2.3667194843292236,-0.10262660849855733,-1.338612620447261,-2.8938307665952516
1687008092.43441,0.1167825236916542,0.9625159502029419,-0.24479568004608154,0.12064416706562042,0.23535996675491333,0.21003609895706177,0.9380267262458801,1.2421376705169678,2.8102667331695557,0.44512875500856425,-1.2961306810289848,-2.3577774647242724
1687008092.576232,0.2527380585670471,0.9347221851348877,-0.2498358190059662,0.6011894941329956,0.2629706859588623,-0.08999279141426086,0.028332332149147987,0.41124480962753296,2.802703380584717,0.7911728506218635,-1.2074765740801696,-2.0596027401352415
1687008092.581397,0.38345256447792053,0.8835546374320984,-0.26887795329093933,0.14346390962600708,-0.008554577827453613,0.18765529990196228,0.7164009213447571,1.8580423593521118,2.200223207473755,0.9592637003187091,-1.0833987422175377,-1.9344202485959952
1687008092.6351871,0.4945569634437561,0.830766499042511,-0.25542202591896057,0.21691450476646423,0.37110722064971924,-0.08771771192550659,0.41463005542755127,0.9617770910263062,2.374300718307495,1.0940626113514613,-0.9804833317273807,-1.834995875231112
1687008092.645463,0.5942370891571045,0.7695527672767639,-0.23381805419921875,0.45817673206329346,-0.059027254581451416,-0.1227494478225708,-0.13793466985225677,0.7747482061386108,2.071788787841797,1.195926691497685,-0.8781404719858513,-1.798539699337655
1687008092.647686,0.6838151812553406,0.6934406161308289,-0.22701695561408997,-0.04843932390213013,0.42110705375671387,-0.017993509769439697,1.529431700706482,1.583104133605957,1.8071262836456299,1.2502590104760052,-0.766253387479944,-1.779027649534133
1687008092.6945481,0.7568560838699341,0.6161590218544006,-0.2179839313030243,0.4479168653488159,0.13204050064086914,-0.12774983048439026,0.3677958846092224,0.48683226108551025,1.8971751928329468,1.290373292845237,-0.6638566673548567,-1.8245185728209303
1687008092.753901,0.8167429566383362,0.5428531765937805,-0.19555437564849854,-0.049973487854003906,0.359353244304657,0.0038428008556365967,0.29095882177352905,1.5250334739685059,1.2896263599395752,1.3357885052973704,-0.5738307550501023,-1.8171352169683144
1687008092.848493,0.85523521900177,0.5008041262626648,-0.13329578936100006,0.29242396354675293,0.028675854206085205,0.004297912120819092,-1.026564598083496,0.6473808884620667,1.13900887966156,1.4161816604046455,-0.524527540958678,-1.7776205461797472
1687008092.852929,0.8897414803504944,0.44700732827186584,-0.09243417531251907,-0.006349444389343262,0.206190824508667,-0.07164369523525238,-0.14696066081523895,0.7923516631126404,1.3593710660934448,1.46727887161914,-0.4634170226197492,-1.7413310270646858
1687008092.966306,0.9181740283966064,0.3920566737651825,-0.05698984116315842,0.01058262586593628,0.418291836977005,-0.15745729207992554,-0.05214240401983261,0.5209049582481384,1.0558642148971558,1.508807178370755,-0.40286618797312096,-1.7225650901402594
1687008092.971077,0.9335890412330627,0.3565022349357605,-0.036300551146268845,-0.0012007355690002441,0.5920146703720093,-0.1795504093170166,0.4998079836368561,0.5353590250015259,0.47665467858314514,1.5319331087862849,-0.36452144864225994,-1.7350760268747307
1687008093.0588999,0.937027633190155,0.3485720157623291,-0.021831177175045013,0.02479475736618042,0.3476864993572235,-0.16540956497192383,0.06665129214525223,0.36438074707984924,-0.16895203292369843,1.5475022121950346,-0.3560471367413733,-1.7563295601489357
1687008093.064976,0.9329906105995178,0.3597005009651184,-0.011987105943262577,0.04386162757873535,0.3011728823184967,-0.14192843437194824,0.1785135120153427,0.02940942533314228,-0.2943080961704254,1.5579489879510706,-0.3679468978974662,-1.7562990645831622
1687008093.111356,0.9252201914787292,0.37927770614624023,-0.010749719105660915,0.0003014206886291504,-0.06563335657119751,-0.07631707191467285,-0.281853586435318,0.06291092932224274,-0.5332962274551392,1.5591782974600832,-0.3890155586152042,-1.7604112861209469
1687008093.209259,0.9150032997131348,0.40344056487083435,-0.00207701837643981,0.03700762987136841,-0.08086979389190674,-0.03603959083557129,-0.426137775182724,-0.11080839484930038,-0.39517638087272644,1.568526373307698,-0.4152739007480699,-1.7309804349046838
1687008093.224052,0.9088118672370911,0.4171993136405945,-0.0024142018519341946,0.029374778270721436,-0.18541821837425232,-0.023632705211639404,-0.33462396264076233,-0.11560635268688202,-0.2545236647129059,1.5681398954679666,-0.4303614341557686,-1.7218575469355593
1687008093.263907,0.9042240381240845,0.4270328879356384,0.0046676406636834145,0.016201376914978027,-0.11195412278175354,-0.01873636245727539,-0.5725181698799133,-0.1492071896791458,-0.097254678606987,1.5759583209274464,-0.44120889009515984,-1.6859482221674982
1687008093.35344,0.904047966003418,0.4274284839630127,0.0013750316575169563,-0.009959399700164795,-0.07679679989814758,0.007871747016906738,-0.05927075445652008,-0.096891388297081,-0.019714616239070892,1.5723172976942406,-0.44164641242500835,-1.6787054992483996
1687008093.3667212,0.9029693007469177,0.429696649312973,0.0026589103508740664,0.0031127333641052246,0.0035614371299743652,0.023067235946655273,-0.08836305886507034,-0.0879901722073555,-0.01338215172290802,1.5737409481011888,-0.44415679355964566,-1.6646444083536853
1687008093.414495,0.9041915535926819,0.427097886800766,-0.005015654489398003,-0.009965479373931885,-0.005161792039871216,0.039653003215789795,0.24398666620254517,-0.052277445793151855,0.07835469394922256,1.565249268572878,-0.4412807714977531,-1.6783528867794129
1687008093.50593,0.9038851261138916,0.4277716875076294,-0.0016863640630617738,0.017669320106506348,-0.0018531084060668945,0.0131303071975708,-0.32914891839027405,-0.01818419247865677,-0.0408950038254261,1.5689306448529123,-0.4420260775517276,-1.6691649141221603
1687008093.521285,0.9049886465072632,0.4254244565963745,-0.003022796707227826,-0.021215081214904785,0.04308134317398071,-0.00826883316040039,0.1609119474887848,-0.03722565993666649,0.10234151780605316,1.5674561906264086,-0.4394308572866982,-1.6673575727034808
1687008093.599698,0.9052683711051941,0.4248335659503937,-0.002296318067237735,0.020985722541809082,0.019426017999649048,0.0053021907806396484,-0.11703744530677795,-0.004730434622615576,-0.0507417768239975,1.5682597164184877,-0.4387780332483131,-1.6673870771523545
1687008093.6043181,0.9037048816680908,0.4281452000141144,-0.003052515210583806,-0.016375720500946045,0.0030529797077178955,0.005539595615118742,-0.08330884575843811,-0.04240310937166214,0.003519865684211254,1.5674185608232656,-0.44243933367529253,-1.6622229536683975
1687008093.656034,0.9025804400444031,0.43051737546920776,-0.0017158783739432693,-0.008888661861419678,0.03531813621520996,0.009009480476379395,0.032792527228593826,0.05132457613945007,-0.08853708952665329,1.5688952482046479,-0.4450659178291358,-1.6611872902541527
1687008093.7178168,0.9007115364074707,0.43441638350486755,-0.0009953929111361504,0.023360610008239746,-0.018217653036117554,0.004275918006896973,-0.013875177130103111,-0.0194245595484972,-0.033565983176231384,1.5696912088071902,-0.4493902407429212,-1.6617008540895162
1687008093.8038259,0.8990919589996338,0.43775275349617004,0.002395442919805646,0.0037093162536621094,-0.011880040168762207,-0.011474609375,-0.1617608368396759,0.03500472754240036,-0.060899071395397186,1.5734606117736305,-0.45309769439481684,-1.655379789080376
1687008093.8207889,0.8993384838104248,0.4372140169143677,0.005819434300065041,-0.002564370632171631,-0.0022470057010650635,-0.007925271987915039,-0.1696529984474182,-0.012672513723373413,-0.04224815592169762,1.577267030451924,-0.45249858425803086,-1.6466028283297267
1687008093.85823,0.8986595273017883,0.4386064112186432,0.005945438519120216,-0.004998147487640381,-0.005760312080383301,-0.036325812339782715,-0.0796230286359787,-0.01018898282200098,-0.06531272828578949,1.577412126968996,-0.4540473765583122,-1.6404944579346468
1687008093.950676,0.8982425928115845,0.43947044014930725,0.005076067987829447,-0.0052525997161865234,-0.015108287334442139,0.0007984633557498455,-0.08797603845596313,-0.012231893837451935,-0.02149520441889763,1.5764473773184555,-0.45500904636289236,-1.638434273948656
1687008093.9565148,0.8977664709091187,0.4404660165309906,0.0021411932539194822,0.004042983055114746,-0.0038358569145202637,-0.020146727561950684,-0.0836910754442215,-0.06829077005386353,-0.04694197699427605,1.5731813448875953,-0.4561177048973368,-1.633910185904236
1687008094.04727,0.8974937796592712,0.44102615118026733,0.0006853534141555429,-0.007525086402893066,0.0009751617908477783,-0.008147001266479492,0.014610061421990395,0.009962224401533604,-0.01602800190448761,1.571559956888709,-0.45674170889233767,-1.6326503146683495
1687008094.052376,0.8975240588188171,0.4409646987915039,-0.0008756788447499275,0.022657155990600586,-0.037812232971191406,0.009847760200500488,-0.23337312042713165,-0.1315874457359314,-0.004078132100403309,1.5698206664730239,-0.45667323631508605,-1.6292812262157677
1687008094.1038141,0.8974246382713318,0.44116726517677307,0.0004919641651213169,-0.018442213535308838,0.02665194869041443,0.000820159912109375,-0.06576114147901535,0.0031992606818675995,-0.017580358311533928,1.5713445222555176,-0.45689895363903543,-1.6179270287170084
1687008094.1947742,0.8983154892921448,0.43934914469718933,-0.0012330651516094804,-0.006378293037414551,-0.02904030680656433,0.028027355670928955,-0.03946163132786751,-0.07070984691381454,0.012313890270888805,1.5694236860673643,-0.4548740125461506,-1.6191390870722429
1687008094.200073,0.8982017040252686,0.4395815134048462,-0.0012645985698327422,-0.008690714836120605,0.02321755886077881,0.018705248832702637,-0.03120856173336506,-0.030545255169272423,0.015158944763243198,1.5693884050579352,-0.4551327035678887,-1.613782185306314
1687008094.253168,0.8989598155021667,0.43803104758262634,-0.0002605070185381919,0.001247704029083252,-0.006451398134231567,0.02890115976333618,0.011078976094722748,0.011466644704341888,0.01959603652358055,1.5705065396403775,-0.4534072614634903,-1.615119954682564
1687008094.317765,0.8988087177276611,0.43833571672439575,0.002168679842725396,-0.020085632801055908,0.005527198314666748,0.022748827934265137,-0.0886291041970253,0.03481564298272133,0.01215649675577879,1.5732091601493745,-0.45374617336581735,-1.6103356043327672
1687008094.403049,0.899216890335083,0.4374638795852661,0.005857968702912331,0.002440154552459717,0.014150470495223999,0.0013440847396850586,0.05880515277385712,0.06593188643455505,0.021175291389226913,1.5773107572249603,-0.4527764404773655,-1.610685330290598
1687008094.419795,0.8992663025856018,0.4373096227645874,0.008960179053246975,0.0016887784004211426,0.019065499305725098,0.006206989288330078,-0.018990442156791687,-0.0004282310837879777,0.03780646622180939,1.5807598742244109,-0.45260489717381314,-1.6100576139374299
1687008094.46272,0.8989232778549194,0.43793681263923645,0.012162208557128906,-0.00419384241104126,0.015233933925628662,0.0024250736460089684,-0.04438701272010803,0.0773824080824852,-0.03273880481719971,1.5843252529917344,-0.45330243382235724,-1.608478313094721
1687008094.5546122,0.8981899619102478,0.4393715560436249,0.014400102198123932,0.013690412044525146,0.001729518175125122,-0.014034032821655273,0.047592975199222565,0.015994682908058167,0.00422001164406538,1.5868273101185806,-0.4548989730338581,-1.6088066121893843
1687008094.572372,0.8978803753852844,0.4400029480457306,0.01441428903490305,-0.008308470249176025,-0.004944413900375366,-0.011759402230381966,-0.004435801412910223,0.041236523538827896,-0.02055084891617298,1.5868486325405249,-0.45560197100969496,-1.6105507324115456
1687008094.608468,0.8976520299911499,0.44046133756637573,0.014645006507635117,0.010016918182373047,-0.009965121746063232,-0.015285968780517578,-0.022286370396614075,-0.013157076202332973,-0.00012040883302688599,1.587109671657138,-0.4561124904639729,-1.610161688090444
1687008094.7068,0.8977770805358887,0.4401988983154297,0.014869381673634052,-0.004481911659240723,-0.0052318274974823,-0.006538271903991699,-0.02562224678695202,0.024068323895335197,0.0007190201431512833,1.5873572549386459,-0.4558201659499826,-1.6088021075035732
1687008094.722704,0.8984991908073425,0.43879494071006775,0.01256471499800682,0.0045157670974731445,-0.011243730783462524,-0.0042946357280015945,0.10146073997020721,-0.015101982280611992,0.03246070444583893,1.5847795296747718,-0.4542571735662752,-1.6131315001004083
1687008094.7608051,0.8987387418746948,0.4382927417755127,0.012958738021552563,0.00406259298324585,-0.005645036697387695,0.005641578696668148,-0.10680970549583435,-0.01613888330757618,0.014037488959729671,1.5852141314117754,-0.45369836119235785,-1.6101328448197987
1687008094.854478,0.8994833827018738,0.4367397129535675,0.013711459934711456,-0.0001303553581237793,0.00874069333076477,0.009588601067662239,0.059122733771800995,0.0022919215261936188,0.026914671063423157,1.5860388521639166,-0.4519712731892637,-1.608365536277799
1687008094.872143,0.9000428318977356,0.43559855222702026,0.013299529440701008,-0.001101851463317871,-0.009191691875457764,0.01383054256439209,-0.015189379453659058,0.02784481830894947,0.012239853851497173,1.5855718039741942,-0.45070312995658446,-1.612182653489252
1687008095.004126,0.9000169634819031,0.43558573722839355,0.015314912423491478,-0.005302608013153076,0.011344283819198608,-0.0002546291798353195,0.014323106035590172,0.04010254889726639,0.004201102070510387,1.5878109335739852,-0.4506888758885058,-1.6105420350036286
1687008095.020753,0.9001561403274536,0.43520820140838623,0.017678990960121155,0.005712270736694336,0.01214897632598877,-0.0030306577682495117,-0.0182658638805151,0.027071969583630562,0.013146926648914814,1.5904337176666554,-0.4502695131942845,-1.6096551176250091
1687008095.129168,0.8998402953147888,0.4357635974884033,0.019936708733439445,0.05564969778060913,0.04789426922798157,-0.09681057929992676,-0.05606057867407799,-0.02165122702717781,0.006768389604985714,1.5929485322756571,-0.45088647341035365,-1.6080365768165383
1687008095.133611,0.8985198140144348,0.43887925148010254,0.006852971389889717,-0.08797305822372437,0.32644057273864746,-0.2397327423095703,-0.023257028311491013,-0.3230503499507904,-0.21895074844360352,1.5784231350209208,-0.4543510078376864,-1.607627681859937
1687008095.1388521,0.8882867097854614,0.45928236842155457,-0.0024820680264383554,0.09483689069747925,0.25025129318237305,-0.18906164169311523,-0.40803593397140503,-0.5010050535202026,-0.6190451979637146,1.568002114628279,-0.47718714399544654,-1.5947343280657655
1687008095.2120209,0.870163083076477,0.49230167269706726,-0.021330351009964943,0.04843109846115112,0.33289361000061035,-0.10678255558013916,-0.7860534191131592,-0.8015433549880981,-0.9076053500175476,1.5462881854577668,-0.5147320801203964,-1.5661493246519975
1687008095.215691,0.8382208347320557,0.5449273586273193,-0.020970560610294342,0.11571276187896729,0.5403692722320557,-0.05945867300033569,-1.805614709854126,-0.9293015003204346,-1.4853928089141846,1.5457836027056864,-0.576302463022223,-1.486992096276343
1687008095.306252,0.7837852835655212,0.6210188269615173,0.004025223199278116,0.12142699956893921,0.6568894982337952,-0.05195319652557373,-2.1037697792053223,-0.5420657992362976,-2.2393109798431396,1.575931901129692,-0.6700418785479417,-1.3664624676512687
1687008095.32216,0.700737714767456,0.712066650390625,0.043903935700654984,0.2813483476638794,0.7135772109031677,-0.04172205924987793,-1.5307062864303589,-0.5979471802711487,-2.734592914581299,1.6333684171472067,-0.792437331021009,-1.234891241391728
1687008095.425352,0.5781677961349487,0.8108500242233276,0.09079711884260178,0.5356168746948242,0.49200642108917236,0.0047533512115478516,-1.2697490453720093,-0.08187089115381241,-3.533087730407715,1.7265669260558245,-0.9456030251734961,-1.0980535404114302
1687008095.4411979,0.4260290563106537,0.8973376154899597,0.11525799334049225,0.6055412292480469,0.3221752643585205,0.034812092781066895,0.009509707801043987,-0.03791848197579384,-3.607769012451172,1.8350115885120128,-1.113699634652175,-0.9644936855109275
1687008095.516664,0.25354230403900146,0.9602797627449036,0.11652940511703491,0.7573524713516235,-0.011045753955841064,0.07826413214206696,-0.24356696009635925,-0.02280118130147457,-3.7124040126800537,2.001609325495507,-1.2880031773379363,-0.7908751909390369
1687008095.522105,0.07932829111814499,0.9899571537971497,0.11701127886772156,0.6635915637016296,-0.02537292242050171,0.09185098856687546,0.3250473439693451,0.08790429681539536,-3.4161641597747803,2.5458162433371583,-1.4289532624853514,-0.23498304948789867
1687008095.6071858,-0.09025783091783524,0.9901665449142456,0.10688270628452301,0.7161885499954224,-0.0878990888595581,0.027577653527259827,-0.07848839461803436,0.02041206881403923,-3.374483346939087,-2.440325516933283,-1.4304424075932538,1.0644971891247001
1687008095.624306,-0.24836178123950958,0.9635837078094482,0.09910909831523895,0.5338994860649109,0.03612619638442993,0.042294010519981384,0.6349165439605713,0.1416199952363968,-3.2732431888580322,-1.9504846257452804,-1.300095339359246,1.564937419791682
1687008095.731329,-0.40123993158340454,0.9149766564369202,0.042711444199085236,0.6206612586975098,0.07789748907089233,0.007611993700265884,1.7488672733306885,0.1258375495672226,-3.1539466381073,-1.6768456027393808,-1.1554500846860394,1.8450644742184485
1687008095.7360501,-0.5418895483016968,0.8387486338615417,-0.05344276502728462,0.633152425289154,-0.012348055839538574,0.08493680506944656,2.1707751750946045,-0.11589916795492172,-3.232912540435791,-1.4724912387560853,-0.9949809756284881,2.0731911465614807
1687008095.815346,-0.6670668721199036,0.7360485196113586,-0.11512686312198639,0.5843337774276733,-0.03856939077377319,0.02363508939743042,1.4262877702713013,-0.46726956963539124,-3.035848617553711,-1.399893222736162,-0.8272143214216019,2.1836485586380237
1687008095.8206902,-0.7732685208320618,0.6196389198303223,-0.13454893231391907,0.5838306546211243,-0.059885621070861816,0.038403213024139404,0.6404051780700684,-0.6627169847488403,-3.1006622314453125,-1.3985208349927987,-0.6682826157473795,2.2235218888812587
1687008095.907964,-0.8671976923942566,0.4856604039669037,-0.11000827699899673,0.5556438565254211,-0.10104751586914062,0.03739161789417267,-0.22317925095558167,-0.6551620960235596,-3.3553574085235596,-1.4446153873370682,-0.5071184791212249,2.1996599631062486
1687008095.925899,-0.9377754330635071,0.33865082263946533,-0.07676325738430023,0.4922800064086914,-0.16792032122612,0.08207321912050247,-0.09175093472003937,-0.561055064201355,-3.2869882583618164,-1.4891216695061713,-0.3454826077762648,2.1695767825128502
1687008095.993804,-0.9810975193977356,0.18694689869880676,-0.04998217895627022,0.3607821464538574,-0.3815881013870239,0.05205726996064186,0.18480974435806274,-0.5268407464027405,-2.976907253265381,-1.5198951647628993,-0.18805332818229142,2.1635127287498768
1687008095.997624,-0.9984557032585144,0.04754653573036194,-0.02872948907315731,0.39924317598342896,-0.3311617076396942,0.08497333526611328,0.3750555217266083,-0.45881763100624084,-2.6597115993499756,-1.5420303390311636,-0.04756446972944779,2.17083452163102
1687008096.053866,-0.997786283493042,-0.0656082034111023,-0.010870901867747307,0.1780993938446045,-0.79350745677948,0.10066878795623779,0.3412953019142151,-0.23952442407608032,-1.7674386501312256,-1.5599017381104427,0.0656553589156238,2.18859781687188
1687008096.146111,-0.991081714630127,-0.13325537741184235,0.0003742269182112068,0.21373796463012695,-0.6296535730361938,0.18057966232299805,0.3198557198047638,-0.13720326125621796,-0.9718093872070312,-1.5711739211941613,0.13365293396992126,2.2069607688205446
1687008096.152509,-0.9873208999633789,-0.15871679782867432,-0.0024690628051757812,0.10983389616012573,-0.47006741166114807,0.040402352809906006,-0.16454970836639404,0.14373813569545746,-0.19773441553115845,-1.5682955617652774,0.15939083718695138,2.203502719739612
1687008096.202667,-0.9870740175247192,-0.1599586009979248,-0.009900358505547047,0.007826089859008789,-0.2712090313434601,0.03535193204879761,0.38696640729904175,0.2885423004627228,0.1673886924982071,-1.5607666572790078,0.16064871990012589,2.208154102416234
1687008096.297741,-0.9897740483283997,-0.14121057093143463,-0.0201652180403471,0.011319637298583984,-0.11048318445682526,-0.04833155870437622,0.5201013088226318,0.2667113244533539,0.5146832466125488,-1.5504255876291169,0.14168413522671736,2.235187339650711
1687008096.303316,-0.9931458234786987,-0.11240532249212265,-0.03203679621219635,0.007367134094238281,-0.059607066214084625,-0.07974916696548462,0.187607541680336,0.23254549503326416,0.6461789608001709,-1.5385496092419895,0.11264338223880253,2.2542535074093224
1687008096.3597941,-0.9962146878242493,-0.07744000852108002,-0.039483822882175446,-0.04225248098373413,-0.06887656450271606,-0.043234165757894516,-0.05299887806177139,0.11136195063591003,0.7931971549987793,-1.5311832116110344,0.07751761765394281,2.256782099317159
1687008096.447784,-0.9984279870986938,-0.0342191681265831,-0.044388897716999054,0.039382755756378174,-0.009939827024936676,-0.03471272811293602,-0.08711849898099899,0.01975453458726406,0.8584768176078796,-1.526366796806503,0.03422584846359135,2.2576102721177165
1687008096.45465,-0.9989355206489563,0.009680917486548424,-0.045098528265953064,-0.0037651658058166504,-0.13399434089660645,0.014992833137512207,-0.4058389365673065,0.014507841318845749,1.0257153511047363,-1.5256803789334263,-0.00968106901517353,2.2452347818925507
1687008096.5036979,-0.9965982437133789,0.06818217784166336,-0.04629233479499817,0.05870163440704346,-0.007879503071308136,0.025998059660196304,-0.41853949427604675,-0.022690793499350548,1.1524831056594849,-1.5243793422423517,-0.06823511972412061,2.2306125770246097
1687008096.565824,-0.9924345016479492,0.11526805907487869,-0.042272377759218216,0.041277945041656494,-0.11963212490081787,0.01535576581954956,-0.6369946599006653,-0.03820330649614334,0.7977604866027832,-1.5282274329157763,-0.11552485492119838,2.2033800155565477
1687008096.657264,-0.9857204556465149,0.16459372639656067,-0.03554973751306534,0.04548925161361694,-0.15165436267852783,0.05769014731049538,-0.13696229457855225,-0.04945795610547066,1.104787826538086,-1.5347472240460367,-0.1653461106217133,2.182840063664933
1687008096.676147,-0.9742814302444458,0.22195841372013092,-0.038859084248542786,0.10680407285690308,-0.2674906849861145,0.09342443943023682,0.1040564551949501,0.1074879840016365,1.2657356262207031,-1.5309325918400007,-0.22382253058147053,2.185753205520561
1687008096.713503,-0.9549195766448975,0.2925534248352051,-0.050404876470565796,0.06948280334472656,-0.29819929599761963,0.05592847615480423,0.503905177116394,0.27823230624198914,1.832844614982605,-1.5180608499673867,-0.2968960171391875,2.2024167232438323
1687008096.804424,-0.9177790880203247,0.3895610272884369,-0.07696451991796494,0.16610074043273926,-0.14333003759384155,0.11546237021684647,0.08522896468639374,0.39036840200424194,2.193267345428467,-1.487132551707121,-0.4001549029341899,2.2395047450109393
1687008096.820719,-0.8724910020828247,0.48194873332977295,-0.08052811771631241,0.16747397184371948,-0.061874330043792725,0.0050885677337646484,-0.7511745691299438,0.3598927855491638,1.8063621520996094,-1.478760290593916,-0.5028774175027508,2.2151235199501684
1687008096.894956,-0.8272182941436768,0.5556759834289551,-0.08326909691095352,0.1477597951889038,-0.3383910059928894,0.09106624871492386,-0.029722051694989204,0.26518747210502625,1.7783102989196777,-1.4704726915447561,-0.5891758046592799,2.208346985452687
1687008096.910667,-0.7638631463050842,0.6361677050590515,-0.10864382237195969,0.29238200187683105,-0.23184043169021606,0.1336987167596817,0.6127948760986328,0.5693084597587585,2.248948574066162,-1.429514476655878,-0.6895210070569744,2.2387159805639616
1687008096.951453,-0.6780576109886169,0.7222652435302734,-0.1362748146057129,0.20114415884017944,-0.2588253617286682,0.06808322668075562,-0.07660534232854843,0.7730205059051514,2.7026021480560303,-1.372460343372571,-0.8070719960177033,2.279709749794908
1687008097.012644,-0.5671616196632385,0.8067394495010376,-0.1658276915550232,0.4444352984428406,-0.3951185345649719,-0.013951405882835388,-0.10693135112524033,0.6017897129058838,2.7001614570617676,-1.2863433528735817,-0.9386132812597571,2.3431893032753583
1687008097.106133,-0.43794867396354675,0.8863990306854248,-0.14999155700206757,0.34317636489868164,0.02572542428970337,0.0324682742357254,-0.35920819640159607,0.6476634740829468,3.131263256072998,-1.2408305774380448,-1.0895074617141742,2.3695338040416813
1687008097.12413,-0.3026193380355835,0.9411913752555847,-0.15026681125164032,0.5001901388168335,-0.06848037242889404,0.14503295719623566,-0.5441516041755676,0.3375518023967743,2.7718465328216553,-1.1099093754359262,-1.2261392694193354,2.477328099580826
1687008097.161732,-0.15682025253772736,0.9731231927871704,-0.16863709688186646,0.43970292806625366,-0.11181044578552246,0.010723784565925598,0.6298303604125977,1.1278696060180664,2.752772569656372,-0.7491057097910023,-1.3384254970915173,2.8095724603023466
1687008097.2508001,-0.007423884235322475,0.9799851179122925,-0.1989317238330841,0.14728589355945587,0.40369701385498047,0.0021848827600479126,0.9286514520645142,1.110831618309021,2.927375316619873,-0.03730144348840124,-1.3703865914554634,-2.7791129653208704
1687008097.2557201,0.12563401460647583,0.9668221473693848,-0.22242003679275513,0.5545569658279419,-0.1574808955192566,-0.09654971957206726,-0.37475958466529846,0.7876719236373901,2.2874386310577393,0.5141730191551115,-1.3124827248815922,-2.2830669709918836
1687008097.315933,0.264737993478775,0.9436173439025879,-0.19874557852745056,0.2392902374267578,0.006257355213165283,0.09741190075874329,-0.3357207477092743,1.3271762132644653,2.806968927383423,0.9268310265040953,-1.2333927294962093,-1.8928804579599898
1687008097.407312,0.3953262269496918,0.9033830761909485,-0.16618122160434723,0.25588828325271606,0.6545087099075317,-0.22812122106552124,0.051930464804172516,0.19082482159137726,2.750297784805298,1.1728583113621285,-1.1275940459651232,-1.6546233163455546
1687008097.4260159,0.49475595355033875,0.8553217053413391,-0.1537574976682663,0.28177905082702637,-0.17696166038513184,0.04969249665737152,-0.5444701910018921,0.991864800453186,1.7473419904708862,1.269484284705458,-1.0261714105802495,-1.6025295995396989
1687008097.5268068,0.5821037292480469,0.806434154510498,-0.10401538759469986,0.13086307048797607,0.46593523025512695,-0.0312080979347229,-0.07732325792312622,0.6419075727462769,2.074140787124634,1.3939737840111464,-0.9380967554831549,-1.4737513002047915
1687008097.545018,0.658663809299469,0.748344361782074,-0.0783766508102417,0.347622811794281,-0.0263594388961792,-0.03470630198717117,-0.7801580429077148,0.021325401961803436,2.0048084259033203,1.4523598201564787,-0.8455625018217755,-1.4435154113520334
1687008097.61068,0.732856035232544,0.6755107045173645,-0.08128619194030762,-0.042990922927856445,0.4898488521575928,-0.034482307732105255,1.7264995574951172,1.0311312675476074,1.6629855632781982,1.4603308542784357,-0.741657066976944,-1.4526916904609664
1687008097.614273,0.7847490906715393,0.6137611865997314,-0.08640575408935547,0.21822625398635864,0.056465864181518555,0.05915349721908569,-0.02352740429341793,0.3666920065879822,1.5503333806991577,1.4611318522435859,-0.6608158459273811,-1.5061996345079642
1687008097.703212,0.8293356895446777,0.5551203489303589,-0.06358736753463745,0.14716559648513794,0.09350019693374634,0.0483895018696785,0.24229788780212402,0.8516117930412292,1.3813480138778687,1.4942733919647946,-0.5885076179573506,-1.5076358718140541
1687008097.707769,0.869350016117096,0.4925570785999298,-0.040222059935331345,0.0985453724861145,0.1881679892539978,-0.0605471134185791,-0.24831818044185638,0.2533110976219177,1.501461386680603,1.5245624777922473,-0.5150255573273718,-1.498993035147674
1687008097.797905,0.9011998176574707,0.43294766545295715,-0.019874023273587227,-0.055130600929260254,0.48528048396110535,-0.04851597547531128,0.43034374713897705,0.6356090903282166,1.129595398902893,1.5487470518367272,-0.44776023438016743,-1.4928162997865868
1687008097.803185,0.918501079082489,0.39522480964660645,-0.012362905777990818,-0.02155911922454834,0.5239645838737488,-0.1073881983757019,0.8436254858970642,0.41571637988090515,0.49212655425071716,1.5573372682558841,-0.40631258745435506,-1.5366639142999086
1687008097.851625,0.923906683921814,0.38261541724205017,-0.0013351893285289407,0.005673885345458984,0.42422357201576233,-0.13602453470230103,0.4852934181690216,0.5200138092041016,-0.005245395936071873,1.569351171833944,-0.39262547611312726,-1.5695712008583684
1687008097.944202,0.9205825924873352,0.39047229290008545,0.007673770654946566,0.041941702365875244,0.21479812264442444,-0.10471975803375244,0.12207286804914474,0.21957562863826752,-0.29201456904411316,1.5791319101959091,-0.4011445419293858,-1.5884257568745928
1687008097.964277,0.9128906726837158,0.40786582231521606,0.01661093719303608,0.04037153720855713,0.10489049553871155,-0.11374855041503906,0.017782550305128098,0.10468792915344238,-0.4049467146396637,1.588990295707512,-0.42011540467689096,-1.586274815276221
1687008098.003732,0.9032537341117859,0.42874041199684143,0.017722539603710175,0.01120537519454956,-0.10301104187965393,-0.0756298303604126,-0.0070359790697693825,0.019494744017720222,-0.4796406626701355,1.5904145851874736,-0.44309806762333703,-1.5903876441641158
1687008098.09412,0.8948278427124023,0.4460338354110718,0.018347280099987984,0.02689439058303833,-0.16893425583839417,-0.04076254367828369,-0.10768721997737885,-0.09684625267982483,-0.24793127179145813,1.5912971521875865,-0.46232903747789295,-1.5843481451913517
1687008098.111089,0.8914794921875,0.45272964239120483,0.01731463521718979,-0.003250300884246826,-0.14015337824821472,0.021320460364222527,-0.31903761625289917,-0.08964678645133972,-0.11092334985733032,1.590216244003771,-0.4698243022509808,-1.5737849062664555
1687008098.152248,0.8890988826751709,0.4570215046405792,0.02518998272716999,0.029709041118621826,-0.11717775464057922,0.028291940689086914,-0.521695077419281,-0.08960617333650589,-0.05996430292725563,1.5991207888123629,-0.47464363123484066,-1.5477984799941262
1687008098.2428942,0.8900789618492126,0.4550231099128723,0.026702633127570152,-0.04701578617095947,-0.023977607488632202,-0.0054320115596055984,0.026463590562343597,-0.007163099013268948,0.1070593073964119,1.6007876281537867,-0.47239817429689523,-1.5348578533591581
1687008098.259529,0.8919721841812134,0.45115768909454346,0.02901923470199108,0.038661181926727295,-0.006257206201553345,-0.01685810275375843,-0.13229669630527496,-0.033567674458026886,0.08488396555185318,1.6033186430249824,-0.4680621421712165,-1.5315407895912152
1687008098.299186,0.8944048285484314,0.4465208947658539,0.025670126080513,-0.007915079593658447,0.04552927613258362,-0.024953126907348633,0.1265726089477539,-0.03915964812040329,0.10003868490457535,1.5994892408123154,-0.46287330594338133,-1.532593495707493
1687008098.396919,0.8956362009048462,0.44422656297683716,0.02232285775244236,-0.0009372234344482422,0.051348358392715454,-0.0018304605036973953,-0.018461737781763077,-0.04314679652452469,0.0074648065492510796,1.5957151907131455,-0.4603107930678195,-1.5357130388700426
1687008098.414067,0.8951167464256287,0.44548672437667847,0.01753377355635166,-0.011983931064605713,0.04386264085769653,0.00894010066986084,-0.025530699640512466,-0.08930976688861847,-0.006653408985584974,1.5903820746896205,-0.4617178433234031,-1.5364680143833147
1687008098.451292,0.8929697871208191,0.44984474778175354,0.015627598389983177,-0.0025281310081481934,0.0344843864440918,0.009183045476675034,-0.03194292634725571,-0.01619747281074524,-0.11386348307132721,1.5882952434673479,-0.4665914943556828,-1.535580445138251
1687008098.54614,0.8891012668609619,0.45743507146835327,0.01587490178644657,0.01795738935470581,-0.015052258968353271,0.012369036674499512,-0.0910126343369484,-0.02698194421827793,-0.09739742428064346,1.5886494297177378,-0.47510866370729543,-1.5329956136065785
1687008098.562796,0.88648921251297,0.4623628258705139,0.018897442147135735,0.0005497336387634277,-0.01567709445953369,0.008598802611231804,-0.16497156023979187,-0.03598529472947121,-0.060764048248529434,1.5921102694473104,-0.4806581123994789,-1.5211559076278145
1687008098.6012878,0.8859069347381592,0.46343994140625,0.01980043761432171,-0.002789437770843506,-0.018219023942947388,0.010411856696009636,0.06481657177209854,-0.0007113250903785229,-0.08085253834724426,1.5931430769532262,-0.4818732571229083,-1.5210710350250831
1687008098.6962528,0.8845515251159668,0.46595528721809387,0.02131241001188755,-0.00035059452056884766,-0.00034862756729125977,0.019474267959594727,0.12300557643175125,0.05538550019264221,-0.08961060643196106,1.5948856958108133,-0.4847139656204638,-1.5204972772169767
1687008098.7128801,0.8833604454994202,0.4683276414871216,0.018536554649472237,0.008805632591247559,-0.05432617664337158,0.007891535758972168,0.35616153478622437,0.07201014459133148,-0.024669427424669266,1.5917773828018464,-0.4873970658520859,-1.5381803300093677
1687008098.7565331,0.8842868208885193,0.46660715341567993,0.017727429047226906,-0.003915905952453613,-0.06029614806175232,0.011905072256922722,-0.1174943745136261,0.01769457943737507,0.022741496562957764,1.5908407905769677,-0.4854508220630741,-1.5455610923169485
1687008098.8460379,0.8852567672729492,0.4645424485206604,0.022815391421318054,-0.0018798112869262695,0.0339469313621521,-0.026340246200561523,-0.044064901769161224,0.027106190100312233,0.03594917804002762,1.5965632472321176,-0.4831178419174814,-1.5352920157450236
1687008098.861915,0.8861408829689026,0.4627877473831177,0.02411472797393799,-0.003694772720336914,-0.008640438318252563,-0.0024931449443101883,-0.07703111320734024,0.01812281645834446,-0.01868131011724472,1.5980028113964309,-0.4811374015529891,-1.5353547105654342
1687008098.8999228,0.8846431374549866,0.4655737578868866,0.025444505736231804,0.001388847827911377,0.0320458710193634,-0.029991745948791504,0.09572368860244751,0.04386719688773155,-0.04556432366371155,1.5995508494053248,-0.484282807228307,-1.5343538537535817
1687008099.029067,0.8840099573135376,0.4667060971260071,0.026671787723898888,0.0106126070022583,-0.012757211923599243,-0.007293228060007095,-0.14540323615074158,-0.012916592881083488,-0.003357747569680214,1.6009585416959469,-0.48556271941206053,-1.533231730480591
1687008099.0481029,0.8834854960441589,0.4677489399909973,0.025768771767616272,-0.009523212909698486,0.0333496630191803,-0.013729691505432129,0.024826545268297195,-0.02279771864414215,0.001872967928647995,1.5999552287973748,-0.4867422254392511,-1.528790303233085
1687008099.1117,0.8832874298095703,0.4681774079799652,0.02476305328309536,0.0012186765670776367,-0.004996836185455322,0.008119583129882812,-0.0711873397231102,-0.006029923912137747,-0.04577125236392021,1.5988240863260421,-0.48722702367985354,-1.5299712036709425
1687008099.1279821,0.8818393349647522,0.47096696496009827,0.02343330904841423,-0.005084812641143799,-0.000996321439743042,0.007419822737574577,0.03868277370929718,-0.005002609919756651,-0.0010160300880670547,1.5973632924378363,-0.4903865985986001,-1.530182051407669
1687008099.205848,0.8810327053070068,0.47231581807136536,0.026437630876898766,0.006128430366516113,-0.013255119323730469,0.020696640014648438,-0.20515099167823792,0.011816716752946377,-0.06984569132328033,1.600794871681381,-0.4919162638773349,-1.5241817827540223
1687008099.221946,0.8800923228263855,0.4739152193069458,0.029006343334913254,-0.0007743239402770996,0.005378544330596924,0.007935043424367905,0.1459457129240036,0.038893744349479675,-0.002388888970017433,1.6037426973897009,-0.49373170970687685,-1.5216609859251058
1687008099.292766,0.8798958659172058,0.4742280840873718,0.029848936945199966,0.01945704221725464,-0.023040950298309326,0.0014772415161132812,0.09225405752658844,0.06730794161558151,-0.04802748188376427,1.6047065835518954,-0.49408704102060164,-1.5293311106073493
1687008099.308264,0.8797919154167175,0.4744822680950165,0.028860311955213547,0.005843460559844971,-0.046396881341934204,-0.014929171651601791,0.04899493232369423,-0.028581704944372177,0.06318692862987518,1.6035881339734912,-0.4943757978784277,-1.5343756628892438
1687008099.355373,0.8820494413375854,0.4701929986476898,0.0301174558699131,-0.010070860385894775,0.005896419286727905,-0.0024076737463474274,-0.17064408957958221,0.003807127010077238,0.025033947080373764,1.6049279291832514,-0.4895094398078346,-1.529079002650589
1687008099.443575,0.8832577466964722,0.4679068326950073,0.030312860384583473,-0.010104119777679443,0.029407650232315063,-0.0023131370544433594,0.10277700424194336,0.009773539379239082,0.03969597816467285,1.6051022458756126,-0.486920845770709,-1.527996617837247
1687008099.459888,0.8836836814880371,0.4671083092689514,0.03021041303873062,0.0060561299324035645,0.0023435354232788086,-0.0019969958811998367,-0.08126907050609589,0.007190406788140535,0.008686930872499943,1.6049699241974698,-0.4860175415849833,-1.5280884865083966
1687008099.502826,0.8838483095169067,0.4667336642742157,0.03117229975759983,-0.0025922656059265137,0.019457131624221802,-0.005003571510314941,-0.013970516622066498,-0.016870588064193726,0.05248953774571419,1.6060505488389374,-0.485593859237199,-1.5259522922871491
1687008099.592948,0.8839149475097656,0.4664962589740753,0.032795608043670654,-0.0030099153518676758,0.020396441221237183,-0.0027970075607299805,-0.033987902104854584,-0.003722028573974967,-0.01747649535536766,1.6078819875442087,-0.4853254625552922,-1.5229107150995957
1687008099.609118,0.8831031322479248,0.46802476048469543,0.03288501501083374,-0.00785917043685913,-0.005820810794830322,0.008008357137441635,-0.0005664951168000698,0.05021696910262108,-0.044818371534347534,1.6080171492468889,-0.4870542911500688,-1.5243230514876391
1687008099.653183,0.8814818263053894,0.47081854939460754,0.03632660210132599,0.01597905158996582,-0.012734442949295044,-0.013621687889099121,-0.2148130089044571,-0.0021381136029958725,-0.03253587335348129,1.6119838562060977,-0.4902183619636208,-1.5177971201758365
1687008099.711482,0.8809433579444885,0.47146087884902954,0.04078351706266403,0.08306103944778442,0.17773953080177307,-0.15314936637878418,-0.5529245138168335,-0.2011052817106247,-0.056080348789691925,1.6170585704033495,-0.4909465986945604,-1.5011096304504727
1687008099.810512,0.8775303959846497,0.4779070317745209,0.039309125393629074,-0.05138915777206421,0.6810590028762817,-0.24458575248718262,-1.4469633102416992,-0.8783865571022034,-0.5180349349975586,1.6155615720809706,-0.4982704813922868,-1.440654397435749
1687008099.828524,0.8512023687362671,0.5226365327835083,0.04801522567868233,-0.032263219356536865,0.7182692289352417,-0.21445822715759277,-0.726520836353302,-0.16764838993549347,-1.5944225788116455,1.6271453196312684,-0.5499405375786314,-1.367362711978623
1687008099.891633,0.8024227619171143,0.5952841639518738,0.04188358783721924,0.3160615563392639,0.6428139209747314,-0.04839921370148659,-1.0918772220611572,-1.0963088274002075,-2.074796438217163,1.6229454111631785,-0.6376192216223456,-1.3211960356778685
1687008099.9083052,0.7247740626335144,0.6860538125038147,0.06350235641002655,0.19520872831344604,0.6680874228477478,0.06667017936706543,-1.9427061080932617,-0.39620739221572876,-2.9220805168151855,1.6581899125877881,-0.7560511316942159,-1.2033120731489009
1687008099.9561691,0.6069743037223816,0.7856707572937012,0.11959605664014816,0.5057421922683716,0.5346110463142395,0.05638335645198822,-1.4541841745376587,0.02808929793536663,-3.4992151260375977,1.7653406954352875,-0.903779644480854,-1.0449115869571801
1687008100.047586,0.4570412039756775,0.8724493980407715,0.1730455905199051,0.7111257314682007,0.20173859596252441,0.02359423041343689,-1.0866304636001587,0.1504088193178177,-3.6254160404205322,1.9327381614017354,-1.0601921709081812,-0.8517251074279779
1687008100.0635371,0.29635533690452576,0.9322685599327087,0.20748171210289001,0.6416481137275696,0.06832647323608398,-0.03694963455200195,-0.3699800372123718,0.10066190361976624,-3.491281509399414,2.1815969672649422,-1.2006337996822956,-0.5818485053591802
1687008100.103214,0.12733472883701324,0.9636792540550232,0.23475100100040436,0.7039945721626282,-0.20157909393310547,-0.011057257652282715,-0.6161268353462219,0.1981332004070282,-3.3903422355651855,2.6445840664952227,-1.300452941770468,-0.10839438072272774
1687008100.288734,-0.027781596407294273,0.9706017971038818,0.23908202350139618,0.5059462189674377,-0.11641484498977661,0.0393906831741333,0.660788357257843,0.3141299784183502,-3.0613975524902344,-3.025910349594077,-1.3277185825811133,0.5178515884615232
1687008100.2947989,-0.1770041286945343,0.967012345790863,0.18318487703800201,0.5482656955718994,-0.09810060262680054,0.12276901304721832,1.4757438898086548,0.25918444991111755,-2.8201396465301514,-2.373352564400573,-1.313228465276132,1.172950804919829
1687008100.346777,-0.3148327171802521,0.9450458884239197,0.08813828229904175,0.4843273460865021,-0.032600998878479004,0.08454536646604538,2.3247718811035156,0.26046568155288696,-2.891326904296875,-1.8437612105254404,-1.2377348524569949,1.7097811323838388
1687008100.350634,-0.44104087352752686,0.8970816731452942,-0.026968592777848244,0.43156516551971436,-0.044374823570251465,0.10413217544555664,2.494119882583618,0.041146911680698395,-2.6692347526550293,-1.5097247637986342,-1.113119969890648,2.065118266524429
1687008100.354214,-0.5593680143356323,0.8223142623901367,-0.1044340506196022,0.4932212233543396,-0.09366142749786377,0.10245031863451004,0.8812199831008911,-0.3249281644821167,-2.7393364906311035,-1.3862212495958406,-0.9654661046289149,2.2131946143044003
1687008100.436428,-0.669946551322937,0.7363391518592834,-0.09474271535873413,0.3528231382369995,0.048725426197052,0.011063456535339355,-0.4312693476676941,-0.1799095720052719,-2.955958843231201,-1.4303095993942636,-0.8276437836598147,2.176143654222631
1687008100.4404778,-0.7715466022491455,0.6314931511878967,-0.07702185213565826,0.44551199674606323,0.017417311668395996,0.0638992115855217,-0.11577197909355164,-0.31625089049339294,-2.9028351306915283,-1.4712981010074535,-0.6834774350292072,2.1355899942663923
1687008100.493373,-0.8577242493629456,0.5100558400154114,-0.06443718820810318,0.4294404983520508,-0.04246556758880615,0.030898265540599823,-0.06347562372684479,-0.21274688839912415,-3.1028833389282227,-1.4958114159390443,-0.535249733286181,2.1131807258994746
1687008100.55649,-0.9295635223388672,0.3647690415382385,-0.05343054234981537,0.4712507128715515,-0.10364550352096558,0.00235927477478981,0.05974624678492546,-0.29699239134788513,-3.3611814975738525,-1.513380331794485,-0.37338473420230217,2.0984872852421788
1687008100.652386,-0.977731466293335,0.2066517174243927,-0.036552511155605316,0.336999773979187,-0.2778187692165375,0.01255035400390625,0.4429435729980469,-0.534491240978241,-3.0688798427581787,-1.5334287080365667,-0.20815156361706771,2.106609292250894
1687008100.657181,-0.9972221851348877,0.0722404196858406,-0.018142452463507652,0.22499018907546997,-0.3526359796524048,0.018783211708068848,0.22899939119815826,-0.2851305305957794,-2.3565330505371094,-1.5526053438723546,-0.07230339842476705,2.1174490268299793
1687008100.700846,-0.999649167060852,-0.025380821898579597,-0.007571313064545393,0.10777300596237183,-0.5987494587898254,0.10080242156982422,0.06988789886236191,-0.05554155260324478,-1.508682131767273,-1.5632225011118543,0.02538354695929681,2.128831762416415
1687008100.79825,-0.9965627789497375,-0.08255858719348907,-0.006824973970651627,0.1625785231590271,-0.5127478837966919,0.05254024267196655,-0.2892697751522064,-0.02118504047393799,-0.8358622193336487,-1.5639479199799629,0.08265266384979952,2.1212933689790736
1687008100.815202,-0.9937151670455933,-0.11117681860923767,-0.01302125584334135,0.1349506974220276,-0.4194476008415222,0.05069512128829956,-0.39196255803108215,0.09324473142623901,-0.37328627705574036,-1.5576934660517059,0.11140713179783679,2.101861673283334
1687008100.85147,-0.9926756024360657,-0.11896669864654541,-0.02101927064359188,0.041168212890625,-0.2992614805698395,0.047432124614715576,0.17383946478366852,0.24143819510936737,0.027881931513547897,-1.5496251296073764,0.11924912495249393,2.0940616829450516
1687008100.942336,-0.993274450302124,-0.11058054864406586,-0.034320127218961716,0.04889267683029175,-0.22178645431995392,-0.020932022482156754,0.4473592936992645,0.3071144223213196,0.3230869472026825,-1.5362575541881902,0.1108071600016102,2.113146253432719
1687008100.959234,-0.9950932860374451,-0.08720490336418152,-0.046736206859350204,0.01177138090133667,-0.26719576120376587,-0.02365266904234886,0.30397796630859375,0.2975980043411255,0.723346471786499,-1.523864156650056,0.08731581385623234,2.1329015109635017
1687008101.003315,-0.9974565505981445,-0.039970215409994125,-0.059014130383729935,0.03874689340591431,-0.26470208168029785,-0.01145106554031372,-0.001851869747042656,0.23514607548713684,1.1843920946121216,-1.5117006051919133,0.039980866977372236,2.1451266703617873
1687008101.09486,-0.9969539642333984,0.027176836505532265,-0.07310283184051514,0.138189435005188,-0.1725626438856125,0.022443599998950958,-0.10435766726732254,0.2662806808948517,1.3844211101531982,-1.497601135360315,-0.027180183432121387,2.141379530006431
1687008101.1000872,-0.9913364052772522,0.09953262656927109,-0.08570554107427597,0.08931314945220947,-0.21490439772605896,0.0726744532585144,0.11355800926685333,0.3325667679309845,1.6137831211090088,-1.4845562133986798,-0.09969770734171639,2.1473229576760473
1687008101.151184,-0.9772689342498779,0.18412314355373383,-0.10509117692708969,0.09817951917648315,-0.1831313967704773,0.05665968358516693,0.3176102042198181,0.40586069226264954,1.8223150968551636,-1.463672409727727,-0.18517968400195867,2.169496840532563
1687008101.249043,-0.9533242583274841,0.27219483256340027,-0.13070130348205566,0.1831369400024414,-0.16756537556648254,0.07657831907272339,0.12756304442882538,0.4996234178543091,1.9457330703735352,-1.4345451925512855,-0.2756732432687168,2.193618444466647
1687008101.254408,-0.9168196320533752,0.367840051651001,-0.15535588562488556,0.12958824634552002,-0.12815508246421814,0.05713498592376709,0.09704907983541489,0.5369630455970764,2.1409976482391357,-1.4029399203668491,-0.3766851459120038,2.213429782406738
1687008101.3058782,-0.8663425445556641,0.46663570404052734,-0.17804934084415436,0.21871381998062134,-0.1441260278224945,0.08257502317428589,-0.3388693630695343,0.5686131119728088,2.2643697261810303,-1.368100281012619,-0.4854831300367726,2.2315952032410618
1687008101.427783,-0.8038169145584106,0.5635302662849426,-0.1905561238527298,0.2039177417755127,-0.03182268142700195,0.03339053690433502,-0.417267382144928,0.47965583205223083,2.1906826496124268,-1.3380292112267835,-0.5986530386737581,2.2367777619918923
1687008101.4470282,-0.7343683838844299,0.6499529480934143,-0.19561217725276947,0.2409144639968872,-0.07069885730743408,0.021661877632141113,-0.520385205745697,0.521411120891571,2.006955146789551,-1.3104728792396523,-0.7075224956547196,2.238441290669863
1687008101.486237,-0.6593156456947327,0.7255115509033203,-0.1973210871219635,0.16862356662750244,-0.08275043964385986,0.024133741855621338,-0.25944292545318604,0.4873732626438141,2.198127269744873,-1.2799986803570813,-0.8117774356929741,2.250084307553921
1687008101.489583,-0.5675339102745056,0.7991769313812256,-0.19804388284683228,0.2933334708213806,-0.26057231426239014,-0.04168701171875,-0.8107635378837585,0.37539491057395935,2.303152561187744,-1.2350526166581437,-0.9259246627168323,2.2766345634243152
1687008101.541954,-0.45607849955558777,0.8733375668525696,-0.17109499871730804,0.25644782185554504,-0.03546243906021118,0.05456353724002838,-0.7855428457260132,0.5115388035774231,2.6636815071105957,-1.2118996209024926,-1.0620125491211272,2.2809930756988575
1687008101.637342,-0.3417515456676483,0.9299523830413818,-0.13562636077404022,0.3183903098106384,0.004739940166473389,-0.033898890018463135,-0.9549288153648376,-0.0597275048494339,2.5774447917938232,-1.1930026830447151,-1.1942832482552779,2.286016137815368
1687008101.728694,-0.22513870894908905,0.9679325222969055,-0.11144127696752548,0.37758922576904297,-0.23892873525619507,-0.09942001104354858,-0.5680407285690308,0.4842953085899353,2.1468963623046875,-1.1111652139787513,-1.316865919993097,2.351489563751888
1687008101.748045,-0.09819787740707397,0.9916847348213196,-0.0831780806183815,0.0701826810836792,0.17274397611618042,0.13659900426864624,-0.20070411264896393,0.6082946062088013,2.598982810974121,-0.8680199618827946,-1.4417474953995635,2.5985216259693273
1687008101.8134599,0.016982531175017357,0.9969761967658997,-0.07582763582468033,0.5102696418762207,0.09576660394668579,0.04041188955307007,-0.2029416412115097,-0.26262548565864563,2.5509605407714844,0.2203265110206556,-1.493010522831274,-2.623081486315441
1687008101.82991,0.14744336903095245,0.9835667014122009,-0.10419613867998123,0.14756996929645538,-0.011841356754302979,0.12290329486131668,0.611991822719574,1.0742580890655518,2.1242125034332275,0.9555972856766897,-1.3892555578053072,-1.9034167831890918
1687008101.938055,0.25507020950317383,0.9635521769523621,-0.08066132664680481,0.357173353433609,0.022836923599243164,0.008609235286712646,-0.5960229635238647,0.3626731336116791,2.520326614379883,1.2645152409606675,-1.2999774491437455,-1.618252382167214
1687008101.94313,0.372571736574173,0.9258794784545898,-0.06274767965078354,0.37841999530792236,-0.0741339921951294,-0.048733167350292206,-0.06167631596326828,0.4609072804450989,2.4113879203796387,1.4039444069182427,-1.183356811900265,-1.5087415654182177
1687008102.025947,0.4918980896472931,0.8682122230529785,-0.06514471024274826,0.1629023253917694,0.29060131311416626,0.03665643185377121,0.6930602192878723,0.7288402318954468,2.4437355995178223,1.4391271565239416,-1.051587935553349,-1.4900226909504122
1687008102.043871,0.5868827104568481,0.8067623972892761,-0.06857942044734955,0.3781135082244873,0.10206633806228638,-0.03727090358734131,0.3364713191986084,0.48324108123779297,2.2541141510009766,1.4544701802297701,-0.9386520774503438,-1.5195782519645795
1687008102.11415,0.6809573769569397,0.7288091778755188,-0.07165329903364182,0.21424520015716553,0.0736810564994812,-0.04422205686569214,0.45897194743156433,0.755199134349823,2.2470052242279053,1.4659577662758634,-0.8165811562849785,-1.5437758166900937
1687008102.130989,0.759145200252533,0.6474332809448242,-0.0672951489686966,0.10874408483505249,0.5059938430786133,-0.010326385498046875,0.711901068687439,0.6086609363555908,2.091637134552002,1.4823814801035848,-0.7042117023661907,-1.5476751994622262
1687008102.201299,0.8123184442520142,0.5805522203445435,-0.0556548647582531,0.25703251361846924,0.08520394563674927,-0.06366895884275436,0.30543655157089233,0.5936983823776245,1.3793282508850098,1.5023896250587798,-0.6194067188769403,-1.5890524310936438
1687008102.2048678,0.8555012345314026,0.5156804919242859,-0.046809714287519455,-0.03206080198287964,0.5031030774116516,-0.0680738091468811,1.041520595550537,0.8149991035461426,1.5245096683502197,1.5161347078650784,-0.5418016791459299,-1.6045681721090772
1687008102.296836,0.8849916458129883,0.46468573808670044,-0.029277827590703964,0.1122313141822815,0.11101317405700684,-0.0170326866209507,-0.027130793780088425,0.5550584197044373,0.8357068300247192,1.5377257837259015,-0.4832796666961045,-1.6434751404875385
1687008102.313826,0.904080867767334,0.4273555874824524,-0.002202082658186555,0.033159613609313965,0.3868533968925476,-0.12131792306900024,0.2267623245716095,0.5455307364463806,0.8787213563919067,1.5683606174597944,-0.4415657982310643,-1.633556390471919
1687008102.348428,0.9201698303222656,0.39128103852272034,0.013651754707098007,0.02929288148880005,0.2783051133155823,-0.10201549530029297,-0.36187243461608887,0.25865820050239563,0.5489336252212524,1.5856313635259385,-0.40202321143084135,-1.640546327117125
1687008102.478341,0.9264645576477051,0.3752194046974182,0.029555760324001312,-0.033032119274139404,0.4679660201072693,-0.15064966678619385,0.14059734344482422,0.21195140480995178,0.14247243106365204,1.6026871740586122,-0.3846334544491551,-1.6256062989318367
1687008102.497819,0.9249662756919861,0.3787793517112732,0.03104306198656559,-0.013925015926361084,0.2737323045730591,-0.1180640459060669,0.3556974232196808,0.15967808663845062,-0.2450055181980133,1.6043450251993423,-0.3884770297292813,-1.6472718056106175
1687008102.563451,0.9184561371803284,0.39418843388557434,0.03246428817510605,0.05282682180404663,0.07654529809951782,-0.09145486354827881,-0.3609704077243805,-0.10877681523561478,-0.37155681848526,1.6061282034722715,-0.4051846019909803,-1.647077248117847
1687008102.579124,0.9106917381286621,0.41172143816947937,0.03355458751320839,-0.022416651248931885,0.03685644268989563,-0.046738266944885254,-0.4202684164047241,-0.13423675298690796,-0.44882896542549133,1.6076248318859778,-0.424342218409058,-1.6241848726856358
1687008102.6535048,0.9013522267341614,0.4314804971218109,0.03726431354880333,0.04792749881744385,-0.10717016458511353,-0.038393616676330566,-0.4657606780529022,-0.24411451816558838,-0.3856995105743408,1.6121154727340639,-0.44613325091862394,-1.5962444574888304
1687008102.657103,0.8957388401031494,0.44341975450515747,0.032103367149829865,0.0019355416297912598,-0.12730345129966736,0.0008250437676906586,-0.0435732863843441,-0.18037348985671997,-0.1921771913766861,1.6066210873082754,-0.4594104465837794,-1.582522170304749
1687008102.716918,0.8917309641838074,0.4516720175743103,0.028424665331840515,0.0168076753616333,-0.1511349380016327,0.019991395995020866,-0.24341416358947754,-0.18040718138217926,-0.14916448295116425,1.6026613681840602,-0.4686385220062181,-1.5709694644892491
1687008102.864528,0.8906700015068054,0.454071581363678,0.022936375811696053,0.01728898286819458,-0.1088719367980957,0.045453429222106934,0.05994512140750885,-0.13951608538627625,0.022647220641374588,1.5965424593204254,-0.47132991457293755,-1.5689731729619767
1687008102.883708,0.8913998007774353,0.4527173340320587,0.021289164200425148,-0.0031247735023498535,-0.06534245610237122,0.03641939163208008,-0.32675960659980774,-0.10946816951036453,0.023597169667482376,1.5946746325487737,-0.46981050591003,-1.5589783163934103
1687008102.926042,0.8934959173202515,0.4484682083129883,0.023263590410351753,-0.03792041540145874,0.02875038981437683,0.01944565773010254,-0.059910647571086884,-0.03860877454280853,0.0907655581831932,1.5968270397434874,-0.46505081642972473,-1.5466122165350364
1687008102.939457,0.8952001333236694,0.44503843784332275,0.02360805869102478,0.0017418861389160156,0.029433608055114746,0.02416706085205078,-0.013682829216122627,-0.04038457199931145,0.04984022676944733,1.5971620384346275,-0.4612171742761716,-1.544675080298429
1687008102.9420671,0.8952615261077881,0.4448644518852234,0.024540163576602936,-0.009763598442077637,0.03613835573196411,0.023631691932678223,0.10164149850606918,0.06540284305810928,0.0194101482629776,1.5982006322264395,-0.4610229171049537,-1.5465502539672342
1687008102.980577,0.8938758969306946,0.44746091961860657,0.027647653594613075,0.00828462839126587,-0.010494977235794067,0.005189180374145508,-0.05979013442993164,0.01960286684334278,0.003726528026163578,1.6017165487984257,-0.46392414407211213,-1.5493525672235735
1687008103.04389,0.8922813534736633,0.4501914978027344,0.03407676890492439,-0.008019447326660156,0.04042431712150574,-0.005069974809885025,-0.07242870330810547,0.06555598229169846,-0.01622054912149906,1.6089683831473511,-0.4669797931701342,-1.5405786147713194
1687008103.1051369,0.8918117880821228,0.450980544090271,0.035890430212020874,0.0068697333335876465,-0.007117629051208496,-0.017671585083007812,0.061851341277360916,0.03983383625745773,-0.024238795042037964,1.6110190208629098,-0.4678636433422599,-1.5434175293851917
1687008103.20405,0.8901286721229553,0.45427536964416504,0.036121916025877,0.016228020191192627,-0.01668378710746765,-0.01988673210144043,0.020277269184589386,0.06365395337343216,-0.03442485257983208,1.6113546274510056,-0.47155863304422935,-1.5465606248072399
1687008103.208544,0.889340877532959,0.45578286051750183,0.036529671400785446,0.0022147297859191895,-0.018313437700271606,-0.0221560038626194,-0.10487738251686096,0.0048184627667069435,-0.04309157654643059,1.6118482450512623,-0.4732515556217052,-1.5442204698329864
1687008103.2524529,0.8896459937095642,0.45525118708610535,0.03572258725762367,-0.00391918420791626,-0.0037588775157928467,-0.030656814575195312,0.03895674645900726,0.017177395522594452,-0.023625999689102173,1.6109284778027606,-0.47265430852117635,-1.5432864381956863
1687008103.3785481,0.8900232911109924,0.45472702383995056,0.032886162400245667,-0.009835481643676758,-0.023239046335220337,-0.016101602464914322,-0.0003423900343477726,-0.03333065286278725,0.0002196766436100006,1.6077293022678496,-0.4720657020780381,-1.5450135400698373
1687008103.3849149,0.890495777130127,0.45403948426246643,0.029417579993605614,0.019980907440185547,-0.010893672704696655,-0.004225488752126694,0.044048041105270386,-0.05076037719845772,0.023991316556930542,1.6038193746678084,-0.471293882925832,-1.5476304132504999
1687008103.498845,0.8916289806365967,0.45199325680732727,0.026449237018823624,-0.014645516872406006,0.0058314502239227295,0.0064028482884168625,0.004392510745674372,0.007482688408344984,0.0312042236328125,1.6004515786505737,-0.468998603948888,-1.5483470791547336
1687008103.516852,0.892677903175354,0.45000290870666504,0.02497001364827156,-0.0009085536003112793,-0.0023557841777801514,0.0024803876876831055,0.061014313250780106,-0.0008701825863681734,0.03150063380599022,1.5987610659157714,-0.46676858166552543,-1.5517358214221946
