Timestamp,gravityX,gravityY,gravityZ,accelerationX,accelerationY,accelerationZ,rotationRateX,rotationRateY,rotationRateZ,attitudeRoll,attitudePitch,attitudeYaw
1687017323.15623,0.89044588804245,0.4469890594482422,-0.08547895401716232,0.008525550365447998,-0.008787274360656738,-0.013443700969219208,-0.09199709445238113,-0.030761102214455605,-0.031281791627407074,1.47509390389582,-0.46339659921898824,-1.813792843113735
1687017323.161993,0.8895048499107361,0.44877713918685913,-0.08590734004974365,0.01323556900024414,0.021254509687423706,0.0029148533940315247,-0.03622071444988251,-0.036278508603572845,-0.032724156975746155,1.4745161105592084,-0.4653964595665487,-1.8104751022289893
1687017323.215423,0.8884339332580566,0.4506983160972595,-0.08692484349012375,-0.007559418678283691,-0.005294352769851685,-0.003681771457195282,-0.09949202835559845,-0.039976704865694046,-0.05810115486383438,1.4732662213811822,-0.4675474434670843,-1.8068481348655356
1687017323.2270641,0.8868550062179565,0.4539831578731537,-0.08595027774572372,-0.0028828978538513184,-0.005466371774673462,-0.002459101378917694,-0.07739204913377762,-0.024372447282075882,-0.056863050907850266,1.4741822422802546,-0.4712306492351219,-1.8015239982125855
1687017323.230122,0.8860471844673157,0.4554194509983063,-0.08668103814125061,0.0012819170951843262,-0.03153032064437866,0.007075965404510498,-0.060644298791885376,-0.026926549151539803,-0.03083544597029686,1.473277720142962,-0.4728432966944266,-1.8001843327237852
1687017323.270544,0.8859957456588745,0.45559802651405334,-0.08626723289489746,-0.0026186704635620117,-0.0031749606132507324,-9.745359420776367e-05,-0.044601812958717346,-0.024591490626335144,0.017705459147691727,1.4737347381199704,-0.4730438905075094,-1.7955562905164555
1687017323.331359,0.8872512578964233,0.45334672927856445,-0.0852164477109909,-0.0014632940292358398,-0.011986315250396729,-0.003940582275390625,-0.12252257019281387,-0.011321492493152618,-0.006984706036746502,1.4750445814192659,-0.47051652266101845,-1.7914968440712673
1687017323.3950748,0.8876186013221741,0.45279964804649353,-0.0842941403388977,-0.001723945140838623,0.014256536960601807,-0.009394757449626923,-0.023652857169508934,-0.021593304350972176,0.00704828929156065,1.4761136640012587,-0.4699028249424734,-1.7880220151333952
1687017323.4850578,0.8877017498016357,0.45253482460975647,-0.08483888953924179,0.0034877657890319824,0.008249998092651367,-0.021804682910442352,-0.12887375056743622,-0.07427156716585159,0.0253753624856472,1.4755143344721766,-0.469605841126724,-1.782681821401618
1687017323.4912891,0.8872901797294617,0.4528893828392029,-0.0872214287519455,-6.67572021484375e-06,0.024069875478744507,-0.007886596024036407,-0.039833489805459976,-0.060908883810043335,0.005859454162418842,1.472810223407732,-0.4700034737361508,-1.7787886923932028
1687017323.5424151,0.8865843415260315,0.45369264483451843,-0.09017255902290344,0.0006836652755737305,0.0001799464225769043,0.006798572838306427,-0.08764801919460297,-0.07274690270423889,-0.005562311969697475,1.46943705028744,-0.4709046472197078,-1.7761350225870607
1687017323.6343288,0.8854147791862488,0.4557153284549713,-0.09145457297563553,0.0002967715263366699,0.0023381710052490234,0.009301312267780304,-0.08218415081501007,-0.06385700404644012,-0.0008224174380302429,1.4678712303620813,-0.4731756655860712,-1.7704441118168657
1687017323.651671,0.8854548335075378,0.4554973244667053,-0.092152900993824,0.004590451717376709,0.012367665767669678,0.017491690814495087,0.025548378005623817,-0.02317309007048607,0.0024503404274582863,1.4670955712638305,-0.4729307800051283,-1.7697065376150833
1687017323.693429,0.8850468993186951,0.4564800262451172,-0.09120292961597443,0.005776464939117432,-0.0017376542091369629,0.010880708694458008,-0.06797285377979279,-0.02398921735584736,-0.011842312291264534,1.4681100840438452,-0.47403496523826566,-1.7668405748447304
1687017323.752929,0.8848423957824707,0.4571073651313782,-0.0900384709239006,4.5299530029296875e-05,0.0024873018264770508,-0.0029027462005615234,-0.01886269636452198,-0.021514074876904488,-0.008362892083823681,1.4693888618707496,-0.4747401801467548,-1.7650140800400091
1687017323.84552,0.884775698184967,0.4572288990020752,-0.09007736295461655,0.00707012414932251,0.006104260683059692,0.014149658381938934,0.016346557065844536,-0.011895003728568554,0.0059492019936442375,1.4693377669957615,-0.4748768148855889,-1.7635163558488929
1687017323.856738,0.8843666911125183,0.4580683410167694,-0.08982795476913452,0.0011008381843566895,-0.018386393785476685,0.014525890350341797,-0.08533792197704315,-0.006864957977086306,-0.027026057243347168,1.4695702950456697,-0.4758209321333093,-1.7631360988316902
1687017323.8985229,0.8839301466941833,0.4592442810535431,-0.08810263127088547,-0.014087677001953125,-0.0009161233901977539,0.007826156914234161,0.03516118973493576,-0.0008680520695634186,-0.001112702302634716,1.4714529528197005,-0.4771442875366924,-1.7606017163345502
1687017324.022787,0.8841659426689148,0.4589318335056305,-0.08736144751310349,-0.0014755725860595703,-0.008400917053222656,0.012562938034534454,-0.09935660660266876,-0.016682568937540054,-0.016375545412302017,1.472309381520827,-0.47679257745055575,-1.7594955452365955
1687017324.0276852,0.8832080364227295,0.46125516295433044,-0.08477696031332016,-0.0016773343086242676,0.012835323810577393,0.0013266876339912415,-0.1393337845802307,-0.024217315018177032,-0.034956950694322586,1.4751019753657364,-0.479409328631836,-1.751657439402875
1687017324.141025,0.8820756673812866,0.46389350295066833,-0.08212917298078537,0.0009504556655883789,-0.016933143138885498,-0.01888393610715866,-0.19706991314888,-0.023566707968711853,-0.08572505414485931,1.477955010893762,-0.4823851888771028,-1.7453739625616749
1687017324.146105,0.8800750970840454,0.46783870458602905,-0.08120712637901306,-0.0017182230949401855,0.002360820770263672,-0.010208241641521454,-0.04505987837910652,-0.0381469801068306,-0.04218770191073418,1.4787839243013898,-0.48684376188731543,-1.7404223544341029
1687017324.239074,0.8790366649627686,0.46965786814689636,-0.08195114135742188,-0.004753828048706055,0.013572663068771362,-0.00757211446762085,-0.07655422389507294,-0.0441107302904129,-0.033871181309223175,1.477836669117449,-0.48890320386495884,-1.7342379229375762
1687017324.2450309,0.8779897689819336,0.4712757170200348,-0.08386416733264923,-0.00042629241943359375,-0.020409077405929565,-0.027616500854492188,-0.26553332805633545,-0.11639531701803207,-0.0615968182682991,1.475566858921575,-0.49073662180659217,-1.730115984727912
1687017324.32452,0.8750813007354736,0.47675108909606934,-0.08331339806318283,0.0012919902801513672,0.03777521848678589,-0.0383753776550293,-0.3154884874820709,-0.1475931853055954,-0.12937453389167786,1.475875965181771,-0.49695499420599937,-1.7128744283180763
1687017324.330322,0.8704419732093811,0.48513269424438477,-0.08352982252836227,-0.00030940771102905273,0.0003561973571777344,-0.08016646653413773,-0.6268807649612427,-0.2564150094985962,-0.23525355756282806,1.4751267356823274,-0.5065149107344686,-1.692466316784637
1687017324.442665,0.8623746037483215,0.49983328580856323,-0.08047772943973541,0.004355132579803467,0.05261111259460449,-0.079464852809906,-0.8395758271217346,-0.4820912778377533,-0.27508458495140076,1.4777447426667214,-0.5234062728342049,-1.6488561730183822
1687017324.458286,0.8500493168830872,0.5208691358566284,-0.0781763568520546,0.004381835460662842,0.1091204285621643,-0.11765491962432861,-1.3467243909835815,-0.6713383197784424,-0.5108420252799988,1.4790874520050383,-0.5478687732286636,-1.5888066751425491
1687017324.534449,0.8283624053001404,0.5555563569068909,-0.07192113995552063,0.0022344589233398438,0.3123329281806946,-0.08156698197126389,-1.1439703702926636,-0.5319324731826782,-1.0049800872802734,1.4841902284479294,-0.589031924534742,-1.5204224888390732
1687017324.549869,0.7894836664199829,0.611423134803772,-0.05363759770989418,0.06697678565979004,0.341686487197876,-0.07970892637968063,-1.1657202243804932,-0.3216966688632965,-1.5302444696426392,1.5029604770921188,-0.6578578163902629,-1.4514588245940394
1687017324.654134,0.7313725352287292,0.6808961033821106,-0.03840207681059837,0.09180867671966553,0.45931684970855713,-0.08418697118759155,-0.381344199180603,-0.09724239259958267,-2.0864200592041016,1.518337634961262,-0.7489854526069814,-1.4121627657160147
1687017324.660111,0.6473578214645386,0.7606258392333984,-0.04874591529369354,0.11097347736358643,0.463495135307312,-0.10928934812545776,1.3239964246749878,0.18726125359535217,-2.543978214263916,1.495638360325694,-0.8642766228109411,-1.4465684605985596
1687017324.713897,0.542702853679657,0.8290101289749146,-0.13496586680412292,0.2298802137374878,0.4580076336860657,-0.030988633632659912,3.1003429889678955,-0.004100863356143236,-2.6807186603546143,1.327049077143007,-0.9773353020957972,-1.6652314179712058
1687017324.7252588,0.4230629801750183,0.8638989925384521,-0.273306280374527,0.3302634656429291,0.21994799375534058,-0.010278284549713135,2.9639334678649902,-0.5660816431045532,-2.822284698486328,0.9972255561748902,-1.042960275099383,-2.0377089035841967
1687017324.7702231,0.28210386633872986,0.8684239983558655,-0.4077463150024414,0.3988654315471649,0.23648011684417725,0.010010778903961182,2.6076295375823975,-1.0343437194824219,-2.9364376068115234,0.6052427660238783,-1.0520148803875733,-2.442191749745157
1687017324.773793,0.1273411363363266,0.8506965041160583,-0.5099996328353882,0.397957980632782,0.12076950073242188,0.05127471685409546,1.67123544216156,-1.4439560174942017,-2.8927745819091797,0.24468563692971224,-1.0173088732381899,-2.7896622379015574
1687017324.833449,-0.03268015384674072,0.8047067523002625,-0.592772364616394,0.4220845103263855,0.18403226137161255,0.07246291637420654,2.1627588272094727,-1.6532492637634277,-2.753920316696167,-0.055075277314177946,-0.9351813701246853,-3.055537813048057
1687017324.887783,-0.19263003766536713,0.7246772050857544,-0.6616166234016418,0.3716920018196106,0.1622856855392456,0.08828294277191162,1.7926024198532104,-1.8395897150039673,-2.6980154514312744,-0.2833183753710229,-0.8105658658578265,3.044901675802934
1687017325.016974,-0.34613627195358276,0.6303423643112183,-0.6948798894882202,0.4370329678058624,0.21546751260757446,0.07735675573348999,1.8126757144927979,-2.0434064865112305,-2.5176382064819336,-0.46214558198382666,-0.6819941657617714,2.9234586355475574
1687017325.03086,-0.492396742105484,0.5282623171806335,-0.6917257308959961,0.4006609618663788,0.12386786937713623,0.1682424545288086,0.9233922362327576,-2.039485216140747,-2.58256196975708,-0.6186269099860164,-0.556552682113309,2.8331367714675713
1687017325.106731,-0.6209856271743774,0.40859153866767883,-0.6689019203186035,0.4100939631462097,0.25457075238227844,0.12716913223266602,2.0203139781951904,-2.1069188117980957,-2.5162174701690674,-0.7482675682477143,-0.4209103633035361,2.7749993763407694
1687017325.11215,-0.7343428134918213,0.27057400345802307,-0.6225193738937378,0.42706137895584106,0.2157236635684967,0.1474674940109253,1.1971434354782104,-2.022721290588379,-2.748610734939575,-0.8676255709464651,-0.27398923025344735,2.7330128782687444
1687017325.1950312,-0.8167796730995178,0.111588254570961,-0.5660556554794312,0.3244853615760803,0.23489314317703247,0.27827489376068115,2.2156381607055664,-1.8067506551742554,-2.751819610595703,-0.964761185345214,-0.11182114623044954,2.7214275627635445
1687017325.2103748,-0.8699957132339478,-0.05970713496208191,-0.4894307851791382,0.39273136854171753,0.22367817163467407,0.17850244045257568,1.4103330373764038,-1.8962922096252441,-2.9245359897613525,-1.0583560515392096,0.059742668694233295,2.7277876389506295
1687017325.3440552,-0.8896889090538025,-0.2176872044801712,-0.40133020281791687,0.3220009207725525,0.24892203509807587,0.21657675504684448,1.2114670276641846,-1.7411518096923828,-3.0620052814483643,-1.1470359206185963,0.21944422420614984,2.7140807602541233
1687017325.359086,-0.8748098015785217,-0.37715399265289307,-0.3040769696235657,0.35915428400039673,0.17604321241378784,0.1190793514251709,1.1454733610153198,-1.8374079465866089,-3.1272809505462646,-1.2362682404671392,0.3867214216977607,2.716277649139976
1687017325.431826,-0.8295400142669678,-0.5227230191230774,-0.19653046131134033,0.2991902232170105,0.17946135997772217,0.11144739389419556,1.450251579284668,-1.9766366481781006,-3.039944648742676,-1.3381703714209998,0.5500419842671493,2.7325184615546902
1687017325.445513,-0.7552762031555176,-0.6518415212631226,-0.0682670995593071,0.2881741523742676,0.07797384262084961,0.09496992826461792,1.1055443286895752,-2.0738942623138428,-3.095453977584839,-1.4806543436592718,0.7100102455264119,2.797058391786087
1687017325.555892,-0.6488628387451172,-0.7603414058685303,0.029293136671185493,0.3457621932029724,0.0450398325920105,0.09566104412078857,0.8730033040046692,-1.910156011581421,-2.974111557006836,-1.6159110373422836,0.8638385490045657,2.8474713124697133
1687017325.561418,-0.5326595902442932,-0.8342570066452026,0.14243942499160767,0.28185081481933594,-0.11564832925796509,0.19993722438812256,1.9497753381729126,-1.6277120113372803,-2.4083166122436523,-1.832094202693125,0.9867838280183963,3.0021691966654545
1687017325.6428308,-0.429198294878006,-0.8677797913551331,0.2504928410053253,0.23147490620613098,-0.26822155714035034,0.30378255248069763,1.498110294342041,-0.9275456666946411,-1.811444640159607,-2.0990918373185843,1.0507171074624653,-3.045376282536481
1687017325.659122,-0.3558308184146881,-0.880834698677063,0.312273770570755,0.07638129591941833,-0.18248939514160156,0.4309665262699127,0.7514892220497131,0.06480949372053146,-1.3004112243652344,-2.2910916403366577,1.0776223802903782,-2.8532348049793184
1687017325.768128,-0.33408302068710327,-0.8936695456504822,0.29957160353660583,0.1432260274887085,-0.609138011932373,-0.12255442142486572,-0.010433858260512352,0.13341279327869415,-0.005460313055664301,-2.3017841645636388,1.105457477297455,-2.830984218507396
1687017325.784099,-0.33750438690185547,-0.8854990005493164,0.31934618949890137,-0.02753165364265442,0.05175894498825073,-0.0758008062839508,0.3671199679374695,-0.03432561084628105,0.05977674946188927,-2.3285572099352803,1.087566899294449,-2.8009653585263523
1687017325.78765,-0.33277761936187744,-0.8864171504974365,0.32175126671791077,-0.02969503402709961,0.03361856937408447,0.018962174654006958,-0.15037977695465088,-0.01867341436445713,-0.2084706872701645,-2.3393498625262112,1.0895465774757103,-2.7901503203987135
1687017325.859143,-0.32588449120521545,-0.8914749622344971,0.314755916595459,0.007265657186508179,-0.047947466373443604,0.05090555548667908,-0.21866868436336517,0.02472119778394699,-0.0870015099644661,-2.3388252594747647,1.1005903229362866,-2.7908871760510614
1687017325.862895,-0.32455697655677795,-0.8948988914489746,0.30629831552505493,-0.007153928279876709,0.02830660343170166,-0.024743199348449707,-0.024765659123659134,0.018533341586589813,0.031480394303798676,-2.3272598571598055,1.1082046398402046,-2.802087604960843
1687017325.974525,-0.3263927400112152,-0.8924863934516907,0.31134581565856934,0.03053992986679077,-0.019821584224700928,-0.06357365846633911,0.03789059445261955,-0.10441162437200546,0.08108656853437424,-2.3326046529951814,1.1028275743104212,-2.798891415808606
1687017325.979298,-0.32889753580093384,-0.8913902044296265,0.31184935569763184,0.0046482086181640625,0.009127020835876465,-0.005559802055358887,0.036067064851522446,-0.08018417656421661,0.08001890778541565,-2.3295940411954428,1.1004032836887654,-2.807307414162034
1687017326.182095,-0.3298887312412262,-0.8897799253463745,0.315380722284317,-0.02474084496498108,-0.026922285556793213,0.01130986213684082,0.14633391797542572,-0.029536448419094086,0.07041394710540771,-2.3337146170576797,1.0968627832103446,-2.805124069005044
1687017326.198697,-0.330675333738327,-0.8898829817771912,0.31426429748535156,-0.004041522741317749,0.023199081420898438,0.016973376274108887,-0.11247161030769348,0.006578546017408371,-0.002994225360453129,-2.33075412577966,1.097088627813921,-2.8088223574726077
1687017326.2116652,-0.33226966857910156,-0.8899828195571899,0.3122939169406891,0.015146195888519287,0.003081023693084717,-0.01241302490234375,0.0543392114341259,-0.006972416769713163,0.031002622097730637,-2.3252132588463437,1.0973074930406712,-2.8146113817772807
1687017326.223175,-0.334183931350708,-0.8884071111679077,0.31472882628440857,0.007722020149230957,-0.017873525619506836,0.007399469614028931,-0.051461320370435715,0.014815036207437515,0.032080937176942825,-2.3262223679867104,1.0938634995314456,-2.8138952511370103
1687017326.225209,-0.3330189287662506,-0.890178918838501,0.3109337091445923,-0.017002463340759277,0.001705467700958252,0.004038095474243164,-0.04355812072753906,0.004888104274868965,-0.00640253908932209,-2.3219115555994603,1.097737687340644,-2.818126850112512
1687017326.2366061,-0.33274713158607483,-0.8894447684288025,0.31331688165664673,-0.02366778254508972,-0.024892449378967285,-0.008797258138656616,0.0641184076666832,-0.009098817594349384,0.027804166078567505,-2.3261287412364284,1.0961288781082053,-2.8141226799130115
1687017326.2661428,-0.33414024114608765,-0.8880995512008667,0.3156411051750183,-0.01643046736717224,0.00861358642578125,0.019487589597702026,0.01744730770587921,0.020280642434954643,-0.01982726901769638,-2.327732377539051,1.0931940038006502,-2.8120427491081728
1687017326.299549,-0.3375677466392517,-0.8862093091011047,0.3173030614852905,0.052640318870544434,-0.021413981914520264,-0.022533774375915527,0.2668384909629822,0.051211658865213394,0.23306331038475037,-2.325259765498506,1.089097814655586,-2.812272462305967
1687017326.359746,-0.35747620463371277,-0.8800003528594971,0.31274595856666565,0.159752756357193,-0.19609510898590088,0.1455821692943573,-0.6981204748153687,0.3995259702205658,0.5419250130653381,-2.2895539066752493,1.07586293743599,-2.8438537381657207
1687017326.455926,-0.40960633754730225,-0.8675488829612732,0.28210151195526123,0.31352171301841736,-0.05991065502166748,0.14103981852531433,-0.13957805931568146,0.8148511052131653,1.5530643463134766,-2.1739074222314527,1.0502526533917602,-2.939717444504762
1687017326.5759401,-0.5024265646934509,-0.8410771489143372,0.20039139688014984,0.29202306270599365,-0.32655584812164307,0.18454205989837646,-2.2984471321105957,1.3765548467636108,2.2773287296295166,-1.9503084684473873,0.9992715040288687,-3.1375521349654947
1687017326.581012,-0.6329137682914734,-0.7698994874954224,0.08169841021299362,0.32157349586486816,-0.3381783366203308,0.41671454906463623,-1.3944071531295776,1.938027262687683,3.3845131397247314,-1.699169467707211,0.8786836271891536,2.936851404246236
1687017326.663828,-0.7596037983894348,-0.6474303007125854,-0.061935801059007645,0.4338133931159973,-0.214599609375,0.3581393361091614,-2.2997629642486572,2.4413793087005615,3.7847633361816406,-1.4894393220715083,0.7042078559676731,2.799938036087947
1687017326.678339,-0.8549431562423706,-0.46923351287841797,-0.22111542522907257,0.3984917402267456,-0.059452950954437256,0.2506868839263916,-1.9505414962768555,2.560774087905884,4.104556560516357,-1.3177103303635713,0.4884226025395695,2.7199733439337344
1687017326.755801,-0.8935071229934692,-0.2604528069496155,-0.36579960584640503,0.46685612201690674,0.11665409803390503,0.15147459506988525,-1.594720482826233,2.2486519813537598,4.142163276672363,-1.1822149814276002,0.2634911763350336,2.6857220852644876
1687017326.760386,-0.8831890821456909,-0.0596054308116436,-0.4652142822742462,0.3110455870628357,0.15425577759742737,0.03432130813598633,-0.7910388112068176,1.966821312904358,3.9121596813201904,-1.0859833822630598,0.059640783344422944,2.737766208067206
1687017326.872747,-0.8331282734870911,0.13701210916042328,-0.5358403325080872,0.3979324698448181,0.195705845952034,-0.03645581007003784,-1.5242066383361816,1.4267165660858154,3.6259570121765137,-0.9992398530517012,-0.137444446149594,2.764371343501091
1687017326.8794289,-0.754578173160553,0.29590821266174316,-0.5857048630714417,0.22540342807769775,0.1467035710811615,-0.024295806884765625,-0.504321277141571,1.3858213424682617,3.265669345855713,-0.9107359410065129,-0.30040616186290736,2.8435000249322497
1687017326.965012,-0.6674886345863342,0.456333726644516,-0.5884032845497131,0.3681570887565613,0.1850084364414215,0.052743494510650635,-2.3762543201446533,0.9189854264259338,2.8177006244659424,-0.8482865856693098,-0.473870546878471,2.8625746023166907
1687017326.9813662,-0.561284601688385,0.5726162195205688,-0.597553551197052,0.14442980289459229,0.09278911352157593,0.017399132251739502,0.3320029079914093,1.0809144973754883,2.9367337226867676,-0.7541106741883942,-0.6096934974114662,2.9405110147763294
1687017327.0853639,-0.4444202482700348,0.6640996932983398,-0.6012173295021057,0.27507829666137695,-0.16347402334213257,0.15100669860839844,-1.9819564819335938,0.8745256066322327,2.8207554817199707,-0.6365536648518352,-0.7262889529515012,3.049651362080843
1687017327.102158,-0.31142184138298035,0.7563167810440063,-0.5753272175788879,0.1553550362586975,0.05679357051849365,0.11443543434143066,-0.25635847449302673,0.9312765598297119,3.0623342990875244,-0.4961355123041843,-0.8576645884332006,-3.1010291789104736
1687017327.212723,-0.17465318739414215,0.8276981711387634,-0.5333029627799988,0.3641369044780731,-0.06640666723251343,0.23627537488937378,-2.772613763809204,0.7041664719581604,2.7795803546905518,-0.3164854056172832,-0.9749934161142241,-2.923545661353148
1687017327.2260551,-0.02983338013291359,0.8960615396499634,-0.4429261386394501,0.17790475487709045,0.15314799547195435,0.07932451367378235,-0.8847033381462097,0.8736808896064758,2.9616568088531494,-0.06725362239194166,-1.110816727647441,-2.6833024371769407
1687017327.263252,0.12301210314035416,0.9052649736404419,-0.40664899349212646,0.3019910454750061,-0.039511799812316895,0.18118512630462646,-0.5063095092773438,1.0760152339935303,3.0009639263153076,0.2937505623201673,-1.1320029886605072,-2.3345639759258736
1687017327.2760692,0.27928194403648376,0.8766867518424988,-0.3916912376880646,0.161727637052536,0.03043299913406372,-0.1389636993408203,-0.1340157836675644,0.8033598065376282,3.098255157470703,0.6194079519938251,-1.0689309715770865,-2.023403181814901
1687017327.2796202,0.4242243468761444,0.8311339020729065,-0.3595137596130371,0.39320430159568787,0.15075385570526123,0.004548549652099609,0.06974673271179199,0.8789762258529663,2.8826639652252197,0.8677778754413562,-0.9811436835264827,-1.7833885914326948
1687017327.415011,0.5482261776924133,0.7536519765853882,-0.3625693619251251,0.1901007890701294,0.13601160049438477,-0.0491127073764801,0.5223119854927063,1.0005825757980347,2.3889377117156982,0.986483581676001,-0.8536007984648494,-1.692736577741767
1687017327.474331,0.6415952444076538,0.6852836012840271,-0.3445896804332733,0.23903530836105347,0.09839248657226562,0.030609607696533203,0.0636821836233139,1.0987106561660767,1.8038082122802734,1.0779245023748958,-0.7549930230883676,-1.6424553586959507
1687017327.479253,0.7183801531791687,0.6269141435623169,-0.30151045322418213,0.1722753643989563,0.33420634269714355,-0.07449659705162048,0.18924888968467712,1.1549715995788574,1.788981318473816,1.1734159332796956,-0.6775860364576489,-1.5806814666707458
1687017327.483623,0.7845013737678528,0.5526083111763,-0.28139203786849976,0.15360891819000244,0.2119484543800354,-0.15113356709480286,1.2044178247451782,1.2839913368225098,1.493848204612732,1.2264017789084272,-0.5854905663430066,-1.5960820854706803
1687017327.531663,0.8368051052093506,0.4853452742099762,-0.2533718943595886,0.043672800064086914,0.2894349694252014,-0.0569460391998291,1.1911404132843018,1.4306682348251343,1.1904857158660889,1.2767865987219242,-0.5067580149684948,-1.627426310400762
1687017327.626826,0.8782600164413452,0.4203863739967346,-0.22789162397384644,0.08795702457427979,0.1865929365158081,-0.23777610063552856,1.63705313205719,1.5159231424331665,0.6295619010925293,1.316914645668343,-0.43387112078911033,-1.7136262610092516
1687017327.715327,0.906892716884613,0.3811415135860443,-0.17965710163116455,0.09235960245132446,0.3324509561061859,-0.01406848430633545,2.173269748687744,1.8219220638275146,0.8181565999984741,1.3752266099425992,-0.39103071174497017,-1.7560865517379929
1687017327.7320042,0.9283813238143921,0.34184324741363525,-0.14577817916870117,0.09815371036529541,-0.44311589002609253,-0.09050410985946655,0.8784619569778442,1.6504461765289307,0.05907447263598442,1.4150440952171992,-0.34887759624043674,-1.9001984473845641
1687017327.8038511,0.9430952072143555,0.32151296734809875,-0.08485792577266693,-0.05811595916748047,0.48396793007850647,-0.0902976393699646,2.834653854370117,1.8379356861114502,0.16783557832241058,1.4810598615429034,-0.32732685747285895,-1.9741649013850702
1687017327.8083658,0.9468240141868591,0.32066068053245544,-0.026476221159100533,0.13098055124282837,-0.22622406482696533,-0.003705620765686035,0.34667885303497314,1.5949885845184326,0.004947586916387081,1.542840419509429,-0.3264269081112645,-2.0242550629625295
1687017327.924763,0.9474411606788635,0.3191603422164917,0.022179175168275833,0.1452406644821167,-0.1200331449508667,-0.26273393630981445,0.24272742867469788,1.1464835405349731,-0.05984046310186386,1.5942016053136234,-0.324843359171412,-2.1071330102664394
1687017327.930516,0.9437919855117798,0.32148584723472595,0.0768333151936531,-0.02718132734298706,0.2805496156215668,-0.14380407333374023,0.6971561312675476,0.9934275150299072,0.05694473907351494,1.6520263597173854,-0.3272982129490483,-2.0714759147851702
1687017328.0149121,0.9385963082313538,0.3291206657886505,0.10351859778165817,0.09936732053756714,-0.2509346902370453,-0.22868646681308746,-0.6705189943313599,0.42230305075645447,-0.24175353348255157,1.68064323191683,-0.33537219652160305,-2.097608561422107
1687017328.03268,0.9364391565322876,0.33286893367767334,0.11081570386886597,-0.023521006107330322,0.10566863417625427,-0.3822389841079712,0.1492357701063156,-0.15959179401397705,-0.025032948702573776,1.6885858567372563,-0.3393443917615508,-2.09482277709062
1687017328.10269,0.9367089867591858,0.3347338140010834,0.10261335223913193,0.05038207769393921,-0.04673945903778076,0.0022450685501098633,-0.11103443056344986,-0.29347050189971924,-0.058060407638549805,1.6799079223955071,-0.3413227413829669,-2.083355781701413
1687017328.1168408,0.9386504888534546,0.3327237069606781,0.09071965515613556,0.01677846908569336,-0.003057628870010376,0.0006347820162773132,-0.11979983001947403,-0.24702203273773193,0.11463546752929688,1.6671460966659073,-0.33919037876150665,-2.081246983650612
1687017328.192689,0.9404212236404419,0.32925304770469666,0.0848563015460968,-0.024024009704589844,0.027283817529678345,0.16053557395935059,0.1614599972963333,0.024845033884048462,0.08523523807525635,1.6607848573954187,-0.3355124162119855,-2.0756651491315457
1687017328.196947,0.9401119351387024,0.32924771308898926,0.08823688328266144,0.0018589496612548828,-0.07386133074760437,0.03874684125185013,-0.22884942591190338,0.08113546669483185,-0.056674499064683914,1.6643800099470094,-0.33550674026355864,-2.076298167393927
1687017328.3148742,0.9386250376701355,0.33087506890296936,0.09749056398868561,0.011219143867492676,0.05752205848693848,-0.006471887230873108,-0.044877517968416214,0.12457016855478287,-0.060768578201532364,1.6742905234314893,-0.3372307124272382,-2.0756712980786034
1687017328.331537,0.9369134306907654,0.33395877480506897,0.10326933860778809,-0.02390390634536743,0.09585076570510864,-0.06095673143863678,0.41223064064979553,0.12037595361471176,-0.029165375977754593,1.680576106525308,-0.34050035312568244,-2.0797885944535186
1687017328.404828,0.9358056783676147,0.3371873199939728,0.10282225161790848,0.02790886163711548,-0.020292848348617554,-0.0675438717007637,-0.00872430857270956,-0.02645929902791977,-0.03735113516449928,1.6802329815121537,-0.3439276427496436,-2.083348268183584
1687017328.409055,0.9353725910186768,0.34036359190940857,0.09607695043087006,0.03148525953292847,-0.03553876280784607,-0.0093764066696167,0.2267332822084427,0.0042678541503846645,-0.016588065773248672,1.6731525273010326,-0.34730353870036257,-2.1038452653907997
1687017328.49748,0.9356075525283813,0.34044837951660156,0.09345309436321259,-0.017882943153381348,0.01450154185295105,-0.050682663917541504,-0.04831772297620773,-0.09968118369579315,0.0023693805560469627,1.6703510498622811,-0.3473937164242263,-2.1022612219581607
1687017328.515039,0.9358174800872803,0.34315675497055054,0.08055594563484192,0.07950234413146973,0.004987776279449463,-0.509831428527832,-0.8196350336074829,-0.9114636778831482,-0.18941576778888702,1.6566654847414741,-0.3502756677922286,-2.0810749082848523
1687017328.581387,0.9359856843948364,0.3510465621948242,0.026408853009343147,0.13429641723632812,0.28168967366218567,-0.5555378198623657,-1.0646153688430786,-1.9805233478546143,-0.3163191080093384,1.599003861028508,-0.358688557192172,-2.0322260032828052
1687017328.595487,0.9234731793403625,0.3793371617794037,-0.05744915455579758,0.16911709308624268,0.34478384256362915,-0.39700329303741455,-1.404250979423523,-2.509979248046875,-0.8080542683601379,1.5086665138191322,-0.38907981921680757,-1.9617968844504108
1687017328.6687632,0.8889022469520569,0.43381473422050476,-0.14716555178165436,0.22425705194473267,0.31671932339668274,-0.11063165962696075,-1.1976159811019897,-2.4768803119659424,-1.3056315183639526,1.406725812098875,-0.44872235295362184,-1.9021851577570128
1687017328.766325,0.8312451243400574,0.5107418298721313,-0.21948641538619995,0.2827990651130676,0.4336093068122864,-0.017268896102905273,-0.8808005452156067,-2.0744824409484863,-1.8365540504455566,1.3126428161484882,-0.5360474167341924,-1.8576576414276083
1687017328.78436,0.7446407675743103,0.6162960529327393,-0.25629922747612,0.2806277871131897,0.24597805738449097,-0.07187145948410034,-1.6767103672027588,-1.7797553539276123,-2.591499090194702,1.2393052033707495,-0.6640306587235307,-1.8185473315078386
1687017328.852421,0.6335629820823669,0.7191033959388733,-0.28546103835105896,0.3837862014770508,0.39281970262527466,0.0039059221744537354,0.10270088165998459,-1.3735159635543823,-2.9521820545196533,1.1474730137812914,-0.8025112177362828,-1.8394350484873159
1687017328.866231,0.49053817987442017,0.8198190331459045,-0.29541313648223877,0.41693252325057983,0.1373952031135559,-0.11344602704048157,-1.2547473907470703,-1.454299807548523,-3.2488412857055664,1.0287442309846189,-0.9610948646194186,-1.900179880465591
1687017328.974852,0.3295089304447174,0.8874547481536865,-0.32225432991981506,0.523640513420105,0.3879510760307312,0.06168001890182495,1.4076358079910278,-1.0165717601776123,-3.4512274265289307,0.796528423925382,-1.091793049432123,-2.098496530706643
1687017328.980722,0.14769482612609863,0.9165923595428467,-0.3715435564517975,0.6159618496894836,-0.030560314655303955,0.04328125715255737,-0.13539323210716248,-1.2816729545593262,-3.6874642372131348,0.37836389485579985,-1.15947263965366,-2.4967387352661254
1687017329.063652,-0.04560401290655136,0.9149406552314758,-0.4010034501552582,0.6079210042953491,0.3061591386795044,0.12944284081459045,1.8280723094940186,-0.9943450689315796,-3.768630027770996,-0.11323822906761043,-1.155360821085395,-2.968935795166911
1687017329.080157,-0.24459828436374664,0.8498932123184204,-0.4667474031448364,0.6999969482421875,0.10837393999099731,0.10216918587684631,1.1526284217834473,-1.2831064462661743,-4.201706409454346,-0.48270082239630274,-1.0157826496869016,2.962216907595828
1687017329.183528,-0.44442301988601685,0.730812668800354,-0.5180743932723999,0.7583574056625366,0.27493995428085327,0.2048114538192749,2.6365396976470947,-1.2622491121292114,-4.250158309936523,-0.7090258534683307,-0.8195117710238244,2.759166563050399
1687017329.201961,-0.6215789914131165,0.5442893505096436,-0.5633724927902222,0.739773690700531,0.26647114753723145,0.20590490102767944,2.686628580093384,-1.5765674114227295,-4.303643703460693,-0.8344801604874372,-0.5755417474575374,2.6748763932703596
1687017329.2697082,-0.7624552845954895,0.3192402422428131,-0.5628032684326172,0.6963084936141968,0.15202754735946655,0.2548046112060547,2.6711220741271973,-1.9280918836593628,-4.196035861968994,-0.9349250644659146,-0.3249276554339578,2.6447947662136704
1687017329.273736,-0.8605536818504333,0.0819699615240097,-0.5027207732200623,0.6165810227394104,0.18075594305992126,0.24268049001693726,2.0676350593566895,-2.255077838897705,-4.116313934326172,-1.0420882402125042,-0.08206203574666417,2.6372227592362645
1687017329.364044,-0.9048337340354919,-0.1366862952709198,-0.40322786569595337,0.6264066696166992,0.29192930459976196,0.2047262191772461,1.217158555984497,-2.2157154083251953,-4.2768754959106445,-1.1515761595391263,0.1371155412053898,2.602968146783971
1687017329.3818989,-0.8905104994773865,-0.3571924865245819,-0.281788170337677,0.619834840297699,0.29499778151512146,0.19803261756896973,1.517414927482605,-2.3369953632354736,-4.412470817565918,-1.264331089906863,0.3652603601351647,2.5972695584188386
1687017329.514709,-0.8143994808197021,-0.5580719113349915,-0.1590888947248459,0.6088330745697021,0.1040162444114685,0.2619788646697998,0.8449015021324158,-2.2581593990325928,-4.347936630249023,-1.3778806733561344,0.592060398265765,2.5964488109086834
1687017329.531929,-0.6932047009468079,-0.7197905778884888,-0.03699790686368942,0.5813271403312683,-0.08190613985061646,0.21976763010025024,1.3722755908966064,-2.251206874847412,-3.8819291591644287,-1.5174746512768256,0.8035006089408745,2.6372119801801714
1687017329.662324,-0.5616776943206787,-0.8212904930114746,0.0999993309378624,0.5170152187347412,-0.26350241899490356,0.32849788665771484,1.5784703493118286,-2.022871971130371,-2.919567823410034,-1.7469870729386807,0.9636692994968715,2.793053205113215
1687017329.680286,-0.44463348388671875,-0.8782930374145508,0.17579136788845062,0.3031386733055115,-0.2830839157104492,0.21400964260101318,0.6984273791313171,-1.3897253274917603,-1.929846167564392,-1.9472984053871947,1.0722802270795333,2.9293814274976615
1687017329.684061,-0.36749228835105896,-0.8940227031707764,0.2562664747238159,0.12530475854873657,-0.1153307557106018,0.2924700677394867,1.630590558052063,-0.6007620096206665,-1.3533098697662354,-2.1797336940928034,1.1062451307003156,3.136374260542389
1687017329.7211819,-0.3248654305934906,-0.9109270572662354,0.2543117105960846,0.11345481872558594,-1.3545911312103271,0.10629919171333313,-1.2499974966049194,0.0047761183232069016,0.02518361434340477,-2.2349745932575797,1.145525548638514,-3.098343592662701
1687017329.724729,-0.32537755370140076,-0.9091747999191284,0.2598668932914734,-0.056351691484451294,0.12871819734573364,-0.09339353442192078,0.7267769575119019,-0.17472146451473236,0.15750038623809814,-2.2447213031300763,1.1412980431276,-3.095507157244721
1687017329.727635,-0.32315313816070557,-0.907069981098175,0.2698070704936981,0.002886354923248291,0.06663131713867188,-0.010865479707717896,-0.1315285861492157,0.05150540545582771,-0.1520196497440338,-2.2664703726030058,1.1362710367510607,-3.0745061303661907
1687017329.7820668,-0.3205980062484741,-0.9081906676292419,0.26908400654792786,0.06666123867034912,-0.043225109577178955,-0.040003955364227295,0.20985764265060425,0.1395750790834427,-0.008378604426980019,-2.269056747371942,1.138940823024467,-3.0657595634908197
1687017329.910777,-0.322409063577652,-0.9053622484207153,0.27635458111763,0.0033171474933624268,-0.003939568996429443,-0.00551113486289978,0.07751956582069397,0.17129918932914734,-0.015047692693769932,-2.2794297080490398,1.1322320339231626,-3.045045416013784
1687017329.914716,-0.3228844106197357,-0.906980574131012,0.27042970061302185,-0.01326686143875122,0.05988872051239014,-0.003461897373199463,-0.026274340227246284,0.04463871195912361,0.035453297197818756,-2.2680140969958824,1.136058703162843,-3.051990863539052
1687017329.9960089,-0.3252016603946686,-0.9053598046302795,0.2730708122253418,0.010931581258773804,-0.03590911626815796,-0.0385127067565918,0.07304498553276062,0.009110147133469582,0.04637864977121353,-2.269278398760199,1.1322262217533956,-3.048304502364718
1687017330.0107331,-0.32837021350860596,-0.9040994048118591,0.2734546959400177,-0.013258904218673706,0.020615458488464355,0.009778887033462524,-0.0023083535488694906,0.051002733409404755,0.013979964889585972,-2.2651981418216276,1.1292674241969987,-3.052386503898622
1687017330.083801,-0.3288525640964508,-0.9039026498794556,0.27352529764175415,-0.0013019442558288574,-0.05929309129714966,-0.045925259590148926,0.012116591446101665,0.06480150669813156,-0.004964165855199099,-2.2646033783900683,1.1288072703392509,-3.048165713871624
1687017330.100138,-0.3297872245311737,-0.9038500189781189,0.27257227897644043,-0.015412449836730957,0.009013533592224121,0.008036881685256958,-0.10584180802106857,0.04154212400317192,-0.029622375965118408,-2.261493873560406,1.1286841829171967,-3.049167030018515
1687017330.140228,-0.3287199139595032,-0.9062328338623047,0.26586681604385376,0.011092901229858398,0.017316877841949463,-0.020398736000061035,0.13428758084774017,0.06139545515179634,-0.0007100328803062439,-2.2508767630156976,1.1342867160844998,-3.0569548290960427
1687017330.327506,-0.3322031497955322,-0.9026261568069458,0.2736911475658417,0.012821376323699951,-0.03877997398376465,-0.0012607872486114502,0.11917034536600113,0.0839453712105751,0.01252348069101572,-2.259921739538688,1.1258323450750962,-3.042896364530074
1687017330.3334289,-0.3335316479206085,-0.9026473164558411,0.27200061082839966,0.026265352964401245,-0.03151094913482666,-0.035199522972106934,-0.05629575625061989,0.0843227431178093,0.04578689485788345,-2.254927252210798,1.1258815266787927,-3.0429803247689167
1687017330.4213629,-0.3368649184703827,-0.8992284536361694,0.27912378311157227,-0.028400063514709473,-0.01588684320449829,0.008504271507263184,0.29415035247802734,0.1278940588235855,0.09762399643659592,-2.2627302944940797,1.1180027009353861,-3.0296369262347143
1687017330.4268079,-0.3440305292606354,-0.892848551273346,0.29062730073928833,0.02673923969268799,-0.0047495365142822266,0.023779958486557007,0.5507034659385681,0.21927496790885925,0.24540013074874878,-2.2722472912378553,1.1036311257752867,-3.0087204515623305
1687017330.431412,-0.35538676381111145,-0.8834348917007446,0.3053566515445709,-0.04184532165527344,-0.024203479290008545,0.008348673582077026,0.06287483870983124,0.2226252257823944,0.07250186800956726,-2.280620803270782,1.083143183562663,-2.988360682765002
1687017330.5302649,-0.36304572224617004,-0.885229766368866,0.2908020317554474,0.04792115092277527,-0.03463095426559448,0.08372482657432556,-0.31660816073417664,0.3928462266921997,0.1455153524875641,-2.2461507603004494,1.0869877047980205,-3.0111452795470686
1687017330.5445108,-0.3816666603088379,-0.8854705095291138,0.2650899589061737,0.04820096492767334,-0.219754159450531,0.1240701973438263,-1.2104628086090088,0.5192055106163025,0.39984485507011414,-2.1778611805361883,1.08750558665441,-3.0635496419437813
1687017330.6279058,-0.4305199384689331,-0.8832173943519592,0.18595567345619202,0.24073106050491333,-0.3214792013168335,0.07379460334777832,-1.2693864107131958,0.5599992275238037,1.594711184501648,-1.9785244159676592,1.0826791649514262,3.026256333939485
1687017330.644432,-0.5255584716796875,-0.8442332744598389,0.10516036301851273,0.29173266887664795,-0.4640858769416809,0.27624833583831787,-1.8049559593200684,1.1188267469406128,2.5681333541870117,-1.7682809263086332,1.0051330606831976,2.829762660841284
1687017330.647788,-0.6536678671836853,-0.756716787815094,-0.00990225374698639,0.395595908164978,-0.42913520336151123,0.3956748843193054,-1.7942520380020142,1.7448303699493408,3.597280740737915,-1.5556487308692526,0.8582762734573166,2.6549869274208078
1687017330.678535,-0.7839125394821167,-0.6075574159622192,-0.12788742780685425,0.4849470853805542,-0.2379167675971985,0.284671425819397,-1.148768663406372,2.0454421043395996,4.277923583984375,-1.4090810413947008,0.6529817011340469,2.5817390142135457
1687017330.770173,-0.8779809474945068,-0.4115298390388489,-0.2445252239704132,0.5595452785491943,-0.15125998854637146,0.22694706916809082,-1.1063504219055176,2.03818416595459,4.635132789611816,-1.2991711601048732,0.4241319946648522,2.5714790576948268
1687017330.78444,-0.9196709990501404,-0.18400779366493225,-0.34690970182418823,0.5723199844360352,-0.0449807345867157,0.14762988686561584,-0.4612849950790405,1.9473066329956055,4.879542827606201,-1.2100889455644532,0.18506233002859548,2.611279428155094
1687017330.830851,-0.8984689116477966,0.05429413169622421,-0.4356667995452881,0.6866007447242737,0.039288103580474854,0.3092019855976105,-0.7738983035087585,1.8332263231277466,4.932195663452148,-1.11930222259736,-0.0543208433852319,2.6750118637928493
1687017330.889145,-0.817019522190094,0.2870526611804962,-0.5000799894332886,0.6789121627807617,0.17054325342178345,0.1938665509223938,-1.3990496397018433,1.7072644233703613,4.6442718505859375,-1.0215429781860075,-0.2911485918723625,2.740838662077501
1687017330.98318,-0.678305983543396,0.4758383631706238,-0.5598918199539185,0.6356119513511658,0.133109450340271,0.09312546253204346,0.38087865710258484,1.6571236848831177,4.612070083618164,-0.8807424747260804,-0.49591696789374085,2.8729349792330523
1687017331.0006719,-0.5217933654785156,0.6213842034339905,-0.5844770669937134,0.6339913010597229,0.1573786735534668,0.07548964023590088,-1.6189367771148682,1.170859456062317,4.014322280883789,-0.7287965073117856,-0.6705081159732574,3.0232205228926077
1687017331.039815,-0.3508792221546173,0.7522857785224915,-0.5576287508010864,0.479587197303772,0.08703917264938354,0.16436398029327393,-0.7229070067405701,1.142561674118042,4.00949239730835,-0.5616385514690663,-0.8515246883044384,-3.102167020341059
1687017331.131438,-0.16928575932979584,0.8206086158752441,-0.5458423495292664,0.4492540955543518,0.06891775131225586,0.14319348335266113,-1.0992522239685059,1.1022917032241821,3.714587450027466,-0.30073040314099386,-0.9624752139509816,-2.841344588456621
1687017331.1493201,0.015559952706098557,0.8517068028450012,-0.5237875580787659,0.4102671444416046,0.2332082986831665,-0.042206645011901855,0.15755707025527954,1.0476161241531372,3.5962302684783936,0.02969787391948789,-1.0192339110334925,-2.5165935360928273
1687017331.187992,0.19017456471920013,0.8407252430915833,-0.5069661736488342,0.3922687768936157,0.14603012800216675,0.2090994119644165,-0.3006609380245209,1.3889801502227783,3.2792677879333496,0.3588782929462626,-0.9986212204080299,-2.195149429389152
1687017331.314652,0.34463831782341003,0.7889237403869629,-0.5087472200393677,0.23867475986480713,0.20807021856307983,-0.07120877504348755,0.1519060581922531,1.212414264678955,2.5882391929626465,0.5954140303930312,-0.9090555926978229,-1.9841883116667143
1687017331.333747,0.4694991707801819,0.7408677339553833,-0.48029735684394836,0.4130539894104004,0.2976759076118469,-0.028049230575561523,0.673746645450592,1.475832223892212,2.197864055633545,0.7740297315918996,-0.8343613770295385,-1.842723449647163
1687017331.4032211,0.5755506157875061,0.6811380386352539,-0.4525400400161743,0.09508848190307617,0.1097402572631836,0.005991637706756592,-0.46888047456741333,1.354013442993164,2.0113375186920166,0.9044815896272507,-0.7493158473698657,-1.7564981372740276
1687017331.4068332,0.668395459651947,0.6271432042121887,-0.3999236524105072,0.306885302066803,0.1385427713394165,0.06644284725189209,0.21239495277404785,1.595479130744934,1.709467887878418,1.0316028424802957,-0.6778800530616198,-1.6741920665255001
1687017331.495654,0.7488803267478943,0.5604814887046814,-0.35360822081565857,0.12470066547393799,0.16634035110473633,-0.06751906871795654,0.1852647364139557,1.6221606731414795,1.5764288902282715,1.1296492858145306,-0.5949670469081332,-1.6448350079706096
1687017331.5002918,0.8158367276191711,0.5004714131355286,-0.28972193598747253,0.24635815620422363,0.21785122156143188,-0.07946443557739258,0.6113956570625305,1.8660959005355835,1.3973027467727661,1.2295653797561639,-0.5241432316483975,-1.6222270230693894
1687017331.583386,0.867958664894104,0.4421982765197754,-0.22607207298278809,0.11884260177612305,0.3309798240661621,-0.15251371264457703,0.5017396807670593,1.9159471988677979,1.1083955764770508,1.315993596520164,-0.45804811620849156,-1.6326643348482133
1687017331.603359,0.9087054133415222,0.3841096758842468,-0.1634441763162613,0.14476126432418823,0.5129544138908386,-0.3122790455818176,2.6809279918670654,2.4007349014282227,0.312509149312973,1.3928342887476048,-0.3942433308952542,-1.730470442861875
1687017331.637373,0.9300658106803894,0.35602638125419617,-0.09067944437265396,0.0881531834602356,0.26074907183647156,-0.19932901859283447,2.421804428100586,2.298928737640381,0.5812308192253113,1.47360563354564,-0.3640122032106564,-1.821012297702594
1687017331.853446,0.9412330389022827,0.3356126546859741,-0.03800824657082558,0.20743334293365479,-0.2559618353843689,-0.31375253200531006,0.45478615164756775,1.4563788175582886,0.055905576795339584,1.5304369190493101,-0.34225554056777857,-1.9430477492439904
1687017331.872164,0.9459490776062012,0.3238522708415985,0.01732514798641205,-0.04574155807495117,0.2615664005279541,-0.1318422555923462,2.301103353500366,1.50041925907135,0.270670086145401,1.58910937485953,-0.3297983571090196,-1.9930620441999647
1687017331.906452,0.9442010521888733,0.32390961050987244,0.05972572788596153,0.06173473596572876,-0.2860068082809448,-0.10449492186307907,-0.23166704177856445,0.9660240411758423,0.20079299807548523,1.6339674701532687,-0.32985899156727205,-2.029104126011411
1687017331.909457,0.9454671144485474,0.3130064606666565,0.09010447561740875,0.06852513551712036,0.11770334839820862,-0.10815560817718506,1.1693371534347534,0.8868167400360107,0.11409750580787659,1.6658109092151678,-0.31835690331750843,-2.093816081952784
1687017331.912043,0.942229688167572,0.3097817003726959,0.12743113934993744,0.007202744483947754,0.15396341681480408,-0.08324156701564789,-0.05127529799938202,0.6914688348770142,0.06081564351916313,1.7052249193183862,-0.3149634360289407,-2.080833487014875
1687017331.914629,0.9388384222984314,0.31256258487701416,0.14452341198921204,0.09546327590942383,0.009535163640975952,-0.38916754722595215,0.07842084765434265,0.16409066319465637,0.02621212974190712,1.7235358940815677,-0.3178895848601131,-2.105470216488227
1687017331.969804,0.940220296382904,0.31053462624549866,0.13983668386936188,-0.050709068775177,0.09577640891075134,-0.09299217164516449,0.2800297737121582,-0.11275383830070496,0.05432206019759178,1.7184416201297663,-0.31575540735872293,-2.113649803828471
1687017332.029144,0.9402251839637756,0.31238681077957153,0.1356133073568344,-0.02256166934967041,-0.02677285671234131,0.15886615216732025,0.02125283144414425,0.0010901703499257565,-0.046986985951662064,1.7140433383341,-0.31770454418012994,-2.1125748626819667
1687017332.091053,0.9389148354530334,0.31567975878715515,0.13705918192863464,0.04062306880950928,-0.04460737109184265,0.06602013111114502,0.04368450492620468,0.1517912745475769,-0.03302190080285072,1.7157486738815975,-0.3211729597619237,-2.124146638038124
1687017332.181086,0.9381209015846252,0.31670066714286804,0.14010711014270782,-0.00043779611587524414,-0.00876307487487793,-0.15121543407440186,0.07050812989473343,-0.01735621504485607,0.023937523365020752,1.719049211357052,-0.3222490760320309,-2.122893554801605
1687017332.200399,0.938819944858551,0.31661760807037354,0.1355367749929428,0.005012333393096924,0.0056937336921691895,0.018058285117149353,-0.12498680502176285,-0.12751947343349457,-0.008984474465250969,1.7141749803776167,-0.3221615089901375,-2.1226465382232855
1687017332.271946,0.9391059875488281,0.3176057040691376,0.1311737298965454,-0.0144234299659729,0.025198251008987427,0.006964206695556641,0.010907716117799282,-0.0696893259882927,-0.04942510649561882,1.7095777782403003,-0.3232033705394696,-2.1202432104106324
1687017332.289186,0.9382869601249695,0.32140013575553894,0.1277492642402649,0.007864952087402344,0.036799997091293335,-0.07850906252861023,-0.13120920956134796,-0.17191822826862335,-0.11374949663877487,1.7061158630339517,-0.32720768768998365,-2.1161863534679375
1687017332.3302479,0.937147855758667,0.32969993352890015,0.11424585431814194,0.0028394460678100586,0.07767924666404724,-0.37900102138519287,-0.7393072843551636,-0.7882546782493591,-0.32600077986717224,1.692105781247399,-0.33598571312441367,-2.0925010962363806
1687017332.390734,0.9356100559234619,0.3454292416572571,0.07288786768913269,0.12022191286087036,0.20336836576461792,-0.511715292930603,-0.6946194767951965,-1.5436609983444214,-0.5074992179870605,1.6485434040581535,-0.35269613963396135,-2.048907587390629
1687017332.486511,0.927189826965332,0.37459081411361694,-0.0008186394115909934,0.2002362608909607,0.22115802764892578,-0.42612224817276,-1.2792145013809204,-2.279088258743286,-0.8129643201828003,1.5699134016445229,-0.3839554289229298,-1.9985939609797196
1687017332.504252,0.9004433751106262,0.42621123790740967,-0.08686543256044388,0.2381521463394165,0.33610251545906067,-0.27847570180892944,-1.2624173164367676,-2.5615148544311523,-1.2788867950439453,1.474624301680255,-0.44030041517287427,-1.9294183345754408
1687017332.540917,0.8503214716911316,0.49782899022102356,-0.17064407467842102,0.23718756437301636,0.27307549118995667,-0.1239725798368454,-0.895704448223114,-2.3741235733032227,-1.6261733770370483,1.3727452510350389,-0.5210937174332305,-1.8789647947342005
1687017332.6291919,0.7775911092758179,0.5795457363128662,-0.24388252198696136,0.32572609186172485,0.22103703022003174,-0.015715166926383972,-0.8009395599365234,-2.2126810550689697,-1.941749095916748,1.2668745713380907,-0.6181711642275188,-1.861308616368939
1687017332.634211,0.6836886405944824,0.663185715675354,-0.3045562207698822,0.39780861139297485,0.24471217393875122,-0.032647669315338135,-0.2882572114467621,-2.0002312660217285,-2.234703302383423,1.1517239306596732,-0.7250671953796137,-1.8803476623896027
1687017332.688836,0.5697778463363647,0.750593900680542,-0.3346073627471924,0.33346623182296753,0.1830151081085205,0.025296449661254883,-0.8221747279167175,-1.7667104005813599,-2.4201292991638184,1.039797629472702,-0.8489604034682465,-1.9032254458653795
1687017332.785555,0.4374663829803467,0.8291433453559875,-0.34805795550346375,0.4179108440876007,0.0345192551612854,-0.03196212649345398,-1.0957790613174438,-1.7587344646453857,-2.6825637817382812,0.8987304844224311,-0.9775735707676142,-1.972184176099517
1687017332.805346,0.2902528941631317,0.8963139057159424,-0.33522331714630127,0.42942795157432556,0.17874401807785034,0.04326164722442627,-0.505044162273407,-1.3422484397888184,-2.892047882080078,0.7136237953296102,-1.111385550968165,-2.0945888692312153
1687017332.903168,0.13488979637622833,0.9260826110839844,-0.3523856997489929,0.46798503398895264,0.15040963888168335,0.03242418169975281,0.37363776564598083,-1.133810043334961,-3.0318262577056885,0.36558291218520395,-1.1838947251942997,-2.4096994293999288
1687017332.921654,-0.03355054557323456,0.9344248175621033,-0.3545765280723572,0.517116904258728,0.08493852615356445,0.054726094007492065,0.13566157221794128,-0.8896839618682861,-3.270029306411743,-0.09434056471457174,-1.2066406133757126,-2.846528772501734
1687017332.988411,-0.19454774260520935,0.8916941285133362,-0.40869641304016113,0.506025493144989,0.10325521230697632,0.19994091987609863,2.3306143283843994,-0.6339719891548157,-3.14764666557312,-0.44428038795042496,-1.10107432784905,3.096004183741996
1687017332.9920568,-0.35371431708335876,0.8062242865562439,-0.47422435879707336,0.5545657873153687,-0.03739488124847412,0.13587599992752075,1.0605354309082031,-0.9805238246917725,-3.41341495513916,-0.6408588780482796,-0.9377419249155481,2.9146248766075002
1687017333.0838819,-0.5032970905303955,0.7097142338752747,-0.49294814467430115,0.4611523747444153,0.03703570365905762,0.21490252017974854,1.2397723197937012,-0.8523826003074646,-3.355419874191284,-0.7957857367995772,-0.7890924494943111,2.771684537610843
1687017333.101955,-0.6340459585189819,0.575744092464447,-0.516240656375885,0.5307135581970215,0.07598936557769775,0.1836143136024475,1.7111238241195679,-0.9069200754165649,-3.37505841255188,-0.8874562102964569,-0.6135139168954822,2.6984504799131055
1687017333.139642,-0.7423512935638428,0.41228994727134705,-0.5281397700309753,0.48659878969192505,0.017519712448120117,0.25735729932785034,1.41903555393219,-0.9808089733123779,-3.4854142665863037,-0.952432476411779,-0.4249661423793715,2.6590704391734845
1687017333.231628,-0.8256004452705383,0.23896890878677368,-0.5111533403396606,0.4648827314376831,0.1639700084924698,0.18340981006622314,1.8002514839172363,-1.0291409492492676,-3.444295883178711,-1.0164298529367055,-0.24130385952637282,2.6185751339960333
1687017333.2491279,-0.8761734366416931,0.04512927308678627,-0.47987857460975647,0.4114975929260254,0.084417924284935,0.22194397449493408,1.3764785528182983,-1.0719777345657349,-3.589773178100586,-1.0697221025654453,-0.04514460542522512,2.6070092262837314
1687017333.292489,-0.8941810727119446,-0.1411784589290619,-0.424863338470459,0.35269248485565186,0.12993282079696655,0.1444067358970642,1.5528075695037842,-1.2451194524765015,-3.4265732765197754,-1.1272318198246702,0.14165170045265768,2.5883108205988563
1687017333.379075,-0.8795270919799805,-0.31837624311447144,-0.35365042090415955,0.32107067108154297,0.0933091938495636,0.10505419969558716,0.3401281535625458,-1.3713065385818481,-3.6890785694122314,-1.1884882025652563,0.3240160921807996,2.561212606503574
1687017333.382749,-0.829333484172821,-0.4847158193588257,-0.2779509127140045,0.3468199372291565,0.21451321244239807,0.03162822127342224,1.634900450706482,-1.4574049711227417,-3.525090217590332,-1.2474118654189523,0.5060382445179995,2.535565479730979
1687017333.4425259,-0.7438657879829407,-0.6478167772293091,-0.16430769860744476,0.4073179364204407,0.09604376554489136,-0.02627462148666382,1.3063766956329346,-1.9397140741348267,-3.807358503341675,-1.3534034530919035,0.7047150233593681,2.5699086097184227
1687017333.535301,-0.62704998254776,-0.7780473828315735,-0.0380878709256649,0.37350982427597046,-0.019437968730926514,0.08510017395019531,2.3579180240631104,-2.01284122467041,-3.2205517292022705,-1.510129500563345,0.8915515765307995,2.6505113750660296
1687017333.555372,-0.4937780499458313,-0.8635901808738708,0.1019575297832489,0.3473241329193115,-0.20542526245117188,0.2487962245941162,1.3374131917953491,-1.9572696685791016,-2.9673702716827393,-1.7744191651255294,1.0423474599078435,2.8450612465212055
1687017333.5920382,-0.37403833866119385,-0.9039142727851868,0.20744773745536804,0.2469935119152069,-0.3834393620491028,0.27578288316726685,2.077047824859619,-1.2904911041259766,-1.902644395828247,-2.0771767880195426,1.1288344811366848,3.094705396043983
1687017333.6824799,-0.2951887249946594,-0.914233386516571,0.2775627672672272,-0.03746822476387024,-0.48109138011932373,0.7608740329742432,-0.7753736972808838,0.14002740383148193,-1.4700734615325928,-2.325430015389273,1.1536118368031238,-2.951672672868719
1687017333.701025,-0.27718526124954224,-0.9337084889411926,0.22662019729614258,0.12062999606132507,-0.3023906946182251,-0.25799238681793213,0.3173542618751526,0.0947657972574234,-0.12818144261837006,-2.2561632278415247,1.2046347515494835,-3.011810883157868
1687017333.770969,-0.28200793266296387,-0.9275208115577698,0.2453092783689499,0.008082091808319092,0.036407530307769775,-0.10973501205444336,0.012652087025344372,-0.1417669802904129,0.0995638445019722,-2.286711491064267,1.1877243624515685,-2.986016686005715
1687017333.7876859,-0.2809443771839142,-0.9262192845344543,0.25137266516685486,0.02450507879257202,0.04062962532043457,0.06716981530189514,0.2530258595943451,0.0661432072520256,-0.008676612749695778,-2.30069870279661,1.1842571302719551,-2.971863392483718
1687017333.827393,-0.2827463448047638,-0.9227410554885864,0.26192212104797363,0.017945289611816406,-0.024402320384979248,-0.04182937741279602,0.11991555988788605,0.032776061445474625,0.04990493878722191,-2.317980210393874,1.1751329097080148,-2.9488280930166693
1687017333.9219232,-0.2858983874320984,-0.9201395511627197,0.2675919234752655,-0.010152727365493774,0.01883333921432495,0.005464106798171997,0.21262486279010773,-0.03171238303184509,0.09379490464925766,-2.3231319455328188,1.1684366438158584,-2.944345277233522
1687017333.940014,-0.2872753441333771,-0.9190216660499573,0.26994794607162476,-0.021501541137695312,-0.007537662982940674,0.03606697916984558,0.048829130828380585,0.07162385433912277,-0.015884989872574806,-2.3251085222889736,1.1655915285103904,-2.9400103149993666
1687017333.9795809,-0.28896036744117737,-0.9172167181968689,0.2742544710636139,0.020268261432647705,-0.03436720371246338,-0.017082899808883667,0.06503573060035706,-0.00284518301486969,0.048328083008527756,-2.3300898091000466,1.1610369359263315,-2.93397743148322
1687017334.106608,-0.2900821566581726,-0.916442334651947,0.2756558656692505,-0.006487786769866943,0.014189958572387695,0.0013217329978942871,-0.025284042581915855,0.03963516652584076,-0.029170434921979904,-2.330700066337102,1.159097459757682,-2.931965331674728
1687017334.1115398,-0.2898581922054291,-0.9168696999549866,0.27446699142456055,0.022890359163284302,-0.016556084156036377,-0.037833720445632935,0.12604835629463196,0.021177861839532852,0.06321994960308075,-2.3289276087927733,1.160166728441975,-2.931717237658065
1687017334.200336,-0.2935793697834015,-0.9140676259994507,0.27980560064315796,0.011963129043579102,-0.0035652518272399902,-0.003697901964187622,0.06165504828095436,0.0446082204580307,0.06237705424427986,-2.332177226992977,1.1532030052450624,-2.9263341560452543
1687017334.2214332,-0.2944096624851227,-0.9147035479545593,0.27684035897254944,0.020651638507843018,-0.007369875907897949,-0.015686243772506714,0.16348353028297424,0.0715106725692749,0.11954954266548157,-2.3254482798991747,1.1547737614360378,-2.9290353987391815
1687017334.3496509,-0.3012632429599762,-0.9101554751396179,0.28435465693473816,-0.0015627741813659668,-0.014450907707214355,0.003181964159011841,0.21392686665058136,0.10558262467384338,0.20396508276462555,-2.327329421542152,1.1436592199000357,-2.9228848282683555
1687017334.353732,-0.3157574236392975,-0.904991865158081,0.2851088047027588,0.08164176344871521,-0.12145155668258667,0.02585005760192871,0.005930934101343155,0.3944258987903595,0.3456780016422272,-2.3052312354404902,1.1313606632078617,-2.9356062436190773
1687017334.405088,-0.34224340319633484,-0.8993693590164185,0.2720372676849365,0.10300076007843018,-0.05586135387420654,0.15180599689483643,-0.694984495639801,0.9001456499099731,0.4524398744106293,-2.242398257415602,1.1183248453367398,-2.9698452009233214
1687017334.422483,-0.4070139527320862,-0.8916184306144714,0.1983843445777893,0.29599088430404663,-0.5257705450057983,-0.0024310052394866943,-1.299470067024231,0.8492987155914307,2.02842116355896,-2.024324629086403,1.1009070356897521,3.121283537176837
1687017334.4255319,-0.5275920033454895,-0.841565728187561,0.11581773310899734,0.1760905385017395,-0.4958212971687317,0.329784631729126,-1.218001127243042,1.4936803579330444,3.1016809940338135,-1.7868900696304424,1.0001753627678724,2.910839424873266
1687017334.4587889,-0.6703299283981323,-0.741874098777771,0.016744300723075867,0.2532614469528198,-0.34133195877075195,0.35695862770080566,-1.2011867761611938,2.3262460231781006,3.5889980792999268,-1.5957703274834176,0.8358610096834421,2.7931677676781765
1687017334.522933,-0.7910685539245605,-0.6000801920890808,-0.11880365759134293,0.27687788009643555,-0.21515101194381714,0.28855764865875244,-1.1463290452957153,2.4438161849975586,3.92765474319458,-1.4217291354593797,0.6436013662651207,2.717345907721475
1687017334.582053,-0.8748863935470581,-0.42090195417404175,-0.23961521685123444,0.4137810468673706,-0.1261408030986786,0.10773342847824097,-1.1837258338928223,2.059751033782959,4.156487464904785,-1.3034702473118356,0.43443939807309884,2.711769017622096
1687017334.678502,-0.9160094857215881,-0.20720888674259186,-0.3434980511665344,0.5295807719230652,0.043726325035095215,0.17119577527046204,-1.7595698833465576,1.435166835784912,4.252354145050049,-1.212030925079958,0.20872105393411514,2.69651202719807
1687017334.683051,-0.9140585064888,0.01058298908174038,-0.40544435381889343,0.6818197965621948,0.09479429572820663,0.027636706829071045,-1.0529884099960327,0.9724922776222229,4.051924228668213,-1.1533066436942665,-0.010583186615109284,2.723882395280302
1687017334.7298641,-0.871711254119873,0.22548656165599823,-0.43505772948265076,0.5174328088760376,0.006569162011146545,0.39779576659202576,-2.513878107070923,1.1307772397994995,3.787717342376709,-1.1078812617492013,-0.2274424336359496,2.713288687387445
1687017334.821208,-0.7840098738670349,0.40277644991874695,-0.47233447432518005,0.46072185039520264,0.1811622679233551,0.07734537124633789,0.7014009356498718,1.0774571895599365,3.7102537155151367,-1.0285700743697417,-0.41454821171599643,2.7700245062187694
1687017334.841219,-0.6750637292861938,0.5350194573402405,-0.5079794526100159,0.4233242869377136,-0.018646717071533203,0.31297212839126587,-0.9618666172027588,1.3047552108764648,3.5052332878112793,-0.9257027913589853,-0.5645307432643588,2.8754887757787624
1687017334.8825889,-0.5276772975921631,0.658546507358551,-0.5365381836891174,0.31062108278274536,0.00751495361328125,0.06665903329849243,-0.01720021665096283,1.311805009841919,3.63802433013916,-0.7770721148013399,-0.7188856768638363,2.9989595439472647
1687017334.949462,-0.37812575697898865,0.7701329588890076,-0.5137276649475098,0.5016152858734131,0.0034876465797424316,0.20934540033340454,-2.393404245376587,0.9371756911277771,3.2798056602478027,-0.6345087643567033,-0.8790495249655169,3.1294874834708395
1687017334.965837,-0.22898857295513153,0.8581923246383667,-0.45942381024360657,0.276580810546875,0.1389085054397583,0.01070857048034668,-0.7599335312843323,0.7238856554031372,3.0976901054382324,-0.4623872839986807,-1.0317378032397226,-2.993596103453964
1687017334.99701,-0.07641993463039398,0.8951705694198608,-0.43912366032600403,0.28346651792526245,0.10478359460830688,0.054266512393951416,-0.5073826909065247,0.7331828474998474,2.985491991043091,-0.17230267101956115,-1.1088137804308054,-2.707834050115827
1687017335.0718942,0.0735488161444664,0.904821515083313,-0.41939088702201843,0.34284836053848267,0.06229579448699951,0.07522886991500854,-0.21738797426223755,0.9220123291015625,2.9610140323638916,0.17360519708317135,-1.1309602873367226,-2.3672661374232797
1687017335.119937,0.2107783704996109,0.8900728225708008,-0.40415701270103455,0.28514760732650757,0.09356969594955444,0.07757318019866943,-0.43017154932022095,1.0219756364822388,2.3261914253234863,0.4807196989618384,-1.0975049557682899,-2.0797129917030497
1687017335.246063,0.337133526802063,0.8546323180198669,-0.39489829540252686,0.2529391646385193,0.20551776885986328,0.024857401847839355,1.1109176874160767,1.4377254247665405,2.1935062408447266,0.706651143081286,-1.0248423112791145,-1.8952689901119288
1687017335.2520351,0.4501194655895233,0.8054785132408142,-0.3854828476905823,0.27122464776039124,-0.06390124559402466,0.11764532327651978,-0.16099107265472412,1.5387169122695923,2.0573079586029053,0.8625977540614022,-0.9364824303054773,-1.7944443140965536
1687017335.334518,0.561672031879425,0.7447659969329834,-0.36034417152404785,0.23010653257369995,0.20880138874053955,-0.10584232211112976,0.6226201057434082,1.4597883224487305,2.13010311126709,1.000379938877024,-0.8401841168896426,-1.7160873359691802
1687017335.355077,0.662306010723114,0.674659252166748,-0.32586124539375305,0.2263811230659485,0.23490184545516968,-0.03180474042892456,0.2635026276111603,1.4883087873458862,2.0365025997161865,1.1135610502861486,-0.7405029506972111,-1.6590152348541731
1687017335.420794,0.7440705895423889,0.602289080619812,-0.28914859890937805,0.13839101791381836,0.2439785599708557,-0.13676995038986206,0.6199755072593689,1.5343856811523438,1.6655828952789307,1.2001527793201192,-0.6463655444209371,-1.6419565267613703
1687017335.438384,0.8079861998558044,0.5323095321655273,-0.2525964677333832,0.12302887439727783,0.24218076467514038,-0.10880792140960693,0.7434045076370239,1.507746696472168,1.3477154970169067,1.2677978216800676,-0.5613263936821686,-1.6574476187689815
1687017335.477211,0.8602268099784851,0.46543821692466736,-0.20827192068099976,0.17488372325897217,0.37008723616600037,-0.08709239959716797,1.995579481124878,1.9423236846923828,1.1249687671661377,1.333254577111028,-0.4841296639394427,-1.7007647202266445
1687017335.6039019,0.8973341584205627,0.412182480096817,-0.15778720378875732,0.1683090329170227,0.12012025713920593,-0.1075020283460617,0.9365013241767883,1.9482903480529785,0.7642648220062256,1.3967357780682377,-0.4248482091676624,-1.7766652555566138
1687017335.6241832,0.9268242716789246,0.36025723814964294,-0.10588330030441284,0.015512645244598389,0.3951443135738373,-0.1821567863225937,3.5012829303741455,2.140976905822754,0.712009072303772,1.4570463559994284,-0.3685436319182351,-1.8895949063174164
1687017335.691823,0.9375042915344238,0.34410056471824646,-0.05177385360002518,0.20862913131713867,-0.09934961795806885,-0.18134987354278564,-0.23026853799819946,1.5814529657363892,-0.23673588037490845,1.5156271731882447,-0.3512806769593811,-2.003635800696172
1687017335.6954,0.9369645714759827,0.3487008213996887,0.02246890962123871,-0.017592132091522217,0.279091477394104,-0.11524224281311035,2.093292236328125,1.8167756795883179,0.20503275096416473,1.5947722634570878,-0.35618454984784814,-2.0157321489746574
1687017335.78092,0.9300764203071594,0.36108964681625366,0.06761490553617477,0.08527374267578125,-0.3678188621997833,-0.10672308504581451,-0.7999253273010254,1.0719882249832153,-0.40007659792900085,1.6433668861684285,-0.36943611701113216,-2.0774975928053823
1687017335.785596,0.9217221736907959,0.36832037568092346,0.12152455002069473,-0.042648136615753174,0.08135604858398438,-0.08937419205904007,0.8450659513473511,1.0801600217819214,0.008565225638449192,1.7018853351451666,-0.37720175621018315,-2.062422402674811
1687017335.871242,0.915672242641449,0.3729132115840912,0.14993368089199066,0.11531829833984375,-0.20141971111297607,-0.2692573070526123,-0.34494027495384216,0.4531312584877014,-0.024603113532066345,1.7330976983517292,-0.3821467378076686,-2.086492075402349
1687017335.891045,0.9146677255630493,0.371622234582901,0.15899723768234253,0.06444305181503296,0.105947345495224,-0.44203245639801025,-0.200205460190773,-0.23285216093063354,0.03335392847657204,1.742907114081589,-0.3807557917603123,-2.0717473724606164
1687017335.927815,0.9199104309082031,0.36344051361083984,0.14722666144371033,0.0125083327293396,0.03028199076652527,-0.038965463638305664,0.08270414173603058,-0.3492879569530487,0.14377950131893158,1.7294950350806726,-0.37195830645490646,-2.070355061044745
1687017336.019895,0.9252041578292847,0.3550454378128052,0.1339409053325653,-0.04820525646209717,0.0014608800411224365,0.09083640575408936,-0.1885972023010254,-0.3432086408138275,0.2166936695575714,1.7145665232593355,-0.36296266252121556,-2.059554339295313
1687017336.039247,0.9307713508605957,0.34468892216682434,0.12187821418046951,0.005965709686279297,0.017295271158218384,0.07929372787475586,0.004684507846832275,-0.19158075749874115,0.21274712681770325,1.7009987863441671,-0.35190738999084575,-2.0595068502874123
1687017336.110437,0.9344297647476196,0.33630019426345825,0.11723063141107559,-0.02245783805847168,0.09042701125144958,0.061861857771873474,0.13640078902244568,-0.01349582988768816,0.14608927071094513,1.6956011330451293,-0.3429855092602378,-2.060544490263071
1687017336.2033892,0.9354297518730164,0.3336600363254547,0.11680055409669876,-0.025746464729309082,0.015323728322982788,0.03888489305973053,-0.12882567942142487,0.01509054098278284,-0.011457485146820545,1.6950164138484567,-0.3401834450428443,-2.065709677403706
1687017336.223802,0.9296413660049438,0.3453996777534485,0.12832018733024597,-0.009078621864318848,0.049879223108291626,0.03613913059234619,0.30056828260421753,0.12614862620830536,0.02072148770093918,1.707961510946602,-0.35266463030988526,-2.0649024342969353
1687017336.2901511,0.9265918135643005,0.3510267436504364,0.13493530452251434,0.012174487113952637,-0.031584084033966064,-0.0016802847385406494,-0.10118593275547028,0.11704966425895691,-0.06767015904188156,1.7154052255581904,-0.35866740575155015,-2.0691892091495245
1687017336.308004,0.9238032102584839,0.3560989797115326,0.14064468443393707,0.020181655883789062,0.014552205801010132,-0.005879059433937073,0.3419244587421417,0.16391344368457794,-0.016888203099370003,1.721881434389681,-0.36408989050250895,-2.075148217561067
1687017336.380515,0.923865795135498,0.35578233003616333,0.14103534817695618,0.019676625728607178,-0.020363658666610718,-0.07835221290588379,0.21874600648880005,0.08023598790168762,0.04575653374195099,1.7222846023432203,-0.3637510379763699,-2.0884951181700875
1687017336.3840551,0.9255937337875366,0.35485172271728516,0.1317436844110489,0.010853350162506104,0.11067864298820496,-0.1879723221063614,1.1145564317703247,0.006846592761576176,0.1914524883031845,1.7121809015057918,-0.3627554487498893,-2.1226413314808705
1687017336.4720001,0.9291876554489136,0.3529607951641083,0.10967545211315155,0.0021933913230895996,0.18106621503829956,-0.11086561530828476,1.6071001291275024,0.07006298005580902,0.2561824917793274,1.6882864108453506,-0.360733685812722,-2.188240578291696
1687017336.490603,0.9343389272689819,0.3492238521575928,0.07108967751264572,-0.023984193801879883,0.12564492225646973,-0.013090960681438446,3.0035955905914307,0.15788564085960388,0.3691764175891876,1.646735547310655,-0.3567426850908551,-2.3240664451445743
1687017336.529705,0.9432846307754517,0.3316726088523865,0.014400211162865162,-0.10717934370040894,0.24991613626480103,0.004063010215759277,5.3360443115234375,0.422115296125412,0.7275723218917847,1.5860611705833012,-0.3380759942766346,-2.543678854868911
1687017336.621747,0.9530618190765381,0.2998078167438507,-0.04229303449392319,-0.04009789228439331,-0.21507570147514343,0.16080808639526367,2.849888324737549,0.3586461544036865,0.41570794582366943,1.5264494590374007,-0.30449119651502005,-2.7768520164537493
1687017336.640965,0.9610716700553894,0.2694304883480072,-0.06122501567006111,-0.0748412013053894,0.13202828168869019,0.1155463457107544,3.5227279663085938,0.5814113616943359,0.5325778126716614,1.5071773515332594,-0.27280159591697334,-2.926122577580247
1687017336.679091,0.9700598120689392,0.23050589859485626,-0.07649001479148865,-0.06496965885162354,0.13555246591567993,0.23949968814849854,4.758354187011719,0.908143937587738,0.44659876823425293,1.4921083115040017,-0.23259755642700664,-3.1401230905756163
1687017336.771443,0.9769772291183472,0.19620542228221893,-0.08377953618764877,-0.03125274181365967,0.08650949597358704,0.20845913887023926,4.809284210205078,0.9760845899581909,-0.05941009894013405,1.4852517784316053,-0.19748661165101836,2.8868366962811094
1687017336.7901258,0.976433515548706,0.20347973704338074,-0.0719279870390892,0.08463215827941895,-0.07779301702976227,0.1826304793357849,2.466841459274292,0.848185658454895,-0.9009929895401001,1.4972651460221413,-0.20491070593289232,2.702950574674168
1687017336.830562,0.963429868221283,0.2618536353111267,-0.05688198655843735,0.024195194244384766,-0.045392364263534546,0.08010584115982056,1.2121381759643555,0.6608021855354309,-1.567334532737732,1.5118236557247227,-0.2649423595102484,2.6066141442458837
1687017336.918416,0.9428674578666687,0.33133140206336975,-0.03493692725896835,0.036273837089538574,-0.05235487222671509,0.050119396299123764,0.5992946624755859,0.6797212958335876,-1.3844478130340576,1.5337593613734049,-0.33771432481790276,2.5598923153424096
1687017336.9386458,0.9249902963638306,0.37942785024642944,-0.02066975273191929,-0.008440732955932617,0.020016759634017944,0.0005586761981248856,0.7636175751686096,0.4180622100830078,-0.6843581795692444,1.5484541325110441,-0.3891778375271511,2.523954177292831
1687017336.975954,0.9192671179771423,0.3929641544818878,-0.022955315187573433,-0.012345850467681885,-0.08319547772407532,0.007009865716099739,1.0375244617462158,0.3150339722633362,-0.12207906693220139,1.5458301924486937,-0.40385285248951336,2.4701693486550824
