Timestamp,gravityX,gravityY,gravityZ,accelerationX,accelerationY,accelerationZ,rotationRateX,rotationRateY,rotationRateZ,attitudeRoll,attitudePitch,attitudeYaw
1687005227.975553,0.8801594376564026,0.4735508859157562,0.032692547887563705,-0.004717051982879639,-0.009210705757141113,-0.0020835399627685547,0.030493486672639847,0.01722879335284233,-0.006245146505534649,1.6079231499985027,-0.4933180175734392,-0.11009157025831812
1687005227.980655,0.879877507686615,0.4740769863128662,0.032653696835041046,0.0004934072494506836,-0.0038774311542510986,-0.008636359125375748,0.008015675470232964,0.00145742017775774,-0.00423738919198513,1.6078909406585613,-0.49391542746215983,-0.11052308692174717
1687005228.093995,0.8798195123672485,0.47422099113464355,0.032117754220962524,-0.0008525252342224121,0.017432361841201782,-0.012540824711322784,0.10733713954687119,0.015558991581201553,-0.007077650632709265,1.6072850609110505,-0.4940789781790988,-0.11225591550470154
1687005228.11127,0.8794289231300354,0.4750206768512726,0.030979344621300697,0.003871619701385498,-0.022536665201187134,-0.0028116758912801743,0.041509851813316345,0.01858687214553356,-0.015509750694036484,1.6060084276759492,-0.4949875329827092,-0.1180040755546953
1687005228.150126,0.8791171908378601,0.4756273031234741,0.03051834926009178,-0.0017674565315246582,-0.003474622964859009,-0.009415507316589355,0.03237580880522728,-0.0005605901824310422,-0.006495750043541193,1.605497159016423,-0.4956770256575428,-0.11922560354747137
1687005228.1536179,0.8793461918830872,0.4752224087715149,0.030225511640310287,-0.0021339058876037598,0.018063634634017944,0.0030842963606119156,0.07312943041324615,0.011276494711637497,0.0025291703641414642,1.6051555085040194,-0.4952167733508271,-0.12037936022701125
1687005228.1562262,0.8792733550071716,0.47565028071403503,0.025195129215717316,0.00010567903518676758,-0.001361459493637085,-0.004275444895029068,0.3785434663295746,0.06322185695171356,0.0029763150960206985,1.5994429783705915,-0.49570315596513276,-0.13644618476092568
1687005228.210602,0.8790683150291443,0.47618284821510315,0.022111710160970688,0.006261885166168213,-0.02800166606903076,0.018827559426426888,0.18033011257648468,0.0711309090256691,-0.007264337968081236,1.5959445985879968,-0.4963086853429783,-0.15054458879874216
1687005228.270289,0.8784130215644836,0.4774865508079529,0.019925061613321304,-0.010538995265960693,0.01717284321784973,0.01890850067138672,0.3461590111255646,0.16289092600345612,-0.026843098923563957,1.5934754591773268,-0.49779186027642613,-0.1675989612154596
1687005228.332402,0.8783128261566162,0.47772976756095886,0.018454601988196373,-0.009782671928405762,0.0005569756031036377,0.025917887687683105,0.6401461958885193,0.2517384886741638,0.033160049468278885,1.5918046592270902,-0.49806868383560887,-0.1923634448847761
1687005228.391948,0.8796750903129578,0.4755741357803345,0.0007715257816016674,-0.04337155818939209,0.13091689348220825,0.09906661510467529,2.5455830097198486,0.4787994921207428,0.0794772207736969,1.571673384239821,-0.49561657986250285,-0.2740413759948317
1687005228.48381,0.880716860294342,0.47351735830307007,-0.010918312706053257,-2.5391578674316406e-05,-0.24153798818588257,-0.027808547019958496,0.013310771435499191,0.24886228144168854,0.11476835608482361,1.5583998865050637,-0.49327994351800425,-0.334054013674026
1687005228.500808,0.885362446308136,0.4648676812648773,-0.00559822516515851,0.015333235263824463,0.06607714295387268,0.05500614643096924,0.4425453543663025,0.20605091750621796,0.1895184963941574,1.5644733224126703,-0.4834851462970373,-0.3412469910228967
1687005228.539285,0.8893617987632751,0.4570927619934082,-0.010075083933770657,-0.016910195350646973,-0.0008549988269805908,-0.029353678226470947,0.607446551322937,0.2277442067861557,0.16052493453025818,1.55946836849078,-0.47472374276788737,-0.3758612845773803
1687005228.60937,0.8930107951164246,0.4497687816619873,-0.015479208901524544,0.004572093486785889,0.02099531888961792,-0.03710263967514038,0.6178240180015564,0.19479385018348694,0.13960953056812286,1.553464330954995,-0.46650645600593743,-0.4130920011303807
1687005228.693227,0.8957327008247375,0.44419562816619873,-0.01878296211361885,0.002185821533203125,0.0056028664112091064,-0.03639286756515503,0.28369617462158203,0.10159214586019516,0.09923601150512695,1.549830016290896,-0.4602762695260263,-0.43706721116962366
1687005228.699297,0.8972688317298889,0.44111379981040955,-0.018092850223183632,0.016091763973236084,-0.0030796825885772705,-0.041736900806427,-0.10383801907300949,0.020598357543349266,0.028291791677474976,1.5506347011572628,-0.45683935178416685,-0.4432222878837988
1687005228.784206,0.8976140022277832,0.4405576288700104,-0.014072728343307972,0.006301283836364746,0.051965564489364624,-0.03625082969665527,-0.22063767910003662,-0.043999407440423965,0.010020376183092594,1.5551196828517166,-0.4562197418571577,-0.430943468766974
1687005228.802288,0.8982385993003845,0.43930208683013916,-0.013446606695652008,0.025101065635681152,-0.059068381786346436,-0.03837233781814575,-0.41584545373916626,-0.2123720347881317,0.04617145657539368,1.555827472161334,-0.45482162871887866,-0.41248788696912847
1687005228.8352609,0.898152232170105,0.43961912393569946,-0.007572165224701166,-0.04112726449966431,0.08038511872291565,0.00992196798324585,-0.5087767839431763,-0.10502387583255768,-0.0372062586247921,1.5623657003270806,-0.45517458709828074,-0.37829531982033726
1687005228.9324288,0.8971694111824036,0.44162610173225403,-0.007310342509299517,0.010636985301971436,-0.09737253189086914,-0.048307955265045166,-0.2786865234375,-0.19456134736537933,-0.04814998805522919,1.5626482772351264,-0.4574102987281945,-0.3617564731723252
1687005228.947361,0.8957943320274353,0.44446542859077454,0.0016355484258383512,-0.009167313575744629,-0.0052565038204193115,0.03391742706298828,-0.8944158554077148,-0.12474112957715988,-0.033324699848890305,1.5726221326842003,-0.4605774322992344,-0.3225001746164403
1687005228.992703,0.8959869742393494,0.44395938515663147,0.010343370959162712,0.002831757068634033,0.03490710258483887,0.06497395038604736,-0.7368245124816895,-0.16262459754943848,-0.013599998317658901,1.582339922878863,-0.46001257578433336,-0.279398937656539
1687005229.078682,0.89657062292099,0.44262751936912537,0.015555037185549736,0.02441936731338501,-0.11525017023086548,-0.06963229179382324,-0.9474248886108398,-0.29233279824256897,0.045186351984739304,1.588144070026263,-0.4585267576911728,-0.24494559496261795
1687005229.095442,0.8973308801651001,0.44050654768943787,0.027405470609664917,-0.03948187828063965,0.16480961441993713,0.0035851001739501953,-0.10912353545427322,-0.0685950294137001,0.005047987215220928,1.601327934212749,-0.45616282199261715,-0.1922239045198195
1687005229.14077,0.8977091908454895,0.44030123949050903,0.015898296609520912,0.020076274871826172,-0.12879309058189392,-0.02520621009171009,0.3692355155944824,-0.0195690356194973,0.04618290811777115,1.588504326877661,-0.45593415570676477,-0.21902819436916532
1687005229.227596,0.8986313343048096,0.4383779466152191,0.01692180708050728,-0.002803206443786621,0.012992292642593384,0.02615368366241455,0.005348119419068098,0.010942268185317516,0.01131920050829649,1.5896247461959672,-0.45379315707775775,-0.21611958524235356
1687005229.243586,0.8989059329032898,0.43792206048965454,0.013862083666026592,0.0021559596061706543,-0.02302032709121704,0.010994434356689453,0.1718636006116867,0.03078521601855755,0.03883151710033417,1.586216165211456,-0.45328600019844145,-0.22732515217637073
1687005229.28492,0.9000340104103088,0.43557700514793396,0.014539424329996109,0.007055103778839111,-0.01081809401512146,-0.006391286849975586,-0.0035905810073018074,0.023570312187075615,0.05341099575161934,1.5869492269298087,-0.4506791715402275,-0.22899628924317875
1687005229.3829079,0.9010965824127197,0.43336960673332214,0.014679668471217155,-0.013615071773529053,0.02981087565422058,0.0028069010004401207,0.11261958628892899,0.04162907227873802,0.04181878641247749,1.5870857797403064,-0.44822840090695465,-0.23215575075249753
1687005229.399634,0.9016455411911011,0.43223798274993896,0.014335493557155132,0.001552581787109375,0.005063652992248535,0.0170518159866333,0.028513826429843903,0.04640665277838707,0.0036223987117409706,1.5866942432054463,-0.44697310401183377,-0.23776266634280638
1687005229.470469,0.9010074734687805,0.4335052967071533,0.016076089814305305,-0.0021886825561523438,0.021511733531951904,-0.0028467196971178055,0.14302176237106323,0.06062154099345207,-0.02873634174466133,1.5886367828969117,-0.44837894456052596,-0.2402316644569025
1687005229.4746819,0.9006335735321045,0.4344002306461334,0.012462408281862736,0.003403782844543457,0.030001014471054077,-0.007015109062194824,0.4778009355068207,0.08948834240436554,-0.008013751357793808,1.5846328220908266,-0.449372279880992,-0.2580455094334561
1687005229.532088,0.9002625942230225,0.43534326553344727,0.0017952286871150136,0.0012875199317932129,0.10297149419784546,-0.014124393463134766,1.4304859638214111,0.19886888563632965,0.006641623564064503,1.572790440983954,-0.45041953990239686,-0.301963533482423
1687005229.5911388,0.9017728567123413,0.429590106010437,-0.04751725122332573,-0.00821828842163086,0.251318097114563,-0.006163239479064941,4.777551651000977,0.553358256816864,0.0921298936009407,1.518151865958863,-0.4440388127143672,-0.47029394399656904
1687005229.680109,0.9098798632621765,0.3877626061439514,-0.14750902354717255,-0.031248271465301514,0.14420464634895325,0.17956767976284027,8.424874305725098,1.0033495426177979,0.30764541029930115,1.4100754158766164,-0.3982030324717183,-0.8288461528739092
1687005229.693651,0.9279177784919739,0.2779697775840759,-0.24839766323566437,-0.010986626148223877,-0.21580541133880615,0.443191260099411,9.428972244262695,1.3836854696273804,0.3803020417690277,1.3092354038590448,-0.28167994543938835,-1.3037624487679713
1687005229.736521,0.9517338871955872,0.13827528059482574,-0.27401188015937805,0.04809814691543579,-0.17189036309719086,0.4568273425102234,8.787066459655762,1.5892763137817383,0.2390170693397522,1.2904696081321119,-0.13871975149639648,-1.751735137391929
1687005229.832735,0.973761796951294,0.029763000085949898,-0.22561447322368622,0.09317833185195923,-0.06023478880524635,0.44880467653274536,8.296807289123535,1.7974640130996704,-0.261050283908844,1.3431199370397102,-0.029767395244143544,-2.163428972433641
1687005229.8508859,0.9900275468826294,-0.010195204988121986,-0.1405034065246582,0.11919468641281128,0.004503689706325531,0.36611974239349365,7.204886436462402,1.7300344705581665,-0.979743480682373,1.4298190858633635,0.010195381732715357,-2.546062513961455
1687005229.8886828,0.9979447722434998,0.02125958912074566,-0.0604487843811512,0.1963910460472107,-0.060520466417074203,0.26986026763916016,5.974365711212158,1.41663658618927,-1.6554467678070068,1.510296969323453,-0.021261191545044644,-2.889370701880813
1687005229.980339,0.9941793084144592,0.10663149505853653,-0.015399318188428879,0.217002272605896,-0.10034490376710892,0.10473936796188354,2.8936004638671875,0.8887325525283813,-2.043090581893921,1.555308087667672,-0.10683460617934608,-3.1061896991924787
1687005229.996675,0.9762845635414124,0.21642696857452393,-0.00527923321351409,0.28891319036483765,-0.04853452742099762,-0.0972447395324707,1.508021593093872,0.25720182061195374,-2.3272202014923096,1.565388905777415,-0.21815319923060167,3.0638762046284866
1687005230.039376,0.9446149468421936,0.3280389606952667,-0.009649330750107765,0.23900938034057617,-0.1350916028022766,-0.14389997720718384,-0.5500926375389099,-0.17639966309070587,-2.31479549407959,1.560581587814076,-0.3342269228952256,3.031942934426279
1687005230.164676,0.9000760912895203,0.43544697761535645,-0.015777982771396637,0.20234090089797974,0.036186933517456055,-0.1653134822845459,-0.37036052346229553,-0.6168532371520996,-2.2659285068511963,1.5532685131636608,-0.4505347506142841,3.066754553148072
1687005230.181601,0.8456262946128845,0.5329616665840149,-0.029462747275829315,0.18714964389801025,-0.12227135896682739,-0.33459681272506714,-1.297095537185669,-0.9766517281532288,-2.139169454574585,1.535969082860354,-0.5620969590534346,3.1143799117143893
1687005230.255844,0.7847943305969238,0.6172176003456116,-0.056037645787000656,0.0917009711265564,-0.10362207889556885,-0.15026134252548218,-0.05675166845321655,-1.0209795236587524,-1.979472041130066,1.4995130645945245,-0.6652013843978394,3.1392780588590345
1687005230.26082,0.7176389098167419,0.690161943435669,-0.09311608225107193,0.055233895778656006,-0.0729135274887085,-0.1517266035079956,0.23982174694538116,-0.964409589767456,-1.898536205291748,1.4417638398049584,-0.7617127886053562,3.128671566367872
1687005230.344394,0.6460086703300476,0.7485646605491638,-0.14941085875034332,0.002733945846557617,-0.24244600534439087,0.04206514358520508,0.6584569215774536,-0.8830747604370117,-1.75345778465271,1.3435096856325266,-0.8458947559910401,3.0567275614697365
1687005230.349697,0.5775553584098816,0.7931949496269226,-0.19305798411369324,0.002766847610473633,-0.15501153469085693,-0.03648011386394501,0.7677196264266968,-0.854276180267334,-1.4077597856521606,1.248205258791569,-0.916037748578461,2.989644168690899
1687005230.4333801,0.527508020401001,0.8200117945671082,-0.22207173705101013,0.07907456159591675,-0.4947250485420227,-0.19701099395751953,-0.2934585511684418,-1.1359283924102783,-0.4711393117904663,1.1723332962101496,-0.9614316142862984,2.958234161093883
1687005230.45123,0.5046388506889343,0.8212390542030334,-0.2662818133831024,0.012527227401733398,-0.11291086673736572,-0.07324159145355225,0.9756327867507935,-0.8831616044044495,-0.30066266655921936,1.0852600391186935,-0.9635791707927159,2.914365532508354
1687005230.5591512,0.471201092004776,0.8121859431266785,-0.34398165345191956,-0.2399083971977234,0.2825862765312195,0.1299770474433899,1.6041966676712036,-0.5539822578430176,-0.8621315956115723,0.9402118371815184,-0.9478892762186427,2.7820637708946325
1687005230.5648441,0.4260040521621704,0.8218795657157898,-0.3781990706920624,-0.010537773370742798,-0.33112645149230957,0.3705695867538452,0.12212467193603516,-0.1425551474094391,-0.709280788898468,0.844772220809095,-0.9647026145469444,2.689555945371715
1687005230.673526,0.4096674919128418,0.8179627656936646,-0.40386784076690674,0.02998390793800354,-0.15506011247634888,0.15896421670913696,0.4369354844093323,0.0930619090795517,-0.23427964746952057,0.7925270042286171,-0.9578606938110675,2.623260778785956
1687005230.679023,0.4027334749698639,0.8194836974143982,-0.40774041414260864,-0.000710219144821167,0.16876697540283203,-0.005284607410430908,0.09471487998962402,-0.03143368661403656,-0.17128603160381317,0.7792204540393516,-0.9605095031614493,2.6050862556546615
1687005230.76301,0.3987160325050354,0.8182840943336487,-0.4140489101409912,0.060115694999694824,-0.09698599576950073,0.032533347606658936,0.0383283756673336,-0.06736971437931061,0.05327224358916283,0.7665353258112206,-0.9584194995537235,2.592824799113897
1687005230.780879,0.39917826652526855,0.8192003965377808,-0.41178539395332336,-0.02411729097366333,0.05460929870605469,-0.04639032483100891,-0.05954059958457947,-0.05591612309217453,0.007903429679572582,0.7698535428029393,-0.9600153629879886,2.6006458261944143
1687005230.8835468,0.3990986943244934,0.8180083632469177,-0.4142249822616577,-0.02344265580177307,-0.08050549030303955,0.025186806917190552,0.11733511090278625,-0.023626094684004784,0.04436929523944855,0.7668022125950597,-0.9579399802599015,2.599412986203041
1687005230.901898,0.4005378782749176,0.817984402179718,-0.41288113594055176,0.00537639856338501,0.05786997079849243,-0.001501917839050293,-0.06689005345106125,0.025060884654521942,0.01604631170630455,0.7702248098794343,-0.9578983133523631,2.6038126221550066
1687005230.970036,0.4013632535934448,0.8179088234901428,-0.4122288227081299,0.003940671682357788,0.004890739917755127,0.008481144905090332,-0.018112000077962875,0.01589667983353138,0.01575576141476631,0.7720439016745422,-0.957766959322243,2.6044230122946086
1687005230.984126,0.4023502767086029,0.818281888961792,-0.4105226993560791,0.003625035285949707,0.030839085578918457,-0.01208484172821045,0.00020469003356993198,0.01207903865724802,0.018971793353557587,0.7753447621721166,-0.9584156997189429,2.6075159276575746
1687005231.056911,0.40347692370414734,0.8187975287437439,-0.40838325023651123,0.008510351181030273,0.010136067867279053,0.01876521110534668,-0.08168778568506241,0.010553579777479172,0.011292035691440105,0.7793549126060333,-0.9593132911394116,2.611953649192924
1687005231.060758,0.40368175506591797,0.8206140398979187,-0.4045165777206421,-0.014369040727615356,-0.007152855396270752,-0.001840353012084961,-0.046756695955991745,0.013038575649261475,0.012995659373700619,0.7843652176870299,-0.9624847084322207,2.6179822497351295
1687005231.156539,0.40423256158828735,0.8211484551429749,-0.4028785526752472,-0.01816996932029724,-0.008770644664764404,0.02902287244796753,-0.025877177715301514,0.02845548279583454,-0.0038123484700918198,0.7870757766681556,-0.9634204167481022,2.6197517903399414
1687005231.1619182,0.40411296486854553,0.8216161131858826,-0.4020443260669708,0.0008094608783721924,0.02394956350326538,0.016027390956878662,-0.030801894143223763,0.005793845281004906,-0.00992643367499113,0.7879642329647399,-0.9642403249417058,2.620194241393703
1687005231.244361,0.4035695195198059,0.8238322138786316,-0.39803528785705566,-0.002110809087753296,0.009755313396453857,0.006540417671203613,-0.11684416979551315,0.011580761522054672,-0.008344249799847603,0.7923019751459732,-0.9681389331681858,2.6251826000779075
1687005231.248499,0.40368902683258057,0.8251891732215881,-0.3950923979282379,-0.006991058588027954,-0.0035492777824401855,0.002025902271270752,-0.06352268904447556,-0.03516796976327896,0.02174387499690056,0.7961599511643338,-0.9705370307686779,2.6308575038934934
1687005231.363504,0.4036574363708496,0.8265514969825745,-0.3922666907310486,-0.012971431016921997,-0.019895732402801514,0.013039886951446533,-0.09940066188573837,0.00575922429561615,-0.01295870915055275,0.799708527108742,-0.9729531146297471,2.6356299757105064
1687005231.3807712,0.4030178487300873,0.8284000158309937,-0.38901132345199585,-0.011294275522232056,-0.009598314762115479,0.0013006627559661865,-0.05200578644871712,-0.014287587255239487,-0.0007414575666189194,0.8030807039611799,-0.9762452429086275,2.639945151533737
1687005231.514791,0.402693510055542,0.8287612199783325,-0.3885778784751892,0.00518915057182312,-0.0038559436798095703,-0.004519164562225342,-0.013491282239556313,-0.02388055995106697,-0.00031268876045942307,0.8032354371542967,-0.9768904142071351,2.6409489940182524
1687005231.531395,0.4030393660068512,0.8290907144546509,-0.3875149190425873,-0.004891842603683472,-0.021610915660858154,0.022433042526245117,-0.04244250804185867,-0.0074272844940423965,0.03849649056792259,0.8050330848251608,-0.9774793952115014,2.6448133959809024
1687005231.571841,0.4043617844581604,0.8275865316390991,-0.3893481492996216,0.0024832487106323242,-0.024684429168701172,0.001072913408279419,0.04387134313583374,-0.025052616372704506,0.0376884900033474,0.8043116753965733,-0.974794424014105,2.6449231128837356
1687005231.575501,0.40679189562797546,0.8264546394348145,-0.3892211318016052,-0.0063555240631103516,0.001716017723083496,0.026367008686065674,-0.023901045322418213,0.004165721591562033,0.09585192799568176,0.8074680456922669,-0.9727810511804804,2.6490755058793267
1687005231.579145,0.414676696062088,0.8250719904899597,-0.3837961256504059,-0.0049477219581604,-0.011900722980499268,0.13127833604812622,-0.3259080946445465,-0.025579256936907768,0.3087413012981415,0.8240534530402751,-0.9703295889400403,2.6696846677685353
1687005231.62884,0.43394798040390015,0.8243511915206909,-0.3635024428367615,-0.02662995457649231,-0.07918840646743774,0.1342695653438568,-0.4647354781627655,0.167196586728096,0.5187426805496216,0.8735078770826774,-0.9690551003121437,2.7249688762569932
1687005231.687117,0.46702340245246887,0.8145728707313538,-0.34403491020202637,-0.06852489709854126,-0.1949135661125183,0.2503610849380493,-0.28241661190986633,0.5697615146636963,0.778428316116333,0.9358911623686084,-0.9519924618333241,2.781398098505351
1687005231.8197021,0.5175052881240845,0.8041505813598633,-0.29245495796203613,-0.029544532299041748,-0.43591034412384033,0.18642151355743408,-1.4335002899169922,1.1566447019577026,1.0756871700286865,1.0564153805667371,-0.9342451574822461,2.875285516272573
1687005231.835661,0.5927311182022095,0.7837640047073364,-0.18542833626270294,0.03297072649002075,-0.558056116104126,0.1661868840456009,-1.9296153783798218,1.463642954826355,1.902849793434143,1.2676042901770341,-0.9007034759650854,3.0559123275410305
1687005231.899934,0.6870005130767822,0.7224531173706055,-0.07804816961288452,0.20550119876861572,-0.2307388186454773,-0.33688420057296753,-1.3940507173538208,1.069924235343933,2.5897772312164307,1.4576741884282576,-0.8073437544365659,-3.0656184706940395
1687005231.91467,0.7876887917518616,0.6158047914505005,-0.018184270709753036,0.15712010860443115,-0.23477762937545776,-0.1741681694984436,-0.858160138130188,0.516106128692627,3.2493386268615723,1.547714823490348,-0.6634070116918298,-2.9902567381111758
1687005231.98917,0.8763585090637207,0.4805859625339508,0.03213324770331383,0.24526911973953247,-0.11164382100105286,-0.08213639259338379,-2.0180513858795166,0.12662479281425476,3.178349256515503,1.60744669025495,-0.501322778084395,-2.9146855616825462
1687005231.993253,0.9443395733833313,0.3226029872894287,0.06442101299762726,0.3725091814994812,0.02535843849182129,-0.4350266456604004,-4.022283554077148,-1.3154923915863037,3.3908400535583496,1.6389088537958083,-0.3284782254693294,-2.7620499611285214
1687005232.0842772,0.9862337708473206,0.16273213922977448,0.029348596930503845,0.37466710805892944,0.3222227096557617,0.12470400333404541,-4.436943054199219,-2.1506826877593994,2.599652051925659,1.6005458033717008,-0.16345906835605323,-2.5527254183224226
1687005232.100795,0.9954005479812622,0.07198009639978409,-0.06321663409471512,0.28313320875167847,0.351344496011734,0.15295344591140747,-6.175038814544678,-2.683939218521118,1.154690146446228,1.5073727682518674,-0.07204239493428304,-2.285330941299039
1687005232.136977,0.9795827269554138,0.09657371789216995,-0.17632679641246796,0.10075467824935913,0.29009929299354553,0.3562888503074646,-7.689041614532471,-2.8087284564971924,-0.3564724028110504,1.3927015053567302,-0.09672446563272899,-1.9375286066157953
1687005232.229909,0.9439893960952759,0.22861416637897491,-0.23794856667518616,-0.02609705924987793,0.05573338270187378,0.466525137424469,-8.819585800170898,-2.414539098739624,-1.3068933486938477,1.3238732090772358,-0.2306539143476269,-1.5388775032462627
1687005232.24579,0.8969109654426575,0.3946745991706848,-0.19945542514324188,0.0005345940589904785,-0.016607582569122314,0.3518449068069458,-8.567312240600586,-1.7525242567062378,-1.5011358261108398,1.3519766453023099,-0.4057136746656716,-1.1129615873618433
1687005232.324823,0.8584434986114502,0.5069757699966431,-0.07778250426054001,-0.026641249656677246,0.09811151027679443,0.11573106050491333,-5.992280960083008,-0.7345868945121765,-0.9753074645996094,1.4804343104924633,-0.531672627299005,-0.6983943771555623
1687005232.3291512,0.8439397811889648,0.5363673567771912,0.008692224510014057,0.03432554006576538,0.015695631504058838,-0.16915369033813477,-2.771315336227417,-0.38615819811820984,-0.06647759675979614,1.5810955419505008,-0.5661270054206539,-0.454806456485701
1687005232.380302,0.8516114354133606,0.5226598381996155,0.03980785608291626,0.10877668857574463,0.07435548305511475,-0.21175920963287354,-0.5092089772224426,-0.17930543422698975,0.4950965344905853,1.6175064812809747,-0.5499679055553898,-0.3652058100760872
1687005232.470684,0.8647268414497375,0.5003542900085449,0.04350631684064865,0.051273345947265625,-0.0350375771522522,-0.08392691612243652,-0.594192624092102,-0.203770712018013,0.4475710988044739,1.6210661507085002,-0.5240079404602392,-0.3365110281616549
1687005232.4902391,0.8729528784751892,0.485782265663147,0.04437104985117912,0.02406543493270874,0.02720293402671814,-0.1383957862854004,-0.04173683375120163,-0.037707824259996414,0.2042204737663269,1.6215813093745022,-0.5072579081330001,-0.3237766072509982
1687005232.529091,0.8753904104232788,0.4805189073085785,0.05284985527396202,-0.004067838191986084,-0.04242384433746338,-0.10917007923126221,-0.5299465656280518,0.03706081956624985,0.030276376754045486,1.6310960325664625,-0.5012463265515686,-0.3058367084618828
1687005232.591083,0.8751168847084045,0.47968626022338867,0.06380729377269745,0.03223162889480591,-0.010005474090576172,-0.06353271007537842,-0.24630148708820343,0.010209765285253525,-0.025281155481934547,1.643580411951387,-0.5002971056098882,-0.28100711227028147
1687005232.685141,0.874853789806366,0.47990262508392334,0.06575769186019897,0.05581015348434448,-0.06613004207611084,-0.06653594970703125,-0.14478477835655212,-0.027190469205379486,-0.014188290573656559,1.6458194635498278,-0.5005437098337177,-0.27441160386027535
1687005232.702847,0.8739242553710938,0.4811287224292755,0.06907559931278229,0.0294569730758667,-0.0392342209815979,-0.08019924908876419,0.008127660490572453,0.010773424059152603,-0.041283559054136276,1.6496730562225022,-0.5019417886668885,-0.2669811476879914
1687005232.740787,0.8751018643379211,0.4796949028968811,0.06394738703966141,0.012013494968414307,-0.07150709629058838,-0.03393340855836868,0.025787681341171265,-0.07506810873746872,0.06372195482254028,1.64374089448276,-0.5003069791634376,-0.2724925133371055
1687005232.832868,0.8776289820671082,0.47577592730522156,0.058348096907138824,0.00446629524230957,-0.03626176714897156,-0.03211832046508789,-0.021367648616433144,-0.09906759113073349,0.06505060940980911,1.637182417511422,-0.49584597513608397,-0.2732248701610367
1687005232.849468,0.8804956674575806,0.4711150825023651,0.052701886743307114,0.004742741584777832,-0.011108428239822388,-0.014127738773822784,0.06499680131673813,-0.09297934174537659,0.10426671802997589,1.630579793491938,-0.49055451205301404,-0.27475457990417096
1687005232.960287,0.8839358687400818,0.46535441279411316,0.04585219919681549,0.002492845058441162,-0.013099223375320435,-0.0010981597006320953,0.0027524027973413467,-0.12431421875953674,0.1226515918970108,1.6226226451860688,-0.48403499010851986,-0.27892374215015736
1687005232.965075,0.8868319988250732,0.46038898825645447,0.039632778614759445,-0.0032719969749450684,0.029723286628723145,-0.013067368417978287,0.04967530071735382,-0.12771162390708923,0.10490108281373978,1.6154569002816033,-0.4784333434047559,-0.28112267811567443
1687005233.043822,0.8893756866455078,0.45581719279289246,0.035236574709415436,-0.0022296905517578125,0.04383191466331482,0.004039529711008072,-0.06945741176605225,-0.14321614801883698,0.09377146512269974,1.6103950646353637,-0.4732901031010527,-0.27873109929169143
1687005233.048985,0.8912649154663086,0.45246487855911255,0.030367303639650345,-0.008498311042785645,0.05362337827682495,0.015622615814208984,0.01080926414579153,-0.1223679855465889,0.06807009875774384,1.6048552929907873,-0.4695273882981852,-0.27653462890153413
1687005233.1339579,0.8918620347976685,0.45155471563339233,0.026086458936333656,-0.010316014289855957,0.03405630588531494,0.022039655596017838,0.0059390077367424965,-0.08178407698869705,0.00999614130705595,1.600037422900186,-0.46850705005275545,-0.27660438438906765
1687005233.153002,0.8914429545402527,0.4524816572666168,0.024285128340125084,-0.006082296371459961,0.02717837691307068,0.046286702156066895,-0.10547300428152084,-0.07081557810306549,-0.025164509192109108,1.5980320840330804,-0.46954620991846674,-0.2735248538705269
1687005233.2203798,0.8905594944953918,0.45426803827285767,0.023326093330979347,-0.0017504096031188965,0.032334744930267334,0.02121424674987793,0.06040351465344429,-0.028853081166744232,-0.024541329592466354,1.5969829662734731,-0.47155039848357744,-0.2714957617526151
1687005233.235431,0.8893281817436218,0.4566453695297241,0.02388329803943634,-0.005066096782684326,-0.012263625860214233,0.04879427328705788,-0.0440300814807415,0.020399419590830803,-0.0564233623445034,1.5976453129565784,-0.47422080488305196,-0.271857513109964
1687005233.278126,0.8879119157791138,0.45930781960487366,0.025463759899139404,-0.007022202014923096,-0.0004455745220184326,0.011172531172633171,0.09530497342348099,0.04073092341423035,-0.040744535624980927,1.5994667172806192,-0.47721581153720577,-0.27255285649105704
1687005233.34303,0.8869912028312683,0.4609725773334503,0.027399998158216476,-7.414817810058594e-05,-0.030583173036575317,0.007252693176269531,0.04778333008289337,0.07313214242458344,-0.041509129106998444,1.6016774534922178,-0.4790908490901593,-0.2770593933567864
1687005233.4309568,0.8863428831100464,0.4620239734649658,0.030501222237944603,0.0011999011039733887,0.0016906559467315674,0.0030680932104587555,0.07952507585287094,0.06542348116636276,-0.0073671359568834305,1.6051951945526413,-0.48027601495507355,-0.27829535384839216
1687005233.449357,0.8866699934005737,0.4614914357662201,0.029017487540841103,-0.0008210539817810059,-0.011738628149032593,-0.01681053638458252,0.26814472675323486,0.057418692857027054,0.028636671602725983,1.6035110191899251,-0.47967561597171987,-0.28959466677001827
1687005233.4874659,0.8871445655822754,0.46063870191574097,0.028040438890457153,0.0008099675178527832,-0.007681608200073242,0.002644892781972885,0.015569997020065784,0.050550397485494614,0.0008212849497795105,1.6023933254001081,-0.47871464267478947,-0.2972813296555406
1687005233.583496,0.8864156007766724,0.4619457721710205,0.029552320018410683,-0.007158458232879639,0.029234617948532104,-0.007167696952819824,0.13393811881542206,0.09510069340467453,-0.050415802747011185,1.6041231084210372,-0.48018784276605203,-0.30053438347533407
1687005233.599622,0.8852300047874451,0.4641510844230652,0.030521554872393608,0.007607460021972656,0.023077309131622314,-0.010181665420532227,0.17034173011779785,0.09967320412397385,-0.05789662525057793,1.6052613476563133,-0.4826759504663201,-0.30896985171690466
1687005233.640176,0.8836244940757751,0.4671804904937744,0.03082338720560074,-0.0030092597007751465,-0.0027181804180145264,-0.009140726178884506,0.04818153753876686,0.05947904288768768,-0.039219874888658524,1.6056650908371055,-0.48609918042299616,-0.3166032604452595
1687005233.763653,0.8839839100837708,0.4665800929069519,0.029587624594569206,0.011523842811584473,0.004489243030548096,-0.040696024894714355,0.05075288563966751,-0.06610884517431259,0.0750984475016594,1.6042546106648536,-0.4854202236362493,-0.31900934867549935
1687005233.7802792,0.8861901760101318,0.4627201557159424,0.023603182286024094,0.007700204849243164,0.0015743076801300049,-0.019208665937185287,-0.02618277445435524,-0.1234096810221672,0.0679934024810791,1.5974244754389961,-0.481061171450912,-0.3205287205809267
1687005233.85111,0.8861194252967834,0.46308189630508423,0.018633075058460236,-0.012920141220092773,0.021766096353530884,0.009244678542017937,0.2020423412322998,0.0518629364669323,-0.08774426579475403,1.591820953136024,-0.48146925461551926,-0.3245055965137836
1687005233.866243,0.8820558786392212,0.47092315554618835,0.014445987530052662,0.009896516799926758,0.13671231269836426,-0.020900487899780273,1.1492831707000732,0.3075427711009979,-0.22296041250228882,1.5871724954872344,-0.4903369569922701,-0.3522864617010253
1687005233.9386559,0.8778119087219238,0.47830742597579956,-0.025846343487501144,-0.005009293556213379,0.19556647539138794,-0.07406824827194214,4.17855978012085,0.7749103903770447,-0.13065072894096375,1.5413607728140672,-0.4987263655558974,-0.506827050080522
1687005233.942456,0.8770781755447388,0.47201433777809143,-0.08908551186323166,0.00927424430847168,-0.04301348328590393,0.08403480052947998,4.09276008605957,0.9688489437103271,-0.14022770524024963,1.4695726923175791,-0.4915742675770409,-0.7478331151449713
1687005233.999322,0.880908727645874,0.44660916924476624,-0.1566525101661682,0.031978726387023926,0.19030797481536865,0.0002803802490234375,6.489717960357666,1.2929964065551758,-0.11913947016000748,1.3948055094891851,-0.4629719415061786,-1.0317361296840843
1687005234.014365,0.897747278213501,0.3623347580432892,-0.25052568316459656,0.03493082523345947,0.21650740504264832,0.41731947660446167,9.965624809265137,2.0604941844940186,0.11474865674972534,1.2986591436695114,-0.3707716626224552,-1.4694402907885649
1687005234.058578,0.9319074749946594,0.2112417072057724,-0.2948305606842041,0.13307952880859375,0.0875711739063263,0.6494143009185791,11.418968200683594,2.672400712966919,-0.2514093816280365,1.2643867386833862,-0.21284515703114226,-2.006533971337229
1687005234.1202931,0.9638233184814453,0.07513751834630966,-0.2557316720485687,0.13010960817337036,0.11036358028650284,0.7990512847900391,11.317252159118652,2.437711715698242,-1.0324596166610718,1.3114418437636155,-0.07520839622026504,-2.57629522970742
1687005234.178735,0.982489287853241,0.038764115422964096,-0.1822415143251419,0.3568660616874695,-0.2059394270181656,0.6706294417381287,7.553100109100342,1.4364542961120605,-2.305269479751587,1.387391240078548,-0.03877383001602143,-3.1043501909130087
1687005234.273841,0.9784954786300659,0.13268324732780457,-0.15792930126190186,0.35733509063720703,-0.11931660771369934,0.142807736992836,1.9889801740646362,0.22067245841026306,-2.8858420848846436,1.410776170184051,-0.1330756685153016,2.933678173622483
1687005234.280016,0.9465011954307556,0.26744869351387024,-0.1805727332830429,0.32840102910995483,-0.036278098821640015,-0.38259875774383545,-0.01430734246969223,-0.695429801940918,-3.0458285808563232,1.382282444366979,-0.2707442922242271,2.8525733087788456
1687005234.394737,0.8853123784065247,0.4217328727245331,-0.19586580991744995,0.13760632276535034,0.10347464680671692,-0.2595328986644745,-1.4937416315078735,-0.9596012830734253,-3.0853848457336426,1.3530643363492554,-0.43535560975547405,2.8880063741201436
1687005234.400662,0.8006434440612793,0.556618332862854,-0.22168897092342377,0.11102336645126343,-0.14872044324874878,-0.1833709478378296,-1.0416009426116943,-1.2254443168640137,-2.8235206604003906,1.3006752359725342,-0.5903096836259649,2.896624022065552
1687005234.4839,0.7032214403152466,0.6756474375724792,-0.22131390869617462,0.16135668754577637,0.0257379412651062,-0.43165555596351624,-0.56931072473526,-1.2738628387451172,-2.495596408843994,1.265895356741387,-0.7418425439854855,2.938769677434919
1687005234.501449,0.6062417030334473,0.7518667578697205,-0.259166419506073,0.06635040044784546,-0.619268000125885,-0.05322688817977905,-0.60177081823349,-1.1998251676559448,-2.074249505996704,1.1668127078853838,-0.8508888985077901,2.886863586853107
1687005234.537013,0.5211082696914673,0.807183563709259,-0.2773098647594452,0.03646308183670044,-0.3756956458091736,-0.18912088871002197,0.7435493469238281,-0.9397751092910767,-1.5657941102981567,1.081757602467385,-0.9393652424378456,2.8478820820652087
1687005234.6315799,0.467827707529068,0.8317683339118958,-0.298828661441803,0.17461305856704712,-0.7716488242149353,-0.3323665261268616,-0.13494354486465454,-1.1667708158493042,-0.32318687438964844,1.0023647534670832,-0.9822856475891253,2.8163712537343786
1687005234.650895,0.44490814208984375,0.805168092250824,-0.3921236991882324,-0.057975828647613525,-0.23772436380386353,0.7896302938461304,1.9280104637145996,-0.039711322635412216,-0.5031851530075073,0.8483762341309203,-0.9359588991137169,2.6664027594823176
1687005234.721204,0.42685770988464355,0.8165612816810608,-0.38861268758773804,-0.023369640111923218,0.2563602328300476,0.09115779399871826,-0.16482967138290405,0.4693259298801422,-0.6012265086174011,0.8322631740691191,-0.9554287216745649,2.622480810215555
1687005234.81455,0.4153939187526703,0.8238361477851868,-0.38567057251930237,0.0027121305465698242,-0.07368367910385132,-0.026011645793914795,0.14279505610466003,0.07265277206897736,-0.2116962969303131,0.8224859545833868,-0.9681458507504107,2.5952581027403916
1687005234.83146,0.41094306111335754,0.8253854513168335,-0.38712358474731445,0.004157066345214844,0.005867600440979004,0.017250418663024902,0.030806073918938637,-0.03330402076244354,-0.040492597967386246,0.8152357636207495,-0.9708845806311138,2.5858969589606318
1687005234.8985372,0.40817520022392273,0.8250059485435486,-0.39084285497665405,-0.03329730033874512,0.005514562129974365,0.0426982045173645,0.022009387612342834,-0.06302143633365631,-0.038568995893001556,0.8070868247663264,-0.9702127122615419,2.579922709258126
1687005234.914197,0.40605708956718445,0.8263604640960693,-0.39018720388412476,-0.021322011947631836,-0.024450182914733887,-0.032069385051727295,0.019518598914146423,-0.059696879237890244,-0.010607138276100159,0.8053264275583326,-0.9726137797836301,2.581031740952715
1687005235.022071,0.4048245847225189,0.8257511258125305,-0.39274927973747253,0.008032411336898804,-0.0015172958374023438,-0.003933578729629517,-0.001019032672047615,-0.04455947130918503,-0.01928132027387619,0.80053708529788,-0.9715326500987933,2.57842692648963
1687005235.0388598,0.40273186564445496,0.826525092124939,-0.39327260851860046,-0.0016241371631622314,0.00713878870010376,0.0214310884475708,0.005076343659311533,-0.03497488796710968,-0.005731422454118729,0.7972810255047508,-0.9729061394153595,2.5778974010439613
1687005235.10741,0.40231552720069885,0.826772928237915,-0.39317768812179565,-0.01042407751083374,-0.016424477100372314,-0.010737836360931396,-0.09924373775720596,-0.03701207414269447,-0.024200178682804108,0.7968846796703388,-0.9733465764082058,2.578958138989563
1687005235.111289,0.4016581177711487,0.8274787068367004,-0.3923642635345459,-0.0032969415187835693,0.01566082239151001,0.0032497644424438477,0.04942589998245239,-0.01511849369853735,-0.0009137643501162529,0.7971024374933346,-0.9746024277446343,2.580622718696105
1687005235.234313,0.40067097544670105,0.8278908729553223,-0.39250433444976807,0.019525587558746338,-0.00942462682723999,-0.00723034143447876,-0.05621997267007828,-0.022828612476587296,-0.0076409089379012585,0.795693949129707,-0.9753368039283501,2.580178476404997
1687005235.251534,0.40052366256713867,0.8284183144569397,-0.3915402293205261,-0.0038256943225860596,-0.004901587963104248,0.004195749759674072,0.017107905820012093,0.001727864146232605,0.011470467783510685,0.7967394766761204,-0.9762779068145712,2.5824604331418852
1687005235.353588,0.4011112451553345,0.8281626105308533,-0.39147958159446716,0.003902733325958252,0.020714163780212402,-0.005660980939865112,0.026887167245149612,-0.0014668639050796628,0.015402092598378658,0.7975496735948192,-0.9758215540166896,2.5838981785850845
1687005235.371052,0.4011780321598053,0.8272395133972168,-0.39335840940475464,-0.0029999911785125732,-0.013610541820526123,0.014207929372787476,0.027897968888282776,0.009348233230412006,-0.01849595457315445,0.795239570537336,-0.9741765350564808,2.580817612335906
1687005235.410756,0.4005804657936096,0.8269284963607788,-0.39461931586265564,-0.009360402822494507,-0.0002684593200683594,0.0067713260650634766,0.06145260110497475,-0.011052912101149559,0.010288822464644909,0.7928944552906826,-0.9736231895077663,2.5780731341497836
1687005235.414332,0.4013136029243469,0.8260753154754639,-0.3956601023674011,0.009300380945205688,-0.006205379962921143,0.026885569095611572,-0.04289151355624199,-0.011876627802848816,0.03343675285577774,0.7924917693469111,-0.9721076022176678,2.5786083183906743
1687005235.418064,0.40238964557647705,0.826455295085907,-0.39376890659332275,0.010818272829055786,0.02551901340484619,-0.002685040235519409,-0.012906918302178383,-0.004931237082928419,0.021316707134246826,0.7962256828552446,-0.97278218515317,2.583505957638981
1687005235.4653568,0.40378856658935547,0.8269135355949402,-0.39136797189712524,0.00041678547859191895,0.008718788623809814,-0.005223333835601807,-0.04943849518895149,-0.011668102815747261,0.025883495807647705,0.8010171874475932,-0.9735966005508829,2.5892646606931433
1687005235.531012,0.40417367219924927,0.8273064494132996,-0.3901381194591522,-0.00324895977973938,0.01095038652420044,0.011201202869415283,-0.015398172661662102,-0.020497679710388184,0.021999541670084,0.8030663969943976,-0.9742956998744994,2.59291526103417
1687005235.656899,0.4051700830459595,0.8280963897705078,-0.38741907477378845,0.0025905072689056396,-0.016588330268859863,0.02522110939025879,-0.16181477904319763,-0.046625152230262756,0.05593913421034813,0.8077906284583386,-0.9757033878025235,2.5998383895085766
1687005235.745697,0.40772661566734314,0.8291707038879395,-0.38240671157836914,-0.009960561990737915,-0.004402756690979004,0.05917966365814209,-0.23255838453769684,-0.05768220126628876,0.15667186677455902,0.8174323287518149,-0.9776225292206767,2.6137425137885892
1687005235.751266,0.4189580976963043,0.8315346837043762,-0.36472469568252563,-0.003735959529876709,-0.01714271306991577,0.16692489385604858,-0.7291006445884705,-0.03025829792022705,0.44596704840660095,0.8544912621536995,-0.9818648125561853,2.6622972886474594
1687005235.755732,0.44510263204574585,0.8339539170265198,-0.32619673013687134,0.050212860107421875,-0.1649477481842041,0.08553501963615417,-1.2043730020523071,0.1440538465976715,0.6841958165168762,0.9383571022621177,-0.9862344149640508,2.7574100771680308
1687005235.830786,0.48371660709381104,0.8371246457099915,-0.2554219961166382,-0.06277245283126831,-0.469113290309906,-0.05146288871765137,-2.0569281578063965,0.21496917307376862,1.0371246337890625,1.084968704726158,-0.9920054573088489,2.9218877916354007
1687005235.834847,0.544877290725708,0.8245536684989929,-0.15238121151924133,-0.149888277053833,-0.6683037281036377,-0.0809258222579956,-2.4049417972564697,0.32564228773117065,1.8354496955871582,1.2981015096549537,-0.9694128379493978,-3.1217751549921813
1687005235.923876,0.6390647292137146,0.7650982737541199,-0.07887137681245804,-0.052898406982421875,-0.3531568646430969,0.05827188491821289,-0.2898542284965515,0.7623446583747864,2.7307591438293457,1.4480003945568978,-0.8711939709814989,-2.9662119455230394
1687005235.929449,0.7517650127410889,0.6571308374404907,-0.05503031983971596,0.13452643156051636,-0.272166907787323,-0.11084812879562378,0.6775980591773987,1.1324522495269775,3.371840715408325,1.4977251644896608,-0.7170060514136121,-2.9687605422277943
1687005235.980582,0.8566438555717468,0.5141749382019043,-0.04225354269146919,0.3176572918891907,0.1461338996887207,-0.25581175088882446,1.5893571376800537,0.9920084476470947,3.448298215866089,1.521511755569661,-0.5400454378296898,-3.024823887594303
1687005236.045023,0.9312716126441956,0.3613618016242981,-0.046378202736377716,0.4213132858276367,-0.07429823279380798,-0.20851999521255493,0.5902801752090454,0.24775028228759766,3.2849011421203613,1.5210364941568455,-0.3697279821461285,-3.0980150699779787
1687005236.132581,0.9768240451812744,0.20994099974632263,-0.041705694049596786,0.38110125064849854,-0.1347304880619049,-0.26932960748672485,-3.3306784629821777,-0.9041659832000732,3.1161181926727295,1.5281270448754654,-0.21151462110787425,-3.019653187355894
1687005236.151081,0.9922021627426147,0.08140558004379272,-0.09438148140907288,0.4001469612121582,0.24357610940933228,-0.07276344299316406,-5.686880588531494,-2.373408317565918,2.5646698474884033,1.4759584496150189,-0.08149575825294797,-2.771907697241845
1687005236.220549,0.9770199656486511,0.031228749081492424,-0.21084770560264587,0.1515200138092041,0.12686756253242493,0.46254128217697144,-7.361421585083008,-2.7697274684906006,1.3774172067642212,1.3582489861549718,-0.031233826486386958,-2.43908502607362
1687005236.2359262,0.9416531324386597,0.11943068355321884,-0.31468331813812256,0.05955219268798828,0.11192310601472855,0.6693432331085205,-10.189515113830566,-2.673666477203369,-0.11157822608947754,1.2482823854072402,-0.11971644283584526,-2.008434282455431
1687005236.277122,0.8909371495246887,0.3226013481616974,-0.3196239173412323,0.04699009656906128,0.274688720703125,0.6462992429733276,-10.257828712463379,-2.3422322273254395,-1.1382113695144653,1.2263475490887132,-0.3284764874923808,-1.5158524814364296
1687005236.369879,0.8371745944023132,0.5077009797096252,-0.20341645181179047,0.05367916822433472,0.039174020290374756,0.3660750985145569,-8.84376335144043,-1.553762674331665,-1.2485342025756836,1.332435815449223,-0.532514157074556,-1.0315471214429264
1687005236.385607,0.8035910129547119,0.594148576259613,-0.03505193442106247,-0.027483463287353516,-0.05932807922363281,0.06321960687637329,-6.519455432891846,-0.7543138265609741,-0.6026422381401062,1.5272048357808903,-0.6362066816102562,-0.5816591173706278
1687005236.459995,0.7963698506355286,0.5973237156867981,0.09486531466245651,0.01284945011138916,0.057873427867889404,-0.11183309555053711,-3.254621744155884,-0.2383844554424286,0.14498299360275269,1.689359813929273,-0.6401599181987806,-0.27090209418373906
1687005236.584707,0.811167299747467,0.5694599151611328,0.1331264227628708,0.15753668546676636,-0.005998671054840088,-0.29537320137023926,-0.8212504982948303,-0.33376598358154297,0.666189968585968,1.7334633154986736,-0.6058486613586136,-0.1749788117993019
1687005236.602699,0.8327142596244812,0.5340535044670105,0.1461970955133438,0.04985398054122925,0.04455971717834473,-0.15042388439178467,-0.7705774903297424,-0.2922789752483368,0.6353675723075867,1.7445920301078857,-0.5633878445894492,-0.1259301137832649
1687005236.670028,0.849044144153595,0.5071409344673157,0.14809338748455048,0.0019688010215759277,0.072662353515625,-0.14003685116767883,-0.31233689188957214,-0.24045027792453766,0.4883107841014862,1.7434827219731666,-0.5318642567208196,-0.10251192398497576
1687005236.68537,0.8607079386711121,0.48754215240478516,0.14657597243785858,0.02915412187576294,0.11606505513191223,-0.06642161309719086,-0.005261448211967945,-0.09406177699565887,0.3140431046485901,1.7394751266268065,-0.5092724624541626,-0.09252157480453933
1687005236.824074,0.8654778599739075,0.4813772141933441,0.13865089416503906,0.01730412244796753,0.04804176092147827,-0.07100866734981537,0.37996771931648254,0.04497946426272392,0.08831917494535446,1.7296481017928633,-0.5022252750496523,-0.1114824540600192
1687005236.8430738,0.865608811378479,0.4808404743671417,0.13969126343727112,-0.015373945236206055,0.009409159421920776,-0.008542060852050781,-0.219681054353714,0.018098315224051476,-0.04020844027400017,1.7307960789431693,-0.5016130093766442,-0.11326286903719479
1687005236.879743,0.8647934794425964,0.48172110319137573,0.1416931301355362,-0.007234394550323486,0.05137518048286438,-0.05198681354522705,0.09744122624397278,-0.04889456555247307,-0.0074193342588841915,1.733199534626093,-0.5026176704487255,-0.10790195429320852
1687005236.8829079,0.8656346797943115,0.4815833866596222,0.1369442641735077,0.01113516092300415,0.004195362329483032,-0.001995578408241272,-0.05590059235692024,-0.1142318919301033,0.02320435270667076,1.7276969956003125,-0.502460504415571,-0.11017917709070585
1687005236.885617,0.8664174675941467,0.4821701645851135,0.12974022328853607,0.013175368309020996,0.021613985300064087,0.0021718740463256836,0.18001966178417206,-0.0972830057144165,0.017384547740221024,1.71943522512616,-0.5031301690050289,-0.11389567208532175
1687005236.9659681,0.8669827580451965,0.48303017020225525,0.12256677448749542,-0.0001615285873413086,-0.014310717582702637,0.035331130027770996,0.014313584193587303,-0.06545569747686386,-0.022142354398965836,1.711237291352829,-0.5041120836235261,-0.1221138400558348
1687005236.981896,0.866158127784729,0.48502108454704285,0.12051728367805481,-0.007515668869018555,0.016413241624832153,0.020138144493103027,0.017771832644939423,-0.0747368186712265,-0.03727683052420616,1.7090487441915676,-0.506387267502755,-0.12006574884157806
1687005237.0288239,0.8661719560623169,0.4856248199939728,0.11795956641435623,0.006203413009643555,-0.01991131901741028,0.02538144588470459,-0.030630655586719513,-0.06543000042438507,-0.017440009862184525,1.7061485979282593,-0.5070777721381987,-0.12002627231206058
1687005237.121588,0.8654754757881165,0.4871472418308258,0.11678897589445114,-0.006848275661468506,0.011876165866851807,0.03602778911590576,0.11924499273300171,0.009847177192568779,-0.037359390407800674,1.7049280750654632,-0.5088202107956908,-0.12140911981871082
1687005237.1377091,0.8648141026496887,0.488495409488678,0.11605504155158997,0.0054555535316467285,-0.010910570621490479,0.005526900291442871,0.05270132049918175,-0.00032037292839959264,-0.016667161136865616,1.7041958751835837,-0.5103645747561314,-0.12585380796445908
1687005237.18012,0.8642518520355225,0.48950546979904175,0.11598624289035797,-0.006921708583831787,0.007198542356491089,0.004481777548789978,0.11665140837430954,0.017000027000904083,-0.016581406816840172,1.7042034296052333,-0.5115225347871567,-0.1287345510897933
1687005237.273687,0.8639070391654968,0.4907512664794922,0.1132584661245346,-0.0021519064903259277,-0.005598187446594238,-0.0030137524008750916,0.17523843050003052,0.02510562352836132,-0.006998554803431034,1.7011531891034908,-0.5129517953818424,-0.13841813251539645
1687005237.291472,0.8635281920433044,0.49187636375427246,0.11124983429908752,-0.0005828142166137695,-0.012841969728469849,-0.026685714721679688,0.054007068276405334,-0.016612261533737183,-0.0020653149113059044,1.6989223017858808,-0.5142435528800979,-0.14417688666463838
1687005237.3599901,0.8636853098869324,0.49201977252960205,0.10938107967376709,-0.0047681331634521484,0.0062712132930755615,0.00026857852935791016,0.04765702784061432,-0.0063617536798119545,-0.0036083506420254707,1.6967702932835262,-0.5144082668760828,-0.1464053636759412
1687005237.455689,0.863366425037384,0.4930305480957031,0.10732845216989517,-0.002251863479614258,-0.005954712629318237,-0.014738187193870544,0.0784435048699379,0.006466027349233627,-0.015812553465366364,1.6944757235895127,-0.5155696833200444,-0.151128391753627
1687005237.473186,0.8630975484848022,0.4936380088329315,0.10669488459825516,0.00041240453720092773,-0.01736551523208618,-0.00348450243473053,-0.006332238670438528,-0.011573693715035915,-0.006773251108825207,1.6937909188176425,-0.5162680425264494,-0.1521563535471166
1687005237.5370688,0.863199770450592,0.493823379278183,0.10499831289052963,-0.00022369623184204102,0.0013853907585144043,-0.009051069617271423,0.12088729441165924,0.005740715190768242,0.007977998815476894,1.6918401633825386,-0.5164812094986418,-0.15524893609329643
1687005237.5525188,0.8635135889053345,0.4938347637653351,0.10232973843812943,0.0034754276275634766,-0.02055293321609497,0.003230571746826172,0.07404215633869171,0.004352409392595291,0.019320398569107056,1.6887501442098123,-0.5164942821362767,-0.1623344399508714
1687005237.630867,0.8641564249992371,0.49271827936172485,0.10228365659713745,0.002206861972808838,0.003634810447692871,-0.00452066957950592,8.870894089341164e-05,0.00047671108040958643,0.030625786632299423,1.6886106166305348,-0.5152107695215277,-0.16251571572756324
1687005237.634863,0.865032970905304,0.49124833941459656,0.10194581747055054,0.0014067888259887695,-0.008048295974731445,0.0003490447998046875,0.049496009945869446,0.021918220445513725,0.025758858770132065,1.6881071535246766,-0.513522376204719,-0.16453806448692238
1687005237.723578,0.8654464483261108,0.4905660152435303,0.10172298550605774,0.00035250186920166016,0.009952843189239502,0.0015026479959487915,0.0388861708343029,0.018519626930356026,0.020521484315395355,1.6877976653746583,-0.5127391772475066,-0.16731555210430332
1687005237.74128,0.8655532002449036,0.4903854429721832,0.10168469697237015,-0.0017226934432983398,-0.0022262930870056152,-0.0018464326858520508,0.0142307598143816,0.01757074147462845,0.0023086601868271828,1.6877397242140162,-0.5125319813561927,-0.16933444886544255
1687005237.779234,0.8656333684921265,0.4899892508983612,0.10290408879518509,-0.0014519691467285156,0.010910987854003906,-0.004332423210144043,-0.046504758298397064,0.0036251002456992865,0.00819397997111082,1.6891182625260865,-0.5120774327429451,-0.1675763574695444
1687005237.874055,0.8655707240104675,0.49025046825408936,0.10218366235494614,-0.00416642427444458,0.01612764596939087,-0.0010790899395942688,0.11539792269468307,0.024672728031873703,-0.013427691534161568,1.6883059545504122,-0.5123770999734165,-0.1702288966681221
1687005237.962103,0.864739179611206,0.49232017993927,0.09923191368579865,0.0001595020294189453,0.027455240488052368,-0.03483985364437103,0.3574363887310028,0.056101225316524506,-0.014682573266327381,1.6850501422830468,-0.5147533533078192,-0.18081586170205888
1687005237.968083,0.8641152381896973,0.49573346972465515,0.08690904080867767,-0.006723880767822266,0.028604328632354736,-0.04519151896238327,0.810174822807312,0.06421613693237305,-0.00791015475988388,1.671034998826563,-0.5186791746866041,-0.21475873213871743
1687005238.083744,0.8637476563453674,0.5004664063453674,0.058933038264513016,0.010290861129760742,0.1400669813156128,-0.06523501873016357,2.3289880752563477,0.2485043704509735,0.03126414492726326,1.6389202068762725,-0.5241374109113527,-0.2917764577832244
1687005238.101659,0.8651394248008728,0.5005282759666443,-0.03169923275709152,-0.025936782360076904,0.32430076599121094,0.010596219450235367,7.067549228668213,0.9526255130767822,0.08929549157619476,1.5341721069051562,-0.5242088497344491,-0.5547310831876054
1687005238.169959,0.8761664032936096,0.4419528841972351,-0.19238024950027466,-0.02054506540298462,0.18989837169647217,0.37360879778862,11.17868709564209,1.9117573499679565,0.11662352085113525,1.3546557740537326,-0.45777455228683483,-1.0806277279451377
1687005238.18483,0.907191812992096,0.27986466884613037,-0.3141316771507263,0.0945475697517395,0.03864729404449463,0.7627400159835815,12.848888397216797,2.530364513397217,-0.05063098669052124,1.2374498894500094,-0.2836531445623093,-1.7083844448914776
1687005238.187912,0.9454856514930725,0.08871938288211823,-0.31334590911865234,0.20195990800857544,-0.13113880157470703,0.8744114637374878,11.710489273071289,2.334583044052124,-0.4732472002506256,1.2507753689035916,-0.08883618760735476,-2.317827195847561
1687005238.229254,0.9741086363792419,-0.013703382574021816,-0.22566430270671844,0.1363953948020935,-0.2173757255077362,0.6319141983985901,8.133639335632324,1.9181287288665771,-1.132707118988037,1.343149682151709,0.013703811904626566,-2.815257718247858
1687005238.320884,0.9892210960388184,0.009407240897417068,-0.1461271196603775,0.30737924575805664,-0.09297965466976166,0.21003077924251556,3.6339001655578613,1.111161708831787,-2.0525851249694824,1.4241375626309773,-0.00940737921393138,-3.1219597316306174
1687005238.3368669,0.9863939881324768,0.12044129520654678,-0.11189543455839157,0.39593011140823364,0.18856440484523773,-0.15000653266906738,0.9277662634849548,0.446918249130249,-2.810091733932495,1.4578403131813589,-0.12073440312999498,3.051297019672201
1687005238.379475,0.9578490257263184,0.26612815260887146,-0.10817109048366547,0.3246978521347046,0.16477999091148376,-0.2250962257385254,-0.16202117502689362,-0.15860813856124878,-3.169928789138794,1.4583415245235778,-0.26937410118597915,3.01448444358591
1687005238.565532,0.9010336995124817,0.4186502993106842,-0.1134452298283577,0.2233709692955017,0.08296695351600647,-0.38911834359169006,-0.7443453669548035,-0.6312336325645447,-3.1207823753356934,1.4455497237345591,-0.4319586130393268,3.0317146579685277
1687005238.5712662,0.8232338428497314,0.5520347952842712,-0.13245081901550293,0.09787803888320923,-0.17071783542633057,-0.3525804281234741,-0.7682857513427734,-1.0218276977539062,-2.8228759765625,1.4112725386502991,-0.5848026300445142,3.046577323455547
1687005238.622219,0.7335156202316284,0.6585729122161865,-0.16803710162639618,0.1582995057106018,-0.2285192608833313,-0.22260326147079468,-0.2481091022491455,-1.2711619138717651,-2.5909321308135986,1.3455975664895163,-0.7189207471226065,3.036603390468372
1687005238.6259642,0.6333341002464294,0.7481748461723328,-0.19779348373413086,0.11025714874267578,-0.22176200151443481,-0.11476767063140869,-0.05957328900694847,-1.1686336994171143,-2.390185594558716,1.268089017273712,-0.8453070247369284,3.014902616851966
1687005238.629311,0.5374215245246887,0.8074811697006226,-0.2432122826576233,-0.028907179832458496,-0.5041670799255371,0.04225391149520874,0.24845930933952332,-0.9450446963310242,-1.9824990034103394,1.1458204978299822,-0.9398696043886045,2.9272717962276538
1687005238.679205,0.4651249349117279,0.8504378199577332,-0.24579304456710815,0.3271265923976898,-1.060337781906128,-0.3255571722984314,-1.0648515224456787,-1.3038665056228638,-0.5405147075653076,1.0846523519340654,-1.0168169274973133,2.91190523286572
1687005238.863692,0.44012904167175293,0.8419469594955444,-0.31210818886756897,-0.2025955319404602,0.10168689489364624,0.6188250780105591,2.698639392852783,-0.2530684769153595,-0.192388653755188,0.9539698492552192,-1.0008815764203212,2.8138828853420814
1687005238.869769,0.425105482339859,0.8451721668243408,-0.323989599943161,0.059422075748443604,0.34327375888824463,0.24075281620025635,-0.5759848356246948,0.2753064036369324,-0.5109298825263977,0.9195712117772321,-1.0068872337639725,2.761682390904958
1687005238.888689,0.40917879343032837,0.8570654988288879,-0.31306761503219604,0.022477060556411743,-0.07341998815536499,-0.113614022731781,0.020154429599642754,-0.01099352352321148,-0.19767636060714722,0.917693463276979,-1.0295466757892129,2.752413551485228
1687005238.891622,0.4053190350532532,0.8620574474334717,-0.30425867438316345,-0.05775436758995056,-0.051052868366241455,0.07807755470275879,-0.19687335193157196,-0.09554009884595871,-0.023112809285521507,0.926869981822492,-1.0393153109251112,2.7668524359304554
1687005238.894234,0.4003180265426636,0.8622241020202637,-0.3103461265563965,0.008815795183181763,0.0021860599517822266,0.014142423868179321,0.045381754636764526,-0.1081371158361435,-0.1292315274477005,0.9113307603760968,-1.0396443349603228,2.755564079228854
1687005238.9848871,0.3952900171279907,0.8661971688270569,-0.305693119764328,-0.01327100396156311,-0.08923500776290894,0.035810768604278564,-0.25182586908340454,-0.00970708392560482,-0.0803433358669281,0.9125249206234046,-1.0475411761992874,2.7601214967387016
1687005239.107304,0.39292845129966736,0.8676806688308716,-0.30452799797058105,0.0007787644863128662,0.021494626998901367,-0.03362211585044861,0.15273350477218628,-0.00029400765197351575,-0.05176256597042084,0.9114728127994437,-1.0505175897641716,2.7587272701501235
1687005239.124546,0.39167025685310364,0.8680828213691711,-0.3050024211406708,0.013206422328948975,-0.005762994289398193,0.04403120279312134,-0.11556078493595123,0.04435761645436287,-0.041942957788705826,0.9091648383377142,-1.0513271506982595,2.75507453088678
1687005239.190524,0.39060232043266296,0.8694717884063721,-0.3024047911167145,0.012000799179077148,0.012562453746795654,-0.014520406723022461,0.0507713258266449,0.035185154527425766,-0.019912755116820335,0.9119854831434822,-1.0541319679153556,2.7555864237622347
1687005239.194466,0.3912554085254669,0.8694577217102051,-0.30159956216812134,0.017191827297210693,-0.02050459384918213,0.025262773036956787,-0.05396294221282005,0.005602497141808271,0.009196394123136997,0.9140836692447358,-1.0541035879886889,2.7566382824159708
1687005239.285338,0.39271989464759827,0.8687845468521118,-0.30163589119911194,-0.020436018705368042,-0.0024822354316711426,0.005783170461654663,0.042843762785196304,0.01885252259671688,0.04991905763745308,0.9158311201219098,-1.0527425371555923,2.7577212101081017
1687005239.304183,0.3957526385784149,0.8676704168319702,-0.3008786141872406,0.006163805723190308,0.00981670618057251,0.0048122406005859375,0.000657693250104785,0.035617388784885406,0.04454879090189934,0.9207551594534645,-1.0504969774302784,2.7612495472165994
1687005239.367288,0.39662766456604004,0.8674153089523315,-0.3004615604877472,0.020456045866012573,0.013993322849273682,-0.0029290318489074707,-0.027950182557106018,0.059996362775564194,-0.0016804886981844902,0.9224866519238268,-1.0499840577532884,2.7607574978861056
1687005239.383407,0.39663857221603394,0.8684284687042236,-0.29750585556030273,-0.010316550731658936,0.014582276344299316,0.013097167015075684,-0.04507903754711151,0.028551220893859863,-0.004243248142302036,0.9272517528589439,-1.0520238912339253,2.763789502566098
1687005239.496303,0.39715665578842163,0.8689188361167908,-0.295375257730484,-0.021500587463378906,-0.016151010990142822,0.022471755743026733,-0.08784254640340805,-0.0005897516966797411,0.007029912434518337,0.9313234293901396,-1.0530136921881001,2.7674513902399895
1687005239.5850282,0.39714327454566956,0.8706645369529724,-0.2902074456214905,0.012448340654373169,0.022493302822113037,-0.0015406906604766846,-0.07827280461788177,-0.015520098619163036,0.004651176743209362,0.9397376754495806,-1.0565516786332652,2.777257283302919
1687005239.603658,0.3967840075492859,0.8717437982559204,-0.2874458134174347,-0.0007574260234832764,-0.003473043441772461,-0.01095515489578247,-0.0094276312738657,-0.005308340769261122,0.013769307173788548,0.9438559322422042,-1.0587502385857586,2.78233344971935
1687005239.6073298,0.3970760405063629,0.8712297081947327,-0.2885987162590027,-0.0036129653453826904,0.005509674549102783,0.019799768924713135,-0.02718552201986313,-0.029332317411899567,0.021967582404613495,0.9423029660453457,-1.057701926676185,2.782065573191872
1687005239.668534,0.39783838391304016,0.8720318675041199,-0.2851048409938812,-0.002818882465362549,0.007194638252258301,-0.006551772356033325,-0.10285758227109909,-0.01301499642431736,0.03482399135828018,0.9489930502251234,-1.0593384815543427,2.790863787650107
1687005239.683244,0.39980074763298035,0.8721181750297546,-0.28208014369010925,-0.027165919542312622,-0.01158362627029419,0.020254462957382202,-0.059343524277210236,-0.04290977865457535,0.08688133955001831,0.9563540383036065,-1.0595147495051982,2.8011578773125163
1687005239.726387,0.40428364276885986,0.8720951676368713,-0.27568939328193665,-0.001176983118057251,-0.014414012432098389,0.022515475749969482,-0.18435876071453094,-0.006549506448209286,0.12811000645160675,0.9723074310218212,-1.0594677794611993,2.8207910344319758
1687005239.822134,0.4128391742706299,0.8705176711082458,-0.2678857147693634,0.0050074756145477295,-0.054233551025390625,0.07324445247650146,-0.2678733170032501,0.014776155352592468,0.3151472508907318,0.9952043888568679,-1.0562531711994672,2.8468511402273804
1687005239.837974,0.4357607066631317,0.8711943030357361,-0.22612591087818146,0.08325168490409851,-0.24129635095596313,0.08691991865634918,-1.643436312675476,0.07990482449531555,0.6987140774726868,1.0921257848818484,-1.0576297318647516,2.9548983440941026
1687005239.971434,0.48562243580818176,0.8624988198280334,-0.14236052334308624,0.08873358368873596,-0.4564167857170105,-0.07168988883495331,-2.1476547718048096,0.06616345047950745,1.4900864362716675,1.2856351232065377,-1.0401868540889125,-3.110138455049247
1687005240.068613,0.5642986297607422,0.8235685229301453,-0.05746285244822502,-0.06789970397949219,-0.5348111391067505,-0.04991341382265091,-1.5347954034805298,0.1512119024991989,2.2448930740356445,1.4693155578347747,-0.9676738271612924,-2.8991087478343287
1687005240.0848389,0.6691744923591614,0.742828369140625,-0.020274849608540535,-0.0847630500793457,-0.3552247881889343,-0.21529048681259155,-0.46805983781814575,0.05771975964307785,3.0782933235168457,1.5405072951152976,-0.8372851925603001,-2.8180287839753477
1687005240.088389,0.7872713208198547,0.6165210604667664,-0.0102641386911273,0.05858421325683594,-0.2916463017463684,-0.04913848638534546,-0.11251693218946457,-0.0654144212603569,3.833892822265625,1.5577594530300696,-0.6643164169406187,-2.7931118427839956
1687005240.149482,0.8987832069396973,0.4382949471473694,-0.00927406083792448,0.3025258183479309,-0.49626314640045166,-0.0549197793006897,-1.829545259475708,-0.8069674968719482,4.58867883682251,1.560478230836947,-0.45370082555021346,-2.7513082679290335
1687005240.153431,0.9768205285072327,0.21315696835517883,-0.019638946279883385,0.5091718435287476,-0.13907556235790253,0.1005713939666748,-5.515559196472168,-1.9540507793426514,4.835623264312744,1.5506940657093347,-0.21480505428300217,-2.5584814166550722
1687005240.244766,0.9933845400810242,0.02393743395805359,-0.112311951816082,0.8613211512565613,0.2969091534614563,0.630500316619873,-9.26271915435791,-3.160099506378174,3.3760719299316406,1.4582145041267933,-0.02393972143598664,-2.180265321318332
1687005240.250184,0.9638315439224243,0.03931165859103203,-0.263596773147583,0.3729909062385559,0.6248881816864014,1.107148289680481,-12.837615013122559,-3.0050065517425537,0.25855642557144165,1.3038359533677897,-0.03932179244632387,-1.6112311899003529
1687005240.3370929,0.920468270778656,0.26131051778793335,-0.290611207485199,-0.005703985691070557,0.6580926179885864,0.6165388822555542,-11.073789596557617,-1.6899521350860596,-1.6050076484680176,1.2649796786245493,-0.2643796366338636,-1.0283754514128551
1687005240.3551788,0.8790826201438904,0.44061824679374695,-0.1818493753671646,-0.020287513732910156,0.24177005887031555,0.06811028718948364,-7.075559616088867,-0.6033698916435242,-1.3823071718215942,1.366810836388626,-0.4562872601947964,-0.5955585234375751
1687005240.4531999,0.8499464392662048,0.5250577330589294,-0.04365018755197525,-0.01999044418334961,0.08428668975830078,0.05002826452255249,-4.462597846984863,0.1403852254152298,-0.772260844707489,1.5194850072059567,-0.5527829682301,-0.25788798844865213
1687005240.4715629,0.8369513750076294,0.5461655855178833,0.03485829010605812,0.050896286964416504,-0.052208125591278076,-0.1697307825088501,-1.608401894569397,0.20125842094421387,-0.2098531275987625,1.6124213906088325,-0.5777799053327177,-0.10412646314802147
1687005240.537946,0.8358045816421509,0.5441405773162842,0.07308589667081833,0.036052048206329346,-0.09008485078811646,-0.13434994220733643,-0.6282330751419067,0.1858522891998291,0.09739124029874802,1.658018231573748,-0.5753644351960643,-0.03884889185783209
1687005240.553389,0.8389104008674622,0.5356590747833252,0.096427321434021,0.06433337926864624,-0.07211244106292725,-0.08246566355228424,-0.5770444273948669,0.2028314173221588,0.14801447093486786,1.6852376149270665,-0.5652880741477947,-0.004189726815578202
1687005240.628865,0.8426342606544495,0.5261846780776978,0.11444292962551117,0.07748591899871826,-0.009323716163635254,-0.13968098163604736,-0.12994632124900818,0.19963575899600983,0.23061692714691162,1.7057860338408548,-0.5541076424574055,0.014245849737786328
1687005240.632458,0.846497118473053,0.5174038410186768,0.12544246017932892,0.032973647117614746,0.03540676832199097,-0.1026611328125,0.26265695691108704,0.29894036054611206,0.17014214396476746,1.7179157050249212,-0.5438143673662026,0.013714836885851607
1687005240.754034,0.8478829264640808,0.5144511461257935,0.12819691002368927,0.02867335081100464,-0.010346531867980957,-0.07022881507873535,0.2800425887107849,0.29271525144577026,0.047732334583997726,1.7208562228134718,-0.5403674609192927,-0.008217058734851436
1687005240.77241,0.8465349078178406,0.5147536993026733,0.13567166030406952,0.012168467044830322,0.042558252811431885,-0.13144506514072418,0.2548145353794098,0.1897445023059845,0.03318082168698311,1.729711968489096,-0.5407203179280229,-0.01732170731440982
1687005240.8407679,0.8468838930130005,0.5143901109695435,0.1348705142736435,0.008081138134002686,0.005400419235229492,-0.04156304895877838,0.08179495483636856,0.09381265193223953,0.007597698830068111,1.728725125566788,-0.5402963342165976,-0.030941009853755145
1687005240.856333,0.8454884886741638,0.5165698528289795,0.13529449701309204,-0.01031404733657837,0.05381894111633301,-0.08207190036773682,0.2706977427005768,0.08067288249731064,-0.04586872458457947,1.729470430835973,-0.542840035293792,-0.039452778913690034
1687005240.926396,0.8438146710395813,0.5200014710426331,0.13257263600826263,-0.0009953975677490234,0.0037870407104492188,-0.03970763087272644,0.11895923316478729,0.018409239128232002,-0.06995754688978195,1.726633530057787,-0.5468526970414136,-0.048295717415746946
1687005240.930099,0.8418964147567749,0.5245541334152222,0.1267007291316986,-0.0008473992347717285,-0.010119378566741943,-0.02738131582736969,0.13097229599952698,-0.0040285587310791016,-0.07580984383821487,1.7201697928099353,-0.5521913063351903,-0.05734870754318719
1687005241.0247211,0.8404337763786316,0.5280362963676453,0.12185341864824295,0.005909979343414307,-0.020971596240997314,-0.016842499375343323,0.06394651532173157,-0.07075192779302597,-0.05181422829627991,1.7147816969536198,-0.5562865526648502,-0.0629794015922015
1687005241.041541,0.8409305810928345,0.5284675359725952,0.11643592268228531,-0.004474520683288574,-0.00985187292098999,-0.002635970711708069,0.047185782343149185,-0.10108986496925354,0.010306932963430882,1.7083823374585925,-0.5567943996238586,-0.06477722012234352
1687005241.0802479,0.8420649170875549,0.5279192924499512,0.1105787381529808,-0.0014278292655944824,-0.008708536624908447,0.00885164737701416,0.06763113290071487,-0.08212974667549133,0.00824751053005457,1.70136773328908,-0.5561487973024655,-0.06928114936624158
1687005241.168108,0.8430528044700623,0.5272303819656372,0.10625399649143219,0.007929742336273193,0.004385769367218018,0.027199380099773407,0.08020059019327164,-0.07251520454883575,0.026540230959653854,1.6961700767869472,-0.555337791592481,-0.07227058041978225
1687005241.181313,0.8438844084739685,0.5264991521835327,0.10323591530323029,-0.004025518894195557,-0.015817999839782715,0.017689943313598633,0.026263853535056114,-0.03693484514951706,0.012959972955286503,1.6925256713065513,-0.5544774857202619,-0.0752134676136878
