Timestamp,gravityX,gravityY,gravityZ,accelerationX,accelerationY,accelerationZ,rotationRateX,rotationRateY,rotationRateZ,attitudeRoll,attitudePitch,attitudeYaw
1687009160.182097,0.8897014856338501,0.427164763212204,-0.16112536191940308,-0.010642766952514648,0.01764419674873352,-0.0007094740867614746,0.13549251854419708,0.05776369944214821,-0.01957852765917778,1.3916376570388822,-0.4413547092396527,-2.2759467145213925
1687009160.204832,0.8895806074142456,0.4272732138633728,-0.16150502860546112,-0.033410072326660156,-0.00019499659538269043,-0.0018556714057922363,0.29244765639305115,0.15630970895290375,-0.09327724575996399,1.3912006246036182,-0.44147467512430005,-2.2899917430680907
1687009160.269392,0.8888590931892395,0.4293418824672699,-0.15998412668704987,-0.013035237789154053,-0.022405266761779785,-0.02290785312652588,-0.10238562524318695,0.023491615429520607,-0.015810955315828323,1.392714852449399,-0.4437639415842269,-2.2963712824810676
1687009160.272983,0.8886200785636902,0.43119147419929504,-0.1562952995300293,-0.0015657544136047363,0.026984184980392456,-0.011994004249572754,-0.07971126586198807,0.05724385380744934,-0.025398600846529007,1.396691698838218,-0.44581289145434,-2.289318476804225
1687009160.3621402,0.8888128399848938,0.43179160356521606,-0.15351755917072296,0.00869375467300415,-0.009489357471466064,-0.010194122791290283,-0.007848793640732765,0.052999041974544525,0.006937501020729542,1.399761791197132,-0.44647813659996116,-2.287712369251383
1687009160.381641,0.8891248106956482,0.43194711208343506,-0.15125678479671478,0.009159982204437256,-0.027955442667007446,-0.007068514823913574,-0.05621492490172386,0.02556435577571392,0.018341422080993652,1.402290773222178,-0.44665057840225714,-2.285855135228465
1687009160.41716,0.890699028968811,0.4285171329975128,-0.15175090730190277,-0.00042498111724853516,0.000499039888381958,0.02292083203792572,-0.008857931941747665,0.0009751217439770699,0.06708739697933197,1.4020438443507266,-0.4428509365744199,-2.2867881088759647
1687009160.514889,0.8924879431724548,0.4243321716785431,-0.15299388766288757,-0.00373995304107666,0.017959028482437134,-0.013998433947563171,0.09096959978342056,0.002798588015139103,0.07374689728021622,1.4010224534966043,-0.43822424540189586,-2.2877404942320756
1687009160.533839,0.8941036462783813,0.4212110638618469,-0.15218278765678406,-0.011672794818878174,0.0318070650100708,0.026084020733833313,-0.143647238612175,0.024717070162296295,0.02386428415775299,1.4022048994481981,-0.43478020602918854,-2.2876423369196592
1687009160.569017,0.8938890099525452,0.4228588938713074,-0.14883819222450256,-0.011198639869689941,0.02101925015449524,-0.0180472731590271,0.0071635777130723,0.049802981317043304,-0.010637231171131134,1.4058036330016432,-0.43659783905986244,-2.281687001370303
1687009160.6590471,0.8938292264938354,0.4236057698726654,-0.14706291258335114,-0.011382997035980225,0.025719791650772095,-0.0012526512145996094,-0.04306117817759514,0.04335853084921837,0.00250360369682312,1.4077259854059387,-0.4374221788193515,-2.281347614027755
1687009160.662768,0.8933785557746887,0.4249427020549774,-0.14593927562236786,0.009346544742584229,0.004363298416137695,-0.03220725059509277,0.19947443902492523,0.048955295234918594,-0.034461069852113724,1.4088699848975657,-0.43889859654172136,-2.2827815871797696
1687009160.722763,0.89305180311203,0.42509353160858154,-0.14749251306056976,0.0027154088020324707,-0.010496944189071655,0.006272301077842712,0.04651298373937607,0.03725869581103325,-0.0002618227154016495,1.4071182301771148,-0.43906522379808977,-2.2914347949019804
1687009160.813719,0.8936145305633545,0.42362165451049805,-0.14831562340259552,0.008515417575836182,0.013176381587982178,-0.02029411494731903,0.19350369274616241,0.013270136900246143,0.04897017031908035,1.4063229274046647,-0.43743970700919343,-2.2953346473489393
1687009160.833426,0.8950642943382263,0.41949930787086487,-0.1512610912322998,-0.012435078620910645,0.0014143288135528564,0.005768433213233948,-0.0487787164747715,0.008616795763373375,0.01934197172522545,1.403383427206786,-0.4328936767893673,-2.3013141293016117
1687009160.867754,0.8944528698921204,0.42149096727371216,-0.14933019876480103,-0.001661062240600586,0.02090713381767273,-0.04309852421283722,0.14263765513896942,0.037412893027067184,-0.02830411121249199,1.405370574095047,-0.43508885594422053,-2.2980829624866077
1687009160.9576988,0.8948475122451782,0.41955170035362244,-0.1523953378200531,0.002323448657989502,-0.018825411796569824,-0.003488600254058838,0.04508652538061142,0.00441965414211154,0.014078767038881779,1.4021115552303722,-0.4329513873371649,-2.308933640793193
1687009160.961331,0.8938965201377869,0.42122817039489746,-0.1533481776714325,0.000894010066986084,0.014562815427780151,-0.021883904933929443,0.06545897573232651,-0.004113779403269291,-0.024964239448308945,1.400899849916526,-0.4347990551820533,-2.3079328794297425
1687009161.02239,0.8935598134994507,0.42119717597961426,-0.15538211166858673,0.005136966705322266,-0.025552064180374146,-0.009611308574676514,-0.05221445858478546,-0.01692930981516838,-0.024232668802142143,1.3986267921679407,-0.43476490515804683,-2.3124711024848588
1687009161.114594,0.892773449420929,0.42252710461616516,-0.15628883242607117,0.0022459030151367188,0.004032313823699951,-0.0009073466062545776,0.020527319982647896,-0.01048565935343504,-0.003989448770880699,1.3974925442514015,-0.43623172943177274,-2.3107563511739335
1687009161.1339312,0.8927105665206909,0.42143628001213074,-0.15955980122089386,-0.006754875183105469,-0.003955841064453125,0.0005630850791931152,0.06959040462970734,-0.01934213563799858,-0.006544485688209534,1.3939276704714574,-0.43502854623260595,-2.3149930559907164
1687009161.168695,0.892265796661377,0.42190688848495483,-0.16079898178577423,-0.0076528191566467285,0.0035233795642852783,0.00041371583938598633,0.08709103614091873,-0.010884599760174751,0.0011259503662586212,1.3924959005181792,-0.4355475352567686,-2.3174301341800914
1687009161.2588248,0.8922926187515259,0.42138829827308655,-0.162005215883255,-0.0009810328483581543,0.0067580342292785645,0.021029114723205566,-0.04913537949323654,-0.013416733592748642,-0.010273976251482964,1.3911921359213528,-0.4349756371533357,-2.3186507668773233
1687009161.263105,0.8918635845184326,0.42232826352119446,-0.16191954910755157,0.004010260105133057,-0.0005601346492767334,-0.003211185336112976,0.07760106027126312,-0.002005754504352808,-0.005117830354720354,1.3912005830541678,-0.43601234484945595,-2.3196229082925965
1687009161.31886,0.8919538855552673,0.42223066091537476,-0.16167661547660828,0.00570523738861084,0.009181052446365356,0.014947965741157532,-0.008295938372612,-0.003383274655789137,-0.01637980528175831,1.391482065411413,-0.4359046732832963,-2.3213617959225643
1687009161.4157372,0.8914781212806702,0.4233727753162384,-0.16131363809108734,0.012925446033477783,-0.013140261173248291,-0.016603946685791016,-0.004353661555796862,-0.01731054298579693,-0.0009177587926387787,1.3917826200293484,-0.4371649811870847,-2.320991364240087
1687009161.435804,0.8918948769569397,0.4223513901233673,-0.1616867184638977,-0.0070378780364990234,0.000896841287612915,0.011189177632331848,-0.0076304152607917786,-0.011352251283824444,0.009403320960700512,1.3914594807395257,-0.4360378763634273,-2.3214766450176185
1687009161.467705,0.8916499614715576,0.42235857248306274,-0.16301363706588745,-0.007860958576202393,-0.008814901113510132,-0.0057486891746521,0.045411430299282074,0.008242622017860413,-0.044036999344825745,1.3899708588477453,-0.43604580520181446,-2.3236116165297305
1687009161.56223,0.8908228278160095,0.4239531457424164,-0.1633961796760559,-0.004409313201904297,-0.00929558277130127,-0.007151424884796143,0.12583130598068237,0.03302972763776779,-0.029252994805574417,1.3893911142185302,-0.4378056967279034,-2.327923523976057
1687009161.5806708,0.8905117511749268,0.4245615303516388,-0.16351254284381866,0.008108794689178467,-0.0005960762500762939,0.00250166654586792,-0.1186891570687294,-0.014747248962521553,-0.011899303644895554,1.3892027131183735,-0.4384775426862146,-2.3282805753782734
1687009161.620297,0.889960765838623,0.42649537324905396,-0.1614660620689392,-0.009147346019744873,0.008761554956436157,-0.004870101809501648,-0.07200401276350021,0.013640317134559155,-0.04618856683373451,1.3913180814485602,-0.440614507802059,-2.3228036606283973
1687009161.709908,0.8894932270050049,0.4281465411186218,-0.15966279804706573,0.0020624399185180664,0.026336461305618286,0.00490802526473999,0.03985128179192543,0.021200764924287796,-0.031467679888010025,1.393189089351776,-0.4424408299650381,-2.321695389947434
1687009161.7140641,0.8887711763381958,0.4293365776538849,-0.1604864001274109,0.005287051200866699,-0.0191802978515625,-0.011495545506477356,0.042013172060251236,0.0014237312134355307,-0.00908221211284399,1.3921502538219452,-0.44375808355108887,-2.3254494488011153
1687009161.769126,0.8885303139686584,0.4295159578323364,-0.16133753955364227,-0.006557166576385498,0.022525638341903687,-0.002526700496673584,0.11820647865533829,0.018565967679023743,-0.021601997315883636,1.3911753488383776,-0.44395670936035475,-2.3289743048715668
1687009161.864856,0.8880698680877686,0.42934107780456543,-0.16430997848510742,0.0016546249389648438,-0.014942973852157593,-0.012493714690208435,0.10286813229322433,0.0002601960441097617,-0.040242262184619904,1.3878459861281853,-0.44376306269785715,-2.3381900259699937
1687009161.884053,0.8870784044265747,0.4303900897502899,-0.16690082848072052,0.005652070045471191,0.02531355619430542,-0.02900688350200653,0.17350462079048157,-0.0013062752550467849,-0.01591322012245655,1.3848237726406236,-0.44492490282962077,-2.3450081296877303
1687009161.915505,0.886214017868042,0.4297490119934082,-0.17303214967250824,0.004075050354003906,-0.029831498861312866,-0.04753373563289642,0.11629611998796463,-0.05436430126428604,-0.07297517359256744,1.3779734568465192,-0.44421478640086715,-2.3581432692251387
1687009162.0122108,0.8834070563316345,0.43380749225616455,-0.1772085428237915,0.005752980709075928,0.07235702872276306,-0.14620161056518555,0.31136974692344666,-0.038853250443935394,-0.09460616111755371,1.3728270797407438,-0.4487143128392271,-2.3615551033871984
1687009162.030813,0.881527841091156,0.42589786648750305,-0.20376399159431458,0.031313955783843994,0.10374999046325684,-0.2938252389431,2.3250784873962402,-0.28308868408203125,0.09135278314352036,1.3436372428518144,-0.43995403503514413,-2.418295752221047
1687009162.068222,0.884540319442749,0.3469669222831726,-0.31177279353141785,0.042369961738586426,0.3616054356098175,-0.21038305759429932,8.805888175964355,-0.12326201051473618,0.33494147658348083,1.2319239110340525,-0.3543351695022621,-2.6809792336457803
1687009162.16003,0.9040495753288269,0.08095110207796097,-0.41969162225723267,-0.09658515453338623,0.42269569635391235,0.8375992774963379,15.68537425994873,1.6981115341186523,-0.10786471515893936,1.1361676660934035,-0.08103977712179476,2.9796678701629165
1687009162.163787,0.946963369846344,-0.14442959427833557,-0.2870546877384186,0.12185364961624146,0.5645650625228882,1.2410187721252441,13.679533004760742,2.764883041381836,-2.2618885040283203,1.2764688378867484,0.14493650349255094,2.275248909973979
1687009162.219139,0.9940277338027954,-0.0869114100933075,-0.06599288433790207,0.6474058628082275,-0.13548550009727478,0.9693436622619629,6.542036533355713,2.8016011714935303,-3.9362950325012207,1.5045042318993664,0.0870211984489189,1.731935040481593
1687009162.3153892,0.9912978410720825,0.11858829110860825,0.05714266002178192,0.2942398190498352,0.07664786279201508,0.11393880844116211,2.24141788482666,2.2458198070526123,-4.230960845947266,1.6283768979543012,-0.11886801927284922,1.529640229317493
1687009162.334346,0.9337490797042847,0.3280539810657501,0.14315246045589447,0.19698792695999146,0.26752692461013794,-0.019342809915542603,1.8236044645309448,2.054654121398926,-4.20521354675293,1.7229212138307544,-0.33424282713264536,1.457255002833908
1687009162.368273,0.8288240432739258,0.5300034284591675,0.17929577827453613,0.41397374868392944,0.14010149240493774,-0.19157922267913818,1.2155489921569824,1.227676272392273,-4.390052318572998,1.7838390877478774,-0.5586046037398082,1.4045725483878513
1687009162.459965,0.6803518533706665,0.7048388719558716,0.20080699026584625,0.4590523838996887,-0.006169497966766357,-0.3182692527770996,-0.21568527817726135,0.383637011051178,-4.641429901123047,1.8577992047462921,-0.7821959609141304,1.4555795435761238
1687009162.464179,0.5079594254493713,0.8315758109092712,0.22463001310825348,0.5239467024803162,-0.1613488793373108,-0.38059020042419434,-1.2541675567626953,-0.5615901947021484,-4.393136501312256,1.987161930943002,-0.9819389092346881,1.6220204430437186
1687009162.52087,0.33871734142303467,0.9036285281181335,0.26215624809265137,0.5696078538894653,-0.3397095203399658,-0.5013378858566284,-1.058279275894165,-1.0174801349639893,-3.7318313121795654,2.22946108093055,-1.128166764305573,1.9433157028526828
1687009162.674923,0.21098187565803528,0.9336380362510681,0.28949370980262756,0.4988112449645996,-0.5904221534729004,-0.5099680423736572,-1.0358741283416748,-1.7668826580047607,-2.5752508640289307,2.5118007367568405,-1.2044379523873423,2.3274468060452267
1687009162.680489,0.16879059374332428,0.9397905468940735,0.29715803265571594,0.039140909910202026,-0.34688007831573486,-0.11972898244857788,-1.5416572093963623,-0.9877811670303345,-2.7808046340942383,2.625022640611321,-1.2220168408255871,2.5723880106189188
1687009162.764162,0.12418446689844131,0.935427188873291,0.33098968863487244,0.42322462797164917,-0.7366509437561035,-0.11320111155509949,-0.4957484006881714,-1.9945257902145386,-0.4892685115337372,2.782654230390997,-1.209465581983977,2.8210164583347597
1687009162.785028,0.14192019402980804,0.9808708429336548,0.13323262333869934,-0.12930114567279816,-0.47614073753356934,1.0558542013168335,5.566187858581543,1.9596922397613525,0.25621896982192993,2.3246313793853908,-1.374885975671706,2.3258867835979147
1687009162.788656,0.13612142205238342,0.9835695028305054,0.1185818463563919,-0.060376763343811035,0.2629513144493103,-0.135656476020813,-2.2936995029449463,-0.05245361477136612,0.08245063573122025,2.2874402757778167,-1.389271189963912,2.251904486261851
1687009162.848861,0.14061933755874634,0.9770609140396118,0.15993057191371918,0.007375672459602356,0.37689703702926636,0.3094449043273926,0.2916955053806305,0.0718170702457428,0.2234775274991989,2.4203592849644706,-1.356192863961482,2.3770079742601875
1687009162.944368,0.14505018293857574,0.9755482077598572,0.16512471437454224,0.0004881918430328369,-0.07599681615829468,0.017675533890724182,-0.4121939539909363,-0.227215975522995,-0.0029167281463742256,2.420824346386417,-1.3492017627030608,2.3865000050749514
1687009162.95034,0.14772984385490417,0.9719510674476624,0.18299426138401031,0.009893476963043213,-0.042034804821014404,-0.013713359832763672,-0.23011474311351776,-0.25390735268592834,0.10384567081928253,2.4624209955123373,-1.3333891923591825,2.442305511488271
1687009163.0336351,0.1569472998380661,0.9722666144371033,0.17339253425598145,0.012242168188095093,0.03195995092391968,-0.08953036367893219,0.4887518584728241,-0.1638316661119461,0.15819492936134338,2.405936214653213,-1.3347346354575587,2.3957136019869516
1687009163.053278,0.16249501705169678,0.9744977355003357,0.15475600957870483,-3.466010093688965e-05,0.020832955837249756,0.02842569351196289,0.12136338651180267,0.012404210865497589,0.05095262452960014,2.3318054057573563,-1.3444718685413186,2.3219358976248445
1687009163.120029,0.16589777171611786,0.9735425114631653,0.1571383774280548,0.004008859395980835,0.035047948360443115,0.038799628615379333,-0.0972156897187233,0.06897587329149246,0.10147279500961304,2.3290852955223666,-1.3402535996338183,2.317061029979139
1687009163.136852,0.1684383600950241,0.9730141758918762,0.15770769119262695,-0.012859717011451721,-0.02556556463241577,-0.010750412940979004,0.09190083295106888,0.046129416674375534,0.06872949749231339,2.3233049305542424,-1.3379527365966857,2.3068368647597195
1687009163.21017,0.17185905575752258,0.9725948572158813,0.15660041570663452,0.0028846412897109985,-0.021346688270568848,0.0409703403711319,-0.11654950678348541,-0.012232559733092785,0.015702497214078903,2.3097727019012115,-1.3361424226668102,2.291939923542306
1687009163.2138228,0.17208212614059448,0.9717320799827576,0.16163112223148346,-0.0270625501871109,-0.009100794792175293,0.026952162384986877,-0.08328595757484436,-0.09649630635976791,0.013218299485743046,2.3248873895107254,-1.3324598800628205,2.3104691799302643
1687009163.271862,0.17444252967834473,0.9709087610244751,0.16403082013130188,0.005946919322013855,-0.014701485633850098,0.015092030167579651,-0.021314600482583046,-0.164805069565773,0.05545390024781227,2.3254433936413985,-1.3289973103958148,2.3168995322017625
1687009163.365566,0.17648454010486603,0.969767153263092,0.16853760182857513,0.014906495809555054,0.02506011724472046,0.048976317048072815,-0.17181362211704254,-0.1458440124988556,0.04135805740952492,2.3331654434048352,-1.3242747610858268,2.3337100415637093
1687009163.384457,0.18010759353637695,0.9678739905357361,0.17544566094875336,0.003928691148757935,0.05199289321899414,-0.0202181339263916,-0.06497766077518463,-0.19662423431873322,0.04036017134785652,2.343083470557568,-1.3166328611789901,2.3523000894825015
1687009163.41706,0.1830206662416458,0.9657513499259949,0.18392223119735718,0.005425393581390381,-0.006706118583679199,-0.03575946390628815,-0.48573315143585205,-0.23557190597057343,0.005820305086672306,2.358651457726298,-1.308323554400558,2.379136747779825
1687009163.5133429,0.1840934306383133,0.9578943848609924,0.22033515572547913,0.0310249924659729,0.03874850273132324,0.013154730200767517,-0.8486551642417908,-0.22866366803646088,-0.05230718106031418,2.4455679453788126,-1.2795766002967919,2.481433000638968
1687009163.530861,0.18510308861732483,0.9506758451461792,0.2489023059606552,0.03315867483615875,-0.0437544584274292,0.005644708871841431,-0.3051147758960724,-0.12407733500003815,0.06754492223262787,2.502150132647467,-1.2554075242642546,2.548906512532
1687009163.5697331,0.19202347099781036,0.9482977390289307,0.2527025043964386,0.012871608138084412,-0.07793641090393066,0.08488288521766663,-0.12363457679748535,0.09446432441473007,0.20783385634422302,2.491798561245765,-1.2478287865725632,2.539384709592658
1687009163.662369,0.21373160183429718,0.9380335211753845,0.27278560400009155,0.0947248637676239,-0.34381043910980225,0.02425721287727356,-0.6379165649414062,0.29887473583221436,0.8752166628837585,2.4769846935267115,-1.2169114444424436,2.5145435923609476
1687009163.666487,0.2778429090976715,0.9047226309776306,0.3229239881038666,0.284123033285141,-0.5956560373306274,-0.0814080536365509,-1.7867544889450073,-0.1593487709760666,2.105685234069824,2.431093366949023,-1.130728141924381,2.4617600293430377
1687009163.720842,0.3994218707084656,0.8295391798019409,0.3902904689311981,0.24694040417671204,-0.20269298553466797,-0.17073193192481995,0.029076533392071724,-0.2902061343193054,3.319251775741577,2.3446320780921277,-0.9782819460976853,2.3783957136736142
1687009163.8166041,0.5485996007919312,0.7711989283561707,0.32294031977653503,0.07704120874404907,-0.4466598629951477,-0.20875898003578186,2.133195161819458,0.5019444823265076,4.29325008392334,2.102838155315089,-0.8807223441148848,2.0614535666452207
1687009163.836905,0.7005428671836853,0.6516136527061462,0.29092875123023987,0.09807175397872925,-0.23747479915618896,-0.35991376638412476,0.47928938269615173,0.3208135664463043,4.7673516273498535,1.9644142282185484,-0.7097097524056013,1.84128184561381
1687009163.937031,0.8434444665908813,0.456605464220047,0.2830418050289154,0.3408053517341614,-0.09295812249183655,-0.13498595356941223,0.14823460578918457,-0.2057756632566452,5.473008155822754,1.8945661453959919,-0.47417595895784165,1.7128158919468464
1687009163.955575,0.9434822201728821,0.19243569672107697,0.2698332369327545,0.6808311939239502,0.02176716923713684,-0.08134147524833679,-2.7989699840545654,-1.4160192012786865,5.241356372833252,1.8493574912716522,-0.19364364059478284,1.6873595747042844
1687009164.018806,0.9838365912437439,-0.07729775458574295,0.1615249365568161,0.8676494359970093,0.48296791315078735,-0.20263220369815826,-5.421202182769775,-3.2831928730010986,3.977369546890259,1.733523239391589,0.07737493793438734,1.8164673428044589
1687009164.022434,0.9703667163848877,-0.21554727852344513,-0.10921396315097809,0.5431524515151978,0.44415441155433655,0.6234808564186096,-10.666248321533203,-4.488959789276123,1.0376631021499634,1.4587188140705623,0.2172522435990515,2.2263870847143945
1687009164.082488,0.92062908411026,-0.05388461425900459,-0.3867020308971405,-0.09590691328048706,0.1083431988954544,0.7718490362167358,-11.603944778442383,-3.0945119857788086,-1.116108775138855,1.1731334168102516,0.05391072266451491,2.7741774805791493
1687009164.099164,0.8647444844245911,0.22384126484394073,-0.44956859946250916,-0.06883090734481812,0.4628957509994507,0.4683215618133545,-6.995147705078125,-1.6453899145126343,-1.429402470588684,1.0913667470436446,-0.2257539631212194,-3.089471732307534
1687009164.140397,0.829424262046814,0.3304038345813751,-0.4504314959049225,-0.029222965240478516,-0.1813713014125824,0.3119578957557678,-0.8880966901779175,-0.5240982174873352,-0.29805809259414673,1.0732928737249108,-0.3367314083088174,-2.9628582844457583
1687009164.2022061,0.8253657817840576,0.33984291553497314,-0.4508635997772217,0.19537079334259033,-0.3616935610771179,0.056484878063201904,-1.1761730909347534,-0.045198362320661545,0.4542369842529297,1.0708297073170716,-0.346749876394277,-2.9318126130843143
1687009164.260288,0.8350086808204651,0.37114226818084717,-0.40621885657310486,0.17690831422805786,-0.22862526774406433,0.14163139462471008,-3.3897054195404053,-0.1074361726641655,0.7366563677787781,1.118019389391662,-0.3802388618218542,-2.784841485658322
1687009164.357195,0.8504517674446106,0.3767017722129822,-0.3671887516975403,-0.09024375677108765,-0.07805678248405457,-0.22555428743362427,-0.2859552502632141,0.43836989998817444,0.4419052004814148,1.1632161563780987,-0.3862331909616254,-2.691622738484879
1687009164.362561,0.8620131015777588,0.3774198293685913,-0.338360458612442,-0.1658461093902588,0.04073205590248108,-0.06674531102180481,-0.7310648560523987,0.562360405921936,-0.09837320446968079,1.1967517273556,-0.38700847688978446,-2.6598849159163733
1687009164.408119,0.8674216866493225,0.38276857137680054,-0.3179114758968353,-0.01613396406173706,0.018613845109939575,-0.23331236839294434,1.0235611200332642,0.5307226181030273,-0.16338442265987396,1.2194970110875634,-0.3927912389894877,-2.673925499664723
1687009164.504692,0.8704691529273987,0.3823854923248291,-0.30994290113449097,0.07398873567581177,-0.07730135321617126,-0.1058439314365387,-0.4015856385231018,0.07484641671180725,-0.08324698358774185,1.228729357631355,-0.3923766223713712,-2.6946506756224213
1687009164.5242,0.8688485622406006,0.39106234908103943,-0.3035992681980133,0.0019248127937316895,0.03641265630722046,-0.09366342425346375,-0.35459262132644653,-0.10410270094871521,-0.00016594864428043365,1.2346319206910137,-0.401785572855998,-2.673173189955382
1687009164.5586271,0.8673309683799744,0.39532575011253357,-0.3024143874645233,0.020410001277923584,0.09069716930389404,-0.06758081912994385,-0.039780426770448685,-0.11219590902328491,0.010739696212112904,1.2353046975812867,-0.40642246973137186,-2.657592546698556
1687009164.653336,0.8658753633499146,0.3975868225097656,-0.30361926555633545,-0.005661129951477051,-0.08520886301994324,0.02267429232597351,-0.49630147218704224,-0.11217140406370163,-0.006751679815351963,1.233542495717389,-0.40888534961357764,-2.6519679356817547
1687009164.6711469,0.8638914227485657,0.40538349747657776,-0.29892444610595703,-0.008636295795440674,0.08933696150779724,0.03302463889122009,-0.22483797371387482,-0.09350544214248657,-0.03306157886981964,1.2376708036627515,-0.4173983179675503,-2.6249744984593804
1687009164.711526,0.8622906804084778,0.40502166748046875,-0.3039934039115906,-0.00798177719116211,-0.037422239780426025,0.03687295317649841,0.1326221078634262,-0.05818726867437363,-0.03438517078757286,1.231859006230556,-0.41700251791137927,-2.631357264052405
1687009164.803289,0.8610341548919678,0.40527817606925964,-0.30719661712646484,0.011295497417449951,0.01745128631591797,-0.012520909309387207,0.15565504133701324,-0.038106366991996765,-0.04745037481188774,1.2280974714907076,-0.4172830942409526,-2.6341407595385045
1687009164.820973,0.8597208857536316,0.4038858115673065,-0.3126593828201294,-0.014353692531585693,-0.03366193175315857,0.01996520161628723,0.20151767134666443,-0.02294965274631977,-0.06201600283384323,1.2219908024173172,-0.4157605693417103,-2.6489197955710284
1687009164.860132,0.8582199215888977,0.4038783311843872,-0.31676605343818665,-0.005070626735687256,-0.040002018213272095,-0.010092556476593018,0.12633657455444336,-0.004364915657788515,-0.03966888412833214,1.217211251308645,-0.41575237069365223,-2.658800462765996
1687009164.920141,0.8587384819984436,0.3999272286891937,-0.32035326957702637,-0.018635451793670654,0.048909991979599,-0.004750609397888184,0.38760820031166077,0.03171199560165405,0.020514827221632004,1.213735452711487,-0.4114374590677667,-2.668333065062237
1687009165.0114431,0.8594235777854919,0.393340528011322,-0.3266100287437439,0.01444709300994873,-0.039428263902664185,-0.009800583124160767,0.2368958443403244,-0.00925501249730587,-0.011120861396193504,1.207619774578812,-0.4042621978731492,-2.6890261622045313
1687009165.015688,0.858060896396637,0.3919920325279236,-0.33177366852760315,-0.009153544902801514,0.02170422673225403,-0.03877091407775879,0.07950261980295181,-0.061271872371435165,-0.020339393988251686,1.201846796308993,-0.402795910646836,-2.6976233734159845
1687009165.1046882,0.8567838668823242,0.3900716006755829,-0.3372911512851715,0.001782238483428955,-0.01934412121772766,-0.08635392785072327,0.08926350623369217,-0.11599370837211609,-0.03017338365316391,1.1957576736484878,-0.4007093407269479,-2.7042760796524923
1687009165.1951199,0.8528265953063965,0.38768285512924194,-0.34984099864959717,-0.014386773109436035,-0.05005168914794922,-0.1118442714214325,0.7352848649024963,-0.23156611621379852,-0.010624980553984642,1.181516313800851,-0.39811652290291655,-2.7193640328804403
1687009165.201432,0.8498448133468628,0.35057002305984497,-0.3935283422470093,0.003991246223449707,0.06073063611984253,-0.004207432270050049,3.0984911918640137,-0.13682496547698975,0.22988057136535645,1.1371357144437917,-0.35817967774960985,-2.7992643177221215
1687009165.284584,0.8574217557907104,0.22275245189666748,-0.4639064073562622,-0.006591796875,0.05843648314476013,0.19512271881103516,7.330564498901367,0.5212064981460571,0.21538898348808289,1.0748519445978209,-0.2246369512147288,-3.045396952789141
1687009165.302384,0.8751180171966553,0.02303897775709629,-0.48336082696914673,0.027607202529907227,0.049745410680770874,0.3905262351036072,9.040102005004883,0.9684169888496399,0.0825803354382515,1.0661599704328022,-0.023041017141489796,2.8857892807370704
1687009165.369211,0.9051491022109985,-0.18838633596897125,-0.3810717761516571,0.005663156509399414,-0.12551750242710114,0.5464922785758972,9.503785133361816,1.818487286567688,-0.17418807744979858,1.1723148227858755,0.18951881031233062,2.449425757402087
1687009165.372855,0.9346117377281189,-0.29137861728668213,-0.20395857095718384,0.13524281978607178,0.19952067732810974,0.29387855529785156,6.851745128631592,1.748968243598938,-0.5456042885780334,1.3559367232718118,0.2956676624463852,2.06340489147922
1687009165.4643512,0.9648036360740662,-0.26253852248191833,-0.015086723491549492,0.09317982196807861,0.45283082127571106,0.20919370651245117,7.656593322753906,1.6947500705718994,-2.5634922981262207,1.5551605088140092,0.2656520845860506,1.6889203477177368
1687009165.482284,0.9905975461006165,-0.05317171663045883,0.12605063617229462,0.6156796813011169,0.08071379363536835,0.2698996067047119,5.566529750823975,1.0867975950241089,-4.847485542297363,1.6973632082557566,0.05319680236852299,1.3326048888919737
1687009165.551522,0.9628397226333618,0.2333938479423523,0.1358930468559265,0.7354940176010132,0.28058314323425293,-0.1567671149969101,3.876650333404541,0.15675073862075806,-5.475438594818115,1.711007984895169,-0.23556647168370243,1.1534924159824969
1687009165.5683088,0.8632491230964661,0.4995960593223572,0.07214323431253433,0.5830857157707214,-0.17697960138320923,-0.0354306697845459,2.2067086696624756,-0.5044663548469543,-5.21010684967041,1.6541743186304767,-0.5231324181414337,1.0189049983727865
1687009165.610443,0.7135189771652222,0.7004169821739197,-0.01750999130308628,0.5663881897926331,-0.31189775466918945,-0.24326276779174805,0.9733754992485046,-1.5478522777557373,-4.646765232086182,1.5462609206469826,-0.7759815965144039,0.9286504380798664
1687009165.6703649,0.5469806790351868,0.8335039019584656,-0.07799648493528366,0.4410107135772705,-0.5011979341506958,-0.11864358931779861,-0.742050051689148,-2.1913256645202637,-3.7850182056427,1.4291565805355557,-0.9854194153320535,0.8992088046633322
1687009165.762848,0.3952290415763855,0.914992094039917,-0.08113811165094376,0.3906443417072296,-0.522002100944519,-0.11982017755508423,-1.3154062032699585,-2.3995752334594727,-2.7173166275024414,1.3683157044481757,-1.1554883815458974,0.9610949316355271
1687009165.7676249,0.2810385525226593,0.957939863204956,-0.05803787335753441,0.3486916720867157,-0.4211815595626831,-0.13414663076400757,-1.305087924003601,-2.4532411098480225,-1.4358875751495361,1.3671470174684657,-1.2797349966399718,1.0872943121960832
1687009165.819728,0.21152502298355103,0.9771603941917419,-0.02036156691610813,-0.16042332351207733,-0.357821524143219,0.13953262567520142,-1.4091914892196655,-1.3980392217636108,-2.2056307792663574,1.4748312092710818,-1.3566605306299944,1.3077838588005972
1687009165.9200978,0.15421319007873535,0.9873752593994141,0.036168862134218216,0.13155344128608704,-0.5531865358352661,0.1570378541946411,-0.3962748348712921,-1.119737982749939,-0.01473157573491335,1.8011704761343212,-1.411727813966258,1.6978155361067815
1687009165.939182,0.16457362473011017,0.9858660101890564,0.031365059316158295,-0.03517906367778778,-0.2451433539390564,0.27199482917785645,0.0777105838060379,-0.2727077007293701,0.30632954835891724,1.7591216266220024,-1.4024667180144978,1.6862413164226064
1687009165.968967,0.17970140278339386,0.9837097525596619,0.004722499288618565,-0.08247235417366028,0.10515731573104858,0.26154327392578125,0.9543996453285217,0.22034941613674164,0.19177499413490295,1.5970699829942412,-1.3900498485562034,1.5166450407505414
1687009166.060688,0.18267518281936646,0.98286372423172,-0.02466586045920849,-0.06722718477249146,0.1399540901184082,-0.055229246616363525,0.10840390622615814,-0.14758838713169098,-0.07117194682359695,1.436582279488141,-1.3854023915615614,1.348856727222447
1687009166.0646992,0.17649999260902405,0.9842594265937805,0.008992847986519337,0.011564597487449646,-0.005469262599945068,0.10993409156799316,-1.054578185081482,-0.254828542470932,-0.13455358147621155,1.621703288735959,-1.3931335741110151,1.5487815299194119
1687009166.122573,0.17400197684764862,0.984548032283783,0.019709007814526558,0.04244399070739746,0.03968292474746704,-0.061563968658447266,0.5221021175384521,-0.0486811138689518,0.025872841477394104,1.6835844869680618,-1.3947740286048256,1.6210807959175693
1687009166.215488,0.1740078628063202,0.984677255153656,0.011471389792859554,0.03715851902961731,-0.08428680896759033,0.04051518440246582,-0.2865484058856964,0.03445318713784218,-0.021403592079877853,1.6366256191378659,-1.3955133619667248,1.573005690123128
1687009166.235721,0.17645353078842163,0.9841430187225342,0.018061192706227303,-0.0007180571556091309,0.02991008758544922,-0.0012613572180271149,0.15196983516216278,0.06363105028867722,0.11115338653326035,1.6727977518053465,-1.392475891412007,1.607350311689105
1687009166.269309,0.1797742396593094,0.9836907386779785,0.005781286861747503,-0.007533013820648193,0.03384143114089966,-0.007795572746545076,0.24983355402946472,0.037506766617298126,0.02061975747346878,1.6029438419707693,-1.3899439518063867,1.5328002966164782
1687009166.359642,0.18106240034103394,0.9834712743759155,0.000770319951698184,-0.010102897882461548,-0.0033382773399353027,0.02646660804748535,0.10229122638702393,-0.06913792341947556,0.029428958892822266,1.575050745625291,-1.3887277413701098,1.5062286625305163
1687009166.3634539,0.18178966641426086,0.9832808971405029,-0.010534904897212982,0.015247106552124023,-0.02641761302947998,0.027639925479888916,0.20181840658187866,-0.10317378491163254,0.05418996885418892,1.5129100033740224,-1.3876795644520168,1.4470454818873881
1687009166.422608,0.18561893701553345,0.9825551509857178,-0.01143341138958931,0.01684996485710144,-0.004695773124694824,0.01060938835144043,-0.139048233628273,-0.17093577980995178,0.08549702912569046,1.509277902822883,-1.383735898597899,1.4503346628529146
1687009166.545655,0.19129924476146698,0.9815196990966797,-0.004852890037000179,-0.005676046013832092,0.03033626079559326,0.011536180973052979,0.004604280460625887,-0.11276808381080627,0.09046702086925507,1.5454337103645204,-1.378247682983317,1.4945729828963958
1687009166.550571,0.19611920416355133,0.98052579164505,-0.010307037271559238,-0.03448282182216644,0.0144081711769104,-0.026497244834899902,0.14357036352157593,-0.06146562099456787,0.07432719320058823,1.5182896724953594,-1.373121102323709,1.4709375086640781
1687009166.6352592,0.19668862223625183,0.9804497957229614,-0.005605965852737427,-0.01883217692375183,0.007541298866271973,0.002538860309869051,-0.25711628794670105,-0.08111456036567688,-0.012303837575018406,1.5423023124614388,-1.3727346640354867,1.4997658665529594
1687009166.655113,0.19623742997646332,0.980556309223175,-0.0004327624337747693,0.01950661838054657,0.005069851875305176,-0.01532965898513794,0.20813202857971191,-0.12089166045188904,0.14597181975841522,1.5685910302319015,-1.3732764622248723,1.5310368387785882
1687009166.7204971,0.20918206870555878,0.9775426983833313,-0.025553269311785698,0.009308546781539917,-0.06129831075668335,0.09406518936157227,0.3040897846221924,-0.03800144046545029,0.4181428849697113,1.4492405511828461,-1.35846697803554,1.4122142565289952
1687009166.737448,0.2354179471731186,0.971851110458374,-0.009144416078925133,0.0927681028842926,-0.10992801189422607,0.1492353081703186,-1.1843479871749878,-0.08486774563789368,0.8322806358337402,1.531972518384318,-1.3329646215002247,1.496433603555253
1687009166.807322,0.2802068591117859,0.9565293788909912,0.080843485891819,0.1077326238155365,-0.11573964357376099,0.023572325706481934,-2.1306087970733643,-0.24760860204696655,1.1200644969940186,1.8516821007331916,-1.2748596140047646,1.8377088854789643
1687009166.810892,0.3474363684654236,0.9236404895782471,0.16178902983665466,0.10913705825805664,-0.32187992334365845,0.04185469448566437,-1.3682000637054443,-0.08825568854808807,1.850690245628357,2.006600810592285,-1.1774730855446414,2.0127810146841667
1687009166.8734899,0.457470566034317,0.861873209476471,0.21884934604167938,0.14299330115318298,-0.612621009349823,0.06049323081970215,-1.5081777572631836,0.18445973098278046,3.039024829864502,2.0170069589523627,-1.038951915623782,2.0234067967582345
1687009166.960997,0.5923272371292114,0.7519440054893494,0.2893587648868561,0.12419497966766357,-0.5222535729408264,-0.07573580741882324,-1.734320044517517,0.5944581627845764,3.835420846939087,2.0252111225795772,-0.8510060723648959,2.0096800388509655
1687009166.965522,0.7257784008979797,0.5865898132324219,0.35938599705696106,0.2513487935066223,-0.21023178100585938,-0.32377198338508606,-1.8256268501281738,-0.00435253232717514,4.480969429016113,2.03057502668925,-0.626841673239994,1.9939934270456339
1687009167.02255,0.849699079990387,0.3560519814491272,0.388893187046051,0.4982774257659912,-0.01422467827796936,-0.2885058522224426,-3.1088860034942627,-1.4027955532073975,4.873742580413818,2.0000213951534755,-0.364039581770442,1.999192234270065
1687009167.111744,0.9454419612884521,0.07813327014446259,0.3162822425365448,0.6472398042678833,0.38672566413879395,-0.12112247943878174,-4.718101978302002,-3.5297110080718994,3.9861979484558105,1.8936268597236008,-0.07821299016243467,2.1084492688263547
1687009167.117913,0.9874956607818604,-0.12429159879684448,0.09697331488132477,0.6173321008682251,0.4541255533695221,0.029064178466796875,-6.685725688934326,-4.962682247161865,1.9100483655929565,1.6686837264377283,0.1246138644479465,2.3236359911754723
1687009167.172374,0.9667180180549622,-0.11273373663425446,-0.22966724634170532,0.15159845352172852,0.47928035259246826,0.40261024236679077,-9.944500923156738,-5.258464336395264,-0.8598080277442932,1.3375462985477724,0.11297390080026622,2.76832548608293
1687009167.265338,0.8913089036941528,0.15586145222187042,-0.4257648289203644,0.027331233024597168,0.4309000074863434,0.5982347726821899,-10.810314178466797,-3.4247488975524902,-2.896029472351074,1.1251596123544834,-0.15649950121559925,-3.0719160343682117
1687009167.271614,0.7907258868217468,0.47726717591285706,-0.3833649158477783,0.2630002498626709,0.029767096042633057,0.39874565601348877,-8.126087188720703,-1.576919436454773,-2.4459495544433594,1.1193609828917666,-0.49754220130794286,-2.677552871009654
1687009167.321539,0.7305169701576233,0.6436793804168701,-0.22808240354061127,0.34423571825027466,0.06615942716598511,0.02372133731842041,-3.854829788208008,0.3642551898956299,-1.1515320539474487,1.2681660742000374,-0.6992964041862596,-2.3700580300771983
1687009167.412417,0.7130295634269714,0.6875366568565369,-0.13741208612918854,0.267011821269989,-0.22827762365341187,-0.4382258653640747,-0.6165540814399719,0.5502532720565796,-0.2261844277381897,1.3804144897036428,-0.7580912094525966,-2.242445453558283
1687009167.418016,0.7174772024154663,0.6698905229568481,-0.19097943603992462,-0.08074325323104858,-0.026839375495910645,-0.1612240970134735,4.050936698913574,0.7876331210136414,0.02038060501217842,1.3106465962674265,-0.7340613624898055,-2.3887983684968055
1687009167.469856,0.7221071720123291,0.6577306985855103,-0.21436302363872528,0.08154267072677612,-0.40325993299484253,-0.2570115923881531,-1.026347279548645,-0.15171149373054504,0.10787557065486908,1.282224908977391,-0.7178021041264346,-2.4590827736427503
1687009167.565763,0.7259427905082703,0.6591760516166687,-0.19619840383529663,0.046304404735565186,-0.09951430559158325,-0.045394107699394226,-0.2149561643600464,0.13327710330486298,0.05364667996764183,1.3068356043266462,-0.7197225396674385,-2.420520098098264
1687009167.571542,0.7288840413093567,0.660263180732727,-0.1810535043478012,0.05837780237197876,-0.08171099424362183,-0.13744330406188965,-0.15957188606262207,0.24711765348911285,0.08846165984869003,1.3273257932967457,-0.7211691314598055,-2.409091894567009
1687009167.6836329,0.7353103756904602,0.6570178270339966,-0.16627074778079987,-0.014378488063812256,0.08532220125198364,-0.03809034824371338,0.10542935878038406,0.26436948776245117,0.18532535433769226,1.3484130512542891,-0.716856134019454,-2.3938458136279688
1687009167.704543,0.7431012392044067,0.6463832855224609,-0.17317336797714233,0.02182173728942871,0.018258988857269287,-0.07127255201339722,0.3300192654132843,0.011950939893722534,0.2234647423028946,1.3418412534914677,-0.7028348556654999,-2.414952482041727
1687009167.812934,0.7470538020133972,0.6421076059341431,-0.17207007110118866,-0.030867457389831543,0.11036425828933716,-0.014056727290153503,-0.18335670232772827,1.6516773030161858e-05,0.01585962250828743,1.3444130485926467,-0.6972443128764102,-2.4112836925094907
1687009167.8170981,0.7466373443603516,0.6421664953231812,-0.1736513078212738,-0.0021916627883911133,0.08402979373931885,-0.017571985721588135,-0.010718083009123802,-0.07795897871255875,0.0011171624064445496,1.3422809967736669,-0.6973211351435644,-2.409706217572014
1687009167.8210402,0.7423131465911865,0.6467995047569275,-0.1749894618988037,-0.027103304862976074,0.08296722173690796,0.004060402512550354,0.13224078714847565,0.046682558953762054,-0.19733360409736633,1.3392875961581971,-0.703380434135414,-2.4112996601160286
1687009167.858368,0.7364413738250732,0.6513795256614685,-0.1826433539390564,0.001656651496887207,0.028613030910491943,0.02678997814655304,0.31123876571655273,0.004414993338286877,-0.13778959214687347,1.3276933625391352,-0.7094011924635549,-2.4298768257504824
1687009167.95127,0.7317784428596497,0.6539676189422607,-0.1919018030166626,0.00023126602172851562,-0.028967738151550293,-0.0019001811742782593,0.2741522490978241,0.000766729237511754,-0.08867983520030975,1.3143309731338582,-0.712817211538571,-2.4504810408815643
1687009167.9724011,0.7297948002815247,0.6544017791748047,-0.19788266718387604,-0.001630246639251709,0.0012224912643432617,0.03400316834449768,0.18049055337905884,0.029154028743505478,-0.06292200833559036,1.3060144585334796,-0.7133912294736627,-2.463695222272603
1687009168.013403,0.7293725609779358,0.6540398597717285,-0.20061783492565155,-0.008425354957580566,-0.05099731683731079,0.03454107046127319,0.13099177181720734,0.05397828295826912,-0.018363062292337418,1.3023786376674709,-0.7129126788567155,-2.4736884021084045
1687009168.1328769,0.7311898469924927,0.6507682800292969,-0.20460230112075806,0.0014761090278625488,-0.00706106424331665,0.038174569606781006,0.3584528863430023,0.06772898882627487,0.05714687332510948,1.2979535729712264,-0.7085958748681539,-2.4857561125805496
1687009168.138576,0.7347711324691772,0.6456043124198914,-0.20810210704803467,-0.0025781989097595215,-0.05766785144805908,-0.0075352489948272705,0.039538297802209854,0.06603308767080307,0.06025185063481331,1.2948039526089756,-0.7018143058517455,-2.4975508317704445
1687009168.225274,0.7385095953941345,0.6413317918777466,-0.2080788016319275,-0.009017527103424072,0.015757322311401367,-0.017873436212539673,0.27269184589385986,0.12534180283546448,0.08180268853902817,1.296160905477399,-0.6962328105546794,-2.5043004315456456
1687009168.245242,0.743257462978363,0.6324846148490906,-0.2180165797472,-0.0006123781204223633,-0.030861198902130127,-0.05995289981365204,0.34892478585243225,0.006611835211515427,0.13282299041748047,1.2854738569923287,-0.6847567587545688,-2.5272533475430192
1687009168.313202,0.7473862767219543,0.6244646906852722,-0.22684253752231598,-0.010631024837493896,0.005280733108520508,-0.052393436431884766,0.2889251708984375,-0.028873322531580925,0.1412590891122818,1.2761184070040965,-0.6744459955819161,-2.538944544671226
1687009168.3167381,0.7505792379379272,0.6156691908836365,-0.239963099360466,-0.0048975348472595215,-0.02001190185546875,-0.09675270318984985,0.42319074273109436,-0.09446178376674652,0.14342238008975983,1.2613620128647303,-0.663234940990552,-2.5580084119147517
1687009168.370223,0.755229115486145,0.6012023687362671,-0.2611220180988312,0.01533973217010498,-0.01146543025970459,-0.08740416169166565,0.7687460780143738,-0.08898565918207169,0.2483503818511963,1.2379108816565898,-0.6450048962352481,-2.5874229522430237
1687009168.4655042,0.7630177736282349,0.5669277906417847,-0.3104778826236725,0.041150808334350586,0.02657794952392578,-0.07952156662940979,2.8242154121398926,0.02832285687327385,0.3846597671508789,1.1843491629456093,-0.602771573800496,-2.6742740592212875
1687009168.471713,0.781378448009491,0.45996034145355225,-0.4217630922794342,-0.017828762531280518,0.059235185384750366,0.07596832513809204,6.781209468841553,0.6306156516075134,0.5716402530670166,1.0758426969397303,-0.4779505200252266,-2.913527413562608
1687009168.521937,0.8167629241943359,0.24240776896476746,-0.5235806107521057,0.01566493511199951,-0.15744687616825104,0.32626914978027344,8.597296714782715,1.2973713874816895,0.8446938991546631,1.0007431759987315,-0.2448468768703318,3.0272902913095945
1687009168.6159549,0.86039799451828,0.007020642980933189,-0.509574294090271,0.18838423490524292,-0.4769456088542938,0.545508623123169,5.518198490142822,1.5045322179794312,1.0945311784744263,1.036091783486971,-0.007020700677769383,2.7340232915472256
1687009168.622818,0.8952803015708923,-0.1635303646326065,-0.4144042134284973,-0.013719141483306885,0.3381519317626953,0.32689499855041504,6.816616535186768,2.0732736587524414,0.8094717264175415,1.1372860497273627,0.16426814331055004,2.5184874772940753
1687009168.7060928,0.9343160390853882,-0.2879888713359833,-0.21003811061382294,0.04790741205215454,-5.131959915161133e-05,0.27566611766815186,6.347737789154053,2.566570997238159,-0.6479431390762329,1.3496683139631882,0.29212606239281286,2.1582870317080136
1687009168.724183,0.9658622145652771,-0.25871744751930237,-0.01323439460247755,0.2923773527145386,0.47250834107398987,0.06357306241989136,6.609745979309082,2.350290536880493,-2.0593056678771973,1.5570950284828398,0.26169420852857195,1.8492605446114603
1687009168.760449,0.983781099319458,-0.06657569855451584,0.1665608435869217,0.6369006633758545,0.10244905948638916,0.11992289125919342,6.536441326141357,1.8043888807296753,-4.544851303100586,1.738512689296076,0.06662498113499415,1.4877305926096798
1687009168.8235478,0.9516538977622986,0.2243427038192749,0.20982086658477783,0.8893493413925171,-0.06095170974731445,-0.11251571774482727,2.2969045639038086,0.3583749532699585,-5.6356353759765625,1.7878046495388313,-0.2262685007556363,1.3407492210886671
1687009168.914778,0.847428560256958,0.5027453303337097,0.17062194645404816,0.7393481135368347,0.05235409736633301,-0.14871037006378174,2.6791141033172607,-0.048911210149526596,-5.447852611541748,1.7694807871403169,-0.5267716956388812,1.277629008013197
1687009168.91959,0.6910682320594788,0.7169297933578491,0.09184664487838745,0.7617972493171692,-0.10518985986709595,-0.07361245900392532,1.6367348432540894,-1.223878026008606,-5.1178297996521,1.7029272896920857,-0.7993883594575476,1.2133648913399908
1687009169.001518,0.5104345083236694,0.8593525290489197,0.031143497675657272,0.6061426997184753,-0.6370777487754822,-0.12152135372161865,-1.3918818235397339,-2.2132036685943604,-4.12352180480957,1.6317344816591286,-1.034002166582373,1.217308528816067
1687009169.022038,0.3551411032676697,0.933793306350708,0.04364372789859772,0.4164806008338928,-0.5295422673225403,-0.24626529216766357,-1.7449939250946045,-2.4817397594451904,-2.8557987213134766,1.6930744529565895,-1.2048716092120144,1.4192370458341739
1687009169.059627,0.25414133071899414,0.9591028094291687,0.12463443726301193,0.24526357650756836,-0.8029902577400208,-0.3984839916229248,-3.0120887756347656,-2.75254487991333,-1.993312954902649,2.0267456576763414,-1.2838153352392576,1.9126010223070542
1687009169.1516209,0.20059512555599213,0.9642279744148254,0.1732795238494873,-0.09222717583179474,-0.37740558385849,-0.16563498973846436,0.8408158421516418,-1.8807357549667358,-0.8933425545692444,2.2832632238134787,-1.3025152522572994,2.3125525741702515
1687009169.170268,0.21460413932800293,0.9746432900428772,0.06336799263954163,-0.05983421206474304,-1.3120609521865845,0.9499070644378662,0.9021231532096863,0.411653995513916,0.5800009965896606,1.8579158861665905,-1.3451212442167688,1.9073160532995934
1687009169.207998,0.2184542566537857,0.9751234650611877,0.03756750002503395,-0.2975405752658844,0.9537091851234436,-0.1100316122174263,2.306055784225464,0.7360805869102478,-0.01730392314493656,1.7411001809646238,-1.3472774823672213,1.787188879007289
1687009169.2706928,0.2174639254808426,0.9758073091506958,-0.022571323439478874,0.0040174126625061035,0.009406864643096924,0.27325791120529175,0.3309677541255951,0.24950172007083893,-0.035063743591308594,1.4673732457792623,-1.3503836223027104,1.4830640535986916
1687009169.3638659,0.214273139834404,0.9766607880592346,-0.01484864205121994,0.0497802197933197,0.19489365816116333,-0.06725895404815674,-0.07231307029724121,-0.041198961436748505,-0.05097932741045952,1.5016092046311598,-1.3543220051980571,1.513793672712235
1687009169.368847,0.2184554934501648,0.9756900668144226,-0.017498379573225975,-0.017985478043556213,-0.14230072498321533,0.07101088762283325,-0.07461177557706833,-0.16299624741077423,0.19248951971530914,1.4908665495985367,-1.3498479540917239,1.5081177918251782
1687009169.420999,0.22678828239440918,0.9737599492073059,-0.018932130187749863,0.018405213952064514,-0.009374082088470459,-0.0645182728767395,0.050548069179058075,-0.0686831846833229,0.12164251506328583,1.4875101211968655,-1.3412070809945993,1.5123851785005566
1687009169.5178108,0.22965966165065765,0.9730814695358276,-0.019199255853891373,0.003616705536842346,0.013872087001800537,0.0409582257270813,0.03525020554661751,0.10326620191335678,0.0268627367913723,1.4873915332071612,-1.3382444984442037,1.5094799843340443
1687009169.5394778,0.2300926297903061,0.9728661179542542,-0.024266686290502548,0.01137775182723999,-0.0027275681495666504,0.046742793172597885,-0.02889888547360897,0.1313224732875824,-0.014708406291902065,1.4657199091893007,-1.3373119324590186,1.480387697517426
1687009169.599237,0.22892555594444275,0.9732847213745117,-0.01759752817451954,-0.010160297155380249,-0.044894397258758545,0.016575099900364876,0.0018393199425190687,0.18885846436023712,-0.049284759908914566,1.4940771078852955,-1.3391279951923867,1.5023230742109253
1687009169.603178,0.22803480923175812,0.973512589931488,-0.016520846635103226,-0.0018843263387680054,-0.02685755491256714,0.013621632009744644,-0.17214685678482056,0.07950694859027863,-0.025641482323408127,1.4984738909433648,-1.340122568845159,1.4990377935392791
1687009169.6602259,0.2271788865327835,0.9738306999206543,-0.006599268410354853,0.030084356665611267,0.0411381721496582,0.008872746489942074,-0.057191573083400726,-0.007968971505761147,0.0007328679785132408,1.5417557178646455,-1.34151805404996,1.5414284725295126
1687009169.7567558,0.23035483062267303,0.9730891585350037,-0.0058266413398087025,0.003928646445274353,-0.025289595127105713,0.023786187171936035,-0.12979993224143982,-0.0423867329955101,0.08973225206136703,1.545507518415112,-1.3382778632434964,1.5472318876609494
1687009169.775473,0.2341357171535492,0.9722037315368652,0.00017818785272538662,0.008265420794487,0.00031501054763793945,-0.029673457145690918,-0.10697171837091446,-0.0720740556716919,0.0720701664686203,1.5715573718304654,-1.3344661588039959,1.5769091995216171
1687009169.8117309,0.23810744285583496,0.9712321758270264,0.0035881181247532368,-0.021951377391815186,-0.025477170944213867,0.029828548431396484,0.0013103494420647621,0.029093975201249123,0.06963950395584106,1.5858645101180915,-1.3303517565870009,1.5932969308424085
1687009169.898635,0.23951739072799683,0.9708717465400696,0.006273283157497644,-0.016006633639335632,0.00898653268814087,-0.06566059589385986,-0.04487072676420212,0.01829592138528824,0.02090844139456749,1.5969816873235727,-1.3288427080902372,1.6040094503923528
1687009169.902499,0.23925043642520905,0.9709146022796631,0.009164656512439251,-0.003242701292037964,0.018907785415649414,0.03346836566925049,-0.016008784994482994,0.0403696671128273,-0.015088971704244614,1.609083312956432,-1.3290215577786455,1.6144882935002756
1687009169.995657,0.2383841574192047,0.9707160592079163,-0.029718251898884773,0.026798352599143982,0.1282675862312317,0.08371901512145996,1.7800668478012085,0.17045682668685913,0.01861892268061638,1.446770814017825,-1.3281937412945846,1.4451901541693115
1687009170.084611,0.2434539794921875,0.9628280997276306,-0.11701325327157974,-0.006927475333213806,-0.10610824823379517,0.19187283515930176,1.8282887935638428,0.18145115673542023,0.20204201340675354,1.1227578849662014,-1.2972839760262804,1.1006148810155003
1687009170.104233,0.26934027671813965,0.9458732604980469,-0.18105052411556244,0.04395318031311035,-0.2151452898979187,0.22415657341480255,0.9253255128860474,0.2558182179927826,0.6989535093307495,0.9789727515208446,-1.2402749246481894,0.9383575287534792
1687009170.1681561,0.31335118412971497,0.9278039336204529,-0.20246195793151855,0.026431560516357422,-0.21025949716567993,0.18492954969406128,0.29404574632644653,0.8165716528892517,1.0062847137451172,0.9971546776815132,-1.188482641119446,0.9295768993735422
1687009170.185739,0.38073185086250305,0.9055975675582886,-0.18691202998161316,-4.032254219055176e-05,-0.2512855529785156,0.17493385076522827,-0.06888997554779053,1.3900867700576782,1.4883335828781128,1.114432390132388,-1.1327864989766296,0.9989262531515393
1687009170.2583199,0.47711580991744995,0.8627017736434937,-0.16764816641807556,0.06016138195991516,-0.3826146721839905,0.15919478237628937,0.8261814713478088,2.2351222038269043,2.04307222366333,1.2328941063113872,-1.040588110500577,1.033194905584674
1687009170.261951,0.5863267183303833,0.8030591011047363,-0.1063816249370575,0.1606367826461792,-0.4161267876625061,0.08132666349411011,-0.5030725002288818,2.355870008468628,2.6397078037261963,1.3913114002698277,-0.9324111955832264,1.0839562863273602
1687009170.3862262,0.7172801494598389,0.6967824101448059,-0.0018005941528826952,0.22557556629180908,-0.49245208501815796,-0.02960205078125,-1.2648690938949585,2.610178232192993,3.9760522842407227,1.5682860240730485,-0.7709018554269019,1.1558733018150769
1687009170.406472,0.849277675151825,0.49558597803115845,0.18199419975280762,0.6269033551216125,-0.622096598148346,-0.23491178452968597,-5.349647045135498,1.3699100017547607,5.386757850646973,1.7818965500050647,-0.5185093517525208,1.3238425214601022
1687009170.470749,0.9490849375724792,0.1322028636932373,0.2859373390674591,1.0578882694244385,-0.14796526730060577,-0.20169365406036377,-10.180617332458496,-2.3621761798858643,5.822718143463135,1.8634241617231921,-0.13259101807311635,1.6370216721279798
1687009170.487667,0.9785242080688477,-0.20277619361877441,0.03704167902469635,1.1430730819702148,0.4093191623687744,0.9065769910812378,-14.734235763549805,-5.998180866241455,2.2400307655334473,1.6086328989577836,0.20419219138500644,2.1920903585318117
1687009170.559136,0.9178164005279541,0.0031088003888726234,-0.3969929814338684,-0.21946752071380615,0.8536111116409302,1.7942554950714111,-18.24299430847168,-5.280578136444092,-2.7952287197113037,1.1625559952533482,-0.0031088052945754574,3.0251799694364734
1687009170.562797,0.8218913078308105,0.41449958086013794,-0.3907489478588104,0.029777884483337402,0.9423729181289673,0.04393184185028076,-5.7299418449401855,-1.3918360471725464,-2.229870319366455,1.1270000287729225,-0.4273928527415105,-2.7168978094965253
1687009170.650785,0.7871003746986389,0.46206316351890564,-0.408620148897171,0.16431546211242676,0.08429297804832458,-0.0007121860980987549,3.606788396835327,0.5572376847267151,-0.617588460445404,1.0919493687714577,-0.4803201892086624,-2.7404271042501422
1687009170.654988,0.7972237467765808,0.35466301441192627,-0.4885164499282837,0.5013296008110046,-0.17242735624313354,-0.01552724838256836,5.9204816818237305,0.6233603358268738,-0.27850809693336487,1.0210384937427235,-0.3625536240250604,-3.0073009111014932
1687009170.7105808,0.795166015625,0.2611103951931,-0.5472954511642456,-0.01660168170928955,-0.12381187081336975,0.24393540620803833,3.967611789703369,0.27022629976272583,-1.0326341390609741,0.9679807135360965,-0.26417232838967986,3.046427016202271
1687009170.8020701,0.7874729037284851,0.1816827356815338,-0.5889632105827332,0.015597045421600342,-0.2629511058330536,0.10316914319992065,3.9958574771881104,0.03450817987322807,-0.7540733218193054,0.9286305772554801,-0.1826973943837265,2.850844141510236
1687009170.823122,0.7844820022583008,0.12671047449111938,-0.6070687770843506,0.13974279165267944,-0.45590364933013916,0.13519060611724854,0.39225220680236816,-0.16924747824668884,-0.2973094880580902,0.9122072212055827,-0.12705202013205177,2.738680428547014
1687009170.8560681,0.7780030369758606,0.15814609825611115,-0.6080304980278015,0.003567337989807129,-0.15738320350646973,0.07443058490753174,-1.3413794040679932,-0.03647638112306595,-0.38333675265312195,0.9074212444444322,-0.15881283337144667,2.755246814499937
1687009170.950707,0.7744318246841431,0.2124798446893692,-0.595909059047699,0.03191876411437988,-0.16574223339557648,0.0152510404586792,-1.1869441270828247,-0.06744495034217834,-0.15117649734020233,0.9149447711848767,-0.2141120554103367,2.803040903715606
1687009170.9545379,0.7735490798950195,0.23028811812400818,-0.5904143452644348,-0.018254399299621582,-0.06378428637981415,-0.003991842269897461,-0.11281082779169083,0.044955626130104065,0.05282296612858772,0.9188665554029144,-0.2323737558387477,2.824957521496329
1687009171.010244,0.7757423520088196,0.2304903119802475,-0.5874502658843994,0.03410238027572632,-0.037863463163375854,0.014070689678192139,-0.17275239527225494,-0.0017305167857557535,0.22096218168735504,0.9226554870589859,-0.23258153612602478,2.8376132284624807
1687009171.103722,0.7777431607246399,0.22578445076942444,-0.586631715297699,1.245737075805664e-05,-0.022094935178756714,-0.0020676851272583008,-0.016924314200878143,0.015305191278457642,0.12585510313510895,0.9245652316441344,-0.22774820508149893,2.8450014621562025
1687009171.1234322,0.7795552015304565,0.22200600802898407,-0.5856680870056152,0.005997717380523682,0.017846837639808655,-0.028421998023986816,-0.0356270968914032,-0.03267312049865723,0.15477143228054047,0.9264733679592667,-0.2238713375383253,2.8518152013207896
1687009171.157219,0.7796903252601624,0.21573016047477722,-0.5878294110298157,-0.015484452247619629,0.0004868358373641968,-0.0061953067779541016,0.10224747657775879,-0.0029648919589817524,0.0832221582531929,0.9247867939200356,-0.21743953510670438,2.8534519399310767
1687009171.252987,0.7776114344596863,0.21612431108951569,-0.5904326438903809,-0.02759629487991333,0.06439320743083954,-0.036306917667388916,0.04155857115983963,-0.061393048614263535,-0.03626136854290962,0.9213760313450218,-0.21784321448622682,2.853356232068248
1687009171.271912,0.7756221294403076,0.21434052288532257,-0.5936904549598694,-0.021395504474639893,-0.017181769013404846,-0.01510477066040039,0.09429195523262024,-0.034010693430900574,-0.013779494911432266,0.9174880402699973,-0.21601661231505948,2.8466792954296136
1687009171.311182,0.774457573890686,0.21190601587295532,-0.5960800051689148,0.02061682939529419,0.008827567100524902,0.0042067766189575195,0.04226018115878105,-0.03067028895020485,0.09002812951803207,0.9148221636824806,-0.21352485227581647,2.845446482138916
1687009171.398652,0.7756209969520569,0.2025492787361145,-0.5978175401687622,0.0041030049324035645,-0.13978995382785797,0.02488046884536743,0.48388245701789856,0.0843372568488121,0.12504389882087708,0.9141407605615061,-0.20396046818284105,2.8426475731595886
1687009171.4022698,0.7791597247123718,0.12756243348121643,-0.6137083172798157,0.1015317440032959,0.0978555977344513,0.1110532283782959,6.1193413734436035,0.45478641986846924,0.3418917953968048,0.9036288455700354,-0.12791094850198384,2.75722893261771
1687009171.460963,0.8179818987846375,-0.15231192111968994,-0.5547131299972534,0.002589881420135498,-0.16049328446388245,0.5013072490692139,9.242549896240234,1.4993327856063843,-0.02233756333589554,0.974886902636689,0.15290707337279244,2.400599699075967
1687009171.554209,0.8688235878944397,-0.3426389694213867,-0.3574129641056061,0.08530837297439575,0.5179014205932617,0.5704714059829712,9.560286521911621,2.0850613117218018,-1.634722113609314,1.1805218776923978,0.34972445657155615,1.9545971053436315
1687009171.57533,0.9372276067733765,-0.3194563686847687,-0.13982883095741272,0.33131182193756104,0.11486649513244629,0.5351687073707581,5.521321773529053,1.830523133277893,-3.0385570526123047,1.4226946300918704,0.32515574232026395,1.536929187027098
1687009171.672565,0.9822966456413269,-0.18706463277339935,0.010007422417402267,0.17549443244934082,0.13655802607536316,-0.028943657875061035,4.290543079376221,1.7206017971038818,-3.0599567890167236,1.5809837552478396,0.18817317506402714,1.2811001219864186
1687009171.692347,0.994665265083313,-0.013701003044843674,0.1022411361336708,0.29255080223083496,0.2270340919494629,-0.0931011438369751,3.100393295288086,1.1026766300201416,-3.53580641746521,1.6732260780553394,0.013701431729023984,1.1054020738754515
1687009171.7616549,0.9746875762939453,0.18389363586902618,0.12715037167072296,0.3577709197998047,-0.09589619934558868,-0.10151563584804535,1.4982999563217163,0.32964181900024414,-3.797025203704834,1.7005162265488019,-0.18494617685131065,1.0141587922112523
1687009171.7788649,0.9207385182380676,0.37294086813926697,0.11469724774360657,0.4018321633338928,-0.022507578134536743,-0.16503608226776123,1.2257728576660156,-0.09997346252202988,-3.7879576683044434,1.6947288220288401,-0.3821765593755895,0.9766265926207777
1687009171.8485498,0.8403433561325073,0.5368818640708923,0.07470567524433136,0.3948861360549927,-0.06207406520843506,-0.11024343222379684,0.7060308456420898,-0.6959114074707031,-3.4982197284698486,1.659462225542067,-0.5667367360458625,0.9437541083643625
1687009171.8512359,0.7345331907272339,0.677771806716919,0.03295803815126419,0.42434126138687134,-0.13352137804031372,-0.16821205615997314,-0.3301040530204773,-1.1680063009262085,-3.55360746383667,1.615635618510179,-0.7447279239830112,0.9477350068380666
1687009171.912496,0.6094461679458618,0.7927896976470947,0.007716642692685127,0.37920117378234863,-0.20644038915634155,-0.30771970748901367,-0.5554655194282532,-1.4904979467391968,-3.3042948246002197,1.5834573795107727,-0.9153725196775011,0.9930299141779803
1687009172.001771,0.4851588308811188,0.8743997812271118,-0.006769794039428234,0.36709028482437134,-0.45568346977233887,-0.17195641994476318,-0.9057604074478149,-1.8030239343643188,-2.595966339111328,1.5568434639636088,-1.0641973517496441,1.0590644486207232
1687009172.006549,0.38145315647125244,0.92432701587677,-0.010633807629346848,0.42500439286231995,-0.380473256111145,-0.25398415327072144,-0.4269380569458008,-2.1731715202331543,-1.9506810903549194,1.54292644652487,-1.1792682746470935,1.1578383190797574
1687009172.094866,0.31009870767593384,0.9499084949493408,-0.038894690573215485,0.35150715708732605,-0.39857786893844604,0.0266113243997097,-0.09635482728481293,-2.0708954334259033,-1.0784779787063599,1.4460211153311915,-1.2529429384309376,1.167201904951096
1687009172.1863399,0.2631445527076721,0.9633094668388367,-0.05281863361597061,0.18584531545639038,-0.06372761726379395,-0.11188477277755737,-0.3640300929546356,-1.8863784074783325,-0.7201023101806641,1.3727076135722336,-1.2990716848387125,1.1981948860392098
1687009172.19201,0.21152666211128235,0.975525438785553,-0.06005561724305153,-0.2734620273113251,-0.340363085269928,0.31205445528030396,-0.9788330793380737,-1.0989233255386353,-1.1417938470840454,1.2941608425579603,-1.3490979825661442,1.1724215609640407
1687009172.273807,0.20797723531723022,0.9780667424201965,-0.011445758864283562,-0.28987109661102295,-0.21972018480300903,0.27800148725509644,0.29387709498405457,0.027716055512428284,0.17234563827514648,1.5158180775391068,-1.3609681295869716,1.4505774466116277
1687009172.2953491,0.20777131617069244,0.9757848381996155,-0.06837137788534164,-0.16336823999881744,0.02981489896774292,0.4042630195617676,1.743014931678772,0.8382347226142883,0.1174784004688263,1.252887367127453,-1.3502808145556904,1.1457147627814075
1687009172.3595839,0.21426162123680115,0.9713038802146912,-0.10325105488300323,0.013933584094047546,0.20574378967285156,0.015482425689697266,-0.17955529689788818,0.011884894222021103,0.15032929182052612,1.1217394333031594,-1.3306528931827992,0.992813572418338
1687009172.363241,0.216013565659523,0.9741659760475159,-0.06586765497922897,-0.0010324567556381226,0.05447465181350708,0.0744735598564148,-0.9497333765029907,-0.17641496658325195,0.0009824065491557121,1.274828515080785,-1.3429981362444448,1.1566320643003538
1687009172.450381,0.21743664145469666,0.9753329753875732,-0.038036514073610306,0.024232089519500732,-0.03380471467971802,0.009609341621398926,-0.15615051984786987,-0.25263410806655884,0.10448776185512543,1.3976171406390385,-1.3482244111021235,1.2952506367127108
1687009172.45407,0.22136031091213226,0.9749714136123657,-0.0207341518253088,-0.009080052375793457,-0.06772983074188232,-0.002688167616724968,-0.8700973987579346,-0.21405848860740662,0.07992303371429443,1.4774018455243134,-1.3465924786645571,1.3890013037402178
1687009172.510036,0.226082444190979,0.974052906036377,0.010368377901613712,0.01625765860080719,0.0952218770980835,-0.0953141450881958,-0.035389211028814316,-0.10496609658002853,0.10122059285640717,1.6166252612866778,-1.3424978777748788,1.541508203500555
1687009172.6005301,0.22806811332702637,0.9736148715019226,-0.007667118683457375,-0.0040843188762664795,0.012072265148162842,0.03758955001831055,0.3270248770713806,0.10140026360750198,-0.04950500279664993,1.5371913105511916,-1.3405705128351229,1.4596760187618514
1687009172.605108,0.2277238965034485,0.9736149311065674,-0.014684944413602352,0.007078379392623901,-0.005460083484649658,0.06915873289108276,0.09121101349592209,0.08961444348096848,0.05378090217709541,1.5063997471687334,-1.340570617499511,1.4224509080663725
1687009172.660526,0.23359964787960052,0.9722980260848999,-0.008236810564994812,-0.04320041835308075,-0.14258605241775513,0.09794318675994873,-0.34757691621780396,0.22982867062091827,0.15214209258556366,1.5355505562817462,-1.3348689951527557,1.4456648259492
1687009172.786123,0.25839394330978394,0.966020405292511,0.006059939973056316,0.12188559770584106,-0.1330433487892151,0.00947344209998846,-0.007191658951342106,0.09779234975576401,0.7963860034942627,1.5942443595349156,-1.3093626695156848,1.49025070786696
1687009172.791796,0.3267056941986084,0.9451028108596802,0.0066382805816829205,0.04119902849197388,-0.6252633333206177,0.1645042896270752,-0.31737589836120605,0.16494154930114746,2.0739073753356934,1.591112372102515,-1.23790916723711,1.4867340466463788
1687009172.874522,0.44432342052459717,0.8953658938407898,0.029939886182546616,0.11040985584259033,-0.5652115941047668,0.15290606021881104,0.06932322680950165,0.8441869020462036,3.166511297225952,1.6380777122390864,-1.10925210643179,1.5135537604807994
1687009172.8945,0.6034996509552002,0.7956922650337219,0.051591917872428894,0.16499394178390503,-0.6096267700195312,-0.031068924814462662,-0.08284447342157364,1.3967406749725342,4.4376444816589355,1.6560768810786104,-0.9201496377087994,1.4639241916972048
1687009172.959995,0.7779613733291626,0.6168308854103088,0.11956383287906647,0.3544543385505676,-0.4576513171195984,-0.2700766324996948,-1.2650768756866455,0.8889774084091187,5.622954845428467,1.7232917918315112,-0.6647100000899825,1.4713550639550503
1687009172.9636412,0.9229763150215149,0.3389662504196167,0.18225324153900146,0.8053255677223206,-0.28806301951408386,-0.3161797523498535,-2.8587801456451416,0.3401256203651428,6.689969539642334,1.7657508234128034,-0.34581787182706636,1.4987766212628988
1687009173.050593,0.9851464033126831,-0.0068067824468016624,0.17158116400241852,1.3823614120483398,0.30740487575531006,0.025348663330078125,-6.835687637329102,-2.4484076499938965,5.240305423736572,1.7432347801723769,0.006806835015123311,1.6924430173664826
1687009173.0548239,0.974246084690094,-0.2203001230955124,-0.04808434098958969,0.5505187511444092,0.1959013044834137,0.4177436828613281,-10.475671768188477,-3.789499282836914,2.244263172149658,1.5214809077060107,0.2221221371720883,2.0898973726724064
1687009173.143956,0.9234777092933655,-0.09203594923019409,-0.3724486529827118,0.3023368716239929,0.7838999629020691,0.6325803995132446,-13.166726112365723,-4.1649956703186035,-0.9979179501533508,1.1874389874558455,0.09216638213909913,2.7414281842580097
1687009173.1645908,0.854017436504364,0.16522316634655,-0.4933107793331146,-0.015455484390258789,0.41934099793434143,-0.05548691749572754,-3.6943910121917725,-2.0526463985443115,-1.5452308654785156,1.0469836596560942,-0.16598428015828165,3.0848334946650393
1687009173.199755,0.8003041744232178,0.2308574616909027,-0.5533697605133057,0.14322292804718018,-0.052192360162734985,0.1941930055618286,1.1339141130447388,-1.2238260507583618,-0.7888744473457336,0.9658321700593788,-0.2329588651652501,3.0853425932795697
1687009173.2620811,0.765773594379425,0.21599990129470825,-0.6057513952255249,0.2268715500831604,-0.05187644064426422,0.3066180944442749,1.633486032485962,-0.6104162335395813,-0.6907212734222412,0.9015476371316711,-0.2177157962699606,3.001850630311525
1687009173.361325,0.7411627173423767,0.2160836011171341,-0.6355985999107361,0.13966602087020874,-0.29587188363075256,0.3661131262779236,0.20871300995349884,-0.3848825693130493,-0.9193717241287231,0.8619241109594201,-0.2178015196422533,2.9352726713923354
1687009173.378581,0.7238844037055969,0.2476261407136917,-0.6439507603645325,0.08777624368667603,-0.209860697388649,0.2136528491973877,0.6674014329910278,-0.05036915838718414,-0.8658589720726013,0.8437698438092401,-0.25022931702089807,2.899625071772282
1687009173.408468,0.7182965278625488,0.2421824187040329,-0.6522252559661865,-0.026585161685943604,-0.40841174125671387,0.24469345808029175,1.031795859336853,0.257468581199646,-0.5133177042007446,0.8335696904350709,-0.24461460548541872,2.837208771925548
1687009173.498656,0.7264453768730164,0.21414029598236084,-0.6530091762542725,0.06615710258483887,-0.12298434972763062,0.10997933149337769,1.401678204536438,0.4081145226955414,-0.11314655840396881,0.8385836255976521,-0.21581163091960529,2.7831333172789603
1687009173.502311,0.7419870495796204,0.16184595227241516,-0.6505851745605469,0.022508680820465088,-0.17736420035362244,-0.0831947922706604,1.465827465057373,0.42703866958618164,0.08911226689815521,0.8509394551068657,-0.1625609753615603,2.7221363920901847
1687009173.56163,0.7514456510543823,0.13553453981876373,-0.6457242369651794,-0.019008636474609375,-0.13306266069412231,-0.027127385139465332,0.07191075384616852,0.14455319941043854,-0.03318142145872116,0.860922520842725,-0.1359529603861767,2.6940758260213586
1687009173.652987,0.7533338665962219,0.13884608447551727,-0.6428139209747314,0.047340452671051025,-0.012579664587974548,-0.09673386812210083,-0.018391583114862442,-0.017892709001898766,0.09706073999404907,0.8643940839538177,-0.13929611477753862,2.6992051157833936
1687009173.658031,0.7548428177833557,0.12594278156757355,-0.6437006592750549,0.02503371238708496,-0.017269760370254517,-0.06966298818588257,0.3738230764865875,0.05315164104104042,0.19748161733150482,0.8647014492535116,-0.12627812320552823,2.6932447736032663
1687009173.711144,0.7557004690170288,0.10793735831975937,-0.6459615230560303,0.00797128677368164,0.11378804594278336,-0.038563072681427,0.36449286341667175,-0.0538143590092659,0.2404506504535675,0.8635308080404343,-0.10814805085154329,2.69015380878864
1687009173.803534,0.7547587752342224,0.09547943621873856,-0.6490167379379272,-0.028211653232574463,-0.014592647552490234,0.006514847278594971,0.18303294479846954,-0.012088483199477196,0.03464343026280403,0.8605830820851929,-0.09562510365659245,2.6829886291127623
1687009173.808717,0.7524142265319824,0.09816529601812363,-0.6513343453407288,-0.002505779266357422,0.045664019882678986,0.09919494390487671,-0.2184993177652359,-0.059682633727788925,-0.023218536749482155,0.8572812411706605,-0.09832364369770712,2.6858818270592035
