Timestamp,gravityX,gravityY,gravityZ,accelerationX,accelerationY,accelerationZ,rotationRateX,rotationRateY,rotationRateZ,attitudeRoll,attitudePitch,attitudeYaw
1687005199.476678,0.9064198136329651,0.42183396220207214,-0.021427268162369728,0.0006387829780578613,0.013117820024490356,0.0106087327003479,0.037544071674346924,0.00188552332110703,0.02945799008011818,1.5471612760962357,-0.43546710849038434,0.020007677541340863
1687005199.482008,0.9068358540534973,0.420961856842041,-0.020976509898900986,-0.004034280776977539,0.00642162561416626,0.021708844229578972,0.01248718798160553,0.007694676518440247,0.015538712032139301,1.5476689114632454,-0.434505438558242,0.019344043886269906
1687005199.5945358,0.9068551659584045,0.42093104124069214,-0.02075205370783806,-0.004435241222381592,0.006330281496047974,0.0014801044017076492,0.0689954087138176,0.02916814386844635,0.0014180997386574745,1.5479167835526935,-0.4344714646997916,0.017192804978629544
1687005199.599659,0.9073275327682495,0.4199048578739166,-0.020885398611426353,0.008306384086608887,-0.004484415054321289,-0.00021755509078502655,0.08923103660345078,-0.003945334814488888,0.048937149345874786,1.5477818038061075,-0.4333404773440539,0.012457758506781462
1687005199.7147698,0.9079146981239319,0.4185313284397125,-0.022852065041661263,-0.014146506786346436,0.0084553062915802,-0.0013636928051710129,0.11400076001882553,0.024670731276273727,0.012234262190759182,1.5456318020227864,-0.43182761146970866,0.007453114135381111
1687005199.729378,0.9080925583839417,0.4180428683757782,-0.024653634056448936,-0.002239406108856201,-0.011548787355422974,-0.010716257616877556,0.20996524393558502,0.04688442125916481,0.011788981966674328,1.5436541809986761,-0.4312898367528026,-0.0032707991252661473
1687005199.8086371,0.90864098072052,0.41677963733673096,-0.025809135288000107,0.00728297233581543,-0.017243534326553345,-0.004891632124781609,-0.07266572117805481,-0.02782190404832363,0.0462484210729599,1.5423998545722348,-0.42989969761589,-0.0065595614499924185
1687005199.8146691,0.9094598293304443,0.41498783230781555,-0.025840140879154205,-0.0007380247116088867,0.004445761442184448,-0.014900922775268555,0.002718247938901186,-0.003314165398478508,0.033089473843574524,1.5423913440726682,-0.4279294136927714,-0.003382148988894191
1687005199.8253899,0.9102904796600342,0.41306570172309875,-0.027345070615410805,-0.0059784650802612305,0.017781436443328857,-0.007750213146209717,0.11795536428689957,-0.000708528736140579,0.03084762766957283,1.5407654185124626,-0.42581782780102306,-0.007596821758413739
1687005199.8915172,0.9107456803321838,0.4119776785373688,-0.028576163575053215,0.004476368427276611,0.0006504952907562256,-0.013644933700561523,-0.05829177796840668,-0.028346415609121323,0.02957303822040558,1.5394299520493073,-0.4246234166164405,-0.00766109829934874
1687005199.985223,0.9110453128814697,0.4112495481967926,-0.02949734404683113,-0.017063438892364502,0.02313762903213501,0.0026113390922546387,0.1313716173171997,0.02425900474190712,0.002056725323200226,1.5384301600516754,-0.4238244902930752,-0.008987231877414363
1687005199.9986591,0.9110070466995239,0.4112151265144348,-0.03111519291996956,0.003955662250518799,-0.034826576709747314,0.01800781488418579,-0.0005703568458557129,0.006061759777367115,0.002586161717772484,1.536654875115208,-0.42378669603484975,-0.015900125206398528
1687005200.073204,0.910959005355835,0.41136670112609863,-0.030514080077409744,0.0017606616020202637,0.007471799850463867,-0.004062354564666748,-0.04736822098493576,-0.008336621336638927,0.0190570130944252,1.5373121897042834,-0.423952996058518,-0.013511495217523789
1687005200.078136,0.9114010334014893,0.4105074107646942,-0.028840217739343643,-0.0006040334701538086,-0.0006258487701416016,0.001313328742980957,-0.042474329471588135,0.009265941567718983,0.005792074836790562,1.5391630545532475,-0.4230104664737999,-0.010439728430965372
1687005200.161778,0.911589503288269,0.41008421778678894,-0.02890670858323574,-0.002730250358581543,0.0006213784217834473,-0.010216895490884781,0.06588070839643478,0.009776603430509567,0.012168214656412601,1.539096723557266,-0.42254640815787453,-0.011646863268092332
1687005200.1668391,0.9116681218147278,0.4099179208278656,-0.028777318075299263,-0.004334986209869385,0.001413196325302124,0.0006706155836582184,0.012561090290546417,0.028496094048023224,-0.0016266927123069763,1.5392412406521552,-0.4223640659840195,-0.013334107105425931
1687005200.255876,0.9119163751602173,0.40934446454048157,-0.029082924127578735,0.00861591100692749,-0.016613692045211792,0.002380009740591049,0.01272927038371563,-0.0030631625559180975,0.02832454815506935,1.5389150359518022,-0.4217354488881632,-0.015306815145176919
1687005200.344738,0.9122164845466614,0.40856558084487915,-0.030580047518014908,-0.003982961177825928,0.00761789083480835,-0.013563692569732666,0.07225392013788223,0.0019474417204037309,0.007628590799868107,1.5372860805035395,-0.42088192508822325,-0.01857557608281112
1687005200.350398,0.9124252796173096,0.4080907106399536,-0.03068980574607849,0.0008894205093383789,0.013707935810089111,0.00021797604858875275,0.0014126996975392103,-0.006858966313302517,0.010239819996058941,1.5371735826350772,-0.4203617362500015,-0.018570484327972602
1687005200.432921,0.9127066731452942,0.4073370099067688,-0.03229495882987976,0.006574273109436035,-0.0054357945919036865,0.002738654613494873,-0.003193303942680359,-0.014799846336245537,0.00783551950007677,1.5354273618665353,-0.41953630061955244,-0.020700332372403697
1687005200.446961,0.9124913811683655,0.407777339220047,-0.032821036875247955,-0.006439685821533203,0.02335980534553528,0.005431469529867172,0.053919315338134766,-0.00020239496370777488,-0.012067615054547787,1.5348432270282004,-0.4200184838167839,-0.02090307732264407
1687005200.520574,0.9124717116355896,0.4077039361000061,-0.03424528241157532,0.00867074728012085,-0.019733965396881104,0.00803065299987793,-0.06298965215682983,-0.026361694559454918,0.00825443398207426,1.5332836939605796,-0.41993809753584793,-0.023210912776301655
1687005200.534374,0.9120295643806458,0.4087059795856476,-0.034080032259225845,-0.005825400352478027,0.01167362928390503,-0.004524707794189453,-0.0022960184141993523,-0.009863810613751411,-0.022453943267464638,1.5334464577401739,-0.42103577438097883,-0.019803485896153866
1687005200.613795,0.9120368361473083,0.408638060092926,-0.034690164029598236,0.008129000663757324,-0.004356503486633301,0.0027229823172092438,-0.016371622681617737,-0.02376418001949787,0.007430984638631344,1.5327787292755992,-0.42096134531632334,-0.01979537511190983
1687005200.626909,0.9119285941123962,0.40881338715553284,-0.03546426445245743,-0.000490725040435791,-0.0021666884422302246,0.010333001613616943,-0.06488676369190216,-0.02697874791920185,-0.006562328897416592,1.5319266157125822,-0.4211534529776471,-0.017763185833289986
1687005200.669651,0.9121119379997253,0.40845149755477905,-0.034918200224637985,0.0026220083236694336,0.007243752479553223,0.0030730925500392914,-0.06303559243679047,-0.04068257287144661,0.023876003921031952,1.532532212314976,-0.4207569367468692,-0.013323222698526375
1687005200.7650728,0.9124608039855957,0.40766552090644836,-0.034985631704330444,0.0005487203598022461,-0.0009424984455108643,-0.013201653957366943,-0.1365092247724533,-0.04814115911722183,0.005918576382100582,1.5324730365633745,-0.4198960348033337,-0.00825601046098012
1687005200.777981,0.9119036793708801,0.40910598635673523,-0.032614704221487045,0.011771738529205322,-0.004809141159057617,-0.01955515146255493,-0.32286012172698975,-0.03834352269768715,-0.039222005754709244,1.5350460508176031,-0.421474097745735,0.0018544827617520048
1687005200.821949,0.9103145003318787,0.4130880832672119,-0.026180336251854897,0.05953395366668701,0.2329232096672058,-0.037845611572265625,-0.5003888010978699,-0.08717084676027298,-0.15752041339874268,1.5420445916845424,-0.4258424030885692,0.02705336768266287
1687005200.90922,0.9024168848991394,0.43064528703689575,-0.013728547841310501,-0.04240095615386963,0.49475452303886414,0.028331158682703972,-0.8210467100143433,0.032329581677913666,-0.6507868766784668,1.5555844118573403,-0.44520764168648075,0.0636594128423801
1687005200.915679,0.8789693713188171,0.4767656922340393,0.010359496809542179,-0.05253809690475464,0.6203107833862305,0.08853268623352051,-0.579610288143158,0.30341675877571106,-1.4205360412597656,1.5825817392931174,-0.4969716111565469,0.10615321918042768
1687005200.9710221,0.8349829912185669,0.5483553409576416,0.04593466967344284,0.1299675703048706,0.5593717694282532,0.12420082092285156,-0.8377005457878113,0.5202624797821045,-1.9253664016723633,1.6257536322594923,-0.5803962137603422,0.14913654733704665
1687005201.0928159,0.7679449319839478,0.6335269212722778,0.09436064213514328,0.19926375150680542,0.5698879361152649,0.18658410012722015,-0.5891224145889282,0.8374844193458557,-2.5060503482818604,1.6930577148043306,-0.6861031202272743,0.2085848152904864
1687005201.098666,0.6626602411270142,0.7346168756484985,0.14566798508167267,0.3191664218902588,0.4564231038093567,0.19486236572265625,-0.2981013059616089,1.3815220594406128,-3.2281763553619385,1.787177834479242,-0.8251018028800674,0.26556762565889735
1687005201.175956,0.5107913613319397,0.8337506055831909,0.2096470147371292,0.4668697118759155,0.45981311798095703,0.1870661824941635,-0.4424503743648529,1.711845874786377,-3.770352602005005,1.9602665133131305,-0.9858660465637107,0.38483508211006956
1687005201.180009,0.3196603059768677,0.9111104011535645,0.2601829767227173,0.544154942035675,0.40120649337768555,0.0745491087436676,-0.2972923219203949,1.6963123083114624,-3.9435019493103027,2.25397715987336,-1.1459702416153734,0.6198569446517114
1687005201.273649,0.11072250455617905,0.9506628513336182,0.28979334235191345,0.5731305480003357,0.41032934188842773,0.17375335097312927,-0.06542978435754776,1.7168205976486206,-4.043275356292725,2.776634579193437,-1.2553656565291176,1.0882942303462415
1687005201.279283,-0.11098196357488632,0.9530472755432129,0.28175088763237,0.7126665115356445,0.32013070583343506,0.16545355319976807,0.3120103180408478,1.8073285818099976,-4.166838645935059,-2.7663550559775554,-1.2631445317910928,1.7700395480366933
1687005201.362742,-0.33281442523002625,0.9118961691856384,0.24016538262367249,0.8223164081573486,0.18380671739578247,0.21149463951587677,0.6620265245437622,1.8270173072814941,-4.267070770263672,-2.1958851708404215,-1.1478806029526718,2.281021347860184
1687005201.368033,-0.5371049642562866,0.8307585716247559,0.14614568650722504,0.8521073460578918,0.11908578872680664,0.16247858107089996,1.9341530799865723,1.7309702634811401,-4.238962650299072,-1.8364634564056397,-0.9804691148926487,2.5876571707151124
1687005201.421129,-0.7053223848342896,0.708646297454834,0.018453652039170265,0.8367159366607666,-0.026837944984436035,0.133172869682312,1.7762442827224731,1.451444149017334,-4.148078918457031,-1.5969537866996455,-0.7875777053456725,2.792437418364561
1687005201.516364,-0.8336697220802307,0.5466399192810059,-0.07860992103815079,0.7871913909912109,0.029333531856536865,0.1350216269493103,1.6239274740219116,1.0895665884017944,-4.09736967086792,-1.476780467781046,-0.5783463150509826,2.8828394442266676
1687005201.52981,-0.9198588132858276,0.3587212562561035,-0.15867877006530762,0.7263620495796204,-0.1185784637928009,0.07609812915325165,1.5070258378982544,0.6875401735305786,-3.979367733001709,-1.399974102031107,-0.36689761063164184,2.9523897589944315
1687005201.5688639,-0.9668185710906982,0.15958698093891144,-0.19948363304138184,0.6691044569015503,0.05417335033416748,0.18999260663986206,0.9017345309257507,0.5095034241676331,-3.982212543487549,-1.3673217551070755,-0.16027225369584158,2.9676228928188464
1687005201.664026,-0.9739256501197815,-0.040912892669439316,-0.2231474071741104,0.49547117948532104,-0.045253511518239975,0.019885078072547913,1.1151303052902222,0.2961369752883911,-3.8259334564208984,-1.3455623534354648,0.040924315135325635,2.976222006431752
1687005201.6700091,-0.9444151520729065,-0.23671317100524902,-0.22813764214515686,0.49858391284942627,0.13067983090877533,0.14302408695220947,1.0105115175247192,0.22067272663116455,-3.81699275970459,-1.3337721034694334,0.23898146815159288,2.982904910365069
1687005201.7842278,-0.8824146389961243,-0.42239314317703247,-0.20719197392463684,0.40048110485076904,0.01754695177078247,0.028694629669189453,2.052633047103882,-0.00012995698489248753,-3.5958290100097656,-1.340172817744152,0.4360839372007154,3.0174203361497853
1687005201.873314,-0.7946307063102722,-0.5875336527824402,-0.15285983681678772,0.4689319133758545,0.03804945945739746,0.015027165412902832,1.6286009550094604,-0.27434632182121277,-3.4311554431915283,-1.3807519218898217,0.6280075896919685,3.081709568464033
1687005201.8883991,-0.6897988319396973,-0.7184584140777588,-0.08941406011581421,0.38302093744277954,-0.07895058393478394,0.046948790550231934,1.5867218971252441,-0.3906102180480957,-3.0879621505737305,-1.441891690488687,0.8015834830156461,-3.1330827879472642
1687005201.927843,-0.580528974533081,-0.8141008615493774,-0.015026593580842018,0.32267075777053833,-0.13844424486160278,-0.03573942184448242,1.5090090036392212,-0.5163403153419495,-2.6565184593200684,-1.5449177919789028,0.9511792011131579,-3.030465321572145
1687005201.931188,-0.48063328862190247,-0.8750719428062439,0.05692889913916588,0.22173741459846497,-0.20886671543121338,0.13069307804107666,1.1681231260299683,-0.4181695282459259,-2.075237274169922,-1.6886926412563563,1.0655843827025093,-2.8894306484896317
1687005201.93511,-0.39854198694229126,-0.9111799001693726,0.10447687655687332,0.11579662561416626,-0.30859243869781494,0.0731201320886612,0.7660273313522339,-0.3013997972011566,-1.5155229568481445,-1.8271750528996185,1.146138839077848,-2.7549510112142523
1687005201.989923,-0.3419764041900635,-0.9294137358665466,0.1387166976928711,0.030651360750198364,-0.26480013132095337,0.1401224285364151,0.49097633361816406,-0.09783321619033813,-0.9281671047210693,-1.9561487180072796,1.1928210735773106,-2.626316999506882
1687005202.0839748,-0.31129708886146545,-0.9367719888687134,0.15984980762004852,0.03221392631530762,-0.2594558596611023,0.045319780707359314,0.6318947076797485,0.06803032010793686,-0.4009871184825897,-2.0451823391425035,1.2132889351841183,-2.530708047734655
1687005202.175016,-0.30034419894218445,-0.936286211013794,0.18210247159004211,-0.024927347898483276,-0.09681004285812378,0.12281382083892822,0.24358205497264862,0.22089269757270813,-0.16894564032554626,-2.1158445211916543,1.2119032521347446,-2.4476731221786014
1687005202.180084,-0.29811257123947144,-0.9365776777267456,0.18425823748111725,0.062028586864471436,-0.059485554695129395,-0.02646718919277191,-0.06992146372795105,0.11934570223093033,-0.029068171977996826,-2.124405972209822,1.2127340969573897,-2.428118934759489
1687005202.263972,-0.29988789558410645,-0.9377973675727844,0.1749373823404312,0.01714259386062622,0.053230226039886475,0.03497779369354248,-0.20932090282440186,0.05203484371304512,0.05126155540347099,-2.098877673258416,1.2162306899559283,-2.452387083039742
1687005202.268966,-0.30146390199661255,-0.9387226700782776,0.1670902669429779,0.0019491612911224365,0.04640406370162964,0.03673660755157471,0.005687139928340912,0.07454840838909149,-0.00700468011200428,-2.076906543902925,1.2189055129314637,-2.471146342778352
1687005202.3195472,-0.30195653438568115,-0.9385966658592224,0.16690920293331146,0.0006107091903686523,-0.021577894687652588,0.013571754097938538,-0.11655061691999435,0.003642011433839798,0.0011366037651896477,-2.0757553448322517,1.2185401798851743,-2.4702881371919054
1687005202.446683,-0.3025604784488678,-0.939544141292572,0.1603558212518692,-0.017340004444122314,0.011504650115966797,0.0001970529556274414,-0.1418277472257614,-0.047219570726156235,0.029742680490016937,-2.0581517220636245,1.2212966004430887,-2.4913987909682596
1687005202.452527,-0.3034922778606415,-0.9396213889122009,0.15812638401985168,0.005244046449661255,-0.0024866461753845215,-0.0037075281143188477,-0.016388600692152977,-0.0021538264118134975,0.01910228654742241,-2.0511203502514865,1.2215223375677542,-2.500004653250943
1687005202.5345368,-0.30478450655937195,-0.9401943683624268,0.15212050080299377,0.005712300539016724,0.0013059377670288086,0.011301040649414062,-0.24376650154590607,0.008017318323254585,0.05144611373543739,-2.0337303561000404,1.2232005089579363,-2.5188163339285343
1687005202.549587,-0.30703598260879517,-0.9408899545669556,0.14301954209804535,-0.004472106695175171,-0.003537297248840332,0.00958356261253357,-0.12134017795324326,-0.001901624957099557,0.05279740318655968,-2.006717433986391,1.2252481771211896,-2.547516176524604
1687005202.6242409,-0.30978772044181824,-0.9407137632369995,0.13816189765930176,-0.0136527419090271,0.006586194038391113,-0.0027708113193511963,-0.12619605660438538,0.01451276894658804,0.06396111100912094,-1.9903096737444537,1.2247283770739332,-2.564922523419297
1687005202.6293092,-0.31251654028892517,-0.9404357075691223,0.13384392857551575,-0.010481476783752441,0.016210854053497314,-0.026864632964134216,-0.0475771501660347,-0.03226645663380623,0.05375214293599129,-1.9754401004555127,1.2239096896791741,-2.581141639127365
1687005202.748944,-0.31468307971954346,-0.9396997690200806,0.1339346170425415,-0.00637701153755188,0.0032070279121398926,-0.006920471787452698,-0.025231627747416496,-0.04058297351002693,0.041339416056871414,-1.9731898716370424,1.221751430338981,-2.585817400659707
1687005202.760713,-0.3157399892807007,-0.9402415156364441,0.127492293715477,-0.0006509721279144287,0.0019785165786743164,-0.01195274293422699,-0.15196047723293304,-0.013821534812450409,0.0233236625790596,-1.9545647055045934,1.223338861609309,-2.6066836118303547
1687005202.868208,-0.31760039925575256,-0.9399653077125549,0.12488080561161041,-0.005153477191925049,-0.008154809474945068,-0.009631142020225525,-0.005016836803406477,0.02180596813559532,0.02800549939274788,-1.9454278231155322,1.222528660959463,-2.615973947501647
1687005202.8808851,-0.3176008462905884,-0.9407715201377869,0.11865417659282684,-0.015590041875839233,-0.00257265567779541,-0.011018738150596619,-0.21145470440387726,0.030738743022084236,-0.023480858653783798,-1.9283348986687967,1.224898674251231,-2.6323628173394424
1687005202.992608,-0.31730347871780396,-0.9417411088943481,0.1115439236164093,0.011196941137313843,-0.0038154125213623047,0.00048601627349853516,-0.08524928987026215,0.03674270585179329,-0.003898102790117264,-1.9088397965908597,1.22777001074949,-2.6515461967594542
1687005202.9961848,-0.31828072667121887,-0.9417001008987427,0.10907889902591705,-0.01828235387802124,-0.006435275077819824,0.0016540437936782837,-0.016951724886894226,0.041464224457740784,0.007856824435293674,-1.9009645738764134,1.2276480917802726,-2.6576850212966328
1687005202.999666,-0.31848183274269104,-0.9419885277748108,0.1059572696685791,0.0015262961387634277,-0.007901668548583984,0.009948387742042542,-0.0709533765912056,0.03136991336941719,0.006824317388236523,-1.8919721402508336,1.2285064058262434,-2.66509767869362
1687005203.072105,-0.31989094614982605,-0.9418116807937622,0.10324911028146744,-0.019647568464279175,-0.022955715656280518,0.0001138448715209961,-0.035939063876867294,0.09166973829269409,0.02872908115386963,-1.8830040347723618,1.2279798151809993,-2.671856831396391
1687005203.07628,-0.32292288541793823,-0.9415404200553894,0.09603224694728851,0.023408204317092896,-0.037936389446258545,0.023383013904094696,-0.24320024251937866,0.11383149772882462,0.11557716131210327,-1.8598518102851997,1.2271737295363225,-2.69093639853756
1687005203.16405,-0.3343450725078583,-0.9394646883010864,0.07496286928653717,0.05735233426094055,-0.1715887188911438,0.07753336429595947,-0.510619580745697,0.26325133442878723,0.38459184765815735,-1.7913568715987107,1.2210646438494543,-2.754435764935919
1687005203.1690469,-0.364101767539978,-0.9304742813110352,0.04058877378702164,0.10206261277198792,-0.27771663665771484,0.052779678255319595,-0.8581847548484802,0.4011153280735016,0.878467857837677,-1.68181441942618,1.1957053624886678,-2.852487373989741
1687005203.2834911,-0.41703274846076965,-0.9088900685310364,-0.0015238941414281726,0.12560519576072693,-0.15513569116592407,0.018812060356140137,-0.5628435015678406,0.4557872414588928,1.358757495880127,-1.5671422074225176,1.140614777650274,-2.954410643517164
1687005203.379384,-0.4834775924682617,-0.874678373336792,-0.034456077963113785,0.09996318817138672,-0.18686038255691528,0.028154131025075912,-0.64214688539505,0.5106087923049927,1.6200321912765503,-1.4996494543438381,1.064771844426934,-3.002792536969721
1687005203.384852,-0.5579798817634583,-0.8257070779800415,-0.08286349475383759,0.18220168352127075,-0.17279762029647827,0.016731850802898407,-0.8836058974266052,0.48632755875587463,1.9834325313568115,-1.4233675798298648,0.9714545255519479,-3.0622078933947083
1687005203.398092,-0.6409738063812256,-0.7564617991447449,-0.13006921112537384,0.19271641969680786,-0.15064263343811035,0.08737504482269287,-0.9132571220397949,0.49139824509620667,2.3184380531311035,-1.3705904687643784,0.8578862996893719,-3.0987082684535627
1687005203.4588819,-0.7250504493713379,-0.6629069447517395,-0.18669746816158295,0.20295584201812744,-0.16340219974517822,0.11791081726551056,-1.2853432893753052,0.49916788935661316,2.647156000137329,-1.3187752944875606,0.7246947388191834,-3.136087253340195
1687005203.4621391,-0.8066954612731934,-0.5389922857284546,-0.24234160780906677,0.3260590434074402,-0.19121700525283813,0.04112395644187927,-1.3857818841934204,0.24399948120117188,3.055851459503174,-1.2789608964699932,0.5692402701852493,3.1122431428495703
1687005203.520537,-0.8806619644165039,-0.37709954380989075,-0.2867586016654968,0.4506388306617737,-0.23131415247917175,0.048523128032684326,-2.2794690132141113,-0.17402198910713196,3.471208095550537,-1.2560063731867728,0.3866626254167509,3.069289053419439
1687005203.649293,-0.9371917843818665,-0.17624640464782715,-0.30101266503334045,0.5120362639427185,-0.18479180335998535,0.09161630272865295,-2.410201072692871,-0.6008353233337402,3.8030083179473877,-1.260018118241267,0.17717185554384604,3.012499652797557
1687005203.663285,-0.961269199848175,0.044698815792798996,-0.271962434053421,0.6737783551216125,-0.11696447432041168,0.11319467425346375,-2.232006311416626,-0.9629853367805481,4.021320343017578,-1.295081833523017,-0.044713714626533396,2.9533559497851103
1687005203.763352,-0.9401023983955383,0.26638004183769226,-0.21271835267543793,0.7876213788986206,-0.14321115612983704,0.33751994371414185,-1.6456176042556763,-0.8624709844589233,4.263910293579102,-1.348272005284238,-0.2696354184826595,2.912064040549413
1687005203.767859,-0.8692378401756287,0.47274044156074524,-0.14471419155597687,0.7258356809616089,0.006736487150192261,0.13488750159740448,-1.5044918060302734,-0.8338691592216492,4.157146453857422,-1.4058253830745187,-0.49239807382860734,2.87439342072063
1687005203.852191,-0.7606931924819946,0.6446466445922852,-0.0760020986199379,0.7685973048210144,0.11876571178436279,0.2848948836326599,-1.2938876152038574,-0.7391723394393921,3.858745813369751,-1.471215166374717,-0.700561011269877,2.8265300070720265
1687005203.865443,-0.6300676465034485,0.7764877080917358,-0.009028847329318523,0.5636308789253235,0.06984090805053711,0.008921980857849121,-0.8306370973587036,-1.0131908655166626,3.6230032444000244,-1.5564673417423713,-0.8890726347939737,2.7657887616420043
1687005203.910058,-0.4760253429412842,0.8770045638084412,0.06528965383768082,0.5691955089569092,0.1795596480369568,0.12678790092468262,-1.3236333131790161,-0.952792227268219,3.696697235107422,-1.707101699528631,-1.069592087157859,2.6431175462357057
1687005203.913913,-0.3106306493282318,0.9387534260749817,0.14916566014289856,0.6468428373336792,0.09373241662979126,0.24591481685638428,-1.5878474712371826,-1.1269296407699585,3.431241989135742,-2.0184810031143523,-1.218994774829419,2.36401387751912
1687005203.967474,-0.14023150503635406,0.9680666923522949,0.20780208706855774,0.34476029872894287,0.41531020402908325,0.1683269590139389,-0.32297077775001526,-0.8449545502662659,3.3008458614349365,-2.5479583977533338,-1.3174005930694352,1.8599759753954124
1687005204.05991,0.0262326430529356,0.973970890045166,0.22514936327934265,0.23305991291999817,0.33260858058929443,0.09884035587310791,-0.14176476001739502,-0.7040978074073792,3.282470703125,3.025603445214574,-1.3421358903704226,1.170961213045952
1687005204.064549,0.19794166088104248,0.960155189037323,0.19728389382362366,0.21708208322525024,0.3286020755767822,0.05009150505065918,0.9223678112030029,-0.6784331798553467,3.5157370567321777,2.354530200765881,-1.2875569318033475,0.5144674970491874
1687005204.183615,0.37021446228027344,0.9171783328056335,0.14739418029785156,0.2601870894432068,0.3811461925506592,0.010320544242858887,0.6409779191017151,-0.6179173588752747,3.415715217590332,1.9496912371373052,-1.1609405669070552,0.11735602817744692
1687005204.199347,0.5178998112678528,0.8470864295959473,0.1192653626203537,0.21624618768692017,0.32274383306503296,0.07426178455352783,0.15814173221588135,-0.7881917953491211,3.1173007488250732,1.7971368487015456,-1.010478868031954,-0.01157190428099223
1687005204.274194,0.645908772945404,0.7599552273750305,0.07259312272071838,0.20447874069213867,0.4628993272781372,-0.03209638595581055,0.8410091400146484,-0.8401138782501221,3.04197359085083,1.682715805433739,-0.8632442648463606,-0.1046637306167157
1687005204.287935,0.7503746151924133,0.6607578992843628,0.018344495445489883,0.16080379486083984,0.40671634674072266,0.10299336910247803,0.4959861934185028,-0.7941463589668274,2.6623153686523438,1.5952385751764717,-0.7218280404154008,-0.16618540664353693
1687005204.362125,0.8230761289596558,0.5672302842140198,-0.028201842680573463,0.09884458780288696,0.5038756728172302,0.010593175888061523,1.3552782535552979,-0.20604091882705688,2.0004360675811768,1.5365457719097229,-0.603138828463776,-0.22110577653189023
1687005204.366533,0.8652155995368958,0.49825945496559143,-0.05602846294641495,-0.021358966827392578,0.3110819160938263,0.1571331024169922,0.4241078495979309,0.13056667149066925,1.2231175899505615,1.5061299707162081,-0.521590142038613,-0.2740937361324219
1687005204.424242,0.8905537724494934,0.4511679708957672,-0.057976651936769485,0.07587677240371704,0.3810921013355255,-0.008414383977651596,0.9978880286216736,0.3416871726512909,0.9776312112808228,1.505786266321235,-0.46807365578100907,-0.30186731280895734
1687005204.513273,0.9113736152648926,0.40648511052131653,-0.06455963104963303,0.062426984310150146,0.18071886897087097,0.031142830848693848,0.3150821924209595,0.0986698567867279,0.9167861938476562,1.5000767317760586,-0.4186036922538359,-0.341337802891043
1687005204.518763,0.9270997047424316,0.3693999648094177,-0.06348110735416412,-0.047293126583099365,0.13595589995384216,0.004200689494609833,0.16232015192508698,0.1360437273979187,0.6289320588111877,1.5024302435910257,-0.3783632462429772,-0.3479784160091426
1687005204.60547,0.9362452626228333,0.3468072712421417,-0.05629408732056618,-0.07944929599761963,0.178934246301651,-0.022258210927248,0.3415919840335846,0.3180176615715027,0.32730165123939514,1.5107411301197122,-0.35416497285699977,-0.35777824751522547
1687005204.6187701,0.9418821930885315,0.33202412724494934,-0.05116666108369827,-0.0011320710182189941,0.12689924240112305,-0.0938529446721077,0.478089302778244,0.16624556481838226,0.28689539432525635,1.5165258283938963,-0.33844861779234603,-0.38012224643518794
1687005204.658478,0.9458547234535217,0.32039451599121094,-0.05202019214630127,-0.01424473524093628,0.05523112416267395,-0.0915040373802185,0.1680823117494583,0.05962139368057251,0.13629469275474548,1.5158536017270445,-0.32614591648088515,-0.396887515613179
1687005204.725426,0.9471455812454224,0.3166463375091553,-0.0514807403087616,0.006437063217163086,0.012974023818969727,-0.05949646234512329,0.003699888940900564,0.036124587059020996,0.03820114582777023,1.5164961941943746,-0.32219180246279183,-0.40061811557924937
1687005204.8456979,0.9470170140266418,0.31723764538764954,-0.0501897819340229,-0.011073529720306396,0.0010301768779754639,-0.014080286026000977,-0.062055155634880066,0.00575975701212883,-0.032720163464546204,1.5178481030952693,-0.3228152552712247,-0.39831572952444205
1687005204.851155,0.9468640685081482,0.3173485994338989,-0.052328307181596756,9.632110595703125e-05,-0.023449063301086426,-0.02184474468231201,-0.06229051202535629,-0.04091893509030342,0.023532722145318985,1.5155876272272009,-0.32293225809571324,-0.3975590707188064
1687005204.937768,0.9467376470565796,0.31759190559387207,-0.053132496774196625,-0.0002961158752441406,0.01056361198425293,0.018754422664642334,-0.05148400366306305,0.02723362296819687,-0.04875505715608597,1.5147334675704605,-0.3231888219037385,-0.3943925176099055
1687005204.9541922,0.9458304047584534,0.32085472345352173,-0.04956734925508499,-0.01435774564743042,-0.012947618961334229,-0.003777444362640381,-0.11680588871240616,0.06553733348846436,-0.041934166103601456,1.518438054014431,-0.32663178264991555,-0.3894899687410985
1687005204.957838,0.9454562067985535,0.3226430118083954,-0.04487532377243042,0.007943272590637207,-0.018504828214645386,-0.026368018239736557,-0.06798721104860306,0.040265802294015884,-0.039458226412534714,1.5233677224908002,-0.3285204943968071,-0.3846965911484677
1687005205.023631,0.9452077746391296,0.32365790009498596,-0.04275386035442352,0.018079519271850586,-0.032703280448913574,-0.040437161922454834,-0.04700157046318054,-0.011675292626023293,0.014136291109025478,1.5255948993840567,-0.3295929219192577,-0.37971843228169566
1687005205.145056,0.9458372592926025,0.32164695858955383,-0.043986257165670395,0.013589441776275635,-0.04038172960281372,0.012354735285043716,-0.1479557454586029,-0.022107427939772606,0.03275285288691521,1.5243247107195534,-0.3274683568605582,-0.37635155947849425
1687005205.1506991,0.9469176530838013,0.3180215656757355,-0.04700334370136261,-0.00879204273223877,0.039903879165649414,0.036200039088726044,0.17970474064350128,-0.008363785222172737,0.0778907760977745,1.521198777890018,-0.32364199651825476,-0.379007235266582
1687005205.232925,0.9477055072784424,0.31569647789001465,-0.04679368436336517,-0.012586057186126709,0.020698755979537964,0.04220074787735939,-0.18889166414737701,0.008290291763842106,0.019502028822898865,1.521460630981858,-0.3211905771842641,-0.37806728251973387
1687005205.2488608,0.9473646879196167,0.3170919716358185,-0.044191937893629074,-0.0033186674118041992,0.048295050859451294,0.005556579679250717,0.059382326900959015,0.05980461463332176,-0.04900166392326355,1.5241828881124093,-0.32266163341271303,-0.3751013489199749
1687005205.323703,0.9465250968933105,0.3200429379940033,-0.040775053203105927,0.005333304405212402,0.006891876459121704,0.024005595594644547,-0.07701020687818527,0.044453222304582596,-0.061196278780698776,1.5277442616971346,-0.3257747986044549,-0.37399822348930467
1687005205.3377938,0.9455024003982544,0.32330068945884705,-0.03875094652175903,0.0015189647674560547,-0.004056304693222046,-0.028860807418823242,0.03797983378171921,0.020731516182422638,-0.03968938812613487,1.5298347494478797,-0.32921544191635976,-0.37314411027934097
1687005205.447382,0.9451820850372314,0.32428908348083496,-0.0383014902472496,0.010643482208251953,-0.003946095705032349,-0.003721233457326889,-0.025670714676380157,-0.016612792387604713,-0.02223236858844757,1.5302956168440154,-0.33026009911893167,-0.3726024797191625
1687005205.452954,0.9448186755180359,0.3251012861728668,-0.04033505544066429,0.00017344951629638672,-0.006772369146347046,-0.028863612562417984,0.035798437893390656,-0.044325247406959534,0.008213155902922153,1.5281314423834336,-0.3311188179452664,-0.37267295880002543
1687005205.531725,0.9451555013656616,0.323776513338089,-0.04301047325134277,0.002781510353088379,-0.011993646621704102,0.0284840427339077,0.013596462085843086,-0.02077784389257431,-0.006477640476077795,1.525321458335989,-0.32971829274130116,-0.3747776808934425
1687005205.538075,0.9450307488441467,0.3240283727645874,-0.04384417086839676,0.0004647374153137207,0.004722237586975098,-0.011911511421203613,0.010818584822118282,-0.022415556013584137,0.01772117242217064,1.524435132677831,-0.3299845129486661,-0.3742643112046194
1687005205.624531,0.9455379843711853,0.3224508762359619,-0.04453275725245476,-0.0056272149085998535,-0.0036032497882843018,0.016990605741739273,0.004046499263495207,-0.026597118005156517,0.016313426196575165,1.5237333067558756,-0.32831753200208363,-0.3744108196428699
1687005205.638873,0.9458392262458801,0.32138410210609436,-0.04582785815000534,-0.0018696784973144531,0.00988420844078064,-0.007455881685018539,0.040427543222904205,-0.030017148703336716,0.03131341189146042,1.522382131828342,-0.327190757577387,-0.37476544858293526
1687005205.7741761,0.9461281895637512,0.3203745186328888,-0.046917207539081573,-0.004172861576080322,0.0013722777366638184,0.012752778828144073,-0.008701121434569359,-0.02703547477722168,-0.0065514100715518,1.521248275914869,-0.3261248217115995,-0.3758046541521756
1687005205.7898889,0.9458555579185486,0.32098832726478577,-0.04820666089653969,0.0016084909439086914,0.03214588761329651,-0.00652671605348587,0.03625450283288956,-0.03279482573270798,0.00012859702110290527,1.5198741886836273,-0.3267728360129415,-0.3752574778346261
1687005205.8325438,0.9455602169036865,0.3217635452747345,-0.0488269217312336,-0.0005072355270385742,0.001509159803390503,0.015150725841522217,0.02356593869626522,-0.005791570991277695,-0.02643962949514389,1.519204063564347,-0.32759149954014294,-0.376537491292821
1687005205.836411,0.945084810256958,0.32314011454582214,-0.0489395409822464,-0.002076447010040283,-0.012852638959884644,0.014729321002960205,-0.016804654151201248,0.004536966793239117,-0.011792244389653206,1.5190593087995528,-0.32904573812237586,-0.37703335427703155
1687005205.839968,0.945082426071167,0.3231866955757141,-0.04867761954665184,0.003800511360168457,0.004129618406295776,-0.003949999809265137,0.033690277487039566,-0.028429904952645302,0.0175509974360466,1.5193355863868698,-0.32909495372193454,-0.3763388341417161
1687005205.889192,0.9453186988830566,0.3225030303001404,-0.04862480238080025,-0.003195345401763916,-0.011574655771255493,0.006205320358276367,-0.04103822261095047,0.007513049058616161,0.0031070755794644356,1.5194041494182429,-0.32837261032421855,-0.37637679803648083
1687005205.951674,0.9454071521759033,0.3222205936908722,-0.04877498745918274,-0.007937788963317871,0.00624006986618042,0.01357293501496315,0.032481737434864044,-0.003933084197342396,0.013992213644087315,1.5192505109833303,-0.32807425014749864,-0.3773279658408502
1687005206.011528,0.9457555413246155,0.3211207985877991,-0.04926968365907669,0.00584334135055542,0.00279274582862854,-0.039780668914318085,-0.10515835136175156,-0.0627366155385971,0.048249252140522,1.5187477973012853,-0.32691271820462364,-0.3746744290040824
1687005206.102991,0.9459531307220459,0.3204025626182556,-0.05014776438474655,-0.015701115131378174,0.005387842655181885,-0.04924803972244263,-0.25146740674972534,-0.10970505326986313,-0.005500260274857283,1.5178329563178494,-0.32615441697622954,-0.3648910908222821
1687005206.1191258,0.9459542632102966,0.3197581171989441,-0.0540844164788723,0.03521627187728882,0.019978821277618408,-0.05045360326766968,-0.2762448787689209,-0.2063145488500595,0.06290676444768906,1.5136840532450688,-0.32547419466264105,-0.3493271305211617
1687005206.1559858,0.9457926154136658,0.31881824135780334,-0.0618949793279171,-0.017356514930725098,-0.0036479830741882324,0.008763857185840607,-0.28399592638015747,-0.19049391150474548,-0.022191088646650314,1.5054470694843383,-0.32448239925429345,-0.33882966699993006
1687005206.251024,0.944284200668335,0.32268908619880676,-0.06479847431182861,-0.05791652202606201,0.25998300313949585,-0.13654130697250366,-0.29652512073516846,-0.31188705563545227,-0.06567038595676422,1.5022819470097453,-0.32856918632493487,-0.31866914127957713
1687005206.266403,0.9390159249305725,0.3349965810775757,-0.07762879133224487,0.03081732988357544,0.4354196786880493,-0.014305464923381805,-0.7949637174606323,-0.4391421973705292,-0.5358315110206604,1.488313523356441,-0.34160158643464883,-0.2967561386166382
1687005206.308332,0.9206807613372803,0.38287195563316345,-0.07586727291345596,0.07037746906280518,0.5735031366348267,-0.03868049383163452,-0.9337406158447266,-0.19856368005275726,-1.3511548042297363,1.4885786312360536,-0.3929031622326242,-0.24861469079247764
1687005206.402662,0.8849984407424927,0.4618794322013855,-0.0586937740445137,0.06548666954040527,0.4314005970954895,0.04485398530960083,-1.108568787574768,-0.012289285659790039,-1.970566987991333,1.5045725448622391,-0.4801130306769924,-0.201640063825416
1687005206.41873,0.8310655355453491,0.5552208423614502,-0.032554201781749725,0.19186830520629883,0.44749516248703003,0.05992841720581055,-0.6109103560447693,0.15381060540676117,-2.2739062309265137,1.5316447005997038,-0.5886284920193375,-0.1513077169551913
1687005206.4580278,0.7568383812904358,0.6535422801971436,-0.008838015608489513,0.31330621242523193,0.37755507230758667,0.1033814549446106,-0.5576968789100647,0.4008711278438568,-2.669013500213623,1.55911931075643,-0.7122550926866577,-0.13064872452240037
1687005206.553786,0.6567535996437073,0.7534728050231934,0.030875327065587044,0.3203886151313782,0.34160465002059937,0.020638227462768555,-0.784941554069519,0.4203234016895294,-2.9663760662078857,1.6177737802841048,-0.853328191032578,-0.07728590275534661
1687005206.569447,0.5294042229652405,0.8456862568855286,0.06742154061794281,0.35836726427078247,0.3614669442176819,-0.0236288383603096,-0.3099740743637085,0.5977885723114014,-3.3379933834075928,1.697468061226832,-1.0078497470384185,-0.009344509358990675
1687005206.607709,0.37201496958732605,0.9231626987457275,0.09682485461235046,0.4241122007369995,0.28405141830444336,0.046043142676353455,-0.450971394777298,0.6612019538879395,-3.6603925228118896,1.8254185788041186,-1.1762282401526856,0.0991447317860165
1687005206.702441,0.1894303411245346,0.9733628034591675,0.12915503978729248,0.5260695219039917,0.27143388986587524,-0.01939868927001953,-0.37491852045059204,0.6730477809906006,-3.7795517444610596,2.1692080073547575,-1.3394683605019087,0.4235510972800441
1687005206.718653,0.0022623585537075996,0.9903703331947327,0.13842488825321198,0.5487477779388428,0.25950759649276733,0.04207135736942291,0.1251436322927475,0.6615828275680542,-3.6592202186584473,3.125250526101718,-1.4319067993724945,1.3589592978345284
1687005206.758497,-0.18247660994529724,0.9758771061897278,0.1198582649230957,0.6245389580726624,0.28518539667129517,0.09300172328948975,0.49233847856521606,0.6808661818504333,-3.788288116455078,-2.151966208599806,-1.3507030191488107,2.345688067915403
1687005206.853225,-0.37656790018081665,0.9221722483634949,0.08828743547201157,0.7929040193557739,0.1340562105178833,0.12817370891571045,0.2411792278289795,0.8673886060714722,-4.207206726074219,-1.8010897605448968,-1.1736595813323534,2.671405699301644
1687005206.868818,-0.5707780122756958,0.8194629549980164,0.05189301818609238,0.8504716157913208,0.08593255281448364,0.14636433124542236,0.6476681232452393,1.001511812210083,-4.465009689331055,-1.6614633466554103,-0.9604733863073491,2.7775439204518375
1687005206.944592,-0.7390317916870117,0.6734585165977478,-0.016893738880753517,0.8153868317604065,-0.013455033302307129,0.1326621174812317,1.0329257249832153,0.9951266646385193,-4.453543186187744,-1.5479410218282659,-0.738877481009565,2.8605342529270374
1687005207.061738,-0.8660272359848022,0.4938173294067383,-0.07836467772722244,0.7286524772644043,-0.025876134634017944,0.12420201301574707,0.7680873870849609,0.8860684633255005,-4.3592915534973145,-1.4805545477348592,-0.5164742306728715,2.8954679730144033
1687005207.0677109,-0.9471611976623535,0.288778692483902,-0.13961486518383026,0.7400537729263306,0.08822014927864075,0.14057612419128418,1.3265206813812256,0.8280403017997742,-4.4239373207092285,-1.4244467211266802,-0.2929509229090041,2.9279021682683863
1687005207.157403,-0.9808191657066345,0.0655079185962677,-0.1835814118385315,0.6385952234268188,0.07482711970806122,0.04651166498661041,0.9992350935935974,0.5501150488853455,-4.406564235687256,-1.3857657329191875,-0.06555485875155558,2.9514346307882464
1687005207.173392,-0.9663945436477661,-0.1566092073917389,-0.20385034382343292,0.5308630466461182,0.0457846075296402,-0.014396131038665771,0.9158616662025452,0.3132345974445343,-4.331230640411377,-1.362904924416228,0.15725656035088198,2.9473204843367746
1687005207.176796,-0.9098575711250305,-0.3619707524776459,-0.202821284532547,0.442648708820343,-0.12142771482467651,0.05435320734977722,0.2476847916841507,0.12477922439575195,-4.052285194396973,-1.3514669041075094,0.37038114156691215,2.940783429557795
1687005207.205745,-0.8228203654289246,-0.5261775851249695,-0.2147182673215866,0.3025871515274048,-0.07932174205780029,-0.09682050347328186,-0.3367253541946411,0.07350365072488785,-3.6607882976531982,-1.315534876093401,0.5540992735557045,2.872776883911466
1687005207.271827,-0.7212703824043274,-0.6580055952072144,-0.216327965259552,0.2833431363105774,-0.20178145170211792,-0.02631738781929016,0.5120487809181213,0.13875150680541992,-3.0722591876983643,-1.2794071394235487,0.718167111519361,2.8198774770433337
1687005207.453538,-0.6216102242469788,-0.7579073905944824,-0.19793137907981873,0.2695290446281433,-0.1708950400352478,-0.03214067220687866,0.7646861672401428,0.24332784116268158,-2.447805404663086,-1.262529833035227,0.8600994111818573,2.810730920256783
1687005207.516504,-0.5333526730537415,-0.8226521015167236,-0.19692184031009674,0.2388429045677185,-0.19861853122711182,0.07788802683353424,-0.2491222470998764,0.26420941948890686,-1.9138424396514893,-1.2171070196211111,0.9660601561056624,2.770517345697066
1687005207.522089,-0.46202120184898376,-0.862938642501831,-0.20462946593761444,0.22879070043563843,-0.05957716703414917,-0.05376291275024414,0.30658313632011414,0.17138294875621796,-1.4070338010787964,-1.1538619371166863,1.0410566631114229,2.7082727172064835
1687005207.536211,-0.4079993665218353,-0.8921865224838257,-0.19375105202198029,0.09966510534286499,-0.18192529678344727,0.004679396748542786,0.27818965911865234,0.20672854781150818,-0.9746983647346497,-1.1274452886735056,1.102163287226247,2.6890679503105104
1687005207.570483,-0.3693006634712219,-0.9098612070083618,-0.18912768363952637,0.006614565849304199,-0.15309637784957886,0.07554122805595398,0.12985289096832275,0.34076225757598877,-0.6553214192390442,-1.097496728965015,1.1429494677549576,2.670763247845782
1687005207.58267,-0.3429275453090668,-0.91957026720047,-0.1918102353811264,0.023362785577774048,-0.14560002088546753,-0.03162425756454468,0.04562876373529434,0.265063613653183,-0.37425193190574646,-1.0608169456830028,1.1669853364062575,2.6479490123431497
1687005207.585279,-0.32819050550460815,-0.9249578714370728,-0.19168688356876373,0.025196760892868042,-0.09832704067230225,0.04857465624809265,0.0530296191573143,0.2137148082256317,-0.1824771612882614,-1.0421709337738045,1.180924807851204,2.6408276615198214
1687005207.69315,-0.32220572233200073,-0.9256429672241211,-0.1984151303768158,0.06289789080619812,-0.04533475637435913,0.03815203905105591,-0.19480115175247192,0.07306782901287079,-0.036824893206357956,-1.0188381882657083,1.1827311990735743,2.622164447588606
1687005207.785688,-0.3227902054786682,-0.9260442852973938,-0.19557112455368042,0.024786144495010376,0.027378082275390625,-0.014878079295158386,0.30658793449401855,-0.0016378387808799744,0.04229149594902992,-1.026066783129678,1.1837932847157748,2.6319950507545298
1687005207.8016438,-0.3231240510940552,-0.926070511341095,-0.19489464163780212,-0.017863988876342773,-0.021194934844970703,0.07052025198936462,-0.39784759283065796,0.03293505311012268,-0.027265742421150208,-1.0280585270346712,1.1838626291155006,2.6338110911162627
1687005207.8704062,-0.3214295506477356,-0.9235772490501404,-0.20901738107204437,0.010363876819610596,0.025277018547058105,-0.0345434844493866,0.1275666356086731,0.016159800812602043,0.005919906310737133,-0.9942282858868675,1.1773080460957563,2.5990614855507026
1687005207.8842359,-0.3208089768886566,-0.9273415207862854,-0.19266276061534882,0.02759617567062378,0.013828516006469727,-0.1582588404417038,0.2746935486793518,-0.20271088182926178,-0.10001105070114136,-1.0299703866508023,1.1872450743085854,2.6347335635238105
1687005207.959296,-0.32020509243011475,-0.9278712272644043,-0.1911119967699051,-0.039230912923812866,-0.06156975030899048,0.01745167374610901,-0.4019920229911804,-0.17312224209308624,-0.07309821248054504,-1.0327017660320414,1.1886629354628027,2.6234801468963185
1687005207.9732451,-0.314852237701416,-0.9266316890716553,-0.20547892153263092,-0.04083007574081421,-0.06714260578155518,0.05791117250919342,-0.08048363029956818,0.19704996049404144,-0.08934162557125092,-0.9925813565230656,1.1853526041806566,2.5840041988060283
1687005208.109671,-0.3121205270290375,-0.9284376502037048,-0.20145469903945923,0.02824610471725464,-0.06341397762298584,0.01204732060432434,0.23076532781124115,0.1352102905511856,0.04800823703408241,-0.9976342717829616,1.1901847925888056,2.5996014824132785
1687005208.127324,-0.31650274991989136,-0.9269188046455383,-0.20161204040050507,0.024922579526901245,-0.017401814460754395,-0.031893253326416016,-0.2616257965564728,-0.05870978161692619,0.11226659268140793,-1.0036147846901822,1.186117015481528,2.6068878444145756
1687005208.174298,-0.3201339542865753,-0.9231058955192566,-0.2130488157272339,-0.010188281536102295,0.08254492282867432,0.007818013429641724,0.009981419891119003,0.0427330881357193,0.045565586537122726,-0.9836025964129171,1.1760804699630756,2.584498190373776
1687005208.178437,-0.3198029398918152,-0.9252073764801025,-0.20424766838550568,-0.02690720558166504,0.05269467830657959,-0.012717053294181824,0.2908017635345459,0.08453592658042908,-0.023175127804279327,-1.002429167621707,1.1815817459515692,2.6090384422352173
1687005208.1820688,-0.3173063397407532,-0.9256572127342224,-0.20609556138515472,0.007400393486022949,-0.06277656555175781,-0.014424443244934082,-0.36045557260513306,-0.007637274917215109,-0.05560603737831116,-0.9947614027617538,1.1827688980660505,2.6031255665981563
1687005208.226928,-0.3169725239276886,-0.9227040410041809,-0.2194208800792694,-0.000394970178604126,-0.042505860328674316,-0.011810839176177979,-0.09300807863473892,-0.008908800780773163,0.03139783442020416,-0.9652978016857179,1.1750368458013352,2.569892685597488
1687005208.290265,-0.319254994392395,-0.9227933287620544,-0.2157052904367447,-0.0071915388107299805,-0.000683903694152832,0.04059538245201111,0.042928118258714676,0.07263998687267303,0.05727444216609001,-0.976598843024897,1.1752684984481603,2.5837767677642134
1687005208.3571038,-0.32015368342399597,-0.921097993850708,-0.2215394675731659,0.004617244005203247,0.028230130672454834,0.0023164451122283936,-0.09939566999673843,0.01818247139453888,0.023423001170158386,-0.9654742135000399,1.1708913079935686,2.574037232413579
1687005208.477587,-0.32116565108299255,-0.9214087128639221,-0.21876612305641174,0.006163239479064941,-0.0014275312423706055,-0.0065757036209106445,0.02666965313255787,0.020794101059436798,0.007462675683200359,-0.9728248981959401,1.1716901812940066,2.5825894196726806
1687005208.482518,-0.32196250557899475,-0.9185532927513123,-0.22934657335281372,0.036165446043014526,-0.02285289764404297,0.019263505935668945,-0.25850844383239746,0.011612585745751858,0.0842280313372612,-0.9518368148014992,1.1644049715703337,2.560573151182971
1687005208.563113,-0.3348007798194885,-0.9160480499267578,-0.22082646191120148,0.0607072114944458,-0.1930064558982849,-0.04257076978683472,0.4509298503398895,-0.0016480919439345598,0.5159130692481995,-0.9877189396223923,1.1581133236583012,2.6003924202675024
1687005208.568186,-0.37500226497650146,-0.9015035033226013,-0.21602000296115875,0.19876331090927124,-0.3840036392211914,0.011186003684997559,-0.11438614130020142,0.05004333332180977,1.347641944885254,-1.0481733924857841,1.1232311746356374,2.667734234850991
1687005208.685641,-0.4545530080795288,-0.8626248836517334,-0.22194555401802063,0.33570238947868347,-0.3465120196342468,0.016516447067260742,-0.04514048993587494,0.19518640637397766,2.310654640197754,-1.116574988694173,1.0404360260766519,2.7519786789773026
1687005208.7036328,-0.565769612789154,-0.7879850268363953,-0.24286693334579468,0.5440563559532166,-0.318017840385437,0.11740913987159729,-0.7765001058578491,0.36741316318511963,3.239331007003784,-1.1653159747313446,0.9075293867138302,2.8276816891404346
1687005208.811389,-0.6952955722808838,-0.6576031446456909,-0.290038138628006,0.6764968037605286,-0.2639818787574768,0.2041921615600586,-0.9116028547286987,0.512714147567749,4.188076019287109,-1.1755988585102508,0.7176328217700424,2.871384696683759
1687005208.815654,-0.8152210116386414,-0.47033751010894775,-0.3379305601119995,0.7251942753791809,-0.19549494981765747,0.0034121572971343994,-1.6587035655975342,0.25019800662994385,4.712404251098633,-1.177830330202256,0.48967319522435115,2.912401408680705
1687005208.819075,-0.9001723527908325,-0.21978844702243805,-0.3760089576244354,0.8427994251251221,-0.06365883350372314,0.21335023641586304,-2.2003254890441895,-0.3050982356071472,5.115211009979248,-1.175118466294502,0.2215976033565028,2.907698970986113
1687005208.8567328,-0.9353023767471313,0.05905799940228462,-0.34888598322868347,0.8794400691986084,-0.009405944496393204,0.22957751154899597,-3.067272424697876,-1.1676738262176514,5.0724196434021,-1.2137631416942338,-0.05909238346697305,2.896486480383126
1687005208.9515219,-0.903323769569397,0.344986230134964,-0.25493258237838745,0.8527867197990417,0.32966578006744385,0.47638338804244995,-2.9394657611846924,-1.3080371618270874,4.913778305053711,-1.2957337395314652,-0.35222412896545646,2.8061984846895136
1687005208.967113,-0.8151649832725525,0.5591074228286743,-0.1513437032699585,0.8348336219787598,0.23341870307922363,0.5509255528450012,-2.0722453594207764,-1.4965201616287231,4.1723408699035645,-1.3872262783614198,-0.5933088674943248,2.763834862648998
1687005209.0141091,-0.6905631422996521,0.7228718400001526,-0.024051621556282043,0.49290090799331665,0.4012429714202881,0.3047827482223511,-1.5663548707962036,-1.0494667291641235,3.842254638671875,-1.5359814047593927,-0.8079495197080763,2.632141004278271
1687005209.102892,-0.5415504574775696,0.8402448892593384,0.0266700591892004,0.5602731108665466,0.14486241340637207,0.35899579524993896,-0.5100176334381104,-0.5597352981567383,3.974740505218506,-1.6200041687841855,-0.9977346677515557,2.576574073426885
1687005209.119209,-0.3615632653236389,0.9293696284294128,0.07445788383483887,0.3961854577064514,0.1280490756034851,0.17419922351837158,-0.8355738520622253,-0.6576075553894043,4.0384626388549805,-1.7738903427688022,-1.192701511467899,2.4358869908975223
1687005209.16066,-0.15785080194473267,0.9812082648277283,0.1109640970826149,0.4142442047595978,0.2943041920661926,0.13264237344264984,-0.3383864164352417,-0.6315355896949768,4.3202009201049805,-2.1835116152520726,-1.3766269375693214,2.044187808806613
1687005209.252967,0.05322108790278435,0.9886341691017151,0.14060421288013458,0.3566604554653168,0.3363930583000183,0.23363277316093445,-0.7897485494613647,-0.752251148223877,4.103754997253418,2.7797421176158252,-1.4198827507600231,0.7467592858525697
1687005209.270424,0.2588297724723816,0.9550591707229614,0.14445975422859192,0.26335641741752625,0.5782657861709595,-0.003911152482032776,0.21843044459819794,-0.7227093577384949,3.986957311630249,2.0798572788873213,-1.2698594219408925,0.06560505645596816
1687005209.308372,0.4380807876586914,0.8857880234718323,0.1531829535961151,0.2564687728881836,0.3946533203125,0.1066436916589737,-1.2408143281936646,-1.2927048206329346,3.5694572925567627,1.9071755959805212,-1.0881892933445587,-0.06053974171990152
1687005209.403795,0.5933942794799805,0.7928626537322998,0.13875050842761993,0.2028244137763977,0.5958243608474731,-0.10882808268070221,0.31627270579338074,-1.1848876476287842,3.295656204223633,1.8004946235082548,-0.9154921958509113,-0.11319254727608809
1687005209.420757,0.7097265124320984,0.6972405910491943,0.10071735829114914,0.23659300804138184,0.40723633766174316,0.12468542158603668,-0.532242476940155,-1.1356167793273926,2.5904998779296875,1.7117651501764646,-0.7715408456808643,-0.15164696494097266
1687005209.4577188,0.7901036739349365,0.6085671782493591,0.07336284965276718,0.10255062580108643,0.4562673568725586,0.03242635726928711,0.23913916945457458,-0.7396430373191833,2.088674545288086,1.663383038625091,-0.6542536586974363,-0.15158597693645484
1687005209.5865579,0.8447849154472351,0.533730149269104,0.03834840655326843,0.03872948884963989,0.36902564764022827,0.09891963005065918,0.8887230157852173,-0.1409231573343277,1.6396925449371338,1.6161594670690484,-0.5630054176601372,-0.19617214370862637
1687005209.6050591,0.8794518113136292,0.47566598653793335,0.017498038709163666,0.0849950909614563,0.30109789967536926,0.08676528930664062,0.9550350904464722,0.23824147880077362,1.1865404844284058,1.5906902314893923,-0.49572099514534207,-0.25322536890387387
1687005209.668239,0.9036642909049988,0.4281826615333557,0.007085804827511311,0.02095717191696167,0.244348406791687,-0.016088485717773438,0.6066998243331909,0.137163445353508,0.9644019603729248,1.5786373576327977,-0.4424808168772527,-0.3041248417171222
1687005209.6718569,0.9193690419197083,0.3933928608894348,0.0015399419935420156,-0.0546535849571228,0.2920472025871277,-0.1607348918914795,0.7664334774017334,0.12533223628997803,0.5326084494590759,1.572471323984727,-0.4043191126514274,-0.3358303142744622
1687005209.7684112,0.9265139102935791,0.3762429654598236,-0.0036196878645569086,-0.03723180294036865,0.1897665560245514,-0.09104585647583008,0.24895046651363373,0.0026429262943565845,0.25891247391700745,1.5668895648674788,-0.3857379599088105,-0.35892522005496025
1687005209.785891,0.9286007285118103,0.3709385097026825,-0.010266337543725967,-0.0353206992149353,0.09167748689651489,-0.06462383270263672,0.21633632481098175,-0.04008243605494499,-0.03379048779606819,1.5597410701394439,-0.3800194270839446,-0.3765682796250068
1687005209.851606,0.9269242286682129,0.37499454617500305,-0.013796898536384106,-0.004301667213439941,0.030980795621871948,0.004687368869781494,0.12461145967245102,-0.015217030420899391,-0.10063183307647705,1.5559128240858309,-0.38439090655698155,-0.38129219368200656
1687005209.8554978,0.9249433279037476,0.379840224981308,-0.014178934507071972,0.0021042823791503906,-0.04443681240081787,0.03584635257720947,-0.06664152443408966,0.0153591213747859,-0.10342095792293549,1.5554680101757512,-0.38962358029055877,-0.3824747818434802
1687005209.910808,0.9234896302223206,0.3833872973918915,-0.013443419709801674,0.002611875534057617,-0.001993894577026367,0.014694572426378727,0.15368784964084625,0.0483986958861351,-0.0415317639708519,1.5562401586489816,-0.3934610609540436,-0.38427483749723146
1687005210.0050468,0.923058807849884,0.3844914436340332,-0.01134294643998146,0.023748934268951416,-0.028809070587158203,0.011831164360046387,-0.10966628044843674,0.025213217362761497,-0.032071419060230255,1.5585085123711582,-0.39465686439878184,-0.386404036327163
1687005210.023047,0.9225168228149414,0.38585060834884644,-0.009054752066731453,0.0023336410522460938,0.01937711238861084,-0.013970793224871159,-0.029202066361904144,0.02149064838886261,-0.04878701642155647,1.5609813716889127,-0.3961296457467911,-0.382574850496922
1687005210.058079,0.9213041663169861,0.3887958526611328,-0.006009599659591913,0.0012115836143493652,-0.0056019127368927,-0.013140261173248291,-0.0905846655368805,0.03024832159280777,-0.08184882253408432,1.5642734924557211,-0.39932427170132906,-0.3791631431995447
1687005210.154303,0.9199675917625427,0.39194950461387634,-0.005932205356657505,0.0009155869483947754,-0.011395245790481567,-0.008166969753801823,0.027960021048784256,0.005263476632535458,-0.051866427063941956,1.5643481394310892,-0.402749700322001,-0.377915611019006
1687005210.171021,0.9190707206726074,0.3940514624118805,-0.005678846035152674,-0.0022464990615844727,-0.028527170419692993,0.015978455543518066,-0.1289810687303543,0.013860560022294521,-0.04774145781993866,1.564617505685798,-0.40503557943931184,-0.3775545579175869
1687005210.2380219,0.9185294508934021,0.395334929227829,-0.003674861276522279,-0.008449733257293701,0.023595064878463745,-0.0057856435887515545,0.027164600789546967,0.004106732551008463,-0.01572413556277752,1.5667955388651027,-0.4064324698217525,-0.3715287212130084
1687005210.36005,0.9184578061103821,0.39550790190696716,-0.0029453791212290525,0.00308150053024292,-0.009002745151519775,0.010605216026306152,-0.0689256489276886,0.015226894989609718,-0.030643697828054428,1.5675894630799132,-0.4066207922171388,-0.37119958979961104
1687005210.376103,0.9177119135856628,0.3972395062446594,-0.0023464225232601166,0.006451785564422607,-0.002784550189971924,-0.0024753808975219727,0.017759116366505623,0.021568812429904938,-0.031406424939632416,1.5682395141164462,-0.4085068604313831,-0.37124140053492566
1687005210.451607,0.9174213409423828,0.39791497588157654,-0.0013518368359655142,0.005582869052886963,-0.014629393815994263,-0.018438875675201416,-0.09721973538398743,-0.03517315909266472,0.005914314649999142,1.569322809811784,-0.4092430118230678,-0.36883505252010873
1687005210.4551291,0.9174994230270386,0.3977315425872803,-0.0020465801935642958,-0.0112343430519104,0.004352778196334839,-0.008695662021636963,0.01753048226237297,-0.01946064457297325,-0.002274107187986374,1.5685657239587294,-0.40904309685519347,-0.36516777493883396
1687005210.45837,0.9177950620651245,0.39703527092933655,-0.003871980821713805,-0.0041599273681640625,-0.012666374444961548,0.015041351318359375,-0.03946229815483093,-0.012062249705195427,0.00018345844000577927,1.566577565991344,-0.4082843347579369,-0.36685342070201654
1687005210.510919,0.9177206754684448,0.3972104787826538,-0.003555057570338249,0.004078030586242676,0.018484771251678467,0.006622015964239836,-0.007371603976935148,-0.001964075956493616,0.004868225194513798,1.5669225558606406,-0.40847522899528665,-0.36400538811050426
1687005210.633244,0.9180708527565002,0.3963930308818817,-0.004239980131387711,-0.004054367542266846,0.02113315463066101,0.010038256645202637,0.0981474295258522,0.00675391498953104,0.014996225945651531,1.566178001435206,-0.40758468443696194,-0.36791047922638664
1687005210.639204,0.9178187251091003,0.39698538184165955,-0.0033687339164316654,-0.0011470317840576172,-0.0009740591049194336,0.004177391529083252,-0.08886626362800598,0.003344269935041666,-0.02409418486058712,1.5671259737124466,-0.4082299951713454,-0.3671961386196592
1687005210.752699,0.9173718094825745,0.39802321791648865,-0.0025142363738268614,0.0022295117378234863,0.016008764505386353,-0.018603980541229248,-0.0012118453159928322,-0.019076751545071602,-0.00161790382117033,1.5680556386733793,-0.40936100241178525,-0.3649142923803498
1687005210.771534,0.9169727563858032,0.39894527196884155,-0.0018329640151932836,0.008121669292449951,0.00463441014289856,-0.0009747146395966411,-0.11165932565927505,-0.030664831399917603,-0.034060265868902206,1.5687973999120617,-0.41036631944660085,-0.3595667562972372
1687005210.879988,0.9165269136428833,0.39996543526649475,-0.002428308827802539,0.008125007152557373,-0.007997661828994751,-0.005826771259307861,-0.04383500665426254,-0.01872934028506279,-0.004711697809398174,1.5681468649073425,-0.41147913950156817,-0.3577960245160962
1687005210.885251,0.9164378643035889,0.4001661241054535,-0.0029623378068208694,-0.003229856491088867,0.011424511671066284,-0.005994618404656649,0.09280586242675781,-0.009604418650269508,0.004554237239062786,1.5675638899294024,-0.41169809904477733,-0.3570556288237082
1687005210.889956,0.9168390035629272,0.39922845363616943,-0.004784503486007452,0.003738999366760254,-0.022504150867462158,0.01265794038772583,-0.054133981466293335,-0.025927066802978516,0.021793145686388016,1.5655778967116738,-0.410675162599911,-0.3589886869525877
1687005210.957514,0.9172974824905396,0.39816391468048096,-0.005537423770874739,0.0029599666595458984,0.006544917821884155,-0.003617882262915373,0.021792206913232803,-0.025732388719916344,0.03584451600909233,1.5647597281002925,-0.409514388108326,-0.3581783059077498
1687005210.97089,0.9180124998092651,0.39650094509124756,-0.006323383655399084,-0.009717941284179688,0.005400300025939941,0.012655675411224365,-0.045639827847480774,-0.03155512362718582,0.010732770897448063,1.5639083121815414,-0.4077022232987274,-0.35679362114205987
1687005211.051453,0.9180487990379333,0.3964027762413025,-0.007130030542612076,-0.002979457378387451,0.006597042083740234,-0.00019425060600042343,-0.009571641683578491,-0.026015348732471466,0.0041773999109864235,1.5630299783863313,-0.40759528895581626,-0.3555192961896777
1687005211.0563998,0.9179025292396545,0.3967317044734955,-0.007668542675673962,0.0023854970932006836,0.010388016700744629,0.0008630752563476562,0.003380309557542205,-0.016001464799046516,0.0003262031823396683,1.5624421017083292,-0.4079536221618711,-0.35514326647511685
1687005211.109508,0.917858898639679,0.3968047797679901,-0.009003708139061928,-0.0007446408271789551,-0.001708894968032837,0.003998755477368832,-0.011017604731023312,-0.019450658932328224,-0.002532966434955597,1.5609871732479825,-0.40803321097238343,-0.3561861243895378
1687005211.235279,0.9178301692008972,0.396864116191864,-0.009299317374825478,-0.004820644855499268,0.006913959980010986,-0.0029993057250976562,-0.004338529892265797,-0.02298227697610855,0.010919992811977863,1.5606648236706149,-0.4080978588089533,-0.3550572894519195
1687005211.2418451,0.9180676341056824,0.3962911069393158,-0.010260962881147861,0.002067863941192627,-0.01381424069404602,0.0002968898043036461,-0.043674685060977936,-0.03601778298616409,0.014239090494811535,1.5596200964115063,-0.40747367310995347,-0.35456139005971316
1687005211.327227,0.9185219407081604,0.3952138125896454,-0.011117208749055862,-0.0060768723487854,0.00615343451499939,0.002709566615521908,-0.03591622784733772,-0.03568702191114426,0.019374195486307144,1.5586935500127634,-0.40630060622164027,-0.35139304168040475
1687005211.346025,0.9188377857208252,0.3944544196128845,-0.011953805573284626,-0.0013573169708251953,0.011658281087875366,-0.0035492200404405594,0.012579133734107018,-0.03336314484477043,0.023759357631206512,1.5577873592579061,-0.40547406827888194,-0.34978916400466353
1687005211.3496342,0.9195112586021423,0.39280393719673157,-0.014293189160525799,-0.0009473562240600586,-0.021328657865524292,-0.007221760228276253,-0.013441946357488632,-0.05481437221169472,0.048808250576257706,1.555253245052077,-0.4036786137409097,-0.3509859360507434
1687005211.375976,0.9204339981079102,0.3905302882194519,-0.016945840790867805,-0.010384678840637207,0.014743149280548096,0.00905698537826538,0.022948816418647766,-0.04352736473083496,0.04058680683374405,1.5523877005895355,-0.40120755812005443,-0.3507189696900529
1687005211.440216,0.9210333228111267,0.38909482955932617,-0.017398040741682053,0.0032982230186462402,0.021671772003173828,0.0074492692947387695,-0.028366701677441597,-0.015808651223778725,0.028571154922246933,1.5519088747852243,-0.39964878590207936,-0.34877351691680536
1687005211.50171,0.9216009974479675,0.3876807987689972,-0.01884375512599945,-0.01101762056350708,-0.0002449154853820801,0.02746492810547352,0.0691753700375557,-0.004895950201898813,0.021599002182483673,1.5503524140274696,-0.3981142828224134,-0.35183353551201507
1687005211.563268,0.921735942363739,0.3874026834964752,-0.017937012016773224,-0.0018904805183410645,0.00412258505821228,0.0073778629302978516,0.014743085950613022,0.03258631378412247,0.01535095926374197,1.5513387493445672,-0.397812615295596,-0.35307439266865664
1687005211.625561,0.9218165278434753,0.3872683048248291,-0.01664673164486885,-0.012926995754241943,0.03254669904708862,0.01826411671936512,0.09377358853816986,0.05782002583146095,-0.030259933322668076,1.5527396727166918,-0.3976668573844454,-0.35595192306261
1687005211.7130609,0.9206001162528992,0.39030006527900696,-0.01269459631294012,-0.004874467849731445,0.04121848940849304,0.00128096342086792,-0.12865614891052246,0.06616503745317459,-0.09032300114631653,1.5570077212159004,-0.4009574715834555,-0.35518873996709055
1687005211.719224,0.9182463884353638,0.395925372838974,-0.00814148411154747,-0.026919662952423096,0.13596543669700623,-0.1039649248123169,0.05958233028650284,0.019922712817788124,-0.13670063018798828,1.5619302198539793,-0.40707534156593156,-0.35089347244336394
1687005211.803421,0.913436233997345,0.4068117141723633,-0.011754992417991161,0.018127918243408203,0.20259377360343933,-0.15822798013687134,-0.42054566740989685,-0.2703778147697449,-0.3505825400352478,1.5579280574333267,-0.4189612053884447,-0.34742205543701393
1687005211.820869,0.902533769607544,0.4303589463233948,-0.014962437562644482,0.010323166847229004,0.3965911269187927,-0.09488558769226074,-0.5151992440223694,-0.3635193705558777,-0.6865164041519165,1.554219587113071,-0.44489039068774106,-0.31454105002611177
1687005211.8565059,0.8813113570213318,0.47217077016830444,-0.018572822213172913,0.017782151699066162,0.36066919565200806,0.01594829559326172,-0.4550420641899109,-0.17517581582069397,-1.2209036350250244,1.5497253691562733,-0.49175171348020497,-0.29412351909479006
1687005211.9527931,0.8431583642959595,0.537623941898346,-0.006645223591476679,0.0385705828666687,0.4839213490486145,0.06293481588363647,-0.6602871417999268,0.0019793997053056955,-1.7933207750320435,1.562915143205087,-0.5676166287874269,-0.25933731977413743
1687005211.9586701,0.78070467710495,0.6245990991592407,0.019400043413043022,0.17086398601531982,0.5128063559532166,0.07599782943725586,-0.5840414762496948,0.44314175844192505,-2.575214385986328,1.5956406147399935,-0.6746180508670285,-0.21980847828283173
1687005212.009293,0.6779554486274719,0.7324415445327759,0.0624961219727993,0.3243790864944458,0.5619767904281616,0.11839676648378372,-0.3849561810493469,1.0088478326797485,-3.3873252868652344,1.6627197595609085,-0.8219012067438346,-0.17520688577538682
1687005212.1035461,0.521804690361023,0.847220778465271,0.09968284517526627,0.4443817138671875,0.5751119256019592,0.13658416271209717,0.06411376595497131,1.267577052116394,-4.1792426109313965,1.7595568083668405,-1.0107317302356025,-0.1251941040803382
1687005212.121076,0.3173423111438751,0.9389523267745972,0.13289862871170044,0.4753058850765228,0.5288209319114685,0.07254563271999359,-0.16740021109580994,1.2812037467956543,-4.531222343444824,1.967392218739818,-1.2195724245002162,0.032320294182851615
1687005212.218148,0.08476030826568604,0.9873265027999878,0.13417059183120728,0.5315268635749817,0.5259637236595154,0.16770921647548676,0.7211530804634094,1.2867767810821533,-4.699398040771484,2.578164577278504,-1.4114203816585382,0.5946296751314404
1687005212.22186,-0.1544654667377472,0.9836444854736328,0.09264694899320602,0.5912940502166748,0.3706490993499756,0.15466737747192383,0.7564545273780823,1.1315302848815918,-4.653027057647705,-2.1110619321529738,-1.3896870072059617,2.1413018621723148
1687005212.314702,-0.37826696038246155,0.9250613451004028,0.03428628295660019,0.6670547723770142,0.4181544780731201,0.24365246295928955,1.2489210367202759,0.9362554550170898,-4.568578243255615,-1.6611897597678826,-1.1811971135907184,2.5548878355304083
1687005212.3208032,-0.5772455334663391,0.8153039216995239,-0.04546413570642471,0.8900659680366516,0.22900748252868652,0.31000566482543945,1.248243808746338,0.7972665429115295,-4.5620903968811035,-1.4921980974326585,-0.953253879758019,2.697113068835685
1687005212.402652,-0.7435393929481506,0.6589361429214478,-0.11380783468484879,0.9526305794715881,0.1846764087677002,0.2412949800491333,1.0455490350723267,0.7269700169563293,-4.6088480949401855,-1.4189128326593194,-0.7194035542444455,2.7438867950094563
1687005212.408759,-0.8672720193862915,0.46689730882644653,-0.17275936901569366,0.8748558163642883,0.11691907048225403,0.26232844591140747,0.9496036767959595,0.835631251335144,-4.531382083892822,-1.374171463940717,-0.4857789323064286,2.7552630685279813
1687005212.4925761,-0.9396164417266846,0.25309303402900696,-0.23035778105258942,0.8187058568000793,0.12939897179603577,0.17568552494049072,1.3157223463058472,0.8093838095664978,-4.438112258911133,-1.3303766931399947,-0.2558760582653109,2.7589161306482057
1687005212.506933,-0.9616665244102478,0.025036342442035675,-0.2730758786201477,0.7108579874038696,0.08371300995349884,0.17041471600532532,1.438744068145752,0.5333302021026611,-4.321351528167725,-1.2941182942698286,-0.02503895904725123,2.776539031214032
1687005212.616015,-0.9369982481002808,-0.19508011639118195,-0.2897892892360687,0.6384906768798828,0.054439857602119446,0.08838853240013123,1.044055461883545,0.30913281440734863,-4.180250644683838,-1.2708530481735538,0.19633914180485015,2.771447950512413
1687005212.676474,-0.8718549609184265,-0.3995828628540039,-0.28320038318634033,0.5867445468902588,0.1002664566040039,0.19701874256134033,1.1744571924209595,0.22320327162742615,-4.080818176269531,-1.2567226033112817,0.4110617686522906,2.766625295192379
1687005212.734786,-0.7735089659690857,-0.574576735496521,-0.26747989654541016,0.5276288986206055,-0.113136887550354,0.032296180725097656,0.4502258002758026,-0.004631764255464077,-3.8058412075042725,-1.2378674574534336,0.6120868684997451,2.7404585486018282
1687005212.754655,-0.6594665050506592,-0.707347571849823,-0.2544863224029541,0.43410956859588623,-0.13319802284240723,0.050781458616256714,0.41911402344703674,-0.00603138841688633,-3.2707738876342773,-1.20250629237816,0.7857387191993034,2.683677578219111
1687005212.758245,-0.5492576360702515,-0.8026911616325378,-0.23238462209701538,0.385897159576416,-0.2225314974784851,-0.013678595423698425,0.7516025304794312,-0.005363068543374538,-2.5643839836120605,-1.1705457797270387,0.9317940066854263,2.6400284847858315
1687005212.785033,-0.45682021975517273,-0.8661971092224121,-0.202527716755867,0.24154937267303467,-0.25511008501052856,-0.022966653108596802,0.6377030611038208,0.1705164760351181,-1.8287320137023926,-1.1534927365296128,1.0475410694123424,2.6246674528738096
1687005212.848542,-0.38869336247444153,-0.9028223156929016,-0.1839272379875183,0.1745210587978363,-0.2023869752883911,0.011914849281311035,0.513547956943512,0.2941476106643677,-1.1816728115081787,-1.1288228362945312,1.1262882837940869,2.6098904147935427
1687005212.911067,-0.345438152551651,-0.9226087331771851,-0.17165565490722656,0.1535283923149109,-0.42617660760879517,-0.03632169961929321,-0.2741931974887848,0.1585417091846466,-0.5958029627799988,-1.1096145177318821,1.1747896702288045,2.604629784354138
1687005213.0058289,-0.33166202902793884,-0.9244340062141418,-0.18820711970329285,0.036877572536468506,-0.0732465386390686,-0.05425505340099335,0.2500849664211273,-0.007167093921452761,-0.047242648899555206,-1.0546420296073897,1.1795487419335138,2.5456107646218276
1687005213.023413,-0.3269217908382416,-0.9322292804718018,-0.1551472395658493,-0.09257274866104126,-0.08089321851730347,0.09748423099517822,0.48515939712524414,0.1508217453956604,-0.16707263886928558,-1.127698983090508,1.200525193883305,2.6309176905459304
1687005213.097382,-0.31910574436187744,-0.9342769980430603,-0.15905320644378662,-0.05497866868972778,-0.08615446090698242,-0.022572219371795654,-0.6164841055870056,-0.024495350196957588,-0.141226127743721,-1.1084021675511213,1.2062258346138615,2.6104322372925863
1687005213.101289,-0.31194931268692017,-0.9333998560905457,-0.17734818160533905,0.027617067098617554,-0.14576280117034912,0.007853493094444275,0.15358145534992218,0.20418058335781097,-0.04316960647702217,-1.0538485967789062,1.203773673362715,2.559846465432913
1687005213.148531,-0.3149993121623993,-0.9350224733352661,-0.16281390190124512,0.01215815544128418,-0.05669200420379639,0.029452010989189148,0.10164369642734528,0.07327954471111298,0.1281278431415558,-1.093743460170811,1.208322500244224,2.608443020980445
1687005213.247833,-0.3187483847141266,-0.9323120713233948,-0.17086084187030792,-0.006614714860916138,0.0871584415435791,0.04198510944843292,-0.04891138896346092,0.15591436624526978,0.07685080915689468,-1.0787366212158958,1.2007541661622865,2.5976875823867354
1687005213.251583,-0.3184179365634918,-0.9320153594017029,-0.17308109998703003,0.018033504486083984,0.008141636848449707,0.011887267231941223,-0.12914498150348663,0.0847906619310379,-0.010649481788277626,-1.0729064364864047,1.199934562505833,2.598397513847275
1687005213.29915,-0.3180784583091736,-0.9303572177886963,-0.18237672746181488,0.01668691635131836,0.006407201290130615,-0.023906871676445007,-0.1456708312034607,-0.00489128939807415,0.008905843831598759,-1.0501876802330254,1.1953859682129986,2.575976087367225
1687005213.363708,-0.3190099000930786,-0.9301502108573914,-0.18180567026138306,0.013849377632141113,0.005162358283996582,0.010205253958702087,0.04903528094291687,-0.016718387603759766,0.03198932483792305,-1.0527987065983677,1.1948216489610934,2.577711854693892
1687005213.455367,-0.32012712955474854,-0.9294804930686951,-0.18326114118099213,0.0009285509586334229,0.0012578964233398438,0.004397571086883545,-0.047947660088539124,-0.026613760739564896,0.02242138609290123,-1.0508702759389859,1.1930019480312868,2.575189640280132
1687005213.4735,-0.32058805227279663,-0.9287285208702087,-0.1862427145242691,-0.033324211835861206,-0.010159909725189209,0.001779213547706604,-0.14751599729061127,-0.0010384944034740329,0.002354733645915985,-1.0445087390254213,1.1909685588548504,2.5674318060152594
1687005213.5736609,-0.3208996653556824,-0.9267857670783997,-0.19517017900943756,0.01607486605644226,0.0009282827377319336,-0.016164064407348633,-0.15056239068508148,-0.04664619266986847,0.02525179088115692,-1.0243714644026007,1.185762600293271,2.5446262248922404
1687005213.591006,-0.3243198096752167,-0.9258001446723938,-0.19419211149215698,-0.0018367171287536621,-0.01232534646987915,0.014397755265235901,0.0638212114572525,-0.018627475947141647,0.06998837739229202,-1.03128367258608,1.1831468922055464,2.5492868358306087
1687005213.662677,-0.3264526426792145,-0.9251043796539307,-0.19393406808376312,-0.013879328966140747,0.01223212480545044,-0.001241147518157959,-0.02319197915494442,0.028792504221200943,0.03825041651725769,-1.0347522696050675,1.181310436029111,2.5539107118397446
1687005213.6781979,-0.3276325762271881,-0.9244481325149536,-0.19507044553756714,-0.005237847566604614,0.0014745593070983887,-2.849102020263672e-05,-0.015182189643383026,0.014917835593223572,0.026766065508127213,-1.03377052924568,1.1795857518621642,2.554088880683396
1687005213.747834,-0.32879647612571716,-0.923377275466919,-0.1981593519449234,0.004806637763977051,-0.01648777723312378,0.023141026496887207,-0.13701248168945312,0.028637375682592392,0.03078211098909378,-1.0284079267770483,1.1767868490927131,2.5497646116342367
1687005213.7514,-0.330119788646698,-0.921919047832489,-0.20269757509231567,0.005016058683395386,0.006056010723114014,-0.013076990842819214,0.02297651395201683,0.0011958975810557604,0.03344500809907913,-1.0201373702985608,1.1730055970531583,2.5416743346494695
1687005213.811191,-0.33149632811546326,-0.9217404723167419,-0.201257586479187,-0.021210521459579468,-0.004284858703613281,0.010461688041687012,-0.09486756473779678,-0.0002773628802970052,0.015602095983922482,-1.0251589862782733,1.172544736407101,2.5462940569251926
1687005213.904043,-0.3319752514362335,-0.9203998446464539,-0.20653493702411652,-0.018244445323944092,-0.012400507926940918,-0.007637470960617065,-0.015345508232712746,0.06801927089691162,0.027256086468696594,-1.0142566211281554,1.1691019201900592,2.536399835090957
1687005213.920878,-0.3337051570415497,-0.919790506362915,-0.2064608633518219,0.017070084810256958,-0.03638613224029541,-0.01584446430206299,-0.0217098630964756,0.05863495543599129,0.07559725642204285,-1.0167456385009765,1.167546361866544,2.5428028159514113
1687005213.9924378,-0.33865419030189514,-0.9170371890068054,-0.21060802042484283,-0.004317522048950195,-0.035446763038635254,0.007879748940467834,-0.08240030705928802,0.08785635977983475,0.15723086893558502,-1.0144314906427607,1.1605866093353605,2.5437676531557543
1687005214.006459,-0.35102349519729614,-0.9096022248268127,-0.22227458655834198,0.1176098883152008,-0.24069666862487793,0.010818272829055786,-0.372012197971344,0.1548115462064743,0.5499213933944702,-1.006308883662545,1.1423256375775028,2.541484290774865
1687005214.046088,-0.39103275537490845,-0.8891102075576782,-0.2378576695919037,0.22434580326080322,-0.2218058705329895,0.0764501690864563,-0.0912652388215065,0.2587696313858032,1.3633490800857544,-1.0243103251441674,1.0953974372193946,2.5716450651208294
1687005214.144575,-0.4645129144191742,-0.8426293134689331,-0.27240288257598877,0.6186115741729736,-0.24571895599365234,0.26921382546424866,-1.1823991537094116,0.48543739318847656,2.2863965034484863,-1.0404168304135823,1.0021474526244853,2.611298031307022
1687005214.159617,-0.5682423114776611,-0.7518561482429504,-0.3343844413757324,0.7711232304573059,-0.07494127750396729,0.21388578414916992,-1.0285797119140625,0.5613341331481934,3.2877492904663086,-1.0389098170259747,0.8508728108025216,2.6433681217148193
1687005214.2332,-0.6826033592224121,-0.6148654818534851,-0.39495933055877686,0.8267380595207214,0.003964662551879883,0.32569971680641174,-1.901085615158081,0.3962586522102356,3.9366915225982666,-1.0462552530266391,0.6622153921096329,2.6920306714979936
1687005214.3282561,-0.7893180251121521,-0.40008294582366943,-0.4657367169857025,0.8477287292480469,0.0021642744541168213,0.3435290455818176,-3.264244556427002,-0.21685360372066498,4.588414669036865,-1.037725477007639,0.41160736539245935,2.684512271743523
1687005214.3442001,-0.8634071946144104,-0.11855251342058182,-0.4903806746006012,0.5782662630081177,0.15056541562080383,0.4675840139389038,-3.421640634536743,-0.6790158152580261,4.994831085205078,-1.054268952710035,0.1188319882675419,2.6581368691801064
1687005214.4104738,-0.8766462206840515,0.19366557896137238,-0.440437376499176,0.7623884677886963,0.19575390219688416,0.398414671421051,-4.021347999572754,-1.2178670167922974,5.255163669586182,-1.1052211571635084,-0.1948971018267464,2.61840488310213
1687005214.425384,-0.8101166486740112,0.497376024723053,-0.3103671669960022,0.5864382386207581,0.2985985577106476,0.5032992362976074,-4.015227317810059,-1.5246950387954712,5.2779998779296875,-1.2049309152502061,-0.5205715056680015,2.528372473326192
1687005214.4695358,-0.6657561659812927,0.7303407192230225,-0.15287669003009796,0.661697268486023,0.45639628171920776,0.1548144668340683,-2.268679141998291,-1.9491370916366577,5.249562740325928,-1.3450806566121154,-0.8188206259564522,2.440876713659093
1687005214.568893,-0.46453365683555603,0.8853731155395508,0.017971185967326164,0.6143443584442139,0.3458433151245117,0.395129919052124,-2.9785470962524414,-2.2943270206451416,4.974966049194336,-1.6094635546369616,-1.0872959797923762,2.250272045946627
1687005214.5725288,-0.23103080689907074,0.9616210460662842,0.14801739156246185,0.6932958364486694,0.5741299986839294,0.2643817365169525,-1.3198193311691284,-2.473006248474121,4.588144302368164,-2.1405935579061346,-1.2928502462731528,1.810889549767105
1687005214.650972,0.004672369919717312,0.9670299887657166,0.254619300365448,0.5616117715835571,0.4702867865562439,0.23891091346740723,-1.8920962810516357,-2.495896577835083,4.1191229820251465,3.123244298578881,-1.3132976439653596,0.8868004129497191
1687005214.655932,0.23343248665332794,0.925326943397522,0.2987959086894989,0.3873255252838135,0.3762171268463135,0.3031173646450043,-1.1661767959594727,-2.5204291343688965,4.091207504272461,2.478393460462688,-1.181896954239869,0.34310067461498356
1687005214.709169,0.45291730761528015,0.8427193760871887,0.29101455211639404,0.2264038622379303,0.671989917755127,0.07417389750480652,0.19691355526447296,-2.3548433780670166,4.07003116607666,2.1419047735391326,-1.002314743023897,0.10227538663348287
1687005214.8068419,0.6395713686943054,0.7434259653091431,0.19561715424060822,0.31657475233078003,0.5598424077033997,0.14320409297943115,0.9432148933410645,-2.17795729637146,3.9006927013397217,1.8676174841342588,-0.8381783242428377,-0.1003812607746373
1687005214.82325,0.7802236676216125,0.6175374984741211,0.09949040412902832,0.3510628342628479,0.5189981460571289,0.14326167106628418,0.3143807053565979,-1.9981987476348877,3.3530960083007812,1.6976270884917495,-0.6656080208396922,-0.19305787714457978
1687005214.9209929,0.865840494632721,0.4999697208404541,0.018721509724855423,0.13441890478134155,0.5957486629486084,0.1569833755493164,0.6642119884490967,-1.1986843347549438,2.3557705879211426,1.5924153114595148,-0.523563824268713,-0.23400666678612236
1687005214.927186,0.9061909317970276,0.4216533899307251,-0.03203670680522919,-0.10977381467819214,0.5132831335067749,0.1992424726486206,1.090386152267456,-0.20597578585147858,1.170702338218689,1.5354578894907591,-0.4352679703939121,-0.28131872742813196
1687005215.01314,0.9223083257675171,0.38314154744148254,-0.05049201473593712,0.03554666042327881,0.3088444769382477,0.18940794467926025,1.4655762910842896,0.43659117817878723,0.5044761300086975,1.5161056517855298,-0.3931949847959742,-0.35298132986253516
1687005215.030709,0.9319446682929993,0.35898157954216003,-0.05110069736838341,0.010102331638336182,0.22044041752815247,0.09693807363510132,1.0703158378601074,0.45058315992355347,0.4566335678100586,1.5160188490945712,-0.36717650946756114,-0.4179885327107508
1687005215.1326761,0.9391821622848511,0.33988210558891296,-0.049162138253450394,-0.06209176778793335,0.14861276745796204,0.02184879779815674,0.3409358263015747,0.21785123646259308,0.29465052485466003,1.5184983682982809,-0.34679154485962216,-0.45569304569326136
1687005215.138414,0.9437703490257263,0.32647624611854553,-0.052063748240470886,-0.03843599557876587,0.19706806540489197,-0.1245567798614502,0.9560638666152954,0.13185884058475494,0.20704449713230133,1.5156864892078044,-0.33257314327039145,-0.4899089354114161
1687005215.2236152,0.9464560151100159,0.3172568380832672,-0.059741050004959106,0.018525004386901855,-0.03609839081764221,0.031161248683929443,0.02685527689754963,-0.031579893082380295,0.10578951239585876,1.5077591639969898,-0.32283549322400834,-0.5170914325283197
1687005215.240477,0.9461133480072021,0.31799444556236267,-0.06123039126396179,0.009956598281860352,0.058973997831344604,-0.024157829582691193,0.14360766112804413,0.03693831339478493,-0.08730190992355347,1.5061686349434658,-0.3236133685683514,-0.5194355389525422
1687005215.310045,0.9452931880950928,0.320332795381546,-0.06170421838760376,0.0010872483253479004,-0.019994080066680908,-0.04394769296050072,0.10656867921352386,-0.018254898488521576,-0.022504011169075966,1.5056135837846414,-0.3260807757209059,-0.5268590787729579
1687005215.3251262,0.9446984529495239,0.32171517610549927,-0.06359405815601349,0.007587313652038574,-0.06690862774848938,0.023463360965251923,-0.18099506199359894,-0.043403927236795425,-0.061798419803380966,1.5035809566720397,-0.3275404254756134,-0.5262187366325084
1687005215.400296,0.9437177777290344,0.3249703645706177,-0.06156928837299347,-0.0027846693992614746,0.002773195505142212,-0.02276611328125,-0.08558065444231033,0.014401847496628761,-0.03903025761246681,1.5056474504168604,-0.33098037888473164,-0.5159954306518151
1687005215.404358,0.943457841873169,0.32612156867980957,-0.05942963808774948,0.004616379737854004,-0.04912877082824707,0.006512105464935303,0.012464618310332298,0.05301222205162048,-0.016843995079398155,1.5078881424421737,-0.33219793094939026,-0.517903532074152
1687005215.4967341,0.9435620307922363,0.3261040151119232,-0.05785107985138893,-0.012425065040588379,0.02187269926071167,-0.006098568439483643,-0.13677966594696045,-0.012306994758546352,0.010003597475588322,1.5095616084309718,-0.33217933753188195,-0.5116118662281238
1687005215.588608,0.9433900117874146,0.3268004059791565,-0.05671531707048416,-0.0005800724029541016,0.032711952924728394,-0.014467000961303711,0.06557018309831619,0.0554191879928112,-0.04637419059872627,1.5107499666266493,-0.332916098960234,-0.5120899569281274
1687005215.6069741,0.9425739049911499,0.3295925259590149,-0.05406709760427475,-0.004173636436462402,0.011090517044067383,-0.026133187115192413,-0.13551665842533112,-0.012424972839653492,-0.041162118315696716,1.5134979929321972,-0.3358719417299442,-0.5075011455316771
1687005215.669662,0.9415075778961182,0.3324644863605499,-0.05504968762397766,-0.0007423758506774902,0.0036408305168151855,-0.003895040601491928,0.10246627777814865,0.00913291610777378,-0.08954296261072159,1.51239309979691,-0.33891551127288,-0.5084901341541181
1687005215.673516,0.9402533173561096,0.3359100818634033,-0.05557046830654144,0.017342448234558105,-0.03311467170715332,-0.005831003189086914,-0.07453259825706482,-0.007369360886514187,-0.035674408078193665,1.5117634038621879,-0.34257129140396525,-0.509315597338313
1687005215.762313,0.9400885701179504,0.3362462520599365,-0.05632157251238823,-0.0014745593070983887,-0.03538858890533447,0.00380079448223114,-0.021944820880889893,-0.03662698343396187,0.013686749152839184,1.51095692940475,-0.34292821086331854,-0.5075522237409793
1687005215.778709,0.9408201575279236,0.33402296900749207,-0.05732220038771629,-0.00409853458404541,-0.003212451934814453,-0.004369135946035385,0.03708187863230705,-0.02345472201704979,0.054948437958955765,1.5099436475837074,-0.34056847017740755,-0.5066164876091883
1687005215.8841372,0.94184809923172,0.33084702491760254,-0.05883937329053879,0.0007634162902832031,-0.010443001985549927,0.012055877596139908,0.0884159728884697,0.0137654859572649,0.03985576704144478,1.5084051542225787,-0.33720101424569965,-0.5111823274005378
1687005215.889919,0.9427748918533325,0.3280699551105499,-0.05954506993293762,-0.01031029224395752,0.006692677736282349,-0.007898814976215363,-0.05017878860235214,-0.037892382591962814,0.07418285310268402,1.5077207369370822,-0.3342597124168325,-0.5126079427719943
1687005215.973485,0.9434192180633545,0.3260977268218994,-0.06016930937767029,-0.012572109699249268,0.06791472434997559,0.000400543212890625,0.030686965212225914,-0.007050447631627321,0.0005616266280412674,1.507104676018562,-0.3321727034342477,-0.5099793760003994
1687005215.990148,0.9430750608444214,0.32716071605682373,-0.05979297310113907,-0.016164720058441162,0.04724422097206116,0.004281461238861084,0.06255807727575302,0.042344264686107635,-0.0411171093583107,1.5074789403964244,-0.3332973591253839,-0.5133419416333067
1687005216.06093,0.9418084025382996,0.3311462700366974,-0.057783983647823334,0.0006659030914306641,-0.004791259765625,0.009596645832061768,-0.04381103813648224,0.048386577516794205,-0.0780375748872757,1.5095188504514163,-0.3375181160059658,-0.5146217731480004
1687005216.076291,0.9404336214065552,0.3354819416999817,-0.05510261654853821,-0.0018198490142822266,-0.0024588704109191895,0.010623220354318619,-0.03777778148651123,0.03520473092794418,-0.07121029496192932,1.5122704663392528,-0.3421167666655198,-0.5116771798989787
1687005216.150183,0.9396486282348633,0.33799582719802856,-0.05309503898024559,0.008349299430847168,-0.020170480012893677,0.004861950874328613,0.10244490951299667,0.06549831479787827,-0.028041787445545197,1.514351146408327,-0.34478656955395837,-0.5144523825600148
1687005216.153902,0.9399750828742981,0.3372742533683777,-0.051891859620809555,0.0028348565101623535,-0.030618369579315186,0.011623859405517578,0.015958553180098534,0.02333768457174301,0.03805094584822655,1.5156467388751131,-0.34401999456119337,-0.5177992916243658
1687005216.210861,0.9411154389381409,0.3341081738471985,-0.05170381814241409,0.00801163911819458,-0.007692158222198486,-0.0020682215690612793,0.19332320988178253,0.058992620557546616,0.06807862222194672,1.5159126311292106,-0.34065888202567984,-0.5226127504337229
