Timestamp,gravityX,gravityY,gravityZ,accelerationX,accelerationY,accelerationZ,rotationRateX,rotationRateY,rotationRateZ,attitudeRoll,attitudePitch,attitudeYaw
1687010039.335906,0.9768741726875305,0.21269746124744415,-0.021824825555086136,-0.019232749938964844,0.06154872477054596,0.039585888385772705,0.03004872053861618,0.0024702204391360283,0.08178458362817764,1.5484585512141527,-0.21433476818927688,-2.5233812166113903
1687010039.456608,0.9768533706665039,0.2133035659790039,-0.016087908297777176,-0.023453831672668457,0.039595603942871094,0.009511232376098633,0.0514996163547039,0.1267118752002716,-0.06329431384801865,1.5543287028769859,-0.21495510202237522,-2.52282960053684
1687010039.461732,0.9753955602645874,0.22031158208847046,-0.008131002075970173,0.012656688690185547,-0.0010885745286941528,-0.05890101194381714,0.3806155323982239,0.13866640627384186,-0.042481981217861176,1.5624604122418164,-0.22213388758880367,-2.5320432302171785
1687010039.5416598,0.9750589728355408,0.2218269556760788,-0.007236763834953308,0.009483635425567627,-0.12627646327018738,-0.032863497734069824,-0.8367296457290649,-0.11017803102731705,-0.04255148768424988,1.563374590336011,-0.22368770556143208,-2.5274396880189847
1687010039.5472279,0.9744046926498413,0.22479714453220367,-0.001238161465153098,-0.01241445541381836,0.04278096556663513,-0.04574382305145264,-0.6871458888053894,-0.06999412924051285,-0.03346371650695801,1.569525642492116,-0.2267348463611061,-2.4796380587681477
1687010039.693027,0.9740769863128662,0.22621308267116547,0.001317017013207078,-0.02203536033630371,-0.008958429098129272,0.012263178825378418,-0.34745216369628906,0.007241939194500446,-0.08172711730003357,1.5721483925680682,-0.22818821892877486,-2.456382769000075
1687010039.698895,0.9725296497344971,0.23265129327774048,0.007687032222747803,-0.003520488739013672,0.00172366201877594,0.03877580165863037,0.08885211497545242,0.1502135992050171,-0.17683126032352448,1.5787003245220501,-0.23480290088078212,-2.447774182312468
1687010039.781952,0.9711840748786926,0.23807406425476074,0.011044817045331001,0.03993946313858032,-0.08861424028873444,0.044771671295166016,1.0328677892684937,0.2351541966199875,0.022522319108247757,1.582168363488973,-0.24038241926177903,-2.474591397562511
1687010039.8007479,0.9725006818771362,0.23272936046123505,0.008904824033379555,-0.012539863586425781,-0.017794087529182434,0.07501840591430664,1.941003680229187,0.4321179986000061,0.13022854924201965,1.5799526958080092,-0.23488317222413302,-2.5557749475310136
1687010039.8043919,0.9725553393363953,0.23241248726844788,0.010968412272632122,0.06755989789962769,-0.12538734078407288,-0.17767083644866943,0.8598803877830505,0.24314860999584198,-0.06665069609880447,1.582073779451723,-0.23455735141407077,-2.6304194201639017
1687010039.8702512,0.9719858169555664,0.23476111888885498,0.011427385732531548,0.03225600719451904,-0.04634562134742737,-0.04145681858062744,0.44033172726631165,0.05716009810566902,0.003541703335940838,1.5825525263537286,-0.23697280474871865,-2.6547400673720056
1687010039.886657,0.9716799259185791,0.23618297278881073,0.007454791571944952,0.012725532054901123,-0.11629469692707062,0.08525741100311279,-0.42885494232177734,-0.09101125597953796,-0.09715214371681213,1.578468241445425,-0.23843580527488986,-2.6641184089766723
1687010039.955235,0.9715967774391174,0.2363881915807724,0.010969232767820358,-0.007882237434387207,-0.017897605895996094,0.04620528221130371,-0.6762918829917908,-0.09539774805307388,0.017635419964790344,1.5820857502251466,-0.23864700207454384,-2.633377667341781
1687010039.9588962,0.9719784259796143,0.23466478288173676,0.013789819553494453,0.0005861520767211914,-0.05607594549655914,0.0015145540237426758,-1.1337618827819824,-0.20324020087718964,0.023310348391532898,1.5849827468158477,-0.23687371457637219,-2.585620391403977
1687010040.0191998,0.9723138809204102,0.23317329585552216,0.015353254042565823,0.019629359245300293,0.05082327127456665,-0.09202885627746582,-0.6287291049957275,-0.147569477558136,-0.017516443505883217,1.5865854451304673,-0.23533965379366675,-2.537080666279554
1687010040.1134238,0.971992552280426,0.23446442186832428,0.01602960005402565,-0.010490477085113525,0.036577463150024414,-0.029838917776942253,-0.18784679472446442,-0.02796558290719986,-0.03159550949931145,1.5872863157802708,-0.2366675907253842,-2.516347033195642
1687010040.1335359,0.972233235836029,0.2334563434123993,0.01613929308950901,-0.031498491764068604,0.05995488166809082,0.02203810028731823,0.017964694648981094,0.00960469525307417,0.03618273511528969,1.5873950294401464,-0.23563074460237746,-2.512686067389636
1687010040.236346,0.9731504321098328,0.22958065569400787,0.01645715907216072,-0.029394447803497314,-0.028424054384231567,0.0031197071075439453,0.07408089190721512,0.06914059072732925,0.09298503398895264,1.5877059321615274,-0.2316468079811252,-2.519893521452724
1687010040.296205,0.9728962779045105,0.23033295571804047,0.020475586876273155,0.009235501289367676,-0.011827141046524048,-0.03407132625579834,0.006151643581688404,0.05011443793773651,-0.023228123784065247,1.5918392332989502,-0.23241982405966455,-2.518940355103468
1687010040.3132272,0.9718043208122253,0.23474223911762238,0.022186866030097008,0.023221194744110107,-0.0013743489980697632,-0.010193588212132454,-0.002298899693414569,0.02065228670835495,-0.1522313803434372,1.5936229510062003,-0.23695339524433487,-2.5175386949710665
1687010040.3167992,0.9705037474632263,0.2403644472360611,0.018641723319888115,1.627206802368164e-05,-0.1024555116891861,0.011921526864171028,-0.21000336110591888,-0.1046619564294815,-0.1612083613872528,1.5900022615695595,-0.24274129545995193,-2.516784856548081
1687010040.347461,0.9688764810562134,0.24689362943172455,0.01793372631072998,0.01305699348449707,-0.04089999198913574,0.005763053894042969,-0.661155641078949,-0.17071393132209778,-0.15797901153564453,1.5893040303636097,-0.2494733263783454,-2.4920696156361584
1687010040.4089022,0.9677153825759888,0.2513086795806885,0.0192556232213974,-0.00529789924621582,0.008990973234176636,0.050461649894714355,-0.6471924781799316,-0.1309482902288437,-0.03460807725787163,1.5906917244968375,-0.2540320934346137,-2.452937656621036
1687010040.502316,0.9681921601295471,0.2492753267288208,0.021580038592219353,0.0056084394454956055,-0.038551464676856995,-0.05984926223754883,-0.5850263833999634,-0.08203841000795364,0.028949324041604996,1.593081640452495,-0.2519318906994871,-2.424627362716618
1687010040.519068,0.9680980443954468,0.24924200773239136,0.025776509195566177,0.012980937957763672,0.029490292072296143,-0.00667262077331543,-0.6373156905174255,-0.0884675458073616,-0.058957360684871674,1.597415964312409,-0.2518974830218785,-2.3895314264388254
1687010040.558605,0.9677009582519531,0.2506444454193115,0.02706036902964115,-0.005954742431640625,0.037380486726760864,0.007729534059762955,-0.195296511054039,-0.05009578540921211,-0.04678112268447876,1.5987526066217852,-0.2533458999814055,-2.369953640504982
1687010040.61942,0.9673176407814026,0.2519725263118744,0.02839345484972,0.0019510388374328613,-0.00535997748374939,-0.0015076398849487305,-0.3030618727207184,-0.03624894469976425,-0.027063876390457153,1.6001406725938692,-0.25471801277346257,-2.355741292176519
1687010040.714377,0.9672902822494507,0.25198739767074585,0.029189372435212135,0.007746398448944092,0.016857236623764038,-0.017653819173574448,-0.14681173861026764,-0.03993808850646019,-0.007185774855315685,1.6009636085300438,-0.254733382051941,-2.344887823932563
1687010040.732897,0.9672998785972595,0.2520759105682373,0.028079604730010033,-0.015090525150299072,0.024337023496627808,0.004604576155543327,0.033695120364427567,-0.004159985575824976,0.013803130947053432,1.5998170298290368,-0.2548248378620837,-2.3412281675845077
1687010040.800194,0.9672977924346924,0.25235241651535034,0.025553541257977486,0.005922853946685791,-0.03308364748954773,0.014012333005666733,-0.013145355507731438,-0.006307292263954878,0.014875317923724651,1.597207635016216,-0.2551105827512323,-2.344346581116181
1687010040.893312,0.9671483039855957,0.252775639295578,0.026992155238986015,0.0005792975425720215,-0.02461099624633789,-0.004607677459716797,-0.18271008133888245,-0.02839754708111286,0.01348301861435175,1.5986980974577385,-0.25554799899467934,-2.337753628964817
1687010040.9000502,0.9678118824958801,0.24994570016860962,0.029443813487887383,0.010261058807373047,-0.0307379812002182,-0.008325817063450813,-0.25868186354637146,-0.032365791499614716,0.006273574195802212,1.6012100206934738,-0.2526241777862276,-2.325924523110047
1687010040.9816241,0.9684772491455078,0.24719542264938354,0.03076045587658882,0.002195298671722412,-0.012484744191169739,0.009995579719543457,-0.3076065480709076,-0.03287205845117569,-0.001750796101987362,1.6025473239850991,-0.2497847845414727,-2.3127157059912045
1687010040.997693,0.9686275124549866,0.246397003531456,0.03239333629608154,-0.005889415740966797,0.0220966637134552,0.008316997438669205,-0.2603183388710022,-0.02446565590798855,-0.03847259283065796,1.6042263783771626,-0.24896087064733793,-2.297280315072994
1687010041.073498,0.9683009386062622,0.24736037850379944,0.034725360572338104,-0.009988129138946533,0.008422687649726868,-0.0005000866949558258,-0.28224971890449524,-0.021817144006490707,-0.018587300553917885,1.606643120110039,-0.2499550255995679,-2.282848958214872
1687010041.0779572,0.9681071043014526,0.24781207740306854,0.036846812814474106,-0.0012645721435546875,0.01924726366996765,-0.0033081769943237305,-0.24086520075798035,-0.023740610107779503,-0.034826457500457764,1.6088386403477168,-0.25042123134390276,-2.268879810998982
1687010041.190565,0.9676353931427002,0.24946555495262146,0.038056064397096634,0.002533435821533203,0.012451529502868652,-0.009308699518442154,-0.07340090721845627,-1.7571495845913887e-05,-0.03143838420510292,1.6101049956705824,-0.25212832620412384,-2.2604424539198615
1687010041.195432,0.9669790267944336,0.2519795000553131,0.03817896917462349,0.01109391450881958,0.0343058705329895,-0.02771163359284401,0.0749400332570076,0.0138805340975523,-0.05411733314394951,1.6102585553792377,-0.2547252075809097,-2.262193799403308
1687010041.28226,0.9661107659339905,0.2557198703289032,0.035175710916519165,-0.02134758234024048,0.05221778154373169,-0.01736890897154808,0.46438533067703247,0.007184148766100407,-0.02493680827319622,1.6071898545739123,-0.2585922661973906,-2.2727219324762373
1687010041.29935,0.9647268652915955,0.26185131072998047,0.027121884748339653,-0.02931755781173706,0.027409523725509644,-0.00022077932953834534,0.6416478753089905,-0.015104112215340137,-0.17675110697746277,1.5989024609835674,-0.2649399438247909,-2.298999606194651
1687010041.372075,0.9600505232810974,0.2795403301715851,0.012642007321119308,0.02035701274871826,0.18457096815109253,-0.14511895179748535,0.6567864418029785,-0.15708868205547333,-0.5467392802238464,1.5839636301267837,-0.2833153127532437,-2.3414557433782663
1687010041.388227,0.9458796381950378,0.3245173692703247,0.0002070030168397352,0.04350012540817261,0.2704990804195404,-0.19582486152648926,-1.1349761486053467,-0.49980583786964417,-1.4010493755340576,1.571015173896523,-0.3305014524541148,-2.3213335073738937
1687010041.456244,0.9133499264717102,0.4069998264312744,-0.011941921897232533,0.0831097960472107,0.564008355140686,-0.203130841255188,-0.16158847510814667,-0.6506562232971191,-2.086465835571289,1.557722212340901,-0.4191671243759881,-2.283445128681537
1687010041.4597921,0.8545557856559753,0.5171940922737122,-0.04737444221973419,0.13686859607696533,0.7312189340591431,-0.09355586767196655,0.055320389568805695,-0.891953706741333,-3.099830150604248,1.5154155109114729,-0.5435692581174394,-2.2928220371127854
1687010041.521253,0.7343642115592957,0.6743826270103455,-0.07692305743694305,0.4733383059501648,0.5367226600646973,0.17073392868041992,-0.7376325726509094,-1.1122256517410278,-4.695253849029541,1.4664290946365415,-0.7401282327883569,-2.2874948584140253
1687010041.616282,0.5282095670700073,0.844395637512207,-0.089389868080616,0.8059883713722229,0.4604596495628357,0.00819772481918335,-0.09738306701183319,-1.0395965576171875,-5.660517692565918,1.4031528607576815,-1.0054360539770153,-2.297755827850134
1687010041.633754,0.24591171741485596,0.9633949995040894,-0.10675916075706482,1.2971943616867065,0.19142061471939087,0.23902219533920288,-0.25200048089027405,-1.1020458936691284,-6.555037498474121,1.16121281966873,-1.2993905710975961,-2.5019903495086098
1687010041.698256,-0.10328339785337448,0.9914888143539429,-0.07926105707883835,1.564831256866455,0.09342622756958008,-0.003868997097015381,-0.30332013964653015,-0.9865203499794006,-6.865699291229248,-0.9162435084885032,-1.4402337783901515,1.7427729795615716
1687010041.790986,-0.384741872549057,0.9128848910331726,-0.13643494248390198,0.7089759111404419,-1.461133360862732,0.16683031618595123,2.7333991527557373,-0.7974129915237427,-4.370462894439697,-1.2300167584476192,-1.1502962636196763,1.4696355608321827
1687010041.797276,-0.523015022277832,0.8296797871589661,-0.19515851140022278,0.32327747344970703,-1.5561050176620483,0.28484952449798584,0.1747892051935196,-0.27595195174217224,-1.7353969812393188,-1.2136561752288944,-0.9785337967163995,1.5145574531764932
1687010041.882338,-0.5640267729759216,0.8060472011566162,-0.17933644354343414,0.1358499526977539,-0.013582110404968262,0.2694547772407532,-0.517856240272522,0.04886634647846222,-0.5438324809074402,-1.2629474022189227,-0.9374426663255665,1.4653756863326868
1687010041.900827,-0.5783068537712097,0.7977811098098755,-0.1706058830022812,-0.06715512275695801,-0.12502121925354004,-0.03363317251205444,-0.2177363783121109,0.5144838690757751,-0.33196040987968445,-1.2839244568014225,-0.9236061240012294,1.4200685954794643
1687010042.000729,-0.5792965292930603,0.7951151132583618,-0.17946432530879974,-0.21152067184448242,-0.1776835322380066,-0.05964100360870361,-0.01972496137022972,0.4083210527896881,-0.06096937879920006,-1.2703758778076437,-0.9191973447250903,1.4085963019131857
1687010042.020234,-0.5772626996040344,0.7904040217399597,-0.20500993728637695,-0.1314927339553833,-0.05233657360076904,-0.0735851377248764,0.6150456070899963,0.2960783839225769,-0.06795138865709305,-1.2295484504233012,-0.9114682846058183,1.4370636798598568
1687010042.118413,-0.5786116719245911,0.7851399779319763,-0.22082462906837463,-0.09700161218643188,-0.08602815866470337,-0.06442324817180634,-0.1703883707523346,0.1557639092206955,-0.1030087023973465,-1.2062121147454088,-0.9029220962187582,1.4530821630387223
1687010042.13413,-0.5788733959197998,0.7859878540039062,-0.21709153056144714,-0.0843040943145752,-0.03351593017578125,0.03638157248497009,0.02969871461391449,0.22534391283988953,0.0027488814666867256,-1.2120044347230767,-0.9042923623395217,1.4349264007603177
1687010042.1820478,-0.5754837393760681,0.7832813262939453,-0.23513542115688324,-0.11644124984741211,-0.03610432147979736,0.015683412551879883,-0.031474094837903976,0.3917827010154724,-0.07810042798519135,-1.1829089995432869,-0.8999266780566825,1.45224063075221
1687010042.1974049,-0.5760275721549988,0.7830865383148193,-0.2344515472650528,-0.19660115242004395,0.05927479267120361,0.004013240337371826,-0.45380449295043945,0.6827999949455261,-0.27223819494247437,-1.1842576863143022,-0.8996134493268847,1.4166614739724743
1687010042.200021,-0.5807734727859497,0.777553379535675,-0.2410661280155182,-0.3877629041671753,0.0113716721534729,-0.11051172018051147,-0.6665787696838379,0.7713244557380676,-0.4406980574131012,-1.1773598431003707,-0.8907655804064024,1.3802573870701234
1687010042.236744,-0.5888826847076416,0.7793667912483215,-0.2140199840068817,-0.5861813426017761,-0.053475797176361084,-0.12326043844223022,-1.006121277809143,0.8908594846725464,-0.2646529972553253,-1.2222040900490618,-0.893654623139136,1.2694747527956458
1687010042.29872,-0.5743302702903748,0.7659170031547546,-0.28899115324020386,-0.37978655099868774,0.06341338157653809,-0.05108153820037842,2.2366185188293457,1.2316633462905884,0.21676743030548096,-1.1046084503617632,-0.8724663588931698,1.346840900914089
1687010042.391255,-0.5412530303001404,0.7673541307449341,-0.34382039308547974,-0.38851064443588257,-0.3107197880744934,-0.15852954983711243,-1.0522700548171997,0.5366004705429077,0.941530704498291,-1.0048741318874217,-0.8747045896022366,1.4138256497011932
1687010042.48657,-0.45750540494918823,0.8381752967834473,-0.29690229892730713,-0.25941354036331177,-0.522471010684967,-0.2714266777038574,0.22671252489089966,-0.9403260946273804,3.7116682529449463,-0.9951531740451027,-0.9939288998614961,1.4349488405902342
1687010042.5043511,-0.20975664258003235,0.9134101271629333,-0.34883201122283936,1.007516622543335,-0.41165560483932495,0.2821815311908722,0.5967521071434021,-0.47351762652397156,8.051465034484863,-0.541383151460636,-1.1515847803387969,2.0133273075126854
1687010042.568122,0.04154517129063606,0.9636719226837158,-0.263837605714798,1.094914197921753,3.6138272285461426,1.3974740505218506,-4.846381664276123,-0.8270594477653503,0.30109402537345886,0.15618250423174462,-1.3004254617389697,2.805395231662345
1687010042.584183,-0.09119666367769241,0.9613897800445557,-0.2596396803855896,0.17882788181304932,0.09431993961334229,0.16485202312469482,4.420275688171387,1.3488370180130005,-1.1483439207077026,-0.33778186491792084,-1.292008803043861,2.247250397410653
1687010042.655029,-0.07808280736207962,0.9538320302963257,-0.2900131046772003,0.15568897128105164,-0.12495946884155273,-0.09727036952972412,-1.2535204887390137,0.22427424788475037,0.10259771347045898,-0.26300230393115787,-1.2657466886395015,2.309767289409929
1687010042.658658,-0.08410453796386719,0.9525989890098572,-0.29237210750579834,0.1146068423986435,0.11252540349960327,-0.16185158491134644,0.8168641328811646,0.4136757254600525,-0.44506219029426575,-0.2801000416573213,-1.2616675783039766,2.2686188417341673
1687010042.725446,-0.09623143821954727,0.9490615129470825,-0.30003622174263,0.09769627451896667,-0.21026158332824707,-0.12119799852371216,-0.14823101460933685,-0.03243556618690491,-0.1144310012459755,-0.3103674927747094,-1.2502439772623903,2.2283092610902955
1687010042.808955,-0.09554953128099442,0.9437556266784668,-0.3165368437767029,-0.023850522935390472,-0.020888924598693848,-0.08534926176071167,0.6892509460449219,0.08145145326852798,0.03831193596124649,-0.2931615327562174,-1.2338107350179388,2.244649927317583
1687010042.81364,-0.09219764173030853,0.9310395121574402,-0.353079229593277,0.004673212766647339,-0.09388142824172974,-0.05491042137145996,0.6254792809486389,-0.028236692771315575,0.16525603830814362,-0.25542109267978635,-1.197251143905508,2.2828085612622746
1687010042.901229,-0.08503139764070511,0.9281473159790039,-0.36236995458602905,-0.007772564888000488,-0.05423086881637573,-0.02987256646156311,0.04820322245359421,-0.08796273916959763,0.16276811063289642,-0.2304836209892535,-1.1894041170180996,2.3130792058439025
1687010042.9211102,-0.08044523000717163,0.9253053069114685,-0.3705919682979584,0.02967921644449234,0.012377619743347168,0.0340287983417511,0.05185727775096893,-0.06554784625768661,0.06854148209095001,-0.21375600727585495,-1.1818398989802144,2.333939524607966
1687010042.99047,-0.0795166864991188,0.924174427986145,-0.3736022114753723,0.010348573327064514,0.02914881706237793,0.055242717266082764,0.10190513730049133,0.004372117109596729,-0.006682703737169504,-0.20970861268028054,-1.1788685738812175,2.340317642463134
1687010043.083753,-0.08057421445846558,0.9217613935470581,-0.3792935013771057,0.005531467497348785,-0.0012445449829101562,-0.014276564121246338,0.20627275109291077,0.038996804505586624,-0.06108922138810158,-0.2093206873921605,-1.1725987817315477,2.3389580634278127
1687010043.101931,-0.08454723656177521,0.9155935645103455,-0.39311590790748596,0.027067363262176514,-0.0016532540321350098,-0.026088863611221313,0.49847346544265747,0.08794384449720383,-0.21351177990436554,-0.21184258111206394,-1.1569815502690146,2.333012017961234
1687010043.17068,-0.10190949589014053,0.9072554707527161,-0.40804657340049744,0.05680450052022934,-0.08535605669021606,-0.0565226674079895,0.06439444422721863,0.14070533215999603,-0.6465673446655273,-0.24474305038331098,-1.1367118529344864,2.28926303297647
1687010043.1875029,-0.13784120976924896,0.8958665132522583,-0.4224015474319458,0.11666201055049896,-0.00012993812561035156,0.00084686279296875,0.3631425201892853,0.34379079937934875,-1.2784215211868286,-0.3154320515216074,-1.110377526659559,2.1979246709916462
1687010043.289505,-0.2061576396226883,0.8860524892807007,-0.41522279381752014,0.2974051833152771,-0.06816625595092773,0.0032964348793029785,-0.6786745190620422,0.4303632378578186,-2.0920791625976562,-0.46084276593394385,-1.0887594321872962,2.010703127191491
1687010043.3073092,-0.2945927083492279,0.8641257882118225,-0.408046156167984,0.4406803846359253,0.05887824296951294,0.14966902136802673,-0.08399688452482224,0.7777252197265625,-2.5747172832489014,-0.6253121883610876,-1.0434106832833554,1.7901726264708695
1687010043.379572,-0.3981512784957886,0.8235014081001282,-0.4041298031806946,0.7076758146286011,0.08737188577651978,0.19990605115890503,-0.6321477890014648,0.7581409811973572,-2.8711507320404053,-0.7779463725607344,-0.9675555484638676,1.5600337366904136
1687010043.383175,-0.48408663272857666,0.7793251276016235,-0.3978850543498993,0.30108800530433655,-0.010755300521850586,0.29771095514297485,-0.817120373249054,0.8809822201728821,-2.3346638679504395,-0.8828260889802234,-0.8935880828948858,1.3799090614659812
1687010043.472962,-0.5528167486190796,0.7421185374259949,-0.37901678681373596,0.37290042638778687,0.19773125648498535,0.1671636700630188,-1.117720603942871,0.838288426399231,-2.1977031230926514,-0.9697933884080537,-0.8362255508292719,1.2120339541706524
1687010043.490035,-0.6124476790428162,0.7150819301605225,-0.33699512481689453,0.16498368978500366,0.07810038328170776,0.1583298146724701,-1.799724817276001,0.18332736194133759,-1.4462347030639648,-1.0677664905011939,-0.7967413137601888,1.0415636374106976
1687010043.558656,-0.6405202746391296,0.7013307213783264,-0.31284016370773315,-0.2513711452484131,-0.04254782199859619,-0.1523088812828064,0.599170446395874,-0.3311089277267456,-0.2639424502849579,-1.1164590191374921,-0.7772625538096243,0.9725332382287001
1687010043.562619,-0.6488108038902283,0.7061359882354736,-0.28357791900634766,-0.601280689239502,-0.3278859853744507,-0.5024024248123169,-0.44744160771369934,-1.9416356086730957,0.6308186650276184,-1.1587440421980655,-0.7840262039886382,0.9950091339050166
1687010043.652889,-0.6560410857200623,0.7303950786590576,-0.19008710980415344,-0.7714948654174805,-0.2465694546699524,-0.4039071202278137,-0.6443595886230469,-2.0336945056915283,0.44519421458244324,-1.2887706374863745,-0.8189001667435495,0.9592738022164097
1687010043.670574,-0.6574020385742188,0.7452126145362854,-0.11171615868806839,-0.5734633803367615,-0.014515042304992676,-0.33976101875305176,-0.6752825379371643,-0.19630305469036102,0.13865505158901215,-1.4024685434742032,-0.8408536274198246,0.8867445674763972
1687010043.704109,-0.6526103019714355,0.7474443912506104,-0.12420305609703064,-0.030266165733337402,-0.0523303747177124,0.1221277266740799,0.21781808137893677,0.13528285920619965,0.033886294811964035,-1.3827281205105202,-0.8442067730892181,0.8986082124345219
1687010043.797598,-0.6526471376419067,0.7494088411331177,-0.11152578890323639,0.022230327129364014,-0.04678744077682495,0.034743428230285645,-0.3560747504234314,-0.17742790281772614,-0.03327729552984238,-1.4015488694426865,-0.8471687866656692,0.8784825378095767
1687010043.8144112,-0.6536160111427307,0.7503916621208191,-0.09848058223724365,-0.01653468608856201,-0.03219103813171387,-0.0386197566986084,-0.34124433994293213,0.0464058555662632,0.07677943259477615,-1.4212507982851963,-0.8486543773997286,0.8557732298965105
1687010043.859356,-0.6512625813484192,0.7534658312797546,-0.09025595337152481,0.023241400718688965,0.1405617594718933,-0.07885735481977463,-0.13692228496074677,0.013682660646736622,-0.011375459842383862,-1.4330873493579002,-0.8533175703406317,0.8358156450488737
1687010043.954286,-0.656839907169342,0.7494965195655823,-0.0825614482164383,0.002222597599029541,0.09582513570785522,-1.9259750843048096e-05,-0.17524364590644836,0.004137492273002863,-0.24182172119617462,-1.445757154801185,-0.8473011776721266,0.8179473367959085
1687010043.958819,-0.6662439703941345,0.7410890460014343,-0.08310065418481827,0.027099192142486572,0.025939643383026123,-0.039885275065898895,0.11307109892368317,-0.02435007505118847,-0.25089457631111145,-1.4467071289607654,-0.8346909282009773,0.8171560917478651
1687010044.007897,-0.6729257106781006,0.734554648399353,-0.0871800109744072,0.0024088025093078613,-0.1124386191368103,-0.06089138984680176,0.22584405541419983,-0.10175871104001999,-0.05669767037034035,-1.4419602359659704,-0.8250101032537355,0.8264492528710732
1687010044.103586,-0.6686938405036926,0.737678050994873,-0.09316383302211761,-0.0026623010635375977,-0.2887493371963501,-0.14221835136413574,0.4956798553466797,-0.48384684324264526,0.3878009617328644,-1.4323653095724267,-0.8296247437362844,0.8576411370807024
1687010044.12213,-0.6423341631889343,0.7614195346832275,-0.0874457135796547,-0.002166450023651123,-0.5709442496299744,-0.13609570264816284,0.4087226092815399,-0.8703820109367371,1.2506272792816162,-1.4354907070262029,-0.8655001018547269,0.9010276831279642
1687010044.1584802,-0.5748051404953003,0.815665602684021,-0.06548614799976349,0.13907527923583984,-0.589606761932373,-0.14212507009506226,-0.22545455396175385,-1.168849229812622,2.3490939140319824,-1.4573578772632947,-0.9538787773752332,0.9382867160803066
1687010044.2202559,-0.45928865671157837,0.8881497383117676,0.01561325415968895,0.27311620116233826,-0.38782942295074463,-0.13299918174743652,-1.217391848564148,-1.536009430885315,3.208414316177368,-1.604777666718348,-1.093303104917556,0.847030716386681
1687010044.3127232,-0.2802765369415283,0.9593774676322937,0.03224398195743561,0.3583557903766632,-0.27355605363845825,-0.10721051692962646,1.4198015928268433,-1.3965414762496948,4.27637243270874,-1.6853362406182104,-1.2847872520106378,0.838005222939064
1687010044.3181028,-0.05260589346289635,0.9985557198524475,-0.01091310940682888,0.5111019611358643,-0.4961754083633423,-0.004666268825531006,0.34159111976623535,-1.191177248954773,4.997687339782715,-1.3662473668104833,-1.517044002867164,1.2263245513703007
1687010044.4029331,0.21831806004047394,0.9753444790840149,-0.03224960342049599,0.6431626081466675,-0.22938823699951172,0.11994171142578125,0.7168564796447754,-0.8551675081253052,5.817879676818848,1.4241384836216038,-1.3482767171671977,-2.212729675471207
1687010044.422202,0.49477723240852356,0.866783618927002,-0.0623025968670845,0.8840221166610718,-0.13118797540664673,0.20558249950408936,0.042723167687654495,-0.424995481967926,6.190953731536865,1.4455350909872886,-1.0487159449629844,-2.155434002183706
1687010044.4561,0.7316243648529053,0.6796765327453613,-0.052588868886232376,0.9671213030815125,0.11248350143432617,0.21649867296218872,-0.2523254454135895,0.15234945714473724,6.072534561157227,1.4990401361135115,-0.7473215563061519,-2.0810525683352856
1687010044.551718,0.8976745009422302,0.43850231170654297,-0.04354448243975639,1.011077880859375,0.49387073516845703,0.19646793603897095,1.0231200456619263,0.5375962257385254,5.409326553344727,1.522326219952417,-0.4539315308829781,-2.079535118962805
1687010044.569312,0.9715180397033691,0.23311300575733185,-0.042552653700113297,0.26012545824050903,0.7782242894172668,0.13451725244522095,1.2908656597137451,0.5652838945388794,3.063037872314453,1.527024134790645,-0.23527765994978514,-2.1336115708575574
1687010044.604033,0.9912555813789368,0.1318192034959793,-0.00601046159863472,0.04333615303039551,0.9156966805458069,0.1504805088043213,2.7449076175689697,1.3148807287216187,1.1755013465881348,1.5647329175884386,-0.13220396919605143,-2.2256292508260938
1687010044.697826,0.9931843876838684,0.11594930291175842,0.01185202319175005,-0.20573943853378296,0.3752005994319916,-0.3324545621871948,-4.421075344085693,-0.38692134618759155,0.2978534996509552,1.5827291163027672,-0.11621069623554196,-2.138671290240827
1687010044.7017841,0.9913203716278076,0.12906193733215332,0.025040391832590103,0.08436322212219238,0.6672027111053467,-0.39520347118377686,1.2014466524124146,0.008437830954790115,-0.18859311938285828,1.596050593405834,-0.12942294088312642,-2.070827766377366
1687010044.758743,0.9889505505561829,0.1463298201560974,0.0237563606351614,-0.016813158988952637,-0.042127519845962524,0.1896681785583496,1.6404932737350464,0.29516878724098206,-0.3149438500404358,1.5948134969809684,-0.14685712298613385,-2.1388028476301817
1687010044.883645,0.9875040650367737,0.1556641012430191,0.024575250223279,0.04446285963058472,-0.4393860399723053,0.09780013561248779,0.3263404369354248,0.0848175510764122,-0.009304053150117397,1.5956774165625522,-0.15629970918273442,-2.2047951274858604
1687010044.9026508,0.9877312779426575,0.15307390689849854,0.03090861439704895,0.02890080213546753,-0.05065688490867615,-0.036737557500600815,-0.5146394968032837,0.06480177491903305,0.055234458297491074,1.6020786536661615,-0.1536780921022995,-2.1898934858026657
1687010044.9718971,0.9875237345695496,0.15329578518867493,0.03601309657096863,-0.08809459209442139,0.10894174873828888,-0.042864445596933365,-0.4294486343860626,0.05568350851535797,-0.08461318910121918,1.6072482534487116,-0.15390261523397425,-2.164936253222054
1687010044.989019,0.9870287775993347,0.15601427853107452,0.03786139562726021,-0.015974819660186768,0.14437025785446167,-0.03505397215485573,0.10925332456827164,-0.020364120602607727,-0.039765555411577225,1.6091364879277619,-0.1566542206335702,-2.154019887250157
1687010045.058035,0.9869522452354431,0.1572260856628418,0.0347093902528286,0.003587067127227783,-0.012206584215164185,0.00972401350736618,0.43567150831222534,-0.002805368509143591,0.011614278890192509,1.6059500972306213,-0.15788117062113513,-2.1718435307456465
1687010045.0616589,0.9870189428329468,0.15733285248279572,0.032250404357910156,0.012477517127990723,-0.09605354070663452,0.0031803883612155914,0.034128617495298386,-0.006739390082657337,-0.0005321335047483444,1.6034592596839712,-0.1579892883940579,-2.1836392652162857
1687010045.151353,0.9868915677070618,0.1579260528087616,0.03323028236627579,0.007966101169586182,-0.028485745191574097,-0.0035978592932224274,-0.2474382221698761,-0.01731160655617714,-0.03365013748407364,1.6044552740505307,-0.15858999654781292,-2.1751661491840903
1687010045.168952,0.9871108531951904,0.15632852911949158,0.034253932535648346,-0.0047653913497924805,0.04347005486488342,-0.007871627807617188,-0.103523388504982,-0.01024810504168272,-0.008734403178095818,1.6054836095674478,-0.15697237529326002,-2.164938086001442
1687010045.241963,0.9871509075164795,0.15618965029716492,0.033727772533893585,-0.0016164183616638184,0.04843071103096008,0.0047090016305446625,0.09611355513334274,-0.0029712836258113384,-0.008117347955703735,1.6049498278670857,-0.15683176953062022,-2.1641456539073274
1687010045.3341808,0.9868680238723755,0.1581723839044571,0.03275531902909279,0.006921529769897461,-0.03305031359195709,-0.004496216773986816,0.03518788889050484,-0.006039511412382126,0.007608084939420223,1.6039753299807753,-0.15883946799859253,-2.170261131950153
1687010045.353423,0.9865514039993286,0.16004443168640137,0.03319813683629036,0.0003718137741088867,-0.01159164309501648,0.01440918818116188,0.02960829995572567,0.024159669876098633,0.007663744501769543,1.6044343244789587,-0.16073566809544051,-2.170928798518473
1687010045.419842,0.9868190884590149,0.1581152379512787,0.034460633993148804,-0.003985345363616943,0.005520030856132507,-0.027884244918823242,-0.03648117184638977,0.026533745229244232,-0.012777348048985004,1.6057030664003455,-0.15878158098178827,-2.1707846585474897
1687010045.436562,0.986714243888855,0.15825986862182617,0.03672761842608452,0.001460254192352295,0.007587939500808716,0.004196289926767349,-0.003357772482559085,0.005892515182495117,-0.02246193215250969,1.6080012943598583,-0.15892806720873529,-2.1700260145678447
1687010045.505466,0.9865376353263855,0.15978792309761047,0.03480415791273117,0.000599205493927002,-0.002362966537475586,0.0037393607199192047,-0.031498197466135025,0.007424099836498499,0.008511428721249104,1.6060607982239001,-0.1604758084964903,-2.1685352565644784
1687010045.509069,0.9864957332611084,0.15987661480903625,0.03557504713535309,0.0035402774810791016,0.002400621771812439,-0.003455396741628647,0.020987780764698982,0.009151426143944263,-0.00161817017942667,1.6068427442862454,-0.1605656591683863,-2.1698697990416016
1687010045.6007972,0.986486554145813,0.15978407859802246,0.03623700141906738,0.001596212387084961,-0.004297047853469849,-0.004880312830209732,0.024823665618896484,0.02130715735256672,0.004654905758798122,1.6075132141935806,-0.16047192356523618,-2.170368048132464
1687010045.6178641,0.9865548610687256,0.15949144959449768,0.03566470742225647,-0.0020273327827453613,0.012261494994163513,0.009165406227111816,0.06286925077438354,0.007875638082623482,0.007856558077037334,1.606931351144443,-0.16017549400857345,-2.1734999679369915
1687010045.657772,0.9865813851356506,0.1594058871269226,0.035307109355926514,0.00043320655822753906,-0.013516619801521301,-0.008360270410776138,0.09282714873552322,0.010754249058663845,0.002515321597456932,1.606568386733305,-0.16008880842280523,-2.1790047275378983
1687010045.7465649,0.9864006042480469,0.16049455106258392,0.0354260616004467,0.004123508930206299,-0.0007350295782089233,0.009251471608877182,0.034849267452955246,0.005759890191257,0.0011195596307516098,1.6066953738019771,-0.16119167940320597,-2.180447257302831
1687010045.750792,0.9865131378173828,0.15990328788757324,0.03496478497982025,-0.008730053901672363,-0.014410719275474548,-0.002158522605895996,-0.007925625890493393,0.010838804766535759,-0.0018171081319451332,1.6062242935771616,-0.16059268292698736,-2.1822857973982277
1687010045.847228,0.986591100692749,0.15925203263759613,0.03573227673768997,-0.03456473350524902,0.031543880701065063,-0.027309533208608627,0.124673031270504,0.011255322955548763,0.014733373187482357,1.6069984215696764,-0.1599329707302776,-2.1839099897760477
1687010045.936125,0.9870537519454956,0.1567831039428711,0.03381682559847832,-0.07087045907974243,0.0993661880493164,-0.14302408695220947,0.43712735176086426,-0.023255249485373497,0.08597426861524582,1.6050433001411175,-0.15743262606559474,-2.198285698538626
1687010045.955768,0.9866573810577393,0.16119083762168884,0.02289993315935135,-0.019265592098236084,0.6850463151931763,-0.3032193183898926,1.4316102266311646,-0.2529769837856293,-0.32845380902290344,1.5940017702911635,-0.16189715298159407,-2.2364672808928456
1687010046.083397,0.9761174917221069,0.21694941818714142,-0.011282396502792835,0.15635913610458374,0.7904052734375,-0.18061226606369019,-0.14455018937587738,-0.7948885560035706,-2.1296160221099854,1.55923839983472,-0.21868837235152888,-2.2789694242505956
1687010046.102776,0.9267625212669373,0.3734920024871826,-0.040182821452617645,0.3818157911300659,0.8416569232940674,-0.09290444850921631,-0.7945086359977722,-0.8222429752349854,-4.284803867340088,1.5274651942434343,-0.3827705980610869,-2.2493549741235084
1687010046.175229,0.8034031391143799,0.5911667943000793,-0.0711691752076149,0.6523615121841431,0.6227919459342957,0.05682575702667236,0.35957789421081543,-0.8428367972373962,-5.531503677368164,1.4824423239471591,-0.6325047023213305,-2.252062138658273
1687010046.178983,0.5930761694908142,0.7939838171005249,-0.13360445201396942,1.0977654457092285,0.39305830001831055,0.19610436260700226,1.3530999422073364,-0.9487653970718384,-6.233100414276123,1.3492214111729999,-0.9173342291346194,-2.3761712007017115
1687010046.182644,0.30296820402145386,0.9262503981590271,-0.22421026229858398,1.1977183818817139,0.12747567892074585,0.16898860037326813,1.523377537727356,-1.1601502895355225,-6.626256465911865,0.9336965554276483,-1.1843396696205564,-2.7877240960452245
1687010046.257546,-0.025224991142749786,0.9569302797317505,-0.2892199456691742,1.237917184829712,-0.12087070941925049,0.30470749735832214,0.7330801486968994,-1.229764461517334,-6.477356433868408,-0.08699718451446162,-1.2762373725612308,2.4872189438685566
1687010046.261328,-0.317618727684021,0.8949703574180603,-0.31328317523002625,1.0656198263168335,-0.6352811455726624,0.4273577928543091,1.1966004371643066,-1.1407928466796875,-5.056972980499268,-0.7922700229808938,-1.1083647762952173,1.79746164067416
1687010046.357623,-0.49938032031059265,0.7898477911949158,-0.35603293776512146,0.5565550327301025,-1.254539132118225,0.5611109733581543,1.1451804637908936,-1.193294882774353,-2.589763879776001,-0.9514322276145671,-0.9105607879619045,1.6838098196870106
1687010046.377026,-0.5723694562911987,0.7452626824378967,-0.34201833605766296,-0.020846426486968994,-0.7617270946502686,0.1538926661014557,-0.7478441596031189,0.15116475522518158,-0.8524523377418518,-1.0321815668705263,-0.8409287552473721,1.6106508986226045
1687010046.4038138,-0.5766151547431946,0.7496377825737,-0.32489681243896484,-0.19172585010528564,-0.3099864721298218,-0.16674146056175232,-1.2260907888412476,0.6751803159713745,-0.14597773551940918,-1.0576815477237977,-0.8475146411698745,1.5388694247292665
1687010046.498462,-0.5707735419273376,0.7676640748977661,-0.29139193892478943,-0.0870632529258728,0.058583974838256836,-0.24139925837516785,-0.5988894104957581,0.09368881583213806,0.08344266563653946,-1.0987673292349407,-0.8751880926762878,1.463883463508114
1687010046.502317,-0.5707258582115173,0.7692010998725891,-0.2874048352241516,-0.039137423038482666,0.018549025058746338,-0.08393317461013794,-0.23346394300460815,-0.04927965998649597,-0.0888553336262703,-1.1042906197212798,-0.8775899826424969,1.4574090878280879
1687010046.558351,-0.575910210609436,0.7752623558044434,-0.25941357016563416,-0.031114816665649414,0.040106117725372314,0.06561163067817688,-0.5972932577133179,0.006424215622246265,-0.07799975574016571,-1.1475757143686247,-0.887130364570163,1.4028568709837304
1687010046.6516318,-0.5771998167037964,0.773505449295044,-0.2617815136909485,0.0002193450927734375,-0.027167677879333496,-0.03303363919258118,0.17984899878501892,0.0683152824640274,-0.05416686832904816,-1.1450048789938827,-0.8843535452076074,1.403089481723935
1687010046.671479,-0.5787208080291748,0.7723740935325623,-0.26176387071609497,-0.05194014310836792,-0.04111206531524658,-0.019928723573684692,-0.08411720395088196,0.015378694981336594,-0.01855374500155449,-1.1460192118951549,-0.8825704780616558,1.3989609470653652
1687010046.705833,-0.5763415098190308,0.7746338248252869,-0.26033177971839905,-0.2112865447998047,-0.1435762643814087,-0.05944672226905823,-0.08255638927221298,0.013592380098998547,0.12939231097698212,-1.1465320110229436,-0.8861359074174091,1.3989402235788475
1687010046.801382,-0.5696672201156616,0.7825861573219299,-0.25107425451278687,-0.37387531995773315,-0.23178964853286743,-0.12105724215507507,-0.7709047198295593,0.3221988379955292,0.07653681933879852,-1.1556709408053438,-0.8988092172274977,1.3772709551989448
1687010046.818563,-0.5591562390327454,0.7989845275878906,-0.221286803483963,-0.35339558124542236,-0.08642971515655518,-0.05302053689956665,-0.8979834318161011,0.5723826885223389,0.3039414882659912,-1.1939579874281172,-0.9256046980406994,1.299745335550179
1687010046.854727,-0.5299986600875854,0.8072438836097717,-0.25972768664360046,-0.361175537109375,0.06487202644348145,-0.1498640477657318,1.4374750852584839,0.7951566576957703,0.6424699425697327,-1.115137578585302,-0.9394674726768844,1.3548989648549168
1687010046.950741,-0.4973013997077942,0.8272045850753784,-0.2615792453289032,-0.41912615299224854,0.03682422637939453,-0.15150678157806396,-2.1054153442382812,0.6323915719985962,0.6347830295562744,-1.0865677350459326,-0.9741144120709219,1.342536116798547
1687010046.967401,-0.4473603665828705,0.8571392297744751,-0.2553054690361023,-0.42796003818511963,0.43991875648498535,-0.35657209157943726,1.4293179512023926,0.12735304236412048,1.3433703184127808,-1.0522048310044625,-1.0296898157740242,1.355447718596623
1687010047.010291,-0.37924012541770935,0.8823277950286865,-0.27870169281959534,-0.10745424032211304,-0.12402701377868652,-0.2985689342021942,-0.6760170459747314,-1.3236480951309204,2.315962314605713,-0.9370326931703362,-1.0807855756078397,1.52105652240891
1687010047.132518,-0.23421090841293335,0.9454599618911743,-0.22638605535030365,0.5846137404441833,-0.32660937309265137,-0.05326187610626221,1.2223904132843018,-2.709872007369995,5.313218593597412,-0.8023850392949166,-1.239003747943652,1.7861545160438537
1687010047.153294,-0.0028325875755399466,0.9820871949195862,-0.18840593099594116,2.205026865005493,-0.2935190796852112,1.1868646144866943,-5.564830303192139,-2.597050905227661,1.8878355026245117,-0.015033360697786168,-1.3812360540806412,2.7073868848628755
1687010047.2188559,-0.10996649414300919,0.9939345121383667,0.0011298884637653828,0.1852075755596161,0.7535781264305115,0.009230613708496094,6.149078369140625,1.5580781698226929,-1.6863034963607788,-1.581070808465438,-1.460599711257157,1.1485236956965437
1687010047.235193,-0.1506202518939972,0.9774762988090515,-0.14782963693141937,0.3886420726776123,-1.3527967929840088,0.272524356842041,-2.0259671211242676,-0.34175917506217957,-0.17596520483493805,-0.7947482582715086,-1.3581522482742219,1.9046516424223328
1687010047.3113642,-0.15808847546577454,0.9770042896270752,-0.14307551085948944,0.09065987169742584,-0.23185664415359497,-0.014166474342346191,0.8509930372238159,0.48068979382514954,-0.3417411148548126,-0.8352067489808375,-1.3559270404244257,1.8568448499345267
1687010047.315209,-0.1768038272857666,0.970097541809082,-0.16628675162792206,0.0834505558013916,-0.17508411407470703,0.0030481070280075073,-0.015704985707998276,0.17548927664756775,-0.30011245608329773,-0.8160425012208773,-1.3256323516857784,1.8570374316473164
1687010047.4624481,-0.1861199140548706,0.9669165015220642,-0.17444679141044617,-0.04669870436191559,-0.03869396448135376,-0.08058874309062958,0.5383257269859314,0.2031049132347107,-0.10815393179655075,-0.8177612203927064,-1.3128522522009332,1.8468277805784439
1687010047.467153,-0.18767017126083374,0.9557749629020691,-0.2264372706413269,-0.024396464228630066,-0.06455504894256592,-0.04198019206523895,1.2120027542114258,0.1513531655073166,-0.028454311192035675,-0.6920541708283907,-1.2722836237900292,1.9671091781943841
1687010047.523024,-0.18510523438453674,0.9470356106758118,-0.2624113857746124,-0.0074912309646606445,-0.10392642021179199,-0.039544910192489624,0.21268770098686218,-0.019652793183922768,0.09733664244413376,-0.6143415472176513,-1.243875332739787,2.0454702183085054
1687010047.5380878,-0.18161441385746002,0.9463049173355103,-0.2674384117126465,0.000980868935585022,-0.01870793104171753,-0.012819886207580566,0.06791886687278748,-0.03986898064613342,0.04710942134261131,-0.5965532791315831,-1.2416075119643288,2.065776764418193
1687010047.540784,-0.18122994899749756,0.9460168480873108,-0.2687149941921234,0.024339064955711365,-0.03425854444503784,-0.01401519775390625,0.06291825324296951,-0.0003362189163453877,0.007061070762574673,-0.5933592475786843,-1.2407176386490493,2.070355249841777
1687010047.576315,-0.18079659342765808,0.9454926252365112,-0.2708437442779541,0.022974923253059387,-0.01353156566619873,-0.019943147897720337,0.0414971187710762,0.020373854786157608,-0.018687168136239052,-0.5886007809014995,-1.239104133140501,2.0745183519764017
1687010047.634933,-0.1831812858581543,0.9428181648254395,-0.2784575819969177,0.01589915156364441,-0.0009236931800842285,-0.043518245220184326,0.23276959359645844,0.07443495839834213,-0.14252762496471405,-0.581868801676528,-1.2309867255863483,2.079430922871454
1687010047.704138,-0.1885075867176056,0.9357545971870422,-0.2980404794216156,0.022354617714881897,-0.008539140224456787,-0.04694563150405884,0.5646763443946838,0.11831759661436081,-0.2310287207365036,-0.5639671633975968,-1.2103927705565236,2.092569194741099
1687010047.756038,-0.20420652627944946,0.924380362033844,-0.32221201062202454,0.04800228774547577,-0.004870593547821045,-0.022529900074005127,0.3401176333427429,0.2605486512184143,-0.656233012676239,-0.5648770430120205,-1.1794080862865168,2.0816481524605774
1687010047.85012,-0.24527302384376526,0.9108574390411377,-0.3319334089756012,0.20170916616916656,-0.07246339321136475,0.08007168769836426,-0.2740946412086487,0.6536940932273865,-1.4389773607254028,-0.6363736645127307,-1.1453568746516443,1.9782475913121746
1687010047.868424,-0.3062830865383148,0.8963482975959778,-0.32054683566093445,0.20771130919456482,0.003569185733795166,0.011541008949279785,-0.5699723958969116,0.7940106987953186,-1.7814418077468872,-0.762646714770451,-1.1114631238249693,1.7990417400446197
1687010047.905024,-0.3859142065048218,0.870937168598175,-0.304201602935791,0.4280284643173218,0.1172981858253479,0.11249005794525146,-0.7557596564292908,0.9465290904045105,-2.4342291355133057,-0.9032536621329558,-1.0571063160963505,1.5911714099873158
1687010047.9978452,-0.47595545649528503,0.8229275941848755,-0.3102521598339081,0.4897952079772949,0.20591139793395996,0.19152343273162842,-0.16753213107585907,1.3940179347991943,-2.646171808242798,-0.9931208089960667,-0.966544870839473,1.417534456881313
1687010048.002265,-0.5595924258232117,0.7597364783287048,-0.3311445713043213,0.616889238357544,0.09153598546981812,0.34301578998565674,-0.9117671251296997,1.3711003065109253,-2.7744715213775635,-1.0364574453204,-0.8629077550779644,1.271261150659211
1687010048.056779,-0.6386708617210388,0.7053337097167969,-0.30757707357406616,0.5981741547584534,0.050952792167663574,0.4043024480342865,-2.027296543121338,0.6922701001167297,-2.504202127456665,-1.1219854166492376,-0.7828937898285073,1.0832806942696815
1687010048.148909,-0.7071835994720459,0.6623923182487488,-0.24723996222019196,0.010726749897003174,0.10860365629196167,0.0794236809015274,-0.5569922924041748,-1.0162194967269897,-1.3124375343322754,-1.2344670762308478,-0.7240075984473587,0.928070097269988
1687010048.1548262,-0.7509756684303284,0.6286442279815674,-0.20209366083145142,-0.8649605512619019,-0.31255853176116943,-0.13721613585948944,0.8375901579856873,-2.266273260116577,-0.5886947512626648,-1.3079159421230386,-0.6798086349318715,0.9479021174657303
1687010048.20603,-0.7776817679405212,0.6145505309104919,-0.1324337273836136,-1.0976386070251465,-0.6409482955932617,-0.3919193744659424,0.2756756544113159,-0.8579854369163513,0.12434323132038116,-1.4021214553037047,-0.6618160784771818,0.9559271413736297
1687010048.3310761,-0.7770309448242188,0.6076446771621704,-0.16428817808628082,-0.1514204740524292,-0.18642592430114746,-0.5567812919616699,-1.058294415473938,0.4241286516189575,0.2960697114467621,-1.3624342879980362,-0.6530916234448976,0.9789232254455875
1687010048.3370662,-0.7868496179580688,0.6003664135932922,-0.1429259032011032,0.06127893924713135,0.1901302933692932,0.03864717483520508,0.4040268361568451,-0.4302995800971985,-0.538476824760437,-1.3911121762346343,-0.6439592223131835,0.9271220594253612
1687010048.4242291,-0.8031533360481262,0.5786346793174744,-0.1418685019016266,0.015677690505981445,-0.20775461196899414,0.11980412900447845,0.2220640331506729,-0.12355388700962067,-0.23496407270431519,-1.395960438372329,-0.6170536831618328,0.9505922486004887
1687010048.444145,-0.8026819825172424,0.578453004360199,-0.14523562788963318,0.008889436721801758,-0.0674973726272583,0.03880549967288971,-0.3077253997325897,0.18607160449028015,0.14497366547584534,-1.3917950302191053,-0.6168309485440724,0.950848711229121
1687010048.540382,-0.7977895736694336,0.5871110558509827,-0.13723087310791016,-0.02221769094467163,0.07141238451004028,-0.03290480375289917,-0.3030714690685272,0.010314295068383217,0.10638872534036636,-1.400449521323638,-0.6274854607640801,0.9265878335820594
1687010048.5448642,-0.7948288321495056,0.5906606912612915,-0.13916423916816711,-0.05192697048187256,-0.038735151290893555,-0.028911396861076355,0.21352607011795044,0.019193673506379128,0.10154923051595688,-1.3974662019864816,-0.6318773836365232,0.9328230994088055
1687010048.662852,-0.7918530702590942,0.5936909317970276,-0.14317697286605835,-0.018510639667510986,-0.04875391721725464,-0.1161767840385437,0.21169134974479675,-0.0767766684293747,0.1265895962715149,-1.3919164435456202,-0.6356379078619564,0.9424412199009657
1687010048.667908,-0.7865110635757446,0.598304808139801,-0.15307436883449554,-0.060199081897735596,-0.2200242280960083,-0.2103443741798401,1.1616624593734741,-0.43608397245407104,0.4576610028743744,-1.3785747545192957,-0.6413837735509906,0.9838599383653095
1687010048.758373,-0.7665017247200012,0.620177149772644,-0.16689898073673248,-0.024544358253479004,-0.5908803343772888,-0.16893184185028076,0.9494576454162598,-0.9091473817825317,1.280374526977539,-1.3564015969589032,-0.6689684891230977,1.0778058956568766
1687010048.77895,-0.7150058150291443,0.685482919216156,-0.13740383088588715,0.1998538374900818,-0.6010713577270508,-0.11534291505813599,-0.1182827576994896,-1.1547234058380127,2.4469408988952637,-1.3809392520405785,-0.7552667324001733,1.11974414646389
1687010048.782613,-0.6082234978675842,0.7884815335273743,-0.09143835306167603,0.3003469705581665,-0.607451319694519,0.045234620571136475,-0.09945034980773926,-1.1326003074645996,3.6899235248565674,-1.4215770431920267,-0.9083362144141761,1.1453997675041017
1687010048.804618,-0.43459630012512207,0.8972687125205994,-0.07768361270427704,0.6600754261016846,-0.13587051630020142,0.05880838632583618,0.7689450979232788,-0.7029906511306763,4.676795959472656,-1.3939154809790566,-1.1135434982680366,1.234073962577618
1687010048.90212,-0.19863508641719818,0.9703307747840881,-0.13784834742546082,0.4876060485839844,-0.3787171244621277,0.014358893036842346,2.1244871616363525,-0.20030352473258972,5.50083065032959,-0.9641235085530678,-1.3265950440677328,1.7115052162945117
1687010048.9203072,0.08548887073993683,0.9640974402427673,-0.25141146779060364,0.7944396734237671,-0.3107924461364746,0.2154768705368042,2.0076956748962402,0.7105872631072998,5.920283794403076,0.3277704746869816,-1.302023204326285,3.0235843750361013
1687010048.959156,0.37656113505363464,0.8775635957717896,-0.2967894375324249,0.7864484786987305,-0.2952118515968323,0.2554379999637604,0.49852699041366577,1.2651643753051758,6.019220352172852,0.9033183001001162,-1.0707567260114716,-2.6967299934834745
1687010049.0495238,0.6478652358055115,0.7146886587142944,-0.2636110782623291,1.0040206909179688,0.037935853004455566,0.30426034331321716,0.5067949295043945,2.120370388031006,6.291709899902344,1.1843628556409513,-0.7961788481345713,-2.4563705128132525
1687010049.0534391,0.8562407493591309,0.4799737334251404,-0.19098982214927673,1.0385956764221191,0.315161794424057,0.15168306231498718,0.6468095779418945,2.527533769607544,5.419707775115967,1.3513327757033504,-0.5006247581010452,-2.3814947383700718
1687010049.106385,0.9563727378845215,0.2754487693309784,-0.09735991805791855,0.750353217124939,0.5800352096557617,-0.001257769763469696,0.40139588713645935,1.9542725086212158,3.3487162590026855,1.4693445958369962,-0.2790564939432725,-2.3746354452145386
1687010049.2027411,0.9886128902435303,0.14888261258602142,-0.021878967061638832,0.2849314212799072,0.7709934711456299,-0.14081037044525146,1.1092151403427124,1.6405225992202759,1.6972793340682983,1.548668964579512,-0.149438194896025,-2.4106361049847185
1687010049.22177,0.993736743927002,0.10554177314043045,0.036715202033519745,0.6146310567855835,-0.37992528080940247,-1.4745663404464722,-9.867857933044434,-1.0591270923614502,0.17317575216293335,1.6077261371484488,-0.10573869829300112,-2.2293566999902388
1687010049.2894058,0.9938977360725403,0.10345244407653809,0.03827342391014099,-0.21531808376312256,1.5263235569000244,-0.33958888053894043,1.0519835948944092,0.12416069954633713,-0.5700571537017822,1.6092857213706195,-0.10363786871828817,-2.071737109918559
1687010049.3836498,0.9903956651687622,0.13272014260292053,0.03874824568629265,-0.11213046312332153,0.26002582907676697,0.1623319387435913,0.5080979466438293,0.18140242993831635,-0.6406497955322266,1.6099003879546558,-0.1331129061952355,-2.0696459364296023
1687010049.403229,0.9883003234863281,0.1471358835697174,0.04016783833503723,0.0814933180809021,-0.50544273853302,0.038048624992370605,2.0467607975006104,0.3075098991394043,0.12285478413105011,1.6114173219420658,-0.14767201885775513,-2.1740279025050993
1687010049.468991,0.9896473288536072,0.13740260899066925,0.04145490378141403,0.01903480291366577,-0.29610925912857056,0.00502324104309082,-0.159260556101799,0.10362254083156586,0.20852547883987427,1.6126604146636911,-0.13783867741991085,-2.2130742764831233
1687010049.48589,0.9900644421577454,0.131438747048378,0.04996155947446823,-0.013593554496765137,0.1423497200012207,-0.012318253517150879,-0.15158171951770782,0.11193905770778656,0.042618799954652786,1.6212164955839117,-0.13182018159223377,-2.2033341400643613
1687010049.5554671,0.9897936582565308,0.13250336050987244,0.05244972184300423,-0.009569227695465088,0.18564239144325256,-0.058812741190195084,0.1074807271361351,-0.036240555346012115,-0.05262250080704689,1.6237373714901249,-0.13289417937901232,-2.1961438186301394
1687010049.5590482,0.9898293614387512,0.13366757333278656,0.04868634417653084,-0.004813730716705322,0.02166689932346344,0.02722596377134323,0.6586412787437439,0.020695295184850693,0.04216126725077629,1.619943321135596,-0.134068847471146,-2.219814491609663
1687010049.714334,0.9900179505348206,0.1333433985710144,0.04564972221851349,0.004549920558929443,-0.11842027306556702,0.04874098673462868,0.21655908226966858,-0.011558513157069683,0.023947376757860184,1.6168736839127478,-0.13374174401613417,-2.2436522609335876
1687010049.7207022,0.9900885820388794,0.13262639939785004,0.046202678233385086,-0.0002510547637939453,-0.04847417771816254,-0.029357075691223145,-0.1308090090751648,0.01870032399892807,0.018053799867630005,1.6174276917908796,-0.13301832672273747,-2.2419896237972345
1687010049.769089,0.9901107549667358,0.13211390376091003,0.047182634472846985,-0.009306490421295166,0.037441760301589966,0.008191339671611786,-0.08255013078451157,0.0009000205900520086,8.998159319162369e-05,1.6184141986850638,-0.13250126829447328,-2.235739863857831
1687010049.7858958,0.9902138710021973,0.13140161335468292,0.047012388706207275,-0.00570148229598999,0.03760477900505066,0.0007321909070014954,0.0794849842786789,0.0035916774068027735,-0.006179632619023323,1.6182377082960042,-0.1317827165580232,-2.2370597445444216
1687010049.7885342,0.9899200201034546,0.1337233930826187,0.046651970595121384,-0.00231015682220459,-0.010752767324447632,-0.006490942090749741,0.05050419270992279,-0.0034981900826096535,-0.007588178385049105,1.61788849463357,-0.134125170960921,-2.2398483502065134
1687010049.8275409,0.9894072413444519,0.13728196918964386,0.04718693345785141,0.00793755054473877,-0.037504762411117554,0.008904214948415756,0.02022358775138855,0.02408669888973236,-0.008065950125455856,1.6184523405167517,-0.13771688011073632,-2.24241285150319
1687010049.889512,0.9894620776176453,0.1362958699464798,0.048868365585803986,-0.0008757710456848145,0.006587430834770203,-0.005731940269470215,-0.06429143249988556,0.028378115966916084,-0.015168067067861557,1.6201450467512257,-0.13672142361697642,-2.2404553135061387
1687010049.950913,0.9898359179496765,0.13310866057872772,0.050068680197000504,-0.001783609390258789,0.02607104182243347,-0.00020313262939453125,0.03368653357028961,0.007180419750511646,-0.012771755456924438,1.6213360608990681,-0.13350490263868817,-2.2391554002765166
1687010050.03821,0.9896785616874695,0.13454830646514893,0.049322012811899185,-0.001595914363861084,-0.0019647181034088135,0.005945198237895966,0.11377357691526413,0.013870414346456528,-0.018170781433582306,1.6205915259379104,-0.13495760618486455,-2.2438972040365
1687010050.056625,0.9891934990882874,0.13790862262248993,0.04977269098162651,-8.83936882019043e-05,-0.02778594195842743,0.009293913841247559,-0.058018751442432404,0.01914706826210022,-0.005057642702013254,1.6210703625087641,-0.13834954505788538,-2.2450079318925953
1687010050.096293,0.9891465902328491,0.1376228779554367,0.05146631598472595,0.0011639595031738281,0.0033072978258132935,-0.0018601417541503906,-0.11313366889953613,0.005266140215098858,-0.01891087368130684,1.6227804787765197,-0.13806105488774395,-2.240480776199166
1687010050.1598802,0.9892519116401672,0.13619539141654968,0.05321008712053299,0.0003872513771057129,0.018132030963897705,-0.0038175582885742188,0.034728094935417175,0.015542212873697281,-0.01164124347269535,1.6245327508817922,-0.1366199905233065,-2.2378149493769435
1687010050.248801,0.9891195297241211,0.13718204200267792,0.05313524976372719,-0.00158613920211792,-0.008458897471427917,0.005595676600933075,0.007290744222700596,0.010040388442575932,0.0025115935131907463,1.624464487890166,-0.13761599056064147,-2.23883880036549
1687010050.253515,0.9889340400695801,0.138551265001297,0.053034521639347076,0.011050522327423096,-0.0034347176551818848,0.0028430186212062836,0.028369463980197906,0.012437899596989155,0.0036623449996113777,1.6243729711832617,-0.13899842645052943,-2.2400588848489082
1687010050.308957,0.9889240264892578,0.13818593323230743,0.054166290909051895,0.0076732635498046875,-0.010759755969047546,0.005815871059894562,-0.036440156400203705,0.005072927568107843,-0.005993477534502745,1.6255146063865191,-0.1386295476062466,-2.2394459163271
1687010050.405036,0.9889647364616394,0.13765588402748108,0.05476737022399902,0.0015137195587158203,-0.004522934556007385,0.008312344551086426,-0.02707255445420742,0.015340079553425312,-0.0010434603318572044,1.6261183063800992,-0.13809437890795026,-2.2384312994091564
1687010050.425681,0.9890497922897339,0.1369263380765915,0.05505744740366936,-0.006475508213043213,0.012365639209747314,-0.012760289013385773,0.05474887415766716,0.005519007332623005,-0.008337059989571571,1.6264059469766972,-0.13735785797068073,-2.2391588680867858
1687010050.4882,0.9889172911643982,0.13794945180416107,0.05488653481006622,-0.007960259914398193,0.008107692003250122,-0.0065010711550712585,0.1371520757675171,0.02035134844481945,-0.01813482865691185,1.626241085799777,-0.13839076802684283,-2.2437397597692876
1687010050.505513,0.9886632561683655,0.1403065323829651,0.053468041121959686,-0.01825016736984253,0.0177440345287323,-0.01654195785522461,0.1788940578699112,0.020148150622844696,-0.025937624275684357,1.6248248372872514,-0.14077099695915024,-2.251019356845255
1687010050.547745,0.9884462356567383,0.14265410602092743,0.05121935158967972,-0.07787817716598511,0.09448271989822388,-0.13312864303588867,0.3416581451892853,-0.04886939749121666,-0.03548532351851463,1.622568066331224,-0.14314243739631546,-2.2663552023593105
1687010050.6067982,0.9882139563560486,0.1469551920890808,0.042864877730607986,0.038794100284576416,0.3105795979499817,-0.12837529182434082,0.5259813666343689,-0.2508339583873749,-0.10220736265182495,1.6141452656389044,-0.14748933498683844,-2.281306969787191
1687010050.7054849,0.9864846467971802,0.16271185874938965,0.01930660754442215,-0.0052530765533447266,0.5006945133209229,-0.20332777500152588,0.49033236503601074,-0.523610532283783,-0.513435959815979,1.5903649456579283,-0.16343852390297653,-2.3051912054727617
1687010050.724396,0.980983316898346,0.19292816519737244,-0.021218985319137573,0.043659508228302,0.7616921663284302,-0.32033389806747437,0.8661428689956665,-0.835131049156189,-0.874480128288269,1.5491693775888264,-0.19414549929914957,-2.3447509271916833
1687010050.756822,0.9613467454910278,0.26521411538124084,-0.07398506253957748,0.2793605923652649,0.705016016960144,-0.09470099210739136,-0.29342061281204224,-1.106858730316162,-2.1811811923980713,1.4939879175304343,-0.26842596796739576,-2.3660795868582274
1687010050.846291,0.9106608033180237,0.39654847979545593,-0.11595775187015533,0.4303578734397888,0.704449474811554,0.019094809889793396,-0.1582418978214264,-0.9289337396621704,-3.3453428745269775,1.4441442643798441,-0.4077540031952135,-2.356890888590017
1687010050.850299,0.8062453866004944,0.5722230672836304,-0.15009622275829315,0.6855299472808838,0.42913490533828735,0.202342227101326,-0.2475547194480896,-0.6652001142501831,-4.864063262939453,1.3867364960216728,-0.6092140067434875,-2.3975141224034586
1687010050.9720721,0.5945795774459839,0.7937635183334351,-0.12811918556690216,1.350198745727539,0.19540268182754517,0.3171144127845764,-1.9055134057998657,-0.37805089354515076,-7.315195083618164,1.358562749100249,-0.916971961330716,-2.3996069452253166
1687010050.992002,0.21870265901088715,0.9719263911247253,-0.08676506578922272,2.3251051902770996,0.24630475044250488,0.286990761756897,0.6630565524101257,0.006717962212860584,-8.951577186584473,1.193115424558135,-1.3332843635243619,-2.5669022062407603
1687010051.060709,-0.2191055715084076,0.9599007964134216,-0.1748807579278946,2.3498427867889404,-0.34736722707748413,0.38488733768463135,1.7380778789520264,-0.6885413527488708,-8.607060432434082,-0.8971798471273451,-1.2866480937884932,1.6186162313163814
1687010051.06443,-0.5775095224380493,0.7841665744781494,-0.22707998752593994,1.6980082988739014,-0.43065106868743896,0.1578965187072754,3.165802478790283,-1.073836088180542,-6.681209564208984,-1.1961608461180284,-0.901351985344958,1.335491897089311
1687010051.149863,-0.7867002487182617,0.5292916297912598,-0.31773099303245544,-0.012890756130218506,-2.0635170936584473,0.7839174270629883,2.4079244136810303,-1.137696623802185,-4.885964870452881,-1.1869512340306934,-0.5577654139592135,1.4722274233948838
1687010051.154361,-0.8638077974319458,0.39126455783843994,-0.3174079656600952,-0.4485699534416199,-1.663862943649292,-0.25317928194999695,2.535658836364746,0.48195505142211914,-1.6589051485061646,-1.2186593862553958,-0.40200528063408597,1.4251988630786607
1687010051.209578,-0.8724045753479004,0.33473026752471924,-0.3561822175979614,0.060286104679107666,-0.8906080722808838,0.39399343729019165,-1.0633071660995483,-0.1472826600074768,0.16054490208625793,-1.18317551201371,-0.341318969275543,1.5039741669630986
1687010051.3047462,-0.8622338175773621,0.388955295085907,-0.3244478404521942,0.2020166516304016,0.14964932203292847,-0.06268295645713806,-1.4983406066894531,0.011547071859240532,0.6909096837043762,-1.2108973411497437,-0.3994973325193346,1.4353265765108316
1687010051.324646,-0.8490408062934875,0.4371550381183624,-0.2966902256011963,0.011730074882507324,0.1866699755191803,-0.01675593852996826,-1.467136263847351,0.16175641119480133,0.41109830141067505,-1.2346189920468695,-0.452433004539488,1.3620866078565248
1687010051.3881469,-0.8409337997436523,0.4574004113674164,-0.28916263580322266,-0.050560832023620605,0.10307005047798157,-0.028113454580307007,0.07323600351810455,0.05572518706321716,0.10558205842971802,-1.2396027919736303,-0.47506968684742507,1.3406008065626562
1687010051.4050689,-0.8397287130355835,0.4592353403568268,-0.28975626826286316,-0.01979893445968628,0.03333359956741333,0.05448088049888611,-0.22827517986297607,0.11073078215122223,0.00650447141379118,-1.2385296936719454,-0.47713421679318385,1.3348008335127193
1687010051.4459782,-0.8358985781669617,0.4661186635494232,-0.28983935713768005,0.006217241287231445,-0.07187741994857788,-0.04107809066772461,-0.14618436992168427,0.13775479793548584,0.1697716861963272,-1.2370288074529492,-0.484898626900691,1.3249613607415074
1687010051.5097132,-0.8284822702407837,0.47751620411872864,-0.29256659746170044,-0.13211941719055176,-0.1347123682498932,0.11017820239067078,-0.2738898694515228,0.23316441476345062,0.25633934140205383,-1.2313308376139596,-0.4978256119071223,1.3201707722342515
1687010051.60234,-0.820762574672699,0.48890745639801025,-0.2954966425895691,-0.08158111572265625,0.03897029161453247,-0.053471922874450684,-0.20641422271728516,0.14066524803638458,0.07556077092885971,-1.2252168683983287,-0.5108368712818413,1.3096759426228244
1687010051.62181,-0.8199917674064636,0.4909832179546356,-0.29419153928756714,-0.04409801959991455,-0.06964239478111267,0.004076153039932251,-0.29684266448020935,0.05247386544942856,-0.02759251371026039,-1.2263267046620685,-0.5132180183143624,1.2997215874695398
1687010051.656324,-0.8143833875656128,0.5012057423591614,-0.29252758622169495,-0.10526371002197266,-0.23701512813568115,-0.006972014904022217,-0.009109800681471825,0.0805443823337555,0.42206332087516785,-1.2259479752420828,-0.5249915928870593,1.2942822051323442
1687010051.746922,-0.7960158586502075,0.5333033204078674,-0.2862624526023865,-0.1300094723701477,-0.3831416368484497,0.036155521869659424,-1.061429738998413,0.15791267156600952,0.8855489492416382,-1.2255780542373838,-0.5625007603516821,1.2834937184485145
1687010051.750494,-0.7621901631355286,0.5969238877296448,-0.25049543380737305,-0.26808321475982666,-0.2682649493217468,-0.1549307107925415,-0.9282369017601013,-0.006131922826170921,1.4561964273452759,-1.2532647436749353,-0.6396615224350324,1.2262861371743963
1687010051.8449888,-0.7096517086029053,0.6597204804420471,-0.24731193482875824,-0.49205416440963745,-0.35117262601852417,-0.14314532279968262,-1.1299145221710205,0.4354124665260315,1.6563867330551147,-1.2354605618474723,-0.7204467547239805,1.236708485874722
1687010051.9336228,-0.6327318549156189,0.7470813393592834,-0.20376351475715637,-0.22107356786727905,0.16882729530334473,-0.21495305001735687,-0.06986615806818008,0.23028819262981415,2.6696197986602783,-1.2592460606580327,-0.8436604684582897,1.1834202069417088
1687010051.9395251,-0.50684654712677,0.8306219577789307,-0.23059453070163727,-0.24852454662322998,-0.32114624977111816,-0.14893749356269836,-0.9234952330589294,0.06151450052857399,3.381422281265259,-1.1438259437848368,-0.9802237200514167,1.3163646525574122
1687010052.020788,-0.30554211139678955,0.9180746078491211,-0.25255265831947327,0.14402788877487183,0.14778214693069458,0.027424365282058716,5.141808032989502,0.05812709033489227,6.246525287628174,-0.8800614548619614,-1.1631957636952017,1.6284616456967247
1687010052.0259662,0.04259252920746803,0.9172250032424927,-0.39608603715896606,2.4351906776428223,-0.3365519046783447,0.740522563457489,-3.6371235847473145,1.4546144008636475,6.740920066833496,0.10712189580451872,-1.16105778951463,2.6315470592912233
1687010052.112389,0.11362504214048386,0.9740322828292847,-0.1958319991827011,-1.184807300567627,1.0637788772583008,-0.40676820278167725,-2.4543144702911377,-0.030659236013889313,-4.443446159362793,0.525746098732325,-1.3424068406181762,3.1347594927340148
1687010052.117387,0.04160873591899872,0.9517416954040527,-0.3040665090084076,0.1674518883228302,-0.7264763116836548,0.40477442741394043,2.007140874862671,0.1816057562828064,0.541419506072998,0.13599624758183376,-1.2588619515349317,2.7046676440954958
1687010052.20506,0.05933060869574547,0.9676169753074646,-0.2453507035970688,0.15932780504226685,0.2506903409957886,-0.24439547955989838,-1.1188796758651733,-0.25679129362106323,0.05369941517710686,0.23726476571475957,-1.3156127785455467,2.82448067058266
1687010052.226019,0.05652005597949028,0.9658492803573608,-0.2528649568557739,0.007841475307941437,0.059785425662994385,0.017559051513671875,0.43539753556251526,-0.037064407020807266,-0.07073066383600235,0.21990411648399577,-1.3087013010463246,2.808394563042605
1687010052.256166,0.05348501354455948,0.9630764722824097,-0.26386138796806335,-0.016543522477149963,0.064053475856781,-0.055810362100601196,0.407992422580719,-0.09585501998662949,-0.07094957679510117,0.19999149608356928,-1.2982049546236598,2.792337695450084
1687010052.353097,0.049220453947782516,0.9543037414550781,-0.2947569191455841,-0.0513414591550827,0.032359957695007324,0.05502599477767944,0.6797484159469604,0.04066900163888931,-0.04094453901052475,0.16545993373727869,-1.2673211598547844,2.757083166225652
1687010052.37187,0.05129353329539299,0.9479570984840393,-0.3142393231391907,-0.045602042227983475,-0.007802128791809082,0.0194089412689209,0.2536189556121826,0.008300146088004112,0.0669206827878952,0.16180381225842536,-1.2467570916110993,2.7537529691334885
1687010052.437933,0.05162719264626503,0.9447538256645203,-0.3236892819404602,-0.005423612892627716,0.020791709423065186,0.045384109020233154,0.17528940737247467,0.04753649979829788,-0.06610235571861267,0.15816395404987799,-1.2368427662893697,2.7480970442596226
1687010052.527684,0.047839291393756866,0.9428980350494385,-0.3296281397342682,0.0008514672517776489,-0.027248740196228027,0.00864410400390625,0.048006948083639145,0.03242439404129982,-0.08685716241598129,0.14412481113893488,-1.2312264879746109,2.7312010520790873
1687010052.5320768,0.04688790813088417,0.9401699304580688,-0.33746403455734253,-0.0031409859657287598,-0.0054166316986083984,-0.0049738287925720215,0.42591866850852966,0.09297987818717957,-0.032362233847379684,0.13805807186612185,-1.2231287303623333,2.721548124800177
1687010052.6220322,0.044750623404979706,0.9348773956298828,-0.35213834047317505,0.017520461231470108,-0.05044764280319214,-0.031147271394729614,0.12883742153644562,0.05608244985342026,-0.1522148698568344,0.12640493374781578,-1.2079134703481595,2.704150792417795
1687010052.6442208,0.03691864386200905,0.9326878786087036,-0.35878992080688477,0.017860375344753265,-0.045984506607055664,-0.0007225275039672852,0.1822078377008438,0.05830539017915726,-0.22121284902095795,0.10253679263361944,-1.2017946825385317,2.6763960933266775
1687010052.709262,0.030721060931682587,0.9276275038719177,-0.3722410202026367,0.02602633833885193,-0.09898382425308228,-0.00010406970977783203,0.40686723589897156,0.06295859813690186,-0.007924003526568413,0.08234341261461017,-1.1880099787908753,2.6508904627066188
1687010052.712899,0.036742717027664185,0.922344982624054,-0.3846164047718048,0.010132260620594025,-0.07229316234588623,0.010806441307067871,0.03686501458287239,0.027462255209684372,0.1944597363471985,0.09524178253414264,-1.1741064153133445,2.661991067253179
1687010052.801703,0.04710785672068596,0.9213905334472656,-0.38577255606651306,-0.01663607731461525,0.03507620096206665,-0.004303276538848877,0.009873012080788612,0.052190106362104416,0.17495420575141907,0.12151143774928498,-1.1716433747330195,2.68812400785727
1687010052.821475,0.04991631582379341,0.922664225101471,-0.3823598623275757,-0.003697481006383896,0.080646812915802,-0.012919187545776367,-0.1467849165201187,0.06948413699865341,-0.13995367288589478,0.1298138573266476,-1.1749336068662548,2.6942503734938654
1687010052.858748,0.02999671921133995,0.9252419471740723,-0.37818989157676697,0.05896199867129326,0.06555700302124023,-0.0023339390754699707,-0.055752336978912354,0.28059902787208557,-0.9356061220169067,0.07915085291552994,-1.181672848357945,2.6312833740078
1687010052.947561,-0.01482684351503849,0.9234275221824646,-0.38348618149757385,0.15862564742565155,-0.04029470682144165,0.07972937822341919,0.38821083307266235,0.4785344898700714,-1.1575454473495483,-0.03864405678746721,-1.17691772366307,2.4845118150268215
1687010052.951658,-0.0756804421544075,0.9301181435585022,-0.3593779504299164,0.2631346583366394,-0.04545944929122925,0.1128111183643341,-1.8507580757141113,0.5358260273933411,-2.110844850540161,-0.20755463226024218,-1.1947343224195044,2.274396091310249
1687010053.0100079,-0.1751859486103058,0.9414919018745422,-0.28792834281921387,0.4597318470478058,0.2476101517677307,0.07465612888336182,-0.5577581524848938,1.0303317308425903,-2.475437879562378,-0.5465993221645808,-1.2270298594194575,1.8740105202663135
1687010053.099728,-0.27610304951667786,0.9160796403884888,-0.2908008098602295,0.6452131867408752,0.015377819538116455,0.25619375705718994,-0.37093114852905273,1.3197628259658813,-2.5597429275512695,-0.759477620992147,-1.1581920165803168,1.5794388248953426
1687010053.104954,-0.36858120560646057,0.8849554657936096,-0.28460776805877686,0.6584829688072205,0.05693894624710083,0.3060920238494873,-1.2058863639831543,1.0178934335708618,-2.429464101791382,-0.9132560245269674,-1.0863984036065244,1.3416371526761606
1687010053.1586099,-0.4559800624847412,0.8627460598945618,-0.21852046251296997,0.4779070317745209,0.22332864999771118,0.2212364226579666,-1.9484617710113525,0.20305857062339783,-1.9234704971313477,-1.1239003307922928,-1.0406756106707857,1.0666564835521029
1687010053.252338,-0.5254423022270203,0.840694010257721,-0.13093431293964386,-0.06945210695266724,0.1644023060798645,-0.06459194421768188,-1.332369089126587,-1.4341684579849243,-1.0296026468276978,-1.326581330015569,-0.9985636166070893,0.8610023191302784
1687010053.273622,-0.545795202255249,0.8361778855323792,-0.05398211255669594,-1.0848658084869385,-0.5412560701370239,0.15716195106506348,-0.35999393463134766,-1.6580920219421387,0.2841850817203522,-1.4722115126040025,-0.9902768707794235,0.802335361250614
1687010053.307179,-0.5361933708190918,0.8439855575561523,-0.013597005978226662,-1.5088200569152832,-0.5222998261451721,-1.3997637033462524,0.25193658471107483,0.8966544270515442,-0.06176992505788803,-1.5454433611383762,-1.0046710087585031,0.7388545699775253
1687010053.3989282,-0.5277308821678162,0.848636269569397,-0.03628046438097954,-0.4135074019432068,-0.0997045636177063,-0.2644551396369934,0.3463626205921173,0.13168226182460785,-0.42685920000076294,-1.5021562920025904,-1.0134019399328527,0.7562717944536532
1687010053.4028711,-0.5558738112449646,0.830513596534729,-0.03537500649690628,0.0853080153465271,0.24094325304031372,0.03815191984176636,0.022009702399373055,-0.3518204987049103,-0.7561361789703369,-1.507243471097353,-0.9800291212897775,0.7703485996488888
1687010053.4611058,-0.5794434547424316,0.8131018280982971,-0.055772557854652405,0.07634598016738892,0.0846489667892456,0.11116182804107666,0.5395715832710266,0.2766773998737335,-0.3981119990348816,-1.474839986344725,-0.9494609432414013,0.8072779897011888
1687010053.584072,-0.5934465527534485,0.8018950819969177,-0.06917496025562286,0.04896724224090576,-9.167194366455078e-05,-0.010689668357372284,0.14866697788238525,0.17288748919963837,-0.36968061327934265,-1.4547552207149963,-0.930460334154972,0.8169813794056385
1687010053.589723,-0.6075194478034973,0.7900803089141846,-0.08181171119213104,0.02094113826751709,-0.040492355823516846,-0.06413871049880981,0.19850698113441467,0.08425989001989365,-0.3397698402404785,-1.4369364435700667,-0.9109399476506064,0.8308753782551982
1687010053.6716309,-0.6176542639732361,0.781475305557251,-0.08831501007080078,-0.02791452407836914,-0.017925560474395752,-0.09051811695098877,0.051590632647275925,-0.09369972348213196,-0.18882906436920166,-1.4287744210683995,-0.8970268172834773,0.8418067411139102
1687010053.690696,-0.6235724687576294,0.7769180536270142,-0.08692368119955063,-0.09459763765335083,-0.11931002140045166,-0.07542998343706131,0.09884502738714218,-0.1760256290435791,-0.07052746415138245,-1.432292557130817,-0.8897558606067215,0.845621760689177
1687010053.753285,-0.6219444870948792,0.7781188488006592,-0.08784213662147522,-0.06859201192855835,-0.3214842677116394,-0.15205663442611694,0.377750039100647,-0.35441854596138,0.2942158877849579,-1.4304864852134958,-0.8916652914916208,0.8637683394522642
1687010053.77137,-0.5964477062225342,0.7965244054794312,-0.09898894280195236,-0.06589049100875854,-0.5454869270324707,-0.1461130976676941,0.717141330242157,-0.6514564752578735,1.1747410297393799,-1.406331245679682,-0.9215247031054739,0.9273580771784977
1687010053.846956,-0.5308659672737122,0.8429834842681885,-0.08694819360971451,0.017438232898712158,-0.6510738134384155,-0.22410231828689575,-0.0020200663711875677,-0.9417334198951721,2.3012073040008545,-1.4084521697939134,-1.002805512618702,0.9726159453110353
1687010053.850532,-0.40301087498664856,0.9123018980026245,-0.07271388918161392,0.16060975193977356,-0.5673923492431641,-0.1535741090774536,0.6248650550842285,-1.1792066097259521,3.7957162857055664,-1.3922901934639758,-1.1488703868762085,1.0525700528403632
1687010053.908997,-0.18938589096069336,0.9776087999343872,-0.09172550588846207,0.43451833724975586,-0.7585386037826538,0.011509962379932404,0.6288830041885376,-0.925712525844574,5.388915061950684,-1.1197621092353536,-1.3587809699162148,1.3945653905270445
1687010054.001513,0.1189417913556099,0.9862560629844666,-0.11468102037906647,1.0444798469543457,-0.7758374810218811,0.22045481204986572,0.22724474966526031,-0.28295648097991943,7.200136184692383,0.8036339812933833,-1.404811319412401,-2.915452318031278
1687010054.00659,0.48489341139793396,0.8681321144104004,-0.10594780743122101,1.8489688634872437,-0.49638229608535767,0.45085734128952026,-0.3214060664176941,0.4056583046913147,8.089916229248047,1.355679985777727,-1.0514264135058158,-2.3424814279561135
1687010054.058769,0.783951461315155,0.6141672730445862,-0.09065539389848709,1.6577904224395752,0.14929085969924927,0.31912511587142944,1.5470541715621948,1.2129961252212524,7.338027477264404,1.4556686427912218,-0.6613303823068859,-2.2718167059035883
1687010054.148645,0.936754584312439,0.3362221121788025,-0.09718698263168335,0.841336727142334,0.7129416465759277,0.2149541974067688,2.974891185760498,1.2553437948226929,4.519791126251221,1.4674175783029964,-0.34290259225012126,-2.3895654266594493
1687010054.153692,0.9788395166397095,0.2007385939359665,-0.039712175726890564,0.335796594619751,0.4716704487800598,0.4862300157546997,-4.533456325531006,1.1185591220855713,1.9648724794387817,1.5302478952771665,-0.20211180756838026,-2.3155215976494974
1687010054.212082,0.9876549243927002,0.15657366812229156,0.004721636883914471,0.8188482522964478,3.37785005569458,-2.198615074157715,-2.3763017654418945,-1.1979146003723145,-0.34083858132362366,1.5755769446306247,-0.15722057724508656,-2.1002888729312987
1687010054.301568,0.983386218547821,0.18143348395824432,0.005796951707452536,-0.22224724292755127,1.2897274494171143,0.42347848415374756,4.450758934020996,0.9211291074752808,-0.4897460341453552,1.5766911466827451,-0.18244393522869162,-2.206599078177619
1687010054.306994,0.9781202673912048,0.207480788230896,0.015233968384563923,0.0014480352401733398,-0.3089212477207184,0.2204684019088745,3.7218921184539795,0.897908091545105,-0.3212587535381317,1.5863698075576869,-0.20899900040767555,-2.439165598827844
1687010054.359843,0.9785720705986023,0.2054642289876938,0.013451947830617428,0.08325642347335815,-0.7942551374435425,0.01824045181274414,0.8655661344528198,0.11431792378425598,0.41268235445022583,1.5845419679261097,-0.2069380276473588,-2.561856699625824
1687010054.457927,0.981978714466095,0.18836231529712677,0.015408722683787346,0.010986924171447754,-0.11150379478931427,0.06480658054351807,-0.8697423934936523,-0.08506402373313904,0.22534973919391632,1.5864865434861695,-0.1894943441841812,-2.5486229598514285
1687010054.478804,0.9828726053237915,0.18306656181812286,0.021160760894417763,0.00438612699508667,0.13800886273384094,-0.04647529125213623,-1.106244444847107,-0.0624505914747715,-0.060414377599954605,1.592322506856977,-0.18410482661782507,-2.492803587535616
1687010054.503547,0.9817708730697632,0.18859341740608215,0.023632941767573357,-0.014775693416595459,0.26868197321891785,-0.030820012092590332,-0.1379430741071701,-0.06164538115262985,-0.14149297773838043,1.594863427381529,-0.18972966615069065,-2.459206300246379
1687010054.596967,0.9806941151618958,0.19433937966823578,0.021707683801651,-0.013287007808685303,0.06731833517551422,0.025472283363342285,0.3938184678554535,0.02594132535159588,-0.07674887031316757,1.5929277335436396,-0.19558393780937036,-2.469060801548123
1687010054.6005468,0.9798676371574402,0.1987829953432083,0.018565529957413673,-0.004663228988647461,-0.07160098850727081,0.008060932159423828,0.4865449368953705,0.031932905316352844,-0.0729469433426857,1.5897410385438875,-0.20011597517871552,-2.492383738491962
1687010054.660162,0.9792755246162415,0.2017233818769455,0.018075600266456604,0.02896404266357422,-0.16545327007770538,-0.02968764491379261,0.05206673592329025,0.04455335810780525,-0.0262494795024395,1.5892523659421645,-0.20311716009727324,-2.505602519753635
1687010054.752883,0.9789711833000183,0.2028810977935791,0.021323425695300102,0.02383643388748169,-0.07597373425960541,0.021416308358311653,-0.2627869248390198,0.043278768658638,-0.027734458446502686,1.5925743465976667,-0.20429931929323672,-2.498652284948762
1687010054.7738,0.9790279865264893,0.20215798914432526,0.02522740513086319,-0.007012605667114258,0.008398070931434631,0.002314571291208267,-0.36276280879974365,0.00042877416126430035,0.0033779190853238106,1.5965584331476261,-0.20356091211746305,-2.4846631503031906
1687010054.870965,0.9790345430374146,0.2017112374305725,0.028349585831165314,-0.0262758731842041,0.08144611120223999,-0.018095850944519043,-0.23430004715919495,-0.005240563303232193,-0.03136541321873665,1.5997449122024814,-0.20310475889303992,-2.467918349970137
1687010054.8908138,0.9786251783370972,0.20348137617111206,0.029794760048389435,-0.0009947419166564941,0.05616214871406555,-0.014246229082345963,0.18614545464515686,0.059309400618076324,-0.01175788976252079,1.6012324539076617,-0.20491238486943725,-2.4659453659965345
1687010054.9609408,0.9778627157211304,0.20712633430957794,0.029719902202486992,0.011669814586639404,-0.03486984968185425,0.004825834184885025,0.3307967185974121,0.1044384017586708,0.02740655466914177,1.6011796897586628,-0.20863667978702746,-2.482645753455111
1687010054.97821,0.9778696894645691,0.2065645456314087,0.03319515287876129,0.010548830032348633,-0.048529282212257385,0.0005724430084228516,0.14783553779125214,0.12152577191591263,0.028482206165790558,1.604729692767808,-0.20806247549225454,-2.4948113558505467
1687010055.047091,0.9781113862991333,0.20454041659832,0.038225188851356506,0.0018537044525146484,-0.007381632924079895,0.00030314549803733826,-0.06928419321775436,0.10246885567903519,0.004123604856431484,1.6098570573198472,-0.20599417598112943,-2.4962460962037523
1687010055.0506902,0.9786431193351746,0.20100773870944977,0.043049026280641556,-0.010579943656921387,0.04201897978782654,-0.015552882105112076,-0.002654830925166607,0.10218389332294464,0.009868576191365719,1.6147564710970574,-0.20238654085270444,-2.4943461770630773
1687010055.10775,0.9785515069961548,0.2005346715450287,0.04714631661772728,-0.04840630292892456,0.10549560189247131,-0.03483259677886963,0.3620101511478424,0.14525958895683289,0.019676730036735535,1.6189387966289959,-0.20190364598346816,-2.5003946924406315
1687010055.207093,0.9781826138496399,0.20214909315109253,0.04789877310395241,-0.03995031118392944,0.18176202476024628,-0.04075777530670166,1.362289547920227,0.23687207698822021,0.038396622985601425,1.619724352259322,-0.2035518216155206,-2.5424738794572574
1687010055.227129,0.978663980960846,0.2017093151807785,0.03911242634057999,-0.010265111923217773,0.1627010554075241,0.04647397622466087,2.1010982990264893,0.14625228941440582,0.11614735424518585,1.610740192506758,-0.203102787641603,-2.637481094618899
1687010055.2931252,0.9772934913635254,0.21012406051158905,0.027302829548716545,0.030458033084869385,0.11386580765247345,0.16126513481140137,0.6972197890281677,-0.010292313061654568,-0.36356598138809204,1.598726247384724,-0.21170185494341515,-2.712685434312893
1687010055.310621,0.9703925848007202,0.240792378783226,0.018896620720624924,0.053136348724365234,0.2379978597164154,-0.014487029984593391,0.547039270401001,-0.08793717622756958,-0.7485650777816772,1.590267037074221,-0.24318217370057277,-2.73486080925736
1687010055.349412,0.9602603316307068,0.2789932191371918,0.007922789081931114,0.021871507167816162,-0.13180696964263916,-0.12048697471618652,0.710566520690918,-0.07289857417345047,-0.720552384853363,1.5790468075935113,-0.2827455444129962,-2.762341897585526
1687010055.441207,0.9498151540756226,0.3128083348274231,-0.0013473639264702797,-0.011262476444244385,-0.04155290126800537,0.055103957653045654,0.6258803606033325,0.12102708965539932,-0.6948451399803162,1.569377773909475,-0.3181483173675054,-2.798729864403078
1687010055.4449248,0.9393066763877869,0.3430730104446411,-0.0019120312063023448,-0.00018936395645141602,-0.1448308527469635,0.06642603874206543,0.17270706593990326,0.19348011910915375,-0.5942306518554688,1.568760752508404,-0.3501865156488834,-2.8241328224993176
1687010055.495832,0.9302881956100464,0.3666934072971344,0.009985488839447498,-0.04063981771469116,-0.04949373006820679,0.10263943672180176,0.04878845438361168,0.3399856686592102,-0.41045600175857544,1.581529672789835,-0.3754523399338819,-2.826250207008307
1687010055.586526,0.9244415163993835,0.3809097111225128,0.01776130124926567,-0.015612900257110596,0.03773033618927002,0.02059912495315075,1.232520580291748,0.3652021884918213,-0.12209717929363251,1.5900069704190334,-0.39077999260013574,-2.851310311319389
1687010055.606112,0.925248384475708,0.3793236017227173,-0.005349677987396717,0.044249117374420166,-0.05542537569999695,-0.02190268039703369,2.292370319366455,0.2471121847629547,0.1720508337020874,1.565014507957049,-0.3890651393425649,-2.961681121535175
