Timestamp,gravityX,gravityY,gravityZ,accelerationX,accelerationY,accelerationZ,rotationRateX,rotationRateY,rotationRateZ,attitudeRoll,attitudePitch,attitudeYaw
1687095027.480617,0.7306921482086182,0.6222872138023376,0.280798077583313,0.03801506757736206,-0.07445091009140015,-0.06659522652626038,-0.17775559425354004,-0.5403500199317932,-0.1682814657688141,1.9376871435561578,-0.6716611753160868,-2.204470963765019
1687095027.571751,0.7280545234680176,0.6296756267547607,0.27100813388824463,-0.007687032222747803,-0.03404873609542847,-0.007137864828109741,0.007491359952837229,-0.2502402067184448,-0.23096509277820587,1.9271416152756546,-0.6811355987959902,-2.1939228378461
1687095027.593127,0.7242296934127808,0.6363236308097839,0.26567545533180237,0.027051985263824463,-0.05551314353942871,-0.006306558847427368,-0.05094218999147415,-0.23280303180217743,-0.16452614963054657,1.92239271573995,-0.6897231143698812,-2.1840915578623727
1687095027.5967522,0.7222710847854614,0.6423130631446838,0.25643402338027954,0.0179632306098938,-0.03469282388687134,0.025868862867355347,0.16886627674102783,-0.16291888058185577,-0.0865141749382019,1.9119527057182717,-0.6975123595736287,-2.186915265874671
1687095027.62109,0.7218809127807617,0.6458069682121277,0.24863867461681366,-0.004275381565093994,-0.04216933250427246,0.026751965284347534,0.010135413147509098,-0.13655930757522583,-0.053718678653240204,1.9025019327740593,-0.7020797439257191,-2.1896191495169823
1687095027.712549,0.722306489944458,0.6479816436767578,0.24164699018001556,-0.004227876663208008,-0.010240554809570312,-0.020547151565551758,0.2514820396900177,-0.057506971061229706,-0.015131339430809021,1.893640670701926,-0.7049314852367725,-2.197043702319496
1687095027.7161798,0.7237889766693115,0.6499802470207214,0.23163586854934692,0.0162011981010437,-0.02961897850036621,-0.020286336541175842,0.20161183178424835,-0.13350506126880646,0.04917574301362038,1.8805285761941286,-0.7075584473627743,-2.2115689039234203
1687095027.80668,0.7280974984169006,0.6499917507171631,0.21768078207969666,-0.00029903650283813477,-0.019178152084350586,-0.029967069625854492,0.2666265368461609,-0.16945268213748932,0.090929314494133,1.8613097455911283,-0.7075735846261272,-2.228625040268288
1687095027.8256721,0.7336159944534302,0.6485424637794495,0.20297785103321075,-0.009876430034637451,-0.009489178657531738,-0.016256123781204224,0.17922063171863556,-0.19684356451034546,0.09084702283143997,1.84072498381033,-0.7056680404387202,-2.2447645471055306
1687095027.891613,0.7391732931137085,0.6458414196968079,0.19107988476753235,-0.0045847296714782715,0.005022168159484863,0.004873499274253845,0.02654421329498291,-0.24419310688972473,0.0832173302769661,1.8237634024155809,-0.7021248971400449,-2.25227118041902
1687095027.987427,0.7443788051605225,0.6431568264961243,0.17958150804042816,-0.01563429832458496,0.017106235027313232,0.013365864753723145,0.05226961523294449,-0.22617214918136597,0.07187572866678238,1.8075230478690048,-0.6986138101066931,-2.2578148151738815
1687095028.006668,0.7482889890670776,0.6412313580513,0.16995957493782043,-0.012754261493682861,0.014393091201782227,0.023262515664100647,0.02535664476454258,-0.19428372383117676,0.053197652101516724,1.794138086978136,-0.6961018946918548,-2.2618403481985414
1687095028.073738,0.751136064529419,0.6398729085922241,0.16234800219535828,-0.01596778631210327,0.03650325536727905,0.039067938923835754,0.1379825919866562,-0.11882852017879486,0.05407063663005829,1.7836586220078225,-0.6943329052108467,-2.2649779991791865
1687095028.091326,0.752602756023407,0.6406596899032593,0.15213389694690704,-0.01659494638442993,0.030681371688842773,0.0026360899209976196,0.7359403967857361,0.16361449658870697,0.09690145403146744,1.7702522710221265,-0.6953570918100916,-2.2871782691325433
1687095028.230986,0.7595258951187134,0.6423452496528625,0.10253404825925827,0.006511211395263672,0.21327614784240723,-0.04555772244930267,4.530820846557617,1.111543893814087,0.7599478960037231,1.7049825326990204,-0.6975543626934423,-2.436472250628347
1687095028.236932,0.7929757833480835,0.6080094575881958,-0.038910508155822754,-0.1197274923324585,0.0627363920211792,0.08737242221832275,7.255296230316162,2.0504989624023438,1.2186110019683838,1.5217666769891818,-0.6535509506698595,-2.845195960434906
1687095028.289043,0.8491806983947754,0.5041602849960327,-0.15720874071121216,0.00935506820678711,0.011876702308654785,0.18435412645339966,9.494192123413086,3.1433935165405273,2.183561086654663,1.3877389621775231,-0.528409370579149,2.956917932680084
1687095028.30655,0.9326717257499695,0.30634212493896484,-0.1904672235250473,0.09186428785324097,-0.21112728118896484,0.4983591139316559,9.975850105285645,3.957768440246582,2.3308095932006836,1.3693494732214,-0.31134801625434716,2.447293064367577
1687095028.309174,0.9797300696372986,0.16262571513652802,-0.11696986109018326,0.07486587762832642,-0.16312925517559052,0.40797024965286255,6.1339263916015625,3.759300947189331,0.7263236045837402,1.4519688976707834,-0.16335121217944903,2.0495604423391587
1687095028.3444881,0.9890596866607666,0.1414272040128708,0.04194575920701027,0.1702573299407959,0.1212681382894516,0.3326423168182373,4.814383029937744,3.6247644424438477,-0.36487388610839844,1.6131806621599516,-0.14190295731010627,1.7848183359248841
1687095028.4043899,0.9594568610191345,0.21410280466079712,0.18330983817577362,0.11924797296524048,0.2516716718673706,0.32827162742614746,3.1491973400115967,3.6306231021881104,-1.9817147254943848,1.759577134742609,-0.21577324876724407,1.5742954778248588
1687095028.528372,0.8849217295646667,0.3591153025627136,0.29656362533569336,0.2256740927696228,0.21067842841148376,0.11617138981819153,1.7800061702728271,2.7035975456237793,-3.242205858230591,1.8941628094108423,-0.3673197910883045,1.4946535711865605
1687095028.533942,0.7646523118019104,0.5337162613868713,0.3611840009689331,0.4224357008934021,0.3725947141647339,-0.1079949140548706,1.7300214767456055,2.280146837234497,-3.8074450492858887,2.012080791154648,-0.562989027084243,1.4786577433077415
1687095028.612063,0.6077593564987183,0.6950206756591797,0.38415464758872986,0.44842350482940674,-0.07562065124511719,-0.27108705043792725,0.7659696936607361,1.218766212463379,-4.136750221252441,2.1344731792212444,-0.7684486447389577,1.5353053428920127
1687095028.615787,0.44966036081314087,0.8147982358932495,0.3659364879131317,0.45102018117904663,-0.2253206968307495,-0.4632570743560791,1.534751534461975,0.2684851288795471,-3.341139316558838,2.2538993052153904,-0.9523810434815517,1.6495153219629293
1687095028.712115,0.33840009570121765,0.8965663313865662,0.2857520580291748,0.42058736085891724,-0.7433375716209412,-0.1094367504119873,1.7589969635009766,-0.13290731608867645,-1.945225477218628,2.272042434961203,-1.1119551416843152,1.6656213835266824
1687095028.716171,0.26793500781059265,0.9268521666526794,0.2629753649234772,0.30164504051208496,-0.49571502208709717,-0.22333300113677979,-0.5394763350486755,0.013507150113582611,-1.0769190788269043,2.3468529717642546,-1.1859393677118968,1.757896422994106
1687095028.827779,0.25802525877952576,0.9190284013748169,0.29800963401794434,0.17688071727752686,-0.5571662783622742,0.4637090861797333,-0.7594436407089233,0.20050300657749176,0.4308629333972931,2.4279807356083882,-1.1656086384656668,1.832305097039671
1687095028.83361,0.272427499294281,0.9026243090629578,0.3332456052303314,-0.13781443238258362,0.33117085695266724,-0.12067544460296631,-1.1032191514968872,-0.13464930653572083,-0.0564659982919693,2.4562731174967913,-1.1258280674183212,1.8714399507752921
1687095028.919289,0.25744539499282837,0.9009507298469543,0.34929898381233215,-0.26980501413345337,0.10997462272644043,-0.06466150283813477,0.7029783725738525,0.7126291394233704,-0.1916094273328781,2.5064412675044387,-1.1219555083027657,1.9202334616617651
1687095028.94067,0.23619480431079865,0.9033766984939575,0.35794198513031006,0.04807642102241516,-0.3377334475517273,0.09307727217674255,-0.70039302110672,1.0727763175964355,0.02289114147424698,2.5583109212751416,-1.1275792294726719,1.9066455190007432
1687095029.0085,0.22463221848011017,0.8827823400497437,0.41259637475013733,0.09558874368667603,0.29763758182525635,0.05911386013031006,-0.4666200280189514,-0.2503078579902649,-0.19535090029239655,2.643031439715182,-1.0817523105650304,1.9928860088178932
1687095029.026371,0.22076831758022308,0.8860238194465637,0.40770530700683594,-0.008060768246650696,-0.1295081377029419,0.03855329751968384,0.16540975868701935,0.2022484391927719,0.03874494135379791,2.6453065503338076,-1.0886975320752115,1.9899850514372057
1687095029.1290479,0.22375953197479248,0.8812314867973328,0.4163684844970703,0.018199101090431213,-0.008047282695770264,0.03678703308105469,-0.3419915437698364,-0.3426588177680969,-0.04202074557542801,2.648468787488908,-1.078461251583484,2.0031993502165384
1687095029.133082,0.22871476411819458,0.880975067615509,0.4142134189605713,-0.048310086131095886,-0.006478428840637207,0.026964008808135986,0.027655750513076782,-0.11533724516630173,-0.021232642233371735,2.6370876308160036,-1.0779189678453167,2.0037747001932162
1687095029.217451,0.22968022525310516,0.8782170414924622,0.41950172185897827,0.01767997443675995,-0.015530943870544434,-0.008994519710540771,-0.16118460893630981,-0.24236470460891724,-0.01457899995148182,2.6406652951870275,-1.0721213211785041,2.016013892784666
1687095029.222588,0.23537907004356384,0.8770706653594971,0.41874077916145325,0.014666706323623657,0.0003402233123779297,0.04048776626586914,-0.04582918807864189,-0.22265557944774628,0.015580234117805958,2.6294982626443333,-1.069729684434385,2.0173795989657486
1687095029.342637,0.23986376821994781,0.8750683665275574,0.4203818440437317,0.022038087248802185,-0.00015991926193237305,-0.028444528579711914,-0.11420504748821259,-0.21696707606315613,0.008048282004892826,2.6230823195056634,-1.0655770773201858,2.022194608704154
1687095029.362661,0.24565164744853973,0.8734685182571411,0.4203670918941498,0.0036312490701675415,-0.0016116499900817871,0.008954256772994995,-0.06133997067809105,-0.21584801375865936,-0.0037247538566589355,2.6127420039248643,-1.062281372667517,2.024106004637854
1687095029.423974,0.24841584265232086,0.869945764541626,0.4260096251964569,0.008969441056251526,-0.005977749824523926,0.03392082452774048,-0.5008593201637268,-0.09279000014066696,-0.058487068861722946,2.613675446728787,-1.0550922992072107,2.0331786532574743
1687095029.441458,0.24944518506526947,0.8610573410987854,0.4431225061416626,0.021749287843704224,0.01946645975112915,-0.03542286157608032,-0.21082612872123718,-0.14254529774188995,0.0044831084087491035,2.6288796350579227,-1.0373453540364317,2.057449497858716
1687095029.51109,0.2556651830673218,0.8585870862007141,0.44436877965927124,0.016429543495178223,-0.04781132936477661,0.025357723236083984,-0.013422376476228237,-0.12694689631462097,0.13099125027656555,2.619499422261238,-1.0325072936466346,2.0553024778191955
1687095029.514563,0.2652583122253418,0.8559421896934509,0.4438478350639343,0.016190052032470703,-0.0429387092590332,-0.01708999276161194,0.09937135130167007,-0.016332905739545822,0.17478294670581818,2.6029150989717715,-1.0273703019886737,2.041587896767524
1687095029.605505,0.2824344038963318,0.8680244088172913,0.40836793184280396,0.05553251504898071,0.00935596227645874,-0.02142035961151123,1.063996434211731,0.05380783602595329,0.6112260222434998,2.536514721054557,-1.0512095287321177,1.9642008853565345
1687095029.6237721,0.3179016411304474,0.8782268166542053,0.3572901785373688,0.05584713816642761,-0.18157154321670532,0.11773121356964111,0.7245412468910217,0.4190310537815094,1.1908462047576904,2.414465226177459,-1.0721417649664768,1.8162087804860794
1687095029.692481,0.37309861183166504,0.855804443359375,0.3583239018917084,0.31534743309020996,-0.38092052936553955,-0.27781859040260315,0.24995853006839752,-0.3068878948688507,2.031010389328003,2.335997261828987,-1.027103919734083,1.7003874799224967
1687095029.796123,0.4869913160800934,0.8046655058860779,0.33963605761528015,-0.018668562173843384,-0.37827402353286743,-0.21999195218086243,-0.7422926425933838,-0.5355326533317566,2.777703285217285,2.1797866554899987,-0.9351119174759253,1.5489652743314617
1687095029.800963,0.6135285496711731,0.6936153173446655,0.3774664103984833,0.12498170137405396,-0.2718316912651062,-0.5498601198196411,-1.4717433452606201,-2.096956968307495,3.0263774394989014,2.1223453533244894,-0.7664958910651218,1.5492458311691104
1687095029.805276,0.7664161324501038,0.5708420872688293,0.29452624917030334,-0.03512340784072876,0.21304762363433838,-0.12387195229530334,-0.9617535471916199,-2.8462278842926025,3.259126901626587,1.9376869046850689,-0.6075310893545315,1.4794728942034165
1687095029.842351,0.8602932691574097,0.4201993942260742,0.28866660594940186,0.10397082567214966,-0.12684911489486694,0.13656535744667053,-8.248340606689453,-3.5092685222625732,0.5071515440940857,1.8945355424728427,-0.4336650374499546,1.6927150577689207
1687095029.906385,0.9002847075462341,0.34669116139411926,0.26323461532592773,0.3626546263694763,0.25468820333480835,0.5393013954162598,-8.41538143157959,-5.384582996368408,-2.876424551010132,1.8552573046265042,-0.35404117179235894,2.195084021625601
1687095030.0045629,0.9020823240280151,0.40550729632377625,0.147687628865242,-0.06266570091247559,0.26186642050743103,0.608721137046814,-6.112468242645264,-4.588191509246826,-3.0134637355804443,1.7330752196477095,-0.4175337512246584,2.595601551707833
1687095030.0251532,0.8474670648574829,0.5131409764289856,0.13596348464488983,0.08803403377532959,-0.024234116077423096,0.34526824951171875,-6.011567115783691,-2.7941720485687256,-3.3452112674713135,1.7298758221611872,-0.5388403141131782,2.9562819864984053
1687095030.051286,0.7776329517364502,0.5958191156387329,0.200715571641922,0.0071266889572143555,0.17458194494247437,0.06669476628303528,-5.168247222900391,-1.653648018836975,-2.9058902263641357,1.8233941348343699,-0.6382851884136052,-2.9595982535375414
1687095030.237982,0.717800498008728,0.6306964755058289,0.2949320375919342,0.0857122540473938,0.08397966623306274,-0.03133636713027954,-4.805591583251953,-1.5962440967559814,-2.124479055404663,1.9606492856033424,-0.6824503327667047,-2.6059940650362114
1687095030.25814,0.6833159327507019,0.6224556565284729,0.3816130459308624,0.03020036220550537,0.2688560485839844,-0.16943949460983276,-3.2539992332458496,-0.9313717484474182,-1.3483681678771973,2.080120957001825,-0.6718763812085019,-2.315610852456754
1687095030.296267,0.6682052612304688,0.6051768660545349,0.4327391982078552,0.19034594297409058,0.11430567502975464,-0.1972348988056183,-2.3821017742156982,-0.851712703704834,-0.8845751285552979,2.145492521822182,-0.6499880164152188,-2.1404207516335036
1687095030.298882,0.667877733707428,0.5820448398590088,0.4638572931289673,0.12919580936431885,0.18370234966278076,-0.22780370712280273,-1.2857451438903809,-0.9083308577537537,-0.42760518193244934,2.177837846721932,-0.6212411429763005,-2.0097284540515705
1687095030.301515,0.6729447841644287,0.5776844620704651,0.46198052167892456,0.08402842283248901,0.026670336723327637,-0.17728200554847717,-0.34708917140960693,-0.5821237564086914,-0.3285033702850342,2.1724082549087615,-0.6158890427054721,-1.9598247830703446
1687095030.355396,0.6759185791015625,0.587116003036499,0.4454536437988281,0.030029296875,-0.030490636825561523,-0.11183536052703857,0.1678827553987503,-0.3808448314666748,-0.34333717823028564,2.1534964477649665,-0.6274915391206003,-1.9477170636128214
1687095030.413426,0.6766521334648132,0.605607807636261,0.41878563165664673,0.025847315788269043,-0.07586836814880371,-0.03516429662704468,0.5296162962913513,-0.34423699975013733,-0.16222171485424042,2.1250031179172653,-0.6505294298651567,-1.965208079891235
1687095030.508796,0.6780283451080322,0.6166680455207825,0.3999978005886078,0.0061452388763427734,-0.10555964708328247,0.025310516357421875,0.21340525150299072,-0.24184298515319824,-0.16066616773605347,2.1037878409354858,-0.6645031194682135,-1.9719586963448639
1687095030.525295,0.6781243681907654,0.6277191042900085,0.3822516202926636,0.012869954109191895,-0.12800896167755127,0.012905299663543701,0.27964338660240173,-0.1281244158744812,-0.06644964963197708,2.0840889626123524,-0.6786196379988961,-1.9904658496608536
1687095030.563297,0.6792083382606506,0.6325923204421997,0.37216004729270935,0.023077428340911865,-0.05407059192657471,-0.02895939350128174,0.3745124340057373,-0.0985243171453476,0.04771500080823898,2.0720504936328297,-0.6848958045179228,-2.001452035851073
1687095030.654213,0.682510495185852,0.6331815719604492,0.36504843831062317,0.035796940326690674,-0.1101256012916565,-0.02380087971687317,-0.07380103319883347,-0.1605709046125412,0.0920073613524437,2.0619424846609937,-0.6856568668041372,-2.010927778762799
1687095030.672106,0.6887210011482239,0.6304570436477661,0.3580326735973358,-0.002960503101348877,-0.020425915718078613,-0.007736563682556152,0.17309564352035522,-0.07559622824192047,0.14642667770385742,2.050198756094545,-0.6821418469272029,-2.0209284352684374
1687095030.7138119,0.6966080069541931,0.6249439716339111,0.3523954451084137,0.01408541202545166,-0.015523195266723633,-0.03351724147796631,0.07632549107074738,-0.14118468761444092,0.20892786979675293,2.0391316108321274,-0.6750597901737662,-2.0284221620215015
1687095030.807168,0.7059300541877747,0.6236196756362915,0.33580002188682556,-0.013226747512817383,0.08325904607772827,-0.03347751498222351,1.0640077590942383,0.09167013317346573,0.3342684805393219,2.0148030430208284,-0.6733645380672574,-2.0630497454835
1687095030.82586,0.7161085605621338,0.6405629515647888,0.2772500514984131,0.007020711898803711,0.14881998300552368,-0.053556203842163086,3.406951427459717,0.7379279732704163,0.6378341913223267,1.9401867277698226,-0.6952311246838748,-2.2098960149641202
1687095030.862025,0.7343412637710571,0.6564958095550537,0.17249883711338043,-0.07455134391784668,0.13743412494659424,-0.033781200647354126,5.158829689025879,1.30496346950531,1.0817614793777466,1.8015161919171467,-0.7161638927484838,-2.4963155752126562
1687095030.9607558,0.7568538784980774,0.650305449962616,0.06538595259189606,0.005063354969024658,0.02160012722015381,0.012143976986408234,5.285488128662109,2.2212188243865967,0.9658570885658264,1.6569741314174764,-0.7079864547091171,-2.8574122722751008
1687095030.979732,0.7906110882759094,0.612298846244812,-0.004938466940075159,0.13780993223190308,0.07527744770050049,0.06765210628509521,5.506411552429199,2.878453493118286,1.3981205224990845,1.564550015486769,-0.6589649690564265,3.0893700511503606
1687095031.0124512,0.8418954610824585,0.5372803211212158,-0.0504189059138298,0.125099778175354,0.11399531364440918,0.1867714524269104,7.402524948120117,3.989680051803589,1.8302083015441895,1.5109803988873676,-0.5672091493745938,2.685717314710361
1687095031.104165,0.896041989326477,0.44174885749816895,-0.04434878006577492,0.10955798625946045,-0.08080214262008667,0.4612799286842346,6.1208815574646,4.000152587890625,1.558089256286621,1.521342592883504,-0.45754709946960054,2.3016530499466885
1687095031.122571,0.9264082908630371,0.37638387084007263,0.010133463889360428,0.03426969051361084,0.02820289134979248,0.2558119297027588,5.773830413818359,3.627417802810669,1.013051986694336,1.5817343323775024,-0.38589002690604984,1.9734771680991943
1687095031.193428,0.9228792190551758,0.37518370151519775,0.08678236603736877,-0.01954364776611328,-0.09544429183006287,0.1447392702102661,3.1448652744293213,3.117288589477539,-0.4037137031555176,1.6645549944103204,-0.38459493442006576,1.7279877593136201
1687095031.209814,0.8836928009986877,0.4312017560005188,0.18207763135433197,-0.022349298000335693,0.019741296768188477,-0.06032775342464447,1.067703366279602,2.399423599243164,-1.271291971206665,1.773994473274281,-0.4458243030188696,1.653865269836695
1687095031.2529778,0.8327205777168274,0.5062318444252014,0.22428999841213226,0.010571777820587158,0.32877492904663086,-0.12437543272972107,2.5972814559936523,2.3876888751983643,-1.2396358251571655,1.8338985508636068,-0.530809735672359,1.5560260285818788
1687095031.314456,0.76125568151474,0.5927233099937439,0.2630005478858948,0.09273308515548706,-0.16137254238128662,-0.03230282664299011,1.126563310623169,1.6577194929122925,-2.074448585510254,1.9034410130084345,-0.6344359363791621,1.4765148212941188
1687095031.406831,0.6720123291015625,0.6825785040855408,0.28720441460609436,0.03616344928741455,0.060143113136291504,-0.12356910109519958,0.9369713068008423,1.8571162223815918,-2.007760524749756,1.9746808756940295,-0.7512851178932474,1.4589433166758456
1687095031.425745,0.5704774856567383,0.7604005932807922,0.31039705872535706,0.23909276723861694,-0.015252947807312012,-0.28148165345191956,0.34009993076324463,0.6801236867904663,-2.2438740730285645,2.069098828012364,-0.8639297053659271,1.5017041855636535
1687095031.462323,0.47722068428993225,0.8221613764762878,0.31034034490585327,0.23626506328582764,-0.15536755323410034,-0.24004316329956055,0.33983156085014343,0.4300641417503357,-2.022916316986084,2.1473879304217163,-0.9651974922036423,1.559490904679558
1687095031.558397,0.39555543661117554,0.8691237568855286,0.296917200088501,0.18089106678962708,-0.08311301469802856,-0.18502452969551086,0.6302163600921631,0.1839316189289093,-1.5581344366073608,2.214702834353155,-1.0534278934292047,1.6279190159605588
1687095031.577621,0.3325207531452179,0.8964306116104126,0.2929891347885132,0.17068371176719666,-0.3201364278793335,0.014582335948944092,-0.2165607213973999,0.48897141218185425,-1.2491486072540283,2.2930794324158117,-1.1116487592437454,1.6919206098710826
1687095031.611813,0.2759935259819031,0.9099264740943909,0.30961528420448303,0.08255749940872192,0.048233985900878906,-0.09199440479278564,-0.40249428153038025,0.6818842887878418,-1.047053575515747,2.413544888607286,-1.143106717372769,1.8023478333075946
1687095031.705064,0.22752805054187775,0.9158715605735779,0.330772340297699,0.007472559809684753,-0.05001157522201538,0.2747575044631958,-1.145472764968872,0.563788652420044,-0.8732258081436157,2.539054743141334,-1.1576734988572814,1.9117884688395745
1687095031.7231631,0.18513540923595428,0.9106118083000183,0.36947405338287354,0.07051032781600952,0.01474219560623169,-0.12614214420318604,-0.28002724051475525,0.32845962047576904,-0.46157193183898926,2.677082799135541,-1.1447621323587407,2.0387720907819964
1687095031.7640119,0.17737381160259247,0.9035187363624573,0.39011895656585693,0.15157519280910492,-0.4175567030906677,-0.015805542469024658,-0.9689750075340271,-0.2570549547672272,0.1443438082933426,2.714865299816132,-1.127910573318353,2.0689114022059427
1687095031.855679,0.20952096581459045,0.8610062599182129,0.4634321928024292,-0.017855316400527954,-0.09123080968856812,0.3248368501663208,-2.437990665435791,-0.5215430855751038,0.2988729476928711,2.716987898181362,-1.0372448516608863,2.11196920039332
1687095031.87444,0.22461184859275818,0.8219862580299377,0.5233431458473206,-0.03399907052516937,0.537922739982605,-0.12212854623794556,0.04529246687889099,-0.5680627822875977,0.09034954756498337,2.736181283787361,-0.964889980093218,2.167214650343552
1687095031.915608,0.2272927165031433,0.828019380569458,0.512563943862915,-0.06211636960506439,-0.17140322923660278,0.08353585004806519,-0.16949354112148285,0.4303250312805176,-0.038436926901340485,2.724205176111218,-0.9755660080874988,2.1549897456477933
1687095032.038367,0.2231668382883072,0.8196554780006409,0.5275996923446655,0.07235012948513031,-0.03948885202407837,-0.017925620079040527,-0.22244063019752502,-0.3895179331302643,0.016312602907419205,2.7414298319438415,-0.960809389154167,2.1692025555796133
1687095032.060822,0.23241110146045685,0.8193456530570984,0.5240777134895325,-0.06956931948661804,0.06950920820236206,0.009232103824615479,0.0996483862400055,-0.021675871685147285,-0.05362946540117264,2.7241849780125156,-0.9602687545944405,2.1677733059628443
1687095032.155021,0.22912105917930603,0.8206283450126648,0.5235198736190796,0.03702276945114136,-0.04140758514404297,-0.017019569873809814,0.12095014750957489,-0.1329420804977417,-0.021522926166653633,2.729052178659608,-0.9625096639416282,2.1733629076219523
1687095032.1597981,0.23315422236919403,0.8191664218902588,0.5240287184715271,0.01550304889678955,-0.011915206909179688,0.03392434120178223,-0.3079063296318054,-0.17220759391784668,-0.09469247609376907,2.722965908698274,-0.9599561140594866,2.177615092193113
1687095032.250783,0.23497191071510315,0.8148627281188965,0.5298931002616882,0.005781203508377075,0.011797308921813965,0.006834745407104492,-0.07107501477003098,-0.09778262674808502,-0.007562369108200073,2.724213515904507,-0.9524923419175025,2.188222057308676
1687095032.255496,0.23885364830493927,0.815189003944397,0.5276512503623962,0.03960399329662323,-0.03572428226470947,0.005918025970458984,0.12054481357336044,-0.09513664245605469,0.029604706913232803,2.7165178138977875,-0.953055403208416,2.184902674467391
1687095032.3681479,0.23734311759471893,0.8212372064590454,0.5188815593719482,0.04532599449157715,-0.07186269760131836,-0.006247222423553467,0.40153899788856506,0.30237677693367004,0.11670232564210892,2.7125913170030613,-0.9635760003934124,2.1721595427416625
1687095032.373999,0.2584473490715027,0.8333038687705994,0.4886818826198578,0.026083320379257202,-0.18547654151916504,-0.1486549973487854,1.3364607095718384,0.021897971630096436,1.0870002508163452,2.6551196057043924,-0.985057456335576,2.0929241281630855
1687095032.378792,0.32546839118003845,0.8293461203575134,0.45415306091308594,0.19175875186920166,-0.485443651676178,-0.4624691903591156,0.5701333284378052,-0.44398558139801025,2.1186811923980713,2.5197799766723294,-0.9779363526694023,1.9330681130597167
1687095032.4544291,0.4612070918083191,0.7814918160438538,0.4201889932155609,0.12889611721038818,-0.4094519019126892,-0.380165159702301,-0.5279361605644226,-1.7440543174743652,3.037792682647705,2.309690380809309,-0.8970533351591705,1.7571896924550403
1687095032.458256,0.6242522597312927,0.6608579754829407,0.4166247844696045,0.07821667194366455,-0.2725674510002136,-0.24282711744308472,-2.785989761352539,-2.4151363372802734,3.3062996864318848,2.1593051450191973,-0.7219613381829365,1.6957435142068855
1687095032.515794,0.7720686197280884,0.5118446350097656,0.3767300844192505,0.35030704736709595,0.4823724031448364,0.06647679209709167,-2.2203598022460938,-3.668844699859619,2.6543474197387695,2.02475669228607,-0.5373306305206323,1.719293915381932
1687095032.611927,0.871681272983551,0.3826921284198761,0.3061350882053375,0.23679357767105103,0.29191428422927856,0.23117271065711975,-4.787649154663086,-3.144723653793335,0.6682613492012024,1.9085404420149428,-0.3927084898292697,1.8527943982804935
1687095032.631363,0.9114972949028015,0.33731308579444885,0.23535658419132233,0.2540910840034485,0.19068682193756104,0.43366503715515137,-6.45367431640625,-4.308756351470947,-2.145174503326416,1.8234858423294855,-0.34406123425717533,2.149191259510511
1687095032.664104,0.8988227844238281,0.4097498059272766,0.1556374728679657,-0.039356112480163574,0.34459900856018066,0.3475363254547119,-5.505517482757568,-3.8662102222442627,-3.1864490509033203,1.7422532167275258,-0.42217976785181766,2.5008557642650753
1687095032.7585158,0.8436973690986633,0.5210831165313721,0.12902367115020752,-0.0753411054611206,0.24997401237487793,0.11299596726894379,-4.1973137855529785,-2.443174123764038,-3.290515899658203,1.7225471292231092,-0.5481194561496261,2.7938791778223115
1687095032.77736,0.7682485580444336,0.6191903352737427,0.16247345507144928,0.1583719253540039,-0.0465889573097229,-0.006223440170288086,-4.572113037109375,-2.0906612873077393,-3.0685226917266846,1.779210883815123,-0.6677111765474514,3.085606413325062
1687095032.8478742,0.6942028403282166,0.6791317462921143,0.23845882713794708,0.06461673974990845,0.024405300617218018,0.013402819633483887,-4.482507228851318,-1.8754751682281494,-2.6715660095214844,1.9016689897707648,-0.7465790890725528,-2.859822133455402
1687095032.863765,0.6365331411361694,0.6926741003990173,0.33915820717811584,0.16009771823883057,-0.03013741970062256,0.013975977897644043,-4.352364540100098,-1.515114188194275,-1.9271361827850342,2.060354667890701,-0.7651900331741864,-2.5073818641890893
1687095032.9016461,0.6046682000160217,0.6725831031799316,0.4266245663166046,0.11713355779647827,0.052163660526275635,-0.15903115272521973,-2.7924599647521973,-0.7499243021011353,-1.1577640771865845,2.185238440353694,-0.7376938153540349,-2.2466994516572645
1687095033.0339022,0.5999636054039001,0.6385418176651001,0.4819835424423218,0.15144020318984985,-0.0688091516494751,-0.14056813716888428,-2.282883405685425,-0.9983623623847961,-0.543991208076477,2.2475794529434117,-0.6926020232137151,-2.0812692037318827
1687095033.039767,0.6116960048675537,0.6041511297225952,0.5107147097587585,0.06414628028869629,0.002294182777404785,-0.14856255054473877,-1.3695036172866821,-0.6802232265472412,-0.20637266337871552,2.2664678558381386,-0.6487001692279026,-1.9802713662570834
1687095033.118496,0.622326672077179,0.5873265862464905,0.5174524188041687,0.02591240406036377,0.052291274070739746,-0.1359521746635437,-0.3373390734195709,-0.43478915095329285,-0.054634805768728256,2.2644400667388354,-0.6277517017005744,-1.9379860658968997
1687095033.123625,0.6305604577064514,0.582493007183075,0.5129281878471375,-0.0032564401626586914,0.027660131454467773,-0.11975497007369995,-0.04091731831431389,-0.2668210566043854,-0.05670195445418358,2.253683685496609,-0.6217923854041022,-1.9242435715944017
1687095033.208468,0.6309170126914978,0.5916129350662231,0.5019342303276062,-0.014385640621185303,0.024140238761901855,-0.057232022285461426,0.47730308771133423,-0.03304743766784668,-0.10609613358974457,2.242825898146844,-0.6330579641690859,-1.9316952639585014
1687095033.228759,0.6259431838989258,0.6048367023468018,0.4923081696033478,0.014376521110534668,-0.06990945339202881,-0.010176271200180054,0.12423249334096909,0.04329900071024895,-0.1788683384656906,2.237254984846261,-0.6495608019141376,-1.9442678837447278
1687095033.294633,0.6209585070610046,0.6120734810829163,0.48966991901397705,-0.02554529905319214,-0.01211315393447876,0.01451098918914795,0.15863461792469025,0.06637994945049286,-0.1416008621454239,2.2385294580536743,-0.6586799744026753,-1.9433410189795863
1687095033.313081,0.6167285442352295,0.6189128756523132,0.4864078164100647,-0.016356289386749268,-0.04686093330383301,-0.008334696292877197,0.07842911779880524,0.032126374542713165,-0.1179053857922554,2.238602963195833,-0.6673579170943226,-1.9453156151314601
1687095033.385106,0.6146238446235657,0.6233949661254883,0.48333895206451416,0.009002923965454102,-0.03120124340057373,0.0012649893760681152,0.1812686175107956,0.010348773561418056,-0.010740851983428001,2.2371881694387925,-0.6730770976528767,-1.9484483167858293
1687095033.4766479,0.6140466332435608,0.6272474527359009,0.47906914353370667,-0.0012995004653930664,-0.026447951793670654,-0.020924031734466553,0.2450414001941681,0.06150663271546364,0.0056032342836260796,2.2333367923824006,-0.6780139444374714,-1.9563384724319997
1687095033.4959888,0.6113142967224121,0.6412509679794312,0.46378064155578613,0.007643342018127441,0.045287907123565674,-0.07605469226837158,1.2459821701049805,0.3791426718235016,0.13030682504177094,2.219817812228159,-0.6961274759373345,-1.9931034370453853
1687095033.5967212,0.6060352325439453,0.6848428845405579,0.40461277961730957,-0.05897718667984009,0.14975178241729736,-0.09644630551338196,3.4993515014648438,1.0482151508331299,0.3592337369918823,2.1594718245470776,-0.7543880722438974,-2.13410823492329
1687095033.617076,0.5949094295501709,0.7511411309242249,0.28612950444221497,0.010895073413848877,0.15465128421783447,0.07782319188117981,6.4542460441589355,2.4958527088165283,0.9622490406036377,2.0190987975316483,-0.8497889738483527,-2.4486700963128167
1687095033.685422,0.6135128140449524,0.7846522927284241,0.08901016414165497,0.016537845134735107,0.019928395748138428,0.3055974245071411,8.039584159851074,4.261778354644775,1.233034372329712,1.714873858286539,-0.902135058144506,-3.053379013721393
1687095033.689234,0.6775776147842407,0.7323992252349854,-0.06693464517593384,0.30156368017196655,-0.22345751523971558,0.32628828287124634,7.238781452178955,4.089395046234131,2.227842330932617,1.4723305890600917,-0.8218390770613008,2.618853475804877
1687095033.776598,0.771059513092041,0.6199419498443604,-0.1453944742679596,0.09563982486724854,-0.1316300630569458,0.307107150554657,6.0810747146606445,3.9380300045013428,1.8597928285598755,1.3844201963944927,-0.6686687084400275,2.1998326501378838
1687095033.796016,0.846732497215271,0.5078989863395691,-0.1583753079175949,0.007149338722229004,-0.060572266578674316,0.2879834771156311,5.581270217895508,3.7972586154937744,1.3018579483032227,1.3858899738583579,-0.5327440110728545,1.8647410437852627
1687095033.862904,0.891539990901947,0.44088518619537354,-0.103811115026474,0.12823539972305298,-0.056623101234436035,0.1344049572944641,3.4134039878845215,3.462550163269043,0.21697087585926056,1.4548781092208278,-0.45658465188541075,1.6157943228148737
1687095033.866487,0.8941043019294739,0.4472091495990753,-0.02410990372300148,0.08604389429092407,0.2343703806400299,0.11755472421646118,2.4083304405212402,2.962165355682373,-0.9779527187347412,1.5438374345184176,-0.4636426342169217,1.4541073948565557
1687095033.9531488,0.8581754565238953,0.509703516960144,0.06113368272781372,0.11716639995574951,0.18916434049606323,-0.038855791091918945,1.627184510231018,2.8087680339813232,-1.955233097076416,1.6419130028218274,-0.5348401247587807,1.3417362761290605
1687095033.957545,0.7735989093780518,0.6192072033882141,0.13463737070560455,0.06464266777038574,0.3235723376274109,-0.08979177474975586,0.5231907367706299,2.3863325119018555,-2.884188175201416,1.7431106480339442,-0.6677326987450594,1.2998838800600094
1687095034.048768,0.6510511040687561,0.7311283349990845,0.20392096042633057,0.1315264105796814,-0.011554360389709473,-0.25665533542633057,-0.312660276889801,1.5494239330291748,-3.384066104888916,1.8743352351518638,-0.8199743892578368,1.3340709972233953
1687095034.069566,0.5081174969673157,0.822945237159729,0.25412121415138245,0.04878246784210205,-0.15073460340499878,-0.41529983282089233,-0.08811672031879425,1.2061952352523804,-3.1033437252044678,2.034542275619415,-0.9665758636133203,1.4562531224477242
1687095034.135213,0.3772400915622711,0.8814429044723511,0.2841622829437256,0.2551299035549164,-0.35339730978012085,-0.253644734621048,-0.4370492100715637,0.6098074316978455,-2.468837022781372,2.2163846460656744,-1.0789086770945437,1.6133926424467373
1687095034.22725,0.2816019654273987,0.9070611000061035,0.31295475363731384,0.19511312246322632,-0.24914783239364624,-0.29261481761932373,-0.4217573404312134,0.2868650555610657,-1.5382903814315796,2.408878720081492,-1.1362499142503713,1.8113459557995844
1687095034.247587,0.23558704555034637,0.9147633910179138,0.32818734645843506,0.2043696492910385,-0.39784127473831177,-0.12864813208580017,-0.4860725998878479,0.3996308743953705,-0.32643115520477295,2.518991493335953,-1.1549219252458258,1.9093379683139025
1687095034.312993,0.22037164866924286,0.9023492932319641,0.3704085350036621,0.3670154809951782,0.10297620296478271,0.2819962799549103,-0.9038054347038269,0.26209884881973267,0.007670379243791103,2.6049004783038296,-1.1251895072147942,1.9883037294088601
1687095034.330524,0.2208707630634308,0.8762537240982056,0.4282473921775818,0.1354372501373291,0.20002508163452148,-0.06600373983383179,-1.527578353881836,0.4050557613372803,-0.03035396710038185,2.665420582349571,-1.0680315713286457,2.0322295550289056
1687095034.4050531,0.22447840869426727,0.8592007160186768,0.45976513624191284,0.013177305459976196,0.05133718252182007,0.08147943019866943,-0.19380387663841248,-0.43858203291893005,0.2245800644159317,2.68739252387779,-1.0337054159075136,2.0642341619594595
1687095034.408619,0.24028132855892181,0.8533806800842285,0.4626080393791199,-0.128251314163208,-0.1796746850013733,0.049629420042037964,-0.36478176712989807,-0.1474495232105255,0.11595078557729721,2.6625411684008533,-1.0224365696957052,2.053090474607072
1687095034.562228,0.24694909155368805,0.8438242077827454,0.47642067074775696,-0.08303922414779663,0.06341749429702759,0.026219040155410767,-0.19677941501140594,-0.22932493686676025,-0.013839439488947392,2.6633789402752757,-1.0043702200598905,2.0659736198037564
1687095034.6452131,0.24719679355621338,0.8398035168647766,0.4833467900753021,-0.003712266683578491,-0.048513054847717285,0.015752971172332764,-0.5110583901405334,0.06680632382631302,-0.08783376961946487,2.6688449604944373,-0.9969211828448592,2.0764753795528508
1687095034.668407,0.245668426156044,0.8251529932022095,0.5086943507194519,0.11874201893806458,0.021465778350830078,0.010577619075775146,-0.39450040459632874,-0.2940947413444519,0.03347507864236832,2.691686616090278,-0.9704729570191846,2.106962834169129
1687095034.6720119,0.26072683930397034,0.8220334649085999,0.506243109703064,0.012252837419509888,-0.04858088493347168,-0.044313907623291016,0.12324299663305283,-0.24617275595664978,0.22446341812610626,2.665999004029725,-0.9649729074522485,2.0954684026808827
1687095034.735553,0.27696916460990906,0.8182294964790344,0.5037743449211121,0.030205488204956055,-0.1357496976852417,0.03693610429763794,-0.2397133708000183,0.08046580851078033,0.4085965156555176,2.6389120717529018,-0.9583244813018607,2.069645515822569
1687095034.739227,0.2929843068122864,0.8147637844085693,0.5003197193145752,0.05520594120025635,0.07236683368682861,-0.048430800437927246,0.6307011842727661,-0.00834209006279707,0.7003271579742432,2.6118330408648536,-0.9523216925948048,2.0290420437014105
1687095034.825704,0.3400813639163971,0.8161887526512146,0.46709805727005005,0.0831058919429779,-0.3714408278465271,-0.3085744380950928,0.568160355091095,0.22369687259197235,1.743704080581665,2.5122732893363082,-0.9547836807499736,1.8978486752368129
1687095034.845391,0.4366794228553772,0.7989696264266968,0.41347116231918335,0.11394914984703064,-0.13585323095321655,-0.30736154317855835,1.0413548946380615,-1.293624758720398,2.5860369205474854,2.3289022552713177,-0.9255798973828273,1.719488680809426
1687095034.9137192,0.5816820859909058,0.7530165314674377,0.30759069323539734,-0.007753252983093262,-0.258830189704895,-0.24580788612365723,1.5982338190078735,-1.3349958658218384,3.4598922729492188,2.057213864509789,-0.8526345469450481,1.4483931878543725
1687095034.931777,0.7245713472366333,0.6471499800682068,0.23705178499221802,-0.034370481967926025,-0.012155354022979736,-0.2208774983882904,-1.3847421407699585,-1.9012551307678223,3.2920172214508057,1.8869819220825477,-0.7038400368549287,1.3324514386627437
1687095035.004843,0.8338630795478821,0.49780938029289246,0.2384498119354248,0.19464033842086792,-0.14652153849601746,-0.061157941818237305,-4.762617588043213,-2.7451658248901367,2.3177590370178223,1.8493212976754994,-0.5210710963334256,1.462628726674581
1687095035.00843,0.9079135060310364,0.36024022102355957,0.21429026126861572,0.18054187297821045,0.05685877799987793,0.44783440232276917,-8.433304786682129,-4.3657636642456055,0.20204226672649384,1.802579399112037,-0.3685254062219894,1.796353821170176
1687095035.096461,0.9244778752326965,0.34832265973091125,0.1549583077430725,0.13443630933761597,0.39560434222221375,1.0708565711975098,-10.024202346801758,-5.1727614402771,-3.5077288150787354,1.73686960648266,-0.3557811114276109,2.308163612219906
1687095035.116898,0.87281733751297,0.46851563453674316,0.13668622076511383,-0.12260371446609497,0.3081720173358917,0.5541096925735474,-8.627517700195312,-3.2898237705230713,-4.34629487991333,1.7261380969502078,-0.48760983565027466,2.8589439153584904
1687095035.153091,0.8020423054695129,0.5536685585975647,0.22400733828544617,0.051946282386779785,0.1531185507774353,-0.011696591973304749,-5.19496488571167,-1.4672832489013672,-2.1759183406829834,1.8431522348129374,-0.5867632151286757,-2.9756370168581654
1687095035.2439299,0.781889021396637,0.5571838021278381,0.2796354591846466,0.023393571376800537,0.12534183263778687,-0.13751506805419922,-0.8796893954277039,0.004565585870295763,-0.14059045910835266,1.9142618620552991,-0.5909905129834837,-2.792378041928951
1687095035.2631922,0.7837123274803162,0.5497673749923706,0.28905200958251953,0.15502363443374634,-0.02292710542678833,-0.12317371368408203,-0.4114786684513092,-0.14261586964130402,0.014175948686897755,1.92414157804369,-0.5820857015349743,-2.7726039236251507
1687095035.366128,0.784816563129425,0.5444362163543701,0.296060711145401,0.0420723557472229,0.08198279142379761,-0.1195317804813385,-0.29895320534706116,-0.06447873264551163,-0.04767756536602974,1.931525501738008,-0.5757168441135256,-2.747776166856975
1687095035.385902,0.7811720967292786,0.5433118343353271,0.3075425326824188,0.06733858585357666,0.016121089458465576,-0.09477391839027405,-0.4666721522808075,0.041139308363199234,-0.18429026007652283,1.9458544335759633,-0.5743769910437151,-2.7225569273535095
1687095035.455061,0.7740933299064636,0.5467915534973145,0.31905871629714966,0.0426180362701416,0.04450172185897827,-0.05505111813545227,0.1320086568593979,0.2510593831539154,-0.07929887622594833,1.961750583025117,-0.5785273571715257,-2.7078363036080937
1687095035.4586592,0.7689310312271118,0.5518615245819092,0.3227907717227936,0.005421936511993408,-0.018246471881866455,-0.07442346215248108,0.11251045763492584,0.2038964033126831,-0.0870571956038475,1.9682471243528579,-0.5845948353624659,-2.717816727419778
1687095035.5465589,0.7648891806602478,0.5557716488838196,0.32567283511161804,0.008228003978729248,0.012847185134887695,-0.02124461531639099,0.19488860666751862,0.14720050990581512,-0.01777266338467598,1.973325577984043,-0.5892908858602732,-2.7225034081418142
1687095035.566527,0.7629885673522949,0.558709979057312,0.32510319352149963,0.03838789463043213,-0.03614211082458496,-0.02838072180747986,0.2213200330734253,0.14877110719680786,0.031353071331977844,1.97359140177053,-0.5928295127551378,-2.734463637717115
1687095035.605046,0.762962818145752,0.5610100030899048,0.3211780786514282,0.019553542137145996,-0.036946892738342285,-0.01552930474281311,0.6484616994857788,0.3012862205505371,0.2142440676689148,1.9692414591381682,-0.5956053529433665,-2.760842097131173
1687095035.6948671,0.7659942507743835,0.5629714727401733,0.3103482723236084,0.014920055866241455,-0.05380094051361084,-0.014770269393920898,1.2700111865997314,0.5077782273292542,0.45230215787887573,1.9557408498833533,-0.597976786295367,-2.8193794370188505
1687095035.714126,0.7741315960884094,0.5664007067680359,0.28268420696258545,-0.0003890395164489746,-0.030023813247680664,0.030700773000717163,2.667701482772827,0.9141275882720947,0.9140090942382812,1.920914991126175,-0.6021319130237456,-2.942420640656894
1687095035.755548,0.7907952666282654,0.5623894333839417,0.2415798306465149,-0.031029701232910156,-0.11347591876983643,0.12481425702571869,3.563546657562256,1.5533499717712402,1.3960251808166504,1.867281928481752,-0.5972726877963358,3.1375198881256825
1687095035.8400779,0.8166925311088562,0.5394662618637085,0.20491370558738708,-0.02090078592300415,-0.13104945421218872,0.19523277878761292,4.314775466918945,1.975141167640686,1.9291818141937256,1.8166282574446995,-0.5698030986596123,2.8838200183298697
1687095035.8436918,0.8518337607383728,0.4947911202907562,0.17193226516246796,-0.04269087314605713,-0.07763117551803589,0.24783703684806824,4.587893486022949,2.2349190711975098,2.0830845832824707,1.7699583883556114,-0.5175944648650863,2.5893546997352432
1687095035.9102,0.8785197734832764,0.44650527834892273,0.16981106996536255,-0.027598321437835693,-0.056307584047317505,0.16717931628227234,3.38438081741333,2.088653564453125,1.674221158027649,1.7617338958033306,-0.46285584310555905,2.345248922927005
1687095035.966456,0.8865354657173157,0.4135906398296356,0.20735891163349152,0.010666072368621826,0.10620003938674927,0.019447684288024902,1.4270650148391724,2.2052862644195557,0.6629454493522644,1.8005637486964585,-0.42639428967070303,2.1678642534467483
1687095036.054621,0.8905881643295288,0.39850395917892456,0.21919631958007812,0.051504552364349365,-0.49187251925468445,-0.3085671067237854,-2.655320167541504,-1.3974164724349976,-0.8256968855857849,1.8121249403375386,-0.40988512099460894,2.305283876466249
1687095036.058541,0.8980684280395508,0.3887189030647278,0.20584243535995483,-0.08958137035369873,0.7002551555633545,-0.13202032446861267,1.3294053077697754,-0.014696392230689526,0.46270129084587097,1.796110234716597,-0.3992407438229661,2.3531955253839647
