Timestamp,gravityX,gravityY,gravityZ,accelerationX,accelerationY,accelerationZ,rotationRateX,rotationRateY,rotationRateZ,attitudeRoll,attitudePitch,attitudeYaw
1687004811.6268291,0.8634957671165466,0.4816645681858063,0.14958007633686066,0.009444177150726318,0.002054274082183838,-0.01617252826690674,-0.17425964772701263,-0.028575312346220016,-0.014563214965164661,1.7423203650673127,-0.5025531560971414,-0.5472702859739922
1687004811.643002,0.8635939955711365,0.4808432459831238,0.15164056420326233,0.0020979642868041992,-0.017983168363571167,6.221234798431396e-05,-0.11768285185098648,0.02631017193198204,-0.0030114874243736267,1.7446167591341755,-0.5016161806456201,-0.5401780263173923
1687004811.746655,0.86313796043396,0.4809612035751343,0.15384705364704132,-0.004114091396331787,-0.014408499002456665,-0.014793768525123596,0.08376384526491165,0.04767937958240509,0.020646968856453896,1.7471854794207287,-0.5017507218570747,-0.5394384242173432
1687004811.762358,0.8641878962516785,0.47887957096099854,0.1544458568096161,-0.024191617965698242,-0.006375908851623535,-0.011928915977478027,0.012568360194563866,0.03671380877494812,0.057825230062007904,1.7476471354345562,-0.499377967548224,-0.5409136719515646
1687004811.840096,0.8647021055221558,0.47785910964012146,0.1547272652387619,0.004789292812347412,-0.002746284008026123,-0.010836973786354065,0.0432489737868309,0.018675820901989937,0.012986121699213982,1.7478595091322828,-0.4982159481407079,-0.5446954947855017
1687004811.845645,0.8654763698577881,0.47686317563056946,0.15346738696098328,0.013246774673461914,-0.007670611143112183,-0.01136229932308197,-0.004571477882564068,0.003856528550386429,0.0416816845536232,1.7462934137307378,-0.4970825272065124,-0.5484652948788206
1687004811.850132,0.8654907941818237,0.4762797951698303,0.15518689155578613,0.004382073879241943,0.007347464561462402,0.005717024207115173,0.019768482074141502,0.009493375197052956,-0.0003398042172193527,1.7482160719015953,-0.4964189391876039,-0.5448585049699569
1687004811.9912891,0.865683376789093,0.4760204255580902,0.15490852296352386,0.01900583505630493,-0.01013907790184021,0.00874185562133789,-0.06239323318004608,0.022499457001686096,-0.005688763223588467,1.747865852668034,-0.4961239773815955,-0.5465058177847919
1687004811.9962249,0.8645542860031128,0.4765373766422272,0.15955470502376556,-0.004202902317047119,0.0057166218757629395,-0.010217085480690002,-0.01590089686214924,0.0327753983438015,-0.028995949774980545,1.7532943064333653,-0.4967119028882563,-0.5383396987231579
1687004812.077718,0.8643839955329895,0.4767020344734192,0.15998563170433044,0.010936379432678223,-0.022035837173461914,-0.019681081175804138,-0.06029985472559929,-0.004641351755708456,-0.015390126034617424,1.753811529685017,-0.4968991908128969,-0.5408342995421347
1687004812.0926971,0.8643712401390076,0.47657668590545654,0.16042810678482056,0.006859838962554932,0.014924228191375732,-0.021908864378929138,0.11114633083343506,0.003135344944894314,0.0174301378428936,1.7543090764155025,-0.49675661904489193,-0.5380221938365404
1687004812.096445,0.8649534583091736,0.4767013490200043,0.1568785011768341,0.0023711323738098145,0.021253913640975952,-0.017535343766212463,0.1263238787651062,0.018490198999643326,-0.021959612146019936,1.750218069965708,-0.4968984280452999,-0.5481517455976472
1687004812.135179,0.8638184070587158,0.47904714941978455,0.15598440170288086,-0.004886150360107422,0.03024539351463318,-0.018808022141456604,0.07344076782464981,-0.03982943296432495,-0.0381295271217823,1.7494465996732538,-0.49956887051369964,-0.547858367420911
1687004812.231471,0.862653911113739,0.48278865218162537,0.15080752968788147,0.0021072030067443848,0.02726683020591736,0.006495222449302673,0.18454976379871368,0.015539949759840965,-0.07753658294677734,1.7438655098486167,-0.5038362639558837,-0.5578076571693779
1687004812.243526,0.8596886396408081,0.48899346590042114,0.14771777391433716,0.0029363036155700684,-0.01185116171836853,0.017656788229942322,0.12887565791606903,0.032305214554071426,-0.10537407547235489,1.7409616917699566,-0.5109354698749278,-0.5670706996480492
1687004812.286402,0.8571209907531738,0.49438661336898804,0.14465579390525818,0.0005296468734741211,-0.021638840436935425,-0.0020319223403930664,0.09272278845310211,-0.011401919648051262,-0.09240555018186569,1.737990199448056,-0.5171290436939522,-0.5740999303198902
1687004812.380903,0.8551996350288391,0.49818792939186096,0.14297640323638916,0.012476027011871338,-0.028751283884048462,0.02435147762298584,0.1000685840845108,0.03453201800584793,-0.0839095264673233,1.736449113804535,-0.521507638101726,-0.5781115202583867
1687004812.3938432,0.853542685508728,0.5011208653450012,0.14262790977954865,0.012835979461669922,-0.04601222276687622,0.008205175399780273,-0.021133676171302795,-0.009714939631521702,-0.06863018125295639,1.7363676522384728,-0.5248935338329553,-0.579832368386545
1687004812.436168,0.8529874086380005,0.5021253824234009,0.1424156278371811,-0.0010893940925598145,-0.037571609020233154,0.00664733350276947,0.06541073322296143,0.016427315771579742,-0.0072661531157791615,1.7362313646901497,-0.5260546836556051,-0.5812026568042837
1687004812.5279179,0.8536416888237,0.5011383295059204,0.141971617937088,0.014796853065490723,-0.038507163524627686,0.00892244279384613,0.03258727490901947,0.00559277692809701,0.009976483881473541,1.73560077275535,-0.5249136725751425,-0.5838313365714088
1687004812.542692,0.8550818562507629,0.4986213743686676,0.1421673446893692,-0.00016254186630249023,-0.0327400267124176,-0.0002607107162475586,0.01810893416404724,0.007005183957517147,0.06203755736351013,1.7355509320149722,-0.5220076025400082,-0.5844321230258898
1687004812.681119,0.8567149043083191,0.4955376982688904,0.14311476051807404,-0.009058773517608643,-0.01078122854232788,0.012158632278442383,0.004559636116027832,0.01635833829641342,0.05065973103046417,1.7363185578286315,-0.5184537693507958,-0.5849891917431151
1687004812.738003,0.8585050106048584,0.4923124313354492,0.1435183584690094,0.002578914165496826,-0.010699272155761719,0.0032558441162109375,-0.08750024437904358,-0.0030065705068409443,0.05926493555307388,1.7364370561641949,-0.514744439404855,-0.5854311807650088
1687004812.74432,0.860125720500946,0.4886886775493622,0.1461752951145172,-0.003268420696258545,0.005177348852157593,0.007602706551551819,-0.02937575988471508,0.02805054746568203,0.07426758855581284,1.7391344135044786,-0.5105861089655624,-0.5812995753013418
1687004812.749538,0.8617518544197083,0.485001802444458,0.14885035157203674,-0.005901932716369629,0.004515320062637329,-0.001847296953201294,-0.09548753499984741,-0.006803838536143303,0.060596249997615814,1.7418385560976322,-0.5063652352824034,-0.5770562439889015
1687004812.856244,0.8630760908126831,0.4818429946899414,0.1514165699481964,-0.0038841962814331055,0.013533622026443481,-0.00416933000087738,-0.06986746191978455,0.0314699150621891,0.06373665481805801,1.7444671996732715,-0.5027567685804886,-0.5733332759509163
1687004812.861372,0.8640053272247314,0.4792516827583313,0.15431255102157593,0.0021443963050842285,0.015972286462783813,-0.000671878457069397,-0.044933680444955826,0.02834882214665413,0.05667075514793396,1.7475342131880685,-0.49980190810788544,-0.5705480086284664
1687004812.950475,0.8651062250137329,0.4767053723335266,0.1560221016407013,-0.005090534687042236,0.0221196711063385,-0.010209217667579651,-0.021635616198182106,-0.0008680520695634186,0.06272412091493607,1.7492284824518884,-0.4969029880720234,-0.567466512810233
1687004812.964628,0.8660104274749756,0.47494685649871826,0.15636859834194183,-0.008985459804534912,0.01115235686302185,0.004107937216758728,-0.01486279722303152,0.018007634207606316,0.02946416474878788,1.749433605093832,-0.49490363076652993,-0.5681779486138522
1687004813.070763,0.8663637042045593,0.4744061827659607,0.1560533493757248,0.009673893451690674,0.013676762580871582,0.003950253129005432,0.0030883057042956352,-0.005895168054848909,0.03134302794933319,1.749009876858693,-0.49428936198855383,-0.5688477314552505
1687004813.076542,0.8662461638450623,0.47428861260414124,0.15705932676792145,0.001490473747253418,0.013946831226348877,0.0028221458196640015,-0.03668840229511261,0.012838039547204971,-0.006906360387802124,1.7501581224849097,-0.4941558065569926,-0.5667510421637979
1687004813.163311,0.8658474087715149,0.4747805893421173,0.1577700525522232,0.0014620423316955566,0.013515889644622803,0.0009365081787109375,-0.06086058169603348,-0.011956523172557354,-0.020452529191970825,1.7510335423792418,-0.49471472700058333,-0.5651252754296496
1687004813.177505,0.8648412823677063,0.47605058550834656,0.1594526320695877,0.00516897439956665,0.012245893478393555,0.006623983383178711,-0.003671529470011592,0.031715989112854004,-0.023653116077184677,1.753120940471313,-0.49615829481357604,-0.5619156951239382
1687004813.2841,0.8634750247001648,0.47773122787475586,0.16181246936321259,0.0063825249671936035,0.019476324319839478,0.015143603086471558,-0.08006024360656738,0.00376624776981771,-0.06252115219831467,1.7560446078535819,-0.49807035598121,-0.558180170805809
1687004813.297193,0.8620477318763733,0.47975245118141174,0.16343465447425842,0.0011264681816101074,-0.0040292441844940186,-0.01614166796207428,-0.14513830840587616,-0.027454521507024765,-0.06230303645133972,1.7581614395976561,-0.5003725535889778,-0.5531582361926818
1687004813.3005838,0.8601131439208984,0.4822646379470825,0.16620996594429016,0.010492086410522461,0.031636059284210205,-0.004924669861793518,-0.20322372019290924,-0.06749648600816727,-0.12746474146842957,1.7616854252977077,-0.5032380112181569,-0.5411233538304574
1687004813.367402,0.8581896424293518,0.4858264923095703,0.1657792180776596,0.005884826183319092,0.0518474280834198,-0.050148144364356995,-0.3091922998428345,-0.18377608060836792,-0.1639987677335739,1.761619100413014,-0.5073085070822286,-0.526116850565754
1687004813.491373,0.8539144396781921,0.4929330348968506,0.16687379777431488,-0.011888861656188965,0.08769437670707703,-0.03728093206882477,-0.3827582597732544,-0.2054731249809265,-0.30771148204803467,1.7637862569777232,-0.5154575781157537,-0.5006408933404995
1687004813.497536,0.8464963436126709,0.5062509775161743,0.16478312015533447,-0.0070953369140625,0.1903584599494934,-0.08949638903141022,-0.18084250390529633,-0.22862091660499573,-0.46310266852378845,1.76305675599847,-0.5308319418086523,-0.4817235927121108
1687004813.552907,0.832245409488678,0.5312115550041199,0.15868794918060303,-0.03141838312149048,0.2462543249130249,-0.06330524384975433,-0.14374855160713196,-0.2457844614982605,-0.8210387229919434,1.7592091645312036,-0.5600299330859698,-0.46452163254486184
1687004813.557397,0.8038252592086792,0.5767691731452942,0.1456093043088913,0.024864256381988525,0.48313677310943604,-0.11066675186157227,0.4378187358379364,-0.0770937129855156,-1.3661354780197144,1.7499985683748258,-0.6147682178803633,-0.46593179784976924
1687004813.560827,0.7516065835952759,0.6457353234291077,0.13458535075187683,0.06797343492507935,0.39599740505218506,-0.10214531421661377,0.04140413552522659,-0.19839031994342804,-1.9840927124023438,1.7479820690215255,-0.7019859404349936,-0.462022597860755
1687004813.634722,0.6812483072280884,0.7222257256507874,0.11954368650913239,0.049220383167266846,0.5135836005210876,-0.17561982572078705,0.5091406106948853,-0.3917592465877533,-2.2173967361450195,1.7445051814957127,-0.807014887998881,-0.44390733799990006
1687004813.730987,0.593768835067749,0.800790548324585,0.07856733351945877,0.18510067462921143,0.341741681098938,-0.060150034725666046,0.4561692774295807,-0.5921116471290588,-2.5074679851531982,1.702351829941623,-0.9286139731694378,-0.46822537930119074
1687004813.744525,0.4871288537979126,0.872593879699707,0.03584931045770645,0.26770809292793274,0.4387769103050232,-0.018301725387573242,1.2975497245788574,-0.5271053314208984,-2.631012201309204,1.6442569739510091,-1.0604879018019506,-0.5007084874620064
1687004813.785667,0.3644142746925354,0.9306847453117371,-0.03206342086195946,0.2966421842575073,0.23885560035705566,0.019032299518585205,0.7790025472640991,-0.5939145088195801,-2.8465447425842285,1.483036141822552,-1.1962801747898328,-0.6497131272396092
1687004813.879228,0.22803513705730438,0.9697499871253967,-0.08708973228931427,0.38237738609313965,0.22888875007629395,0.13823717832565308,1.5241178274154663,-0.512148916721344,-2.799855947494507,1.2059782052096513,-1.3242045296153055,-0.9097000771146256
1687004813.893187,0.08385924249887466,0.9845617413520813,-0.15364126861095428,0.40510860085487366,0.13343441486358643,0.0880742073059082,0.9274297952651978,-0.5994024872779846,-2.9475250244140625,0.4996221345685836,-1.3948523309820422,-1.60257191535976
1687004813.935656,-0.06277262419462204,0.975762128829956,-0.2096371352672577,0.39867958426475525,0.1028510332107544,0.206814244389534,1.6180263757705688,-0.423458069562912,-2.7681658267974854,-0.2909380680114493,-1.3501770611050612,-2.380022688831457
1687004814.064318,-0.19684064388275146,0.9398736953735352,-0.27908968925476074,0.33535993099212646,0.10138595104217529,0.12752410769462585,1.1350741386413574,-0.4798586070537567,-2.6555418968200684,-0.6142710421494647,-1.2222602468155,-2.6948095941017476
1687004814.078971,-0.32517388463020325,0.888914167881012,-0.32263514399528503,0.39484548568725586,0.16230952739715576,0.18896812200546265,1.4031767845153809,-0.4907742440700531,-2.6121578216552734,-0.7893170830079957,-1.0949692355612561,-2.8573866230103375
1687004814.180749,-0.4458349645137787,0.8106173276901245,-0.37964531779289246,0.38985052704811096,0.09476280212402344,0.16054436564445496,1.1388792991638184,-0.4896675646305084,-2.7628695964813232,-0.8654101738636043,-0.9452055334063473,-2.919566454094974
1687004814.194776,-0.5655791163444519,0.7184356451034546,-0.4049326181411743,0.4475066065788269,0.17260128259658813,0.24271643161773682,1.2952611446380615,-0.4158117175102234,-2.9504852294921875,-0.9494383508461662,-0.8015507112911925,-2.9977012517022166
1687004814.271049,-0.674066424369812,0.5969319939613342,-0.43509379029273987,0.4115999937057495,0.01976710557937622,0.22006690502166748,0.9177751541137695,-0.4824826419353485,-3.0930025577545166,-0.997607888679853,-0.6396716259998957,-3.037429154787448
1687004814.276176,-0.765604555606842,0.46692752838134766,-0.44252482056617737,0.4140573740005493,0.04082387685775757,0.20015418529510498,1.3341248035430908,-0.32683005928993225,-3.0007195472717285,-1.04670511473706,-0.48581310245855047,-3.0892573373000123
1687004814.356952,-0.8300767540931702,0.32603001594543457,-0.4524124562740326,0.23228323459625244,-0.09458476305007935,0.1106918454170227,0.703477144241333,-0.3385942876338959,-2.7920949459075928,-1.0717808239887592,-0.33210107782973175,-3.1145326903056065
1687004814.3610091,-0.8732095956802368,0.1975497305393219,-0.44550999999046326,0.3543803095817566,0.03186613321304321,0.18096834421157837,0.7970211505889893,-0.2948828935623169,-2.6046957969665527,-1.0990234276423692,-0.19885775579016743,3.1331315404722995
1687004814.4466128,-0.8965003490447998,0.0650404840707779,-0.4382427930831909,0.22409135103225708,-0.005775377154350281,0.09000670909881592,0.544691801071167,-0.31042590737342834,-2.572859287261963,-1.1161187009088822,-0.06508642427807737,3.1129747703880555
1687004814.4572039,-0.9014372229576111,-0.05918218567967415,-0.42884519696235657,0.22753292322158813,0.15184879302978516,0.16332697868347168,0.31099581718444824,-0.06807412207126617,-2.7407681941986084,-1.1267485212682378,0.05921678743720703,3.0661462286295293
1687004814.540345,-0.8844994902610779,-0.19695965945720673,-0.4229271113872528,0.26903635263442993,0.12300030887126923,0.07893297076225281,0.5341620445251465,-0.07486304640769958,-2.890673875808716,-1.1247776295098477,0.19825586140938767,3.0314639561080643
1687004814.5451012,-0.8473068475723267,-0.3317396640777588,-0.414752721786499,0.16009682416915894,0.05314469337463379,0.09682059288024902,0.5515739917755127,-0.05916251614689827,-2.892690658569336,-1.1155877507940657,0.33814708518349823,2.9829246163580097
1687004814.597252,-0.7941318154335022,-0.46393904089927673,-0.3925749361515045,0.15697062015533447,-0.12131181359291077,0.09664595127105713,0.42138370871543884,-0.24690325558185577,-2.822488784790039,-1.1116830985431465,0.4824365810574672,2.9573831133556623
1687004814.685622,-0.72896409034729,-0.5709118247032166,-0.37771809101104736,0.13046866655349731,-0.006282389163970947,0.024004101753234863,0.3723301887512207,-0.32626983523368835,-2.6212286949157715,-1.092728582425861,0.6076160293272163,2.890005784916259
1687004814.692128,-0.655841588973999,-0.6710156798362732,-0.3458459973335266,0.09845340251922607,-0.07172101736068726,0.029165118932724,0.15696434676647186,-0.37755513191223145,-2.560529947280884,-1.0855232739978544,0.7355778218469886,2.851718681183759
1687004814.780878,-0.5710298418998718,-0.7479906678199768,-0.33828192949295044,0.13632231950759888,0.05025207996368408,-0.02252739667892456,0.2848133444786072,-0.253996342420578,-2.4907586574554443,-1.035978831637595,0.8450294973135725,2.758633455989116
1687004814.796634,-0.47886332869529724,-0.8222689032554626,-0.307512104511261,0.14822068810462952,-0.003963947296142578,-0.013059794902801514,0.6473070383071899,-0.26216354966163635,-2.385488748550415,-0.9999445688361148,0.9653863982286295,2.698733388620282
1687004814.835352,-0.38627222180366516,-0.8777309656143188,-0.2835172414779663,0.14774689078330994,-0.08645659685134888,-0.01590597629547119,0.4408288896083832,-0.29456663131713867,-2.111088275909424,-0.9376251406119513,1.0711059123798972,2.608489345882303
1687004814.964006,-0.30335915088653564,-0.9192327857017517,-0.25096672773361206,0.15019148588180542,-0.10864496231079102,0.053075432777404785,0.5600820183753967,-0.18439394235610962,-1.766351580619812,-0.8796338047479815,1.1661273987589418,2.5308430508230293
1687004815.0280728,-0.23098737001419067,-0.9491963982582092,-0.2137080579996109,0.09959395229816437,-0.04599714279174805,0.09072217345237732,0.8275226950645447,-0.01810922473669052,-1.4327374696731567,-0.8242351346870953,1.2506722295532753,2.4647428009786485
1687004815.039566,-0.17100532352924347,-0.9689099788665771,-0.1788026988506317,0.15206921100616455,-0.1044083833694458,0.10934467613697052,0.928098738193512,0.13015107810497284,-0.7977648377418518,-0.7631114075056337,1.3207864427887266,2.4060780021878103
1687004815.109556,-0.1360979527235031,-0.9806248545646667,-0.14089679718017578,0.2099047601222992,-0.053386807441711426,-0.0796080082654953,1.1384774446487427,0.025596577674150467,-0.352294921875,-0.7680752135686955,1.3736262189016766,2.4156632634189523
1687004815.115464,-0.13111373782157898,-0.9864821434020996,-0.09829556196928024,0.0018107891082763672,-0.06951749324798584,-0.031709372997283936,0.8968210816383362,-0.05943083018064499,0.0762881338596344,-0.9274892656881277,1.4061852457797195,2.573756042282966
1687004815.2330132,-0.13668230175971985,-0.9902510046958923,-0.02684282325208187,-0.048834025859832764,0.05967867374420166,0.0008265413343906403,1.3396412134170532,0.004213525447994471,-0.01566123589873314,-1.3768758251293531,1.431047324417259,3.026327724235546
1687004815.2470698,-0.13126234710216522,-0.9913234710693359,-0.0069327447563409805,0.025183245539665222,-0.03466224670410156,-0.035212039947509766,-0.20616377890110016,-0.07181227207183838,-0.1261288970708847,-1.518029409738702,1.4389699507321672,-3.11531492179767
1687004815.357436,-0.1304880827665329,-0.9913898706436157,-0.010907260701060295,-0.006840988993644714,-0.14937245845794678,-0.04236119985580444,-0.028827082365751266,-0.14738398790359497,0.10288751870393753,-1.487402015671485,1.4394761564200032,3.131838517748273
1687004815.3617601,-0.13663068413734436,-0.9904977679252625,-0.01568285934627056,-0.019695580005645752,-0.013118386268615723,0.013058306649327278,-0.12120614945888519,-0.0584527850151062,0.1005023866891861,-1.4565136113965007,1.4328303456890814,3.0939544282799654
1687004815.407321,-0.13975156843662262,-0.9900892376899719,-0.013869043439626694,-0.007648289203643799,0.06607824563980103,0.016371430829167366,0.20041927695274353,0.08585646003484726,0.014128884300589561,-1.4718795209710565,1.429891036458285,3.110562576049776
1687004815.4109612,-0.1397469937801361,-0.9901854991912842,-0.0018236811738461256,0.014548659324645996,-0.021884143352508545,-0.03469061851501465,0.205277681350708,-0.0006651193252764642,0.01754465326666832,-1.5577471894259922,1.4305777392353922,-3.0831178310343565
1687004815.4225879,-0.14233511686325073,-0.9898167848587036,0.001818006276153028,0.00479242205619812,-0.020589590072631836,0.031552910804748535,-0.05362237989902496,-0.08039070665836334,0.0754106193780899,-1.5835683501366977,1.4279639635210117,-3.0595534860276015
1687004815.463124,-0.1443699449300766,-0.9895233511924744,-0.0008467320003546774,-0.005990117788314819,0.032110750675201416,-0.003746211528778076,-0.010620848275721073,-0.11549116671085358,0.02386539988219738,-1.5649313787015051,1.4259172815548353,-3.0834106507711287
1687004815.529165,-0.14377859234809875,-0.9895948171615601,0.005448515992611647,-0.026219531893730164,-0.02355813980102539,0.019972562789916992,0.1065114289522171,-0.046921033412218094,-0.03418032452464104,-1.6086733848380521,1.426412955126824,-3.043416866416319
1687004815.5920172,-0.14331157505512238,-0.9896376729011536,0.008882260881364346,0.002808675169944763,-0.044328272342681885,-0.005861043930053711,0.03773842751979828,-0.02904815971851349,0.007570050656795502,-1.6326958220917975,1.426711166493961,-3.0206898168055814
1687004815.6824908,-0.1443902999162674,-0.9894551634788513,0.01139141246676445,-0.00653432309627533,0.03512483835220337,0.023246049880981445,0.08706896007061005,0.017653565853834152,0.0006330488249659538,-1.6495264463158523,1.4254454027975456,-3.0043781453792016
1687004815.696362,-0.14445526897907257,-0.9890238046646118,0.031058555468916893,-0.0024105459451675415,-0.013631165027618408,0.010704755783081055,0.4846177101135254,0.010460768826305866,-0.01844264194369316,-1.7825769368026443,1.422496937745794,-2.869097975635854
1687004815.771487,-0.14379484951496124,-0.988999605178833,0.03468265011906624,-0.011966869235038757,-0.027800381183624268,0.025726918131113052,-0.1767164170742035,0.02248520776629448,-0.015135528519749641,-1.807471276522131,1.4223332912879258,-2.8433022389821456
1687004815.921813,-0.1439024806022644,-0.989020049571991,0.03363236412405968,-0.006671205163002014,0.03943526744842529,-0.04374897852540016,0.33900201320648193,0.006128204986453056,0.02008025161921978,-1.8003914825949032,1.4224717677422725,-2.849664484130059
1687004815.927835,-0.14423789083957672,-0.9881743788719177,0.05202694609761238,0.02514307200908661,-0.035751402378082275,-0.002741090953350067,0.16087207198143005,-0.023894406855106354,0.007686963304877281,-1.9169735438953703,1.4168548322086205,-2.732114750763194
1687004816.012306,-0.14581502974033356,-0.988192081451416,0.04705297574400902,-0.0005319565534591675,-0.008481264114379883,0.04134117811918259,-0.16183973848819733,0.01682439260184765,0.04096396267414093,-1.8829370126793912,1.416970209407017,-2.766661776809007
1687004816.026373,-0.14977113902568817,-0.9873573184013367,0.051900483667850494,0.05605170130729675,-0.0073171257972717285,-0.023702271282672882,0.3804527223110199,0.10117815434932709,0.1670244187116623,-1.9043782346700417,1.4116146498743671,-2.7422213808256344
1687004816.0299459,-0.16166624426841736,-0.9851809144020081,0.057293497025966644,0.07109011709690094,-0.04439055919647217,0.08607804775238037,-0.24147936701774597,0.18951667845249176,0.3249557316303253,-1.911379969754385,1.3984255803230028,-2.726843717437135
1687004816.097598,-0.1830875426530838,-0.9823434352874756,0.03847192972898483,0.1351902335882187,-0.008440136909484863,-0.12384486198425293,-0.13884739577770233,0.0007211891934275627,0.5870603322982788,-1.7779116918365168,1.3826008304284514,-2.8554813661850043
1687004816.110698,-0.22072428464889526,-0.9747479557991028,0.03387188911437988,0.19728681445121765,-0.1277148723602295,0.08075213432312012,-0.6069701910018921,-0.18486052751541138,0.9736940264701843,-1.7230663677714253,1.345589533884061,-2.9161440537480803
1687004816.189464,-0.27734628319740295,-0.9607551693916321,-0.005324405152350664,0.11397051811218262,-0.01197725534439087,0.005476952064782381,-0.3408377766609192,-0.16180726885795593,1.406384825706482,-1.5516010053023641,1.2897118208159981,-3.105872582860381
1687004816.193816,-0.3541761636734009,-0.9351683855056763,-0.004365910310298204,0.20128318667411804,-0.21651911735534668,0.19447511434555054,0.038993775844573975,0.39255139231681824,1.8810166120529175,-1.5584700050955882,1.208734094246246,-3.0916674110738795
1687004816.27801,-0.451305627822876,-0.8912538886070251,-0.044603344053030014,0.17374837398529053,-0.10256612300872803,-0.06341367959976196,-1.384819507598877,0.4638064205646515,2.2864432334899902,-1.4722844492509033,1.1001025240906808,3.1218710747456866
1687004816.2940478,-0.5573720932006836,-0.8245798945426941,-0.09697502851486206,0.31584078073501587,-0.05205273628234863,0.07922905683517456,-0.38891804218292236,0.6014050245285034,2.786494016647339,-1.3985345394132076,0.9694592000642026,3.0671420960276348
1687004816.336286,-0.6672994494438171,-0.727944552898407,-0.15750575065612793,0.1821463704109192,-0.04236489534378052,-0.06769877672195435,-1.98563814163208,0.3886164426803589,2.9508228302001953,-1.3390041619971376,0.8153192536027923,3.0244065141155083
1687004816.454747,-0.7657175660133362,-0.5999017953872681,-0.23193590342998505,0.28958243131637573,0.021303832530975342,0.20126569271087646,-1.7824777364730835,0.2150067239999771,3.174327850341797,-1.2766810585840989,0.6433783757978552,2.952189850443093
1687004816.459581,-0.8504384756088257,-0.4428737461566925,-0.2839318513870239,0.30557769536972046,-0.031399935483932495,0.12139517068862915,-2.037353277206421,-0.09647846221923828,3.3599941730499268,-1.2485671312239828,0.45880135885718804,2.908032020107374
1687004816.548214,-0.9119752645492554,-0.2535000443458557,-0.322550505399704,0.2709078788757324,0.04848295450210571,0.4648997187614441,-2.846186637878418,-0.07489873468875885,3.4787819385528564,-1.2308438598050202,0.2562967942535213,2.8362448361162342
1687004816.5605512,-0.9429683685302734,-0.03931886702775955,-0.3305518627166748,0.409246563911438,-0.014712546020746231,0.04545658826828003,-3.2947731018066406,-0.7362760305404663,3.503211498260498,-1.2336370088751256,0.039329004670632335,2.7514219255517114
1687004816.643539,-0.9490469098091125,0.17872607707977295,-0.2595512866973877,0.3283041715621948,-0.025833070278167725,0.5038139224052429,-3.7833962440490723,-1.3759760856628418,3.4937820434570312,-1.3038379839246452,-0.1796915270429571,2.6312176930086553
1687004816.6478271,-0.9121404886245728,0.3777461349964142,-0.15908366441726685,0.46507328748703003,0.05984532833099365,0.12549901008605957,-3.1587538719177246,-1.2813514471054077,3.440124988555908,-1.398126123887192,-0.3873608747397814,2.5198690318227044
1687004816.730897,-0.8452357053756714,0.534088671207428,-0.01804414950311184,0.3614102005958557,0.08541804552078247,0.35031944513320923,-2.396444082260132,-1.7308903932571411,3.1461942195892334,-1.5494515016984858,-0.5634294068406442,2.3635069313555985
1687004816.746592,-0.7405363321304321,0.6673897504806519,0.07871853560209274,0.2083556056022644,0.1012716293334961,0.11857748031616211,-1.3574351072311401,-1.4725770950317383,3.3756163120269775,-1.676697998452973,-0.7306982064323163,2.284426181332207
1687004816.784308,-0.6142578125,0.7665459513664246,0.1873355209827423,0.2518920302391052,0.25783759355545044,0.316250205039978,-0.8176777362823486,-1.1789554357528687,3.2399344444274902,-1.8668144270145806,-0.873445220064874,2.1157774694055447
1687004816.880481,-0.4683089852333069,0.8563897013664246,0.2174476534128189,0.09605550765991211,0.07012397050857544,-0.024210423231124878,-0.5618094801902771,-1.4428400993347168,3.1253662109375,-2.0054990154112575,-1.0282363399552268,2.021992236875756
1687004816.896638,-0.3165872395038605,0.9019791483879089,0.29360833764076233,0.23956084251403809,0.182508647441864,0.207108736038208,-0.467077374458313,-1.2702842950820923,2.9958653450012207,-2.3185540407162417,-1.1243314649174059,1.7509246963009573
1687004816.967177,-0.15630850195884705,0.9421660304069519,0.2964630126953125,0.23281605541706085,0.045962393283843994,0.03590378165245056,-0.2602922022342682,-1.0785818099975586,3.0701539516448975,-2.656387701344694,-1.229035644968972,1.4457994289820146
1687004816.981323,0.0019486735109239817,0.9459934830665588,0.32417985796928406,0.274326890707016,0.15532487630844116,0.08631196618080139,0.03666018322110176,-0.9217084646224976,2.988818407058716,3.135581638721501,-1.240645608875599,0.9824783313622206
1687004817.0596051,0.1596960723400116,0.9391471743583679,0.3041374981403351,0.23066948354244232,0.05040055513381958,0.11358705163002014,-0.027554558590054512,-0.7870290279388428,3.021975040435791,2.6580840562626475,-1.2201392572609482,0.5220110237446622
1687004817.151792,0.3042279779911041,0.9083203077316284,0.28705301880836487,0.1923540234565735,0.2838488817214966,0.08590224385261536,0.6351873278617859,-0.5305562615394592,2.777371883392334,2.3271556353887215,-1.1392506819959458,0.19974112457173449
1687004817.1688719,0.4294547140598297,0.8661593198776245,0.25560975074768066,0.16365432739257812,0.04817765951156616,0.0768485963344574,0.4353475868701935,-0.5177762508392334,2.6588385105133057,2.10767605334812,-1.047465497035767,-0.015657585642757803
1687004817.2360501,0.5512288808822632,0.8072129487991333,0.21107806265354156,0.11910492181777954,0.23865491151809692,-0.10948514938354492,0.83294677734375,-0.3975234031677246,2.7441821098327637,1.936494785434119,-0.9394150542596994,-0.1982128894672527
1687004817.240075,0.6558403372764587,0.7331584692001343,0.1798674762248993,0.15368419885635376,0.20820200443267822,0.07680059969425201,0.5477867722511292,-0.5900459885597229,2.504413604736328,1.8384697809293464,-0.822954820864656,-0.29048768753630255
1687004817.3878999,0.7445104718208313,0.6530367136001587,0.1387338489294052,0.17300045490264893,0.2727140188217163,0.09353531897068024,0.7133474349975586,-0.2042025327682495,2.3369362354278564,1.7550257366052262,-0.7115873437367766,-0.38140853834125077
1687004817.393536,0.8092795610427856,0.5748345851898193,0.12096201628446579,0.038529276847839355,0.29148322343826294,0.11213125288486481,0.5794172286987305,0.1048491895198822,1.8845630884170532,1.7191666872653562,-0.612401958218285,-0.4341585490985725
1687004817.537394,0.8522619009017944,0.5106321573257446,0.1135978251695633,0.020479798316955566,0.31851524114608765,-0.04090498387813568,0.13351115584373474,0.22265678644180298,1.3183274269104004,1.7033050938441587,-0.5359198846394732,-0.4837964162820429
1687004817.555846,0.8778282403945923,0.4632393717765808,0.12176484614610672,-0.049596548080444336,0.4138663113117218,-0.059097059071063995,0.6332668662071228,0.3289649784564972,0.9859869480133057,1.7086282844679257,-0.48164693432914296,-0.5017102274191502
1687004817.559438,0.8946157097816467,0.4307882487773895,0.1186765730381012,0.041404128074645996,0.370771199464798,-0.17655324935913086,0.6185348033905029,0.2901584506034851,0.5846440196037292,1.7026827718150854,-0.44536604565686755,-0.5613858052609717
1687004817.661566,0.9001834392547607,0.4166564345359802,0.12675707042217255,-0.030142486095428467,0.33395397663116455,-0.13211296498775482,0.24597232043743134,0.08225386589765549,0.18536747992038727,1.7106890495463791,-0.42976417252985355,-0.5646696518167976
1687004817.666815,0.9015223383903503,0.41473037004470825,0.12351443618535995,-0.010805964469909668,0.14776960015296936,-0.13907849788665771,0.10898551344871521,0.08538240939378738,-0.06408096849918365,1.7069551335963997,-0.4276464588081273,-0.5856974744921698
1687004817.671154,0.8969200253486633,0.4237516522407532,0.12636756896972656,0.02150636911392212,0.11990374326705933,0.0032709836959838867,0.18768371641635895,0.00919217150658369,-0.2523914873600006,1.7107656126112092,-0.437583231586933,-0.5828602016285896
1687004817.81021,0.8916075229644775,0.43611687421798706,0.12181182950735092,0.0011078715324401855,-0.0063683390617370605,-0.062439918518066406,-0.1172383725643158,-0.06281863898038864,-0.2968180775642395,1.7065761686504612,-0.4512790133723174,-0.592844691409277
1687004817.817447,0.8845407962799072,0.4493390619754791,0.12522752583026886,-0.0324137806892395,0.022584766149520874,0.01965463161468506,-0.1211017519235611,-0.12645447254180908,-0.31818675994873047,1.7114351716296268,-0.46602537226382323,-0.5696184243828349
1687004817.96109,0.8792449831962585,0.4607051908969879,0.12115658074617386,0.055309951305389404,-0.09258690476417542,0.014783859252929688,-0.2598126232624054,-0.09294763952493668,-0.23797152936458588,1.7077301344907567,-0.4787895661041379,-0.5665850513860815
1687004817.9674969,0.8748025894165039,0.4678614139556885,0.12580114603042603,0.007262110710144043,-0.05108284950256348,0.03362250328063965,-0.050080306828022,-0.016117045655846596,-0.12583914399147034,1.713622336901129,-0.4868694734730277,-0.547083582517186
1687004817.972367,0.8744680881500244,0.4698113203048706,0.12075921148061752,0.00813072919845581,-0.04395371675491333,0.029036298394203186,0.2775890529155731,0.04604938626289368,0.03826458007097244,1.7080228795364163,-0.4890770238072674,-0.5627280972117259
1687004818.385448,0.8744345903396606,0.4688996374607086,0.12448734045028687,-0.008437395095825195,-0.021420419216156006,0.04238270968198776,-0.14855101704597473,0.0492868609726429,0.009174073114991188,1.7122093207874365,-0.4880445431983043,-0.5567356674864989
1687004818.402666,0.8751459717750549,0.4669657051563263,0.12673647701740265,-0.008370697498321533,-0.01040753722190857,0.011157140135765076,0.05124857649207115,0.09881140291690826,0.03227166831493378,1.7146140196208324,-0.48585625516751657,-0.5613501568942084
1687004818.42282,0.8750874996185303,0.46517035365104675,0.13355839252471924,0.00452035665512085,0.003350675106048584,-0.017774850130081177,-0.007424056529998779,0.0988984927535057,0.03757642209529877,1.7222504648273025,-0.4838270304239725,-0.556546177611297
1687004818.4410071,0.8757742047309875,0.46310651302337646,0.136204332113266,0.013355255126953125,0.015058130025863647,-0.0050704628229141235,0.05408950522542,0.08439012616872787,0.03769040107727051,1.7250847643002207,-0.48149703537938227,-0.5620925984153241
1687004818.4434872,0.8762131929397583,0.46184560656547546,0.13765600323677063,-0.011436641216278076,0.0023573338985443115,-0.0403812974691391,-0.056389402598142624,0.028086500242352486,0.018481021746993065,1.7266259382316231,-0.48007490663228786,-0.5629640766145768
1687004818.46973,0.8762720823287964,0.46153724193573,0.13831199705600739,0.009134173393249512,0.015757620334625244,-0.015127912163734436,-0.3136120140552521,-0.12120284885168076,-0.039337001740932465,1.7273461404752797,-0.4797272706885307,-0.5521017541053164
1687004818.479609,0.8766199946403503,0.4620850682258606,0.13421916961669922,-0.010317564010620117,0.032742202281951904,-0.00824272632598877,0.1843581646680832,-0.015222757123410702,0.0397048145532608,1.7227263232118062,-0.4803448837882964,-0.5474822829930075
1687004818.481316,0.8762158155441284,0.4641146957874298,0.1297820508480072,0.012028753757476807,-0.004947155714035034,0.008172646164894104,-0.03592773526906967,-0.009288967587053776,-0.05646565556526184,1.7178437487870395,-0.4826348860135824,-0.5579255503344789
1687004818.483036,0.8752579092979431,0.4665125012397766,0.12762948870658875,-0.0027300119400024414,0.015421003103256226,0.011301741003990173,0.12628787755966187,-0.032199740409851074,0.024911222979426384,1.7155950776917053,-0.48534383690116073,-0.5584186028653465
1687004818.4847798,0.8746930956840515,0.4671509265899658,0.1291576772928238,0.00444185733795166,0.007000654935836792,0.02930484712123871,-0.18677590787410736,0.008805747143924236,-0.07387127727270126,1.7173975400687094,-0.4860657476267645,-0.5543447713813551
1687004818.486573,0.8738522529602051,0.4683845043182373,0.1303764283657074,-0.014996170997619629,-0.025025159120559692,0.009638071060180664,-0.006360456347465515,-0.01858166791498661,-0.007860304787755013,1.7189011816143467,-0.4874614374408558,-0.5519115849536148
1687004818.5104542,0.8734826445579529,0.4684852659702301,0.13247458636760712,0.0024480223655700684,0.010823816061019897,0.009004831314086914,-0.15501098334789276,0.0047669303603470325,-0.06096480041742325,1.7213118251257526,-0.48757546754249403,-0.5472095964090414
1687004818.520973,0.8720873594284058,0.4704708755016327,0.13461291790008545,-0.011034011840820312,0.01878693699836731,-0.004943728446960449,0.009942283853888512,-0.0035988574381917715,-0.05644381791353226,1.723944805136092,-0.4898243126595052,-0.5425869417936205
1687004818.5633888,0.8700789213180542,0.4733213782310486,0.13758492469787598,0.0149003267288208,0.01598227024078369,-0.0031093209981918335,-0.10622873157262802,0.01608070358633995,-0.08592447638511658,1.7276270081059473,-0.4930574401818553,-0.5343253187297958
1687004818.66012,0.8672844767570496,0.47783172130584717,0.1396225392818451,-0.003972768783569336,-0.010973840951919556,-0.02231299877166748,-0.19925594329833984,-0.04308794438838959,-0.12592090666294098,1.7304149412086756,-0.49818476901511144,-0.5290440761389581
1687004818.69027,0.8653925657272339,0.4812857210636139,0.13949622213840485,-0.014517009258270264,0.016379594802856445,-0.00840809941291809,-0.029034476727247238,-0.04030933231115341,-0.08716870844364166,1.7306157179857686,-0.5021208820075829,-0.5211353061252441
1687004818.6929832,0.8620861768722534,0.4868788421154022,0.140557661652565,0.006077885627746582,0.043577760457992554,0.005270615220069885,-0.4302026629447937,-0.08973734080791473,-0.25315847992897034,1.732417827877138,-0.5085128996838394,-0.511310590595254
1687004818.7073169,0.8574696183204651,0.4948863387107849,0.14082947373390198,-0.02379065752029419,0.03929322957992554,-0.02754834294319153,-0.05177787318825722,-0.1294029951095581,-0.17017224431037903,1.733581481210852,-0.5177040321528384,-0.49458848368473285
1687004818.830416,0.8528657555580139,0.5024802088737488,0.14189299941062927,0.007852017879486084,-0.001518845558166504,0.004560723900794983,-0.4066940248012543,-0.11869921535253525,-0.26995691657066345,1.7356583060095352,-0.5264650453772883,-0.4782268898018946
1687004818.847425,0.8481124639511108,0.5109921097755432,0.13997195661067963,0.00824117660522461,-0.03313261270523071,0.011303544044494629,0.1905657947063446,-0.046354975551366806,-0.1389661282300949,1.7343612859377104,-0.5363385508481664,-0.47184312711467885
1687004818.861911,0.8435555100440979,0.518593430519104,0.13955315947532654,0.011531829833984375,-0.07825523614883423,0.021610155701637268,-0.5071200132369995,-0.08850256353616714,-0.27402356266975403,1.7347458753883263,-0.5452050285966354,-0.4650529069471217
1687004818.9477348,0.8384829759597778,0.5257452130317688,0.14331212639808655,-0.0034151673316955566,-0.0043523311614990234,-0.03163310885429382,0.02760343626141548,-0.10950398445129395,-0.1265438199043274,1.7400789108937202,-0.5535909701829647,-0.4453116137327315
1687004818.963419,0.8346940875053406,0.5330596566200256,0.13832132518291473,-0.009590566158294678,0.08395993709564209,-0.0675511509180069,-0.35198065638542175,-0.1829928457736969,-0.31208544969558716,1.7350189040553692,-0.5622127406089941,-0.4426758498997872
1687004819.004554,0.823872447013855,0.5488030314445496,0.14159585535526276,-0.03583228588104248,0.2916358709335327,-0.07352648675441742,-0.37332168221473694,-0.2532804608345032,-0.6075519919395447,1.7409997442932006,-0.5809316697607493,-0.41107217428355297
1687004819.054688,0.8033589720726013,0.5786890983581543,0.14047543704509735,-0.02224630117416382,0.3260045647621155,-0.07518313825130463,-0.23658494651317596,-0.2805905044078827,-0.9835218787193298,1.7439062515098074,-0.6171203729173306,-0.3806474662653247
1687004819.140149,0.7683451175689697,0.6259657144546509,0.13346385955810547,0.025584816932678223,0.41381388902664185,0.01685035228729248,0.07794496417045593,-0.11933224648237228,-1.4844882488250732,1.742783279782768,-0.6763692695618423,-0.3647958199446498
1687004819.174804,0.710829496383667,0.6932711601257324,0.11872757226228714,0.07280069589614868,0.4074978232383728,0.01677035540342331,0.9319625496864319,0.11892825365066528,-1.982115626335144,1.736295374696988,-0.7660181848782892,-0.3753760923324436
1687004819.216255,0.627014696598053,0.7719002366065979,0.10498862713575363,0.12454164028167725,0.3669242858886719,0.10723055899143219,0.22781822085380554,0.22185011208057404,-2.5420923233032227,1.7366993424799522,-0.8818247338847354,-0.3857359994887404
1687004819.254152,0.5175274014472961,0.8531094193458557,0.06610255688428879,0.18542969226837158,0.409204363822937,0.02029263973236084,1.6933258771896362,0.150384321808815,-2.848571300506592,1.69783610597667,-1.021916395378263,-0.4465148283327927
1687004819.317007,0.3784670829772949,0.9243209362030029,0.048917870968580246,0.26791030168533325,0.32943248748779297,-0.025724656879901886,0.046720538288354874,0.03877336531877518,-3.256711959838867,1.6993363243514383,-1.1792522575555573,-0.4512584171195205
1687004819.361768,0.2252548336982727,0.9742768406867981,0.006707199849188328,0.2890273630619049,0.3483245372772217,-0.04143631458282471,1.7825524806976318,-0.07806789875030518,-3.207213878631592,1.6005635849597741,-1.3434895176289032,-0.5547573248167887
1687004819.4244719,0.05895793437957764,0.9977912306785583,-0.030600545927882195,0.425325483083725,0.2072867751121521,0.0010289549827575684,0.17984357476234436,-0.2603568732738495,-3.4387717247009277,1.0920461107726342,-1.5043197052365263,-1.056809698712287
1687004819.4633322,-0.10652002692222595,0.990472137928009,-0.08728425949811935,0.40017539262771606,0.18761324882507324,0.08527003973722458,2.048689603805542,-0.177546426653862,-3.185746431350708,-0.8843277433404891,-1.4326440338834787,-3.0279115813762685
1687004819.511821,-0.2642570734024048,0.9535852670669556,-0.14437200129032135,0.4152122437953949,0.08895611763000488,0.13840574026107788,0.6668075323104858,-0.2675566077232361,-3.2051351070404053,-1.070773868633694,-1.2649261156745413,3.077617870134675
1687004819.556819,-0.4073903262615204,0.8864980340003967,-0.21944092214107513,0.4259907901287079,0.17610865831375122,0.25403255224227905,2.9325897693634033,-0.05951471999287605,-2.9444072246551514,-1.076708631966468,-1.0897213784044955,3.079550870888923
1687004819.6085129,-0.5371608138084412,0.788824200630188,-0.2986876964569092,0.41806602478027344,0.12528389692306519,0.2227141559123993,0.9493251442909241,-0.13076040148735046,-3.192366361618042,-1.0633208980151259,-0.9088935602107934,3.101508295220052
1687004819.668611,-0.6529557108879089,0.6719261407852173,-0.3495195209980011,0.3106400966644287,0.1595708727836609,0.2538621723651886,2.2908825874328613,0.03382854163646698,-3.0528621673583984,-1.0793182349181867,-0.7368064694179634,3.082977346516177
1687004819.714113,-0.7455307841300964,0.5276685953140259,-0.4071236252784729,0.2458512783050537,0.036799728870391846,0.2139168381690979,1.1300373077392578,0.025510558858513832,-3.13645601272583,-1.0709633723894492,-0.5558536068512367,3.095786536511289
1687004819.77488,-0.8123041391372681,0.38030263781547546,-0.44218993186950684,0.2127404808998108,0.14861276745796204,0.18088310956954956,1.9198188781738281,0.15961097180843353,-2.9192276000976562,-1.072289714667884,-0.3901234849595172,3.0810230990828047
1687004819.818264,-0.8549988269805908,0.2158738672733307,-0.4715670943260193,0.2051728367805481,0.07257823646068573,0.11771577596664429,1.4003665447235107,-0.09457377344369888,-2.9404666423797607,-1.06677060418835,-0.2175867081516539,3.0947583106047496
1687004819.856368,-0.8786048293113708,0.06163289025425911,-0.47355547547340393,0.2352333664894104,0.08176916837692261,0.11862078309059143,1.4231150150299072,-0.20836372673511505,-2.815218448638916,-1.0764486880735638,-0.061671977097609874,3.076946493912575
1687004819.910506,-0.8825326561927795,-0.09942515194416046,-0.45962002873420715,0.2307383418083191,-0.032212428748607635,0.15529873967170715,1.2585489749908447,-0.37770962715148926,-2.6973562240600586,-1.0906501649879659,0.09958969640593444,3.0905502987853843
1687004819.968563,-0.869434118270874,-0.2316814661026001,-0.43635767698287964,0.1882818341255188,0.0773693323135376,0.11372584104537964,0.9724134802818298,-0.3598209023475647,-2.5138063430786133,-1.1056402441862319,0.23380582525375818,3.063573048399822
1687004820.007576,-0.8417752385139465,-0.36398452520370483,-0.3986596465110779,0.17376083135604858,0.03453204035758972,0.12510010600090027,1.1727010011672974,-0.5342996120452881,-2.4261298179626465,-1.1284958340358193,0.372542298745668,3.069932739062112
1687004820.088064,-0.8010104894638062,-0.47745388746261597,-0.36113712191581726,0.19180339574813843,0.09081143140792847,0.07514160871505737,0.33896172046661377,-0.5902436971664429,-2.4560022354125977,-1.1472341674662334,0.49775468221736024,3.046359890048006
1687004820.132657,-0.7476351857185364,-0.5800168514251709,-0.32345324754714966,0.14118999242782593,0.046508610248565674,0.03826647996902466,0.6144227385520935,-0.6532604694366455,-2.3998961448669434,-1.1624764945176997,0.6187493913462555,3.018487232016741
1687004820.214933,-0.6821601390838623,-0.6709235310554504,-0.2907216250896454,0.18280106782913208,0.10621106624603271,-0.0813334584236145,0.02935519628226757,-0.7315633893013,-2.4568772315979004,-1.1679283384717523,0.7354535699332478,2.9724149961137534
1687004820.232716,-0.6090410351753235,-0.7541298866271973,-0.2456766813993454,0.17212092876434326,0.04406219720840454,-0.08759057521820068,1.047616958618164,-0.9001166224479675,-2.258328676223755,-1.1873771587943778,0.8543281642406123,2.9427344473552464
1687004820.270611,-0.5327877402305603,-0.8222451210021973,-0.20012499392032623,0.14590126276016235,-0.05811065435409546,0.03493334352970123,0.002629509661346674,-0.8716535568237305,-2.1056506633758545,-1.211483417556557,0.9653446055692164,2.914931345408636
1687004820.3134742,-0.4598451554775238,-0.873431384563446,-0.1601870059967041,0.10127896070480347,-0.04984736442565918,0.060974299907684326,0.8896797299385071,-0.6970495581626892,-1.7152756452560425,-1.2355923150334036,1.0622050802066205,2.897246430880916
1687004820.419482,-0.39112409949302673,-0.9124510884284973,-0.12022858113050461,0.12345448136329651,0.04505002498626709,0.17537379264831543,0.3457569479942322,-0.46588701009750366,-1.5774728059768677,-1.272571381288156,1.1492347565472651,2.905768613320178
1687004820.438878,-0.3250429630279541,-0.9422768950462341,-0.08038283884525299,0.08114650845527649,-0.05795198678970337,0.0840754434466362,1.049838900566101,-0.2285182625055313,-1.3047070503234863,-1.32836128437674,1.2293666065821272,2.9472527770635337
1687004820.521085,-0.26881512999534607,-0.961980938911438,-0.04828088358044624,0.008484989404678345,-0.13891011476516724,0.17167866230010986,0.05446420982480049,0.08420956134796143,-1.1050735712051392,-1.393084783927585,1.294164998908461,3.011987762468959
1687004820.538179,-0.2263471931219101,-0.9736054539680481,-0.029309183359146118,0.17500144243240356,-0.15508699417114258,-0.12083733081817627,0.7066747546195984,-0.07066630572080612,-0.6468221545219421,-1.4420251137222884,1.3405290893558404,3.06665736281428
1687004820.561099,-0.20594726502895355,-0.9784783720970154,0.012877332977950573,0.10635314881801605,-0.018744587898254395,0.05748093128204346,0.7611830234527588,-0.23955893516540527,-0.2306172102689743,-1.6332423624824282,1.3629536984746211,-3.032803819975111
1687004820.6322389,-0.198941171169281,-0.9780173301696777,0.062481652945280075,-0.009768471121788025,0.006200611591339111,0.049456704407930374,1.3314653635025024,-0.11136753112077713,-0.07578156143426895,-1.8751117750293982,1.3607312724443845,-2.7939573658573447
1687004820.686871,-0.19505636394023895,-0.9748224020004272,0.10804730653762817,0.030230969190597534,-0.05781608819961548,0.06428539752960205,0.27131038904190063,-0.0757414922118187,-0.07883807271718979,-2.0766507469825655,1.3459231327266494,-2.591753500959691
1687004820.716624,-0.19315603375434875,-0.9719876646995544,0.13390448689460754,-0.032155200839042664,-0.007885873317718506,-0.05417740345001221,0.8064128160476685,-0.1069183200597763,-0.006187040358781815,-2.1769744737580647,1.3335450104121045,-2.4919992381792087
1687004820.761296,-0.1904708445072174,-0.9698859453201294,0.1517942100763321,-0.03955531120300293,-0.03414201736450195,0.04635629057884216,-0.15920506417751312,-0.1068730428814888,-0.07420817017555237,-2.2436698689151022,1.3247622001160733,-2.4302888073099393
1687004820.816261,-0.19198010861873627,-0.9629773497581482,0.1892561912536621,0.05840471386909485,0.04780113697052002,-0.07097019255161285,1.568021297454834,-0.09783720970153809,0.05733680725097656,-2.349049645413734,1.2978370721132322,-2.3225278639205382
1687004820.8835258,-0.1912066489458084,-0.954287052154541,0.22973036766052246,-0.005265474319458008,-0.006863951683044434,0.04685032367706299,-0.0006942483596503735,-0.12844759225845337,-0.04468516260385513,-2.4474592054644613,1.2672653896348958,-2.2263432536184053
1687004820.925106,-0.18737846612930298,-0.9618049263954163,0.19955019652843475,-0.01573123037815094,-0.04155188798904419,-0.008159279823303223,-0.3610587418079376,-0.040207866579294205,0.010301388800144196,-2.3876414079382617,1.2935213139590513,-2.2921135536350534
1687004821.004312,-0.18768686056137085,-0.958509624004364,0.21455194056034088,-0.02106855809688568,-0.01634371280670166,-0.046720653772354126,0.3115514814853668,-0.2010609358549118,0.03745844215154648,-2.4228843408749667,1.2817270212400242,-2.262365593444982
1687004821.020571,-0.1870248019695282,-0.9583865404129028,0.2156776636838913,-0.01170562207698822,0.04317975044250488,0.07388830184936523,0.15052995085716248,-0.07155566662549973,0.04403378814458847,-2.4272262004282736,1.2812956916179001,-2.2661108583274077
1687004821.0604758,-0.1891798973083496,-0.9481759667396545,0.2552894353866577,0.02675016224384308,0.003291010856628418,-0.07810455560684204,0.9750468730926514,-0.08906329423189163,0.02374822087585926,-2.503850132716094,1.2474453242358847,-2.1884424893218033
1687004821.116703,-0.1888432651758194,-0.9423778653144836,0.27615609765052795,-0.007033795118331909,-0.04576611518859863,0.06307724118232727,-0.12979656457901,0.021317677572369576,-0.0408954843878746,-2.5418030451942584,1.2296681894558046,-2.1514571686024544
1687004821.164598,-0.1903391033411026,-0.9395114779472351,0.28476130962371826,0.0021067410707473755,0.04023480415344238,-0.020570755004882812,0.6543252468109131,0.09457004815340042,0.02767159231007099,-2.552379750105857,1.2212011966711243,-2.1351788119002437
1687004821.2143931,-0.1915895789861679,-0.9340754151344299,0.3013244867324829,0.016998574137687683,0.001076817512512207,0.0008910894393920898,-0.044027142226696014,0.04426120966672897,-0.02005864679813385,-2.575247033994561,1.205660890288851,-2.106796422932142
1687004821.260036,-0.19141745567321777,-0.938387930393219,0.2877276539802551,-0.002216547727584839,0.010012805461883545,0.015372872352600098,-0.07162121683359146,0.052506621927022934,0.022441143169999123,-2.554555508257572,1.2179355721134308,-2.1262237174327874
1687004821.3074532,-0.19269704818725586,-0.9376980066299438,0.28911998867988586,-0.0018982738256454468,0.007552742958068848,0.00889936089515686,-0.12334007769823074,0.03774312138557434,-0.008746071718633175,-2.553708881139314,1.2159446328670054,-2.1251947809882874
1687004821.41748,-0.19255076348781586,-0.9403887987136841,0.2803444564342499,0.021438732743263245,-0.019526362419128418,-0.030451267957687378,-0.056182343512773514,-0.004093273542821407,0.01615927740931511,-2.5397560911113537,1.2237716542932666,-2.138946576683513
1687004821.43906,-0.19404961168766022,-0.9383571147918701,0.28606072068214417,0.007831349968910217,-0.005154848098754883,0.02544739842414856,0.05089277774095535,0.02249665930867195,0.013893194496631622,-2.545544370761914,1.2178464955408124,-2.132563057230008
1687004821.462823,-0.19452084600925446,-0.9397217631340027,0.2812192142009735,-0.003263533115386963,-0.006628096103668213,0.0005952715873718262,-0.15838095545768738,0.02694040909409523,0.020995313301682472,-2.5364552597561434,1.2218156594992726,-2.1407431941009194
1687004821.50949,-0.19683308899402618,-0.939611554145813,0.2799755334854126,0.021189242601394653,0.006704747676849365,0.005104243755340576,0.08872637897729874,0.02384062297642231,0.08798526972532272,-2.528831511290897,1.2214936024780643,-2.148125104278229
1687004821.567451,-0.20198895037174225,-0.9365941286087036,0.2863420844078064,0.022927090525627136,0.031976938247680664,0.008121967315673828,0.2723681330680847,0.03160427138209343,0.15572862327098846,-2.5272441601403703,1.2127810373989292,-2.148438305079492
1687004821.612339,-0.21202683448791504,-0.9318072199821472,0.2945840060710907,0.09944753348827362,0.004820644855499268,0.12086689472198486,0.14655353128910065,0.20256070792675018,0.3132860064506531,-2.517734272057816,1.1993606660490264,-2.1536176009783583
1687004821.712913,-0.2396901398897171,-0.9274725914001465,0.28695398569107056,0.15985627472400665,-0.08819788694381714,-0.010144412517547607,-0.3113728165626526,0.161259725689888,0.803887128829956,-2.4456999932517216,1.1875953654331008,-2.221308480916364
1687004821.734036,-0.2888336479663849,-0.9217515587806702,0.2587451934814453,0.23632818460464478,-0.14961379766464233,-0.038728684186935425,-0.7929448485374451,0.16530095040798187,1.2241212129592896,-2.3013015217891777,1.1725734241953796,-2.36919180341445
1687004821.756134,-0.358576238155365,-0.9091424345970154,0.21185614168643951,0.16095969080924988,-0.07981008291244507,0.09902632236480713,-0.8725125193595886,0.15540969371795654,1.7632262706756592,-2.1044429085139402,1.141220429927944,-2.5760647185188166
1687004821.832034,-0.4490565359592438,-0.8753026127815247,0.17942580580711365,0.2163141965866089,-0.09112811088562012,0.11355818808078766,-0.6968851685523987,0.564827561378479,2.059187889099121,-1.9509248393267,1.0660612734214467,-2.729780166581196
1687004821.864387,-0.5454835295677185,-0.8320226669311523,0.10092472285032272,0.15514850616455078,0.014029622077941895,0.18026423454284668,-1.6045814752578735,1.0268099308013916,2.2597060203552246,-1.7537462994584654,0.9827439705979134,-2.9127854891251386
1687004821.923602,-0.6470571160316467,-0.762151837348938,0.02101418562233448,0.2756582498550415,-0.10190755128860474,0.07417011260986328,-1.1050773859024048,1.1236014366149902,2.6111607551574707,-1.603261470080422,0.866630451001127,-3.0324991500377103
1687004821.970086,-0.744192361831665,-0.6637771725654602,-0.07468259334564209,0.2971404790878296,0.0834396481513977,0.08966666460037231,-1.9641541242599487,1.0338952541351318,2.8881218433380127,-1.4707773049391797,0.7258576679703794,-3.140636657003904
1687004822.018939,-0.828787088394165,-0.5361727476119995,-0.16009517014026642,0.2946227788925171,0.002481400966644287,0.10662835836410522,-1.5901645421981812,0.6546372175216675,3.1111011505126953,-1.379978510291845,0.5658964780466675,3.064364369415522
1687004822.065969,-0.8988864421844482,-0.3776739835739136,-0.22218285501003265,0.37950795888900757,0.07542794942855835,0.16044577956199646,-2.1009042263031006,0.36123770475387573,3.3673980236053467,-1.3284776146917054,0.38728295581936145,3.0050658902349774
1687004822.1219568,-0.944394052028656,-0.19648170471191406,-0.26365652680397034,0.22201257944107056,0.05033302307128906,0.12263476848602295,-1.9864979982376099,0.11457584798336029,3.430762529373169,-1.2985476043316433,0.19776839002050345,2.94799175829429
1687004822.1599011,-0.962719202041626,0.003560788929462433,-0.2704790234565735,0.405056357383728,0.057596396654844284,0.1610581874847412,-2.867233991622925,-0.14224475622177124,3.4945929050445557,-1.2969039630405788,-0.0035607965339582415,2.8731494982147807
1687004822.226573,-0.9443528056144714,0.2021978795528412,-0.2594490349292755,0.1255052089691162,0.03409966826438904,0.13312149047851562,-2.181915760040283,0.08548428118228912,3.490431308746338,-1.3026742506899571,-0.20360163592272296,2.810035686601073
1687004822.316982,-0.8934224247932434,0.39254963397979736,-0.21840542554855347,0.34499114751815796,0.15211275219917297,0.15405906736850739,-2.4287099838256836,0.01270847674459219,3.479168653488159,-1.3310391930186352,-0.40340209538669347,2.7219163209720154
1687004822.358576,-0.808283269405365,0.5583382248878479,-0.18691323697566986,0.12861108779907227,0.11228543519973755,-0.03313380479812622,-1.3459020853042603,-0.06650006026029587,3.460521697998047,-1.343543730796212,-0.5923814053074632,2.68664216174985
1687004822.380486,-0.7097352743148804,0.6970751285552979,-0.10179411619901657,0.35573136806488037,0.2391124963760376,0.05197411775588989,-2.259490489959717,-0.7044386863708496,3.1095147132873535,-1.4283423448231494,-0.7713100341066089,2.5886231103289337
1687004822.4002051,-0.5961653590202332,0.8022294044494629,-0.03185614198446274,0.09305256605148315,0.12887710332870483,0.09946775436401367,-0.757582426071167,-0.7792192101478577,3.0314764976501465,-1.51741201631108,-0.9310201119533683,2.5180383396333803
1687004822.45803,-0.47563010454177856,0.8765918016433716,0.07322894781827927,0.33102262020111084,0.1591898798942566,0.11082255095243454,-2.3250980377197266,-1.08565092086792,2.69813871383667,-1.7235587931057559,-1.0687336721714202,2.333878057349578
1687004822.499856,-0.3444756865501404,0.9270627498626709,0.14795678853988647,0.119774729013443,0.009033441543579102,0.06793977320194244,-0.4059465825557709,-0.9377213716506958,2.9033615589141846,-1.9764833344128316,-1.1865007992792218,2.1094136429694057
1687004822.562591,-0.19672805070877075,0.959396481513977,0.20212985575199127,0.334575891494751,0.08233630657196045,0.10699787735939026,-1.3787657022476196,-0.8849020004272461,2.9669699668884277,-2.369736875033646,-1.2848546271910835,1.7436237420036218
1687004822.639884,-0.041821688413619995,0.9688383936882019,0.2441374957561493,0.05274692177772522,0.1130860447883606,0.03326717019081116,-0.21434128284454346,-0.8586229681968689,3.0518600940704346,-2.971935559095796,-1.3204973472584236,1.163542351910802
1687004822.6573272,0.11250005662441254,0.9592963457107544,0.25902530550956726,0.2869292199611664,0.20990830659866333,0.11928582191467285,-0.38195544481277466,-0.8246793746948242,2.8463680744171143,2.7318538156788965,-1.2844998507656373,0.6113262662508304
1687004822.701119,0.2534863352775574,0.9347285628318787,0.2490530163049698,0.050468772649765015,0.25461792945861816,0.06797879934310913,0.5990216732025146,-0.27372246980667114,2.823720693588257,2.3473728782550496,-1.207494399805559,0.23184302459790285
1687004822.774548,0.38050493597984314,0.8975658416748047,0.2226906716823578,0.14281034469604492,0.145341694355011,0.13018390536308289,-0.016306497156620026,-0.32380110025405884,2.4565227031707764,2.100299940518669,-1.1142169640255464,-0.021146794838958316
1687004822.8182712,0.48120805621147156,0.8498853445053101,0.21478767693042755,0.042000532150268555,0.2641741633415222,0.0858561098575592,0.43743857741355896,-0.19967210292816162,2.093268394470215,1.9906115593851006,-1.0157677136086416,-0.1274496437785944
1687004822.858467,0.5630629658699036,0.8047268986701965,0.18808096647262573,0.12236166000366211,0.17623001337051392,0.0815722793340683,0.37826138734817505,0.06705600768327713,1.8166674375534058,1.8931753996311602,-0.9352152815445096,-0.24304185993891245
1687004822.91502,0.6296865940093994,0.7557923793792725,0.1796446144580841,0.026212215423583984,0.10687839984893799,0.04774175584316254,0.4960058033466339,0.10028759390115738,1.7307895421981812,1.848705609959838,-0.8568634093136345,-0.3027973018596843
1687004822.94906,0.6939291954040527,0.7036214470863342,0.15290305018424988,0.10868310928344727,0.17772620916366577,-0.03747032582759857,0.7965936660766602,0.27319639921188354,1.7238788604736328,1.7876746042096994,-0.780481230717076,-0.4044926443569407
1687004822.998403,0.7447537183761597,0.6486088633537292,0.15699727833271027,0.005383491516113281,0.1387903094291687,0.0021059364080429077,-0.11974327266216278,0.021908897906541824,1.4337842464447021,1.7785587125496853,-0.7057552813093491,-0.42423369050803494
1687004823.060032,0.7889304757118225,0.5976659059524536,0.1427726000547409,0.02295905351638794,0.1814325451850891,-0.036998748779296875,0.8206896781921387,0.20656196773052216,1.4030725955963135,1.7498284893193006,-0.640586687581329,-0.47974156060951223
1687004823.103482,0.8216146230697632,0.5514045357704163,0.14457663893699646,-0.033040404319763184,0.16760486364364624,-0.028213128447532654,-0.116055928170681,0.163873091340065,0.9973463416099548,1.7449796101752482,-0.5840469522090819,-0.5022234378092426
1687004823.153223,0.8458717465400696,0.5150570869445801,0.13862405717372894,-0.031190037727355957,0.17445695400238037,0.011598676443099976,1.056788444519043,0.3154120147228241,0.9064388275146484,1.7332354184848466,-0.5410742497655489,-0.5463797257871048
1687004823.211987,0.8595404028892517,0.4906081557273865,0.14315716922283173,-0.04285949468612671,0.0904008150100708,0.0244147926568985,-0.7918443083763123,0.02651829831302166,0.32693177461624146,1.7358323035939895,-0.5127875255324943,-0.5519552447951962
1687004823.262742,0.8655220866203308,0.47787314653396606,0.15002751350402832,-0.006040513515472412,0.16278225183486938,-0.002688795328140259,0.4842984676361084,0.20611055195331573,0.28503865003585815,1.7424285387185268,-0.4982319186682259,-0.5482013173080313
1687004823.307749,0.8686116337776184,0.4711233079433441,0.15348082780838013,0.008219301700592041,0.034385085105895996,-0.0579303503036499,-0.42083701491355896,0.0690123587846756,0.06167696416378021,1.745687815351558,-0.49056385488906046,-0.5626267460913899
1687004823.358829,0.8704606890678406,0.4652120769023895,0.16085942089557648,-0.013344109058380127,0.060239553451538086,0.0012651532888412476,0.3221311569213867,0.1124570444226265,0.18395307660102844,1.7535328063234707,-0.4838741711701044,-0.5533225146434921
1687004823.403039,0.8718234300613403,0.46147966384887695,0.16419591009616852,-0.024426639080047607,0.030570507049560547,-0.001018524169921875,-0.26737180352211,0.09097358584403992,-0.0016586016863584518,1.7569519672701936,-0.47966236586643685,-0.5565774342365375
1687004823.512438,0.87229984998703,0.45918601751327515,0.16805078089237213,-0.00940018892288208,-0.016620099544525146,-0.013769268989562988,0.2673688232898712,0.08316200226545334,0.13599008321762085,1.7611171428500518,-0.4770786821364173,-0.5590376802927306
1687004823.5776029,0.8737233877182007,0.455708771944046,0.1701086014509201,0.0023752450942993164,0.016169339418411255,-0.0009649842977523804,-0.16830295324325562,0.03908229246735573,0.05411677807569504,1.7630846791491677,-0.4731682958665766,-0.5593504201135208
1687004823.584213,0.8746100068092346,0.4538489878177643,0.17052413523197174,-0.005011618137359619,-0.002188771963119507,-0.005958184599876404,0.2311127483844757,0.08737418800592422,0.06750316172838211,1.7633522712096588,-0.47108007749490605,-0.5661605607691318
1687004823.96243,0.873995304107666,0.4541316032409668,0.1729055792093277,-0.010042846202850342,-0.0028682351112365723,-0.0036094337701797485,-0.16032472252845764,-0.0074328770861029625,-0.023695725947618484,1.7661078781588875,-0.471397268699239,-0.5607837997031471
1687004823.968511,0.8735442757606506,0.4553473889827728,0.17198480665683746,-0.003808736801147461,0.015187829732894897,0.009793028235435486,0.10824581980705261,0.0416937917470932,0.01128515973687172,1.7651916458892145,-0.47276236433124336,-0.5638826826520816
1687004823.986604,0.8728598952293396,0.4562029242515564,0.17318791151046753,-0.008403956890106201,0.00609251856803894,0.013167589902877808,-0.10309451818466187,-0.006309423130005598,-0.05070577561855316,1.7666667377642158,-0.4737235436450975,-0.5595292936303009
1687004823.98966,0.8721485137939453,0.4576946496963501,0.1728367954492569,0.0026683807373046875,0.016609609127044678,0.01467837393283844,0.15209755301475525,0.0458480529487133,0.009416153654456139,1.7664350971753506,-0.47540057481507647,-0.5617799596017145
1687004824.083438,0.8705765008926392,0.45978692173957825,0.175192728638649,0.01302945613861084,-0.007546871900558472,0.02442266047000885,-0.18725426495075226,0.027230162173509598,-0.08325332403182983,1.7693815999252949,-0.47775522398517434,-0.5581920936091437
1687004824.101023,0.8687936067581177,0.46186158061027527,0.17855322360992432,-0.003711998462677002,-0.006752967834472656,0.007527574896812439,0.07964172959327698,0.06965271383523941,-0.014758424833416939,1.7734925311445984,-0.4800928908266616,-0.5561949642875359
1687004824.135686,0.8679617047309875,0.4621361494064331,0.1818585991859436,0.0068550705909729,-0.010704904794692993,0.012736678123474121,-0.1116282194852829,-0.0005668485537171364,-0.03642270714044571,1.7773323596670285,-0.48040250985734095,-0.5509283015152184
1687004824.1632972,0.8677480816841125,0.4618108570575714,0.1836949586868286,0.012043118476867676,-0.010989934206008911,-0.00019288063049316406,-0.1141618862748146,0.03469327092170715,-0.012523232959210873,1.7794081086910345,-0.4800357273364306,-0.548959373602801
1687004824.2253408,0.8672844767570496,0.46093130111694336,0.18804235756397247,-0.0072380900382995605,0.005056917667388916,0.011771351099014282,0.00142449582926929,0.030654586851596832,-0.005865596700459719,1.7843089215704737,-0.4790443335703897,-0.5420811035840413
1687004824.228334,0.8672612905502319,0.4607498347759247,0.18859298527240753,0.007174074649810791,0.017658978700637817,-0.010629892349243164,-0.1066875234246254,0.008531575091183186,-0.0427359938621521,1.7849207893150352,-0.4788398648699913,-0.5429791744987293
1687004824.260676,0.865626871585846,0.46295347809791565,0.19069324433803558,-0.0075337886810302734,0.02279481291770935,-0.0006299018859863281,0.0034402424935251474,0.017271937802433968,-0.06891833245754242,1.7876279553606365,-0.48132435659532324,-0.5375068297616217
1687004824.263307,0.8638107180595398,0.466055691242218,0.19137035310268402,0.0044599175453186035,-0.004645258188247681,-0.03864529728889465,-0.16760647296905518,-0.037509821355342865,-0.10057319700717926,1.788816969191362,-0.48482745164941876,-0.5336001120599579
1687004824.30119,0.8618041276931763,0.46928948163986206,0.1925111711025238,-0.006640791893005371,0.004785776138305664,-0.02417638897895813,-0.14059284329414368,-0.05094386637210846,-0.09631799906492233,1.7905697981757427,-0.4884859738769558,-0.5254575768655688
1687004824.314742,0.8604622483253479,0.4717305302619934,0.19254761934280396,-0.0011789798736572266,0.004984498023986816,-0.01824668049812317,-0.21059608459472656,-0.11909695714712143,-0.12048272043466568,1.790941929297296,-0.49125236785258813,-0.5117056768664865
1687004824.407187,0.8587140440940857,0.47534966468811035,0.1914481222629547,0.007160961627960205,0.017295539379119873,-0.0039024651050567627,-0.1637737900018692,-0.07876111567020416,-0.12926502525806427,1.7901562824099522,-0.4953614203332551,-0.502563930751842
1687004824.4320168,0.8559426665306091,0.48012882471084595,0.19193336367607117,0.00022792816162109375,0.04109615087509155,0.0006934404373168945,-0.17946267127990723,-0.14027094841003418,-0.1720159500837326,1.7913836899072069,-0.5008015728243185,-0.4864399529178101
1687004824.434669,0.8520472049713135,0.48739126324653625,0.19095805287361145,0.015399515628814697,0.08356204628944397,-0.025720730423927307,-0.334163635969162,-0.11524216085672379,-0.30493807792663574,1.7912699285070284,-0.5090996529983461,-0.4739005730004492
1687004824.472724,0.8422554135322571,0.5019440650939941,0.19661609828472137,-0.03276151418685913,0.13625478744506836,-0.045966148376464844,-0.41081202030181885,-0.12240220606327057,-0.5552824139595032,1.8001294123816864,-0.5258450565052519,-0.44445881032963797
1687004824.505896,0.8265727758407593,0.5262472629547119,0.1996021866798401,-0.010441303253173828,0.18646025657653809,-0.06270039081573486,-0.532556414604187,-0.23515857756137848,-0.8158383369445801,1.8077418216692398,-0.5541812588728575,-0.4114204581296903
1687004824.5579948,0.8048487305641174,0.5578044652938843,0.20266331732273102,-0.014580965042114258,0.22643619775772095,-0.05483616888523102,-0.2300141155719757,-0.19279806315898895,-0.948309063911438,1.8174711967500798,-0.591738103380553,-0.3743592579764487
1687004824.6350331,0.7752493023872375,0.5992806553840637,0.19962725043296814,-2.664327621459961e-05,0.2531973123550415,-0.04261445999145508,-0.256213903427124,-0.2696931064128876,-1.2787050008773804,1.8228219228911657,-0.6426022651173473,-0.3434453726864616
1687004824.725984,0.7341210842132568,0.6500256061553955,0.19629760086536407,0.03968250751495361,0.2240588665008545,-0.04813492298126221,-0.26294443011283875,-0.2722248435020447,-1.5170056819915771,1.8320751391002408,-0.7076181000518144,-0.3066788781396955
1687004824.736269,0.6805359721183777,0.7072951197624207,0.19132187962532043,0.11066257953643799,0.27588963508605957,-0.008521705865859985,0.11182291060686111,-0.2068791538476944,-1.832144021987915,1.8448563730732477,-0.7856645110571315,-0.2693468821130967
1687004824.77791,0.6086251735687256,0.7737775444984436,0.17562222480773926,0.11946302652359009,0.21157383918762207,-0.0023740828037261963,0.07637324184179306,-0.13068969547748566,-2.145888090133667,1.8517209300014839,-0.8847830054952804,-0.2502834539846073
1687004824.82215,0.5192017555236816,0.8355486392974854,0.17968785762786865,0.11109292507171631,0.2599102258682251,0.0386195033788681,0.0964060053229332,-0.04290511831641197,-2.3073112964630127,1.9039790246746457,-0.9891306133510694,-0.17867855042798816
1687004824.857355,0.412442684173584,0.8991756439208984,0.14619937539100647,0.23918390274047852,0.08336836099624634,0.15828968584537506,0.6722618341445923,0.14785310626029968,-2.617764472961426,1.911449524251958,-1.1178819460401306,-0.17380074524100328
1687004824.926249,0.28597745299339294,0.949535608291626,0.1288374662399292,0.25250518321990967,0.2617833614349365,0.1625901609659195,0.5966845750808716,0.3009430468082428,-2.767199754714966,1.994079427697786,-1.2517520742171349,-0.09587336875255074
1687004824.961609,0.1444065421819687,0.9869846701622009,0.0707642063498497,0.26446789503097534,0.16606074571609497,0.16136765480041504,1.6681426763534546,0.417032390832901,-3.004368782043457,2.0264398837425657,-1.4092807165800996,-0.08223848616068297
1687004825.011125,-0.00907165091484785,0.9998752474784851,-0.01292487047612667,0.32123589515686035,0.20884966850280762,0.19732725620269775,1.8174052238464355,0.42170143127441406,-3.1045289039611816,-0.6119836315333306,-1.5549990299030763,-2.7405010368667475
1687004825.054429,-0.16472376883029938,0.9799630641937256,-0.11197497695684433,0.3341878652572632,0.13078516721725464,0.20010966062545776,1.870166301727295,0.4178122878074646,-3.2376480102539062,-0.9737740547905104,-1.3702759145442616,-3.125587026767353
1687004825.101225,-0.31748420000076294,0.9269216060638428,-0.2000502198934555,0.35813355445861816,0.11528420448303223,0.17635324597358704,1.8738229274749756,0.34013667702674866,-3.224194288253784,-1.0085302808928887,-1.1861244897231444,3.1024478025957354
1687004825.180311,-0.4553496837615967,0.8409363627433777,-0.29237404465675354,0.3395965099334717,0.07010483741760254,0.17662084102630615,1.7970666885375977,0.22646670043468475,-3.185514450073242,-1.000004056256129,-0.9990112506162071,3.0943216731171246
1687004825.205064,-0.5806037187576294,0.7358148097991943,-0.34853389859199524,0.34461134672164917,0.1679174304008484,0.14119744300842285,1.2605605125427246,0.14711235463619232,-3.2352261543273926,-1.0301594622137649,-0.8268690977814541,3.0466677220204326
1687004825.2535691,-0.6831084489822388,0.5979553461074829,-0.41929954290390015,0.2825958728790283,0.11125779151916504,0.19305744767189026,2.4672157764434814,0.14800918102264404,-3.1032979488372803,-1.0202834862875945,-0.6409477355501711,3.0500792186932832
1687004825.310295,-0.7625741362571716,0.43701043725013733,-0.476972371339798,0.31939780712127686,0.07899600267410278,0.1672646403312683,1.4016542434692383,-0.036687299609184265,-3.18196177482605,-1.01185425891084,-0.45227224554779366,3.0605734747751168
1687004825.388156,-0.8194150328636169,0.27753525972366333,-0.5015308260917664,0.20720195770263672,0.1083289384841919,0.20277899503707886,1.701588749885559,-0.01198874693363905,-3.1171767711639404,-1.0215566282909276,-0.28122762507274485,3.036271063203863
1687004825.445798,-0.8512252569198608,0.10349620878696442,-0.5144939422607422,0.20922702550888062,0.0902751162648201,0.12124443054199219,1.4184993505477905,-0.16710643470287323,-3.1457223892211914,-1.0271362512697573,-0.1036818708190192,3.0299148194292393
1687004825.467077,-0.8593001365661621,-0.06287608295679092,-0.5075920820236206,0.17563021183013916,0.14000925421714783,0.12090390920639038,1.4262442588806152,-0.2136709988117218,-3.0655715465545654,-1.0372401435032383,0.06291758547929033,3.0038429320012545
1687004825.504772,-0.8441680073738098,-0.22662054002285004,-0.48582223057746887,0.14360666275024414,0.12676703929901123,0.02944713830947876,1.220159649848938,-0.37737685441970825,-3.097137212753296,-1.0485832178776129,0.22860653984404827,2.9805088304456957
1687004825.549294,-0.8089519739151001,-0.38209012150764465,-0.44677025079727173,0.14064764976501465,0.03641754388809204,0.08626613020896912,0.95574551820755,-0.5507336854934692,-2.999053478240967,-1.0662021923483695,0.3920569570138731,2.9628404451253814
1687004825.609072,-0.7550009489059448,-0.5121486783027649,-0.40948426723480225,0.15841275453567505,0.08652001619338989,0.04392939805984497,0.46972185373306274,-0.6554615497589111,-2.934453248977661,-1.0738356973815077,0.5376846298475306,2.9125155686478914
1687004825.65245,-0.6870456337928772,-0.6276326179504395,-0.3661220967769623,0.18031668663024902,0.08928734064102173,0.0015133321285247803,0.6677613854408264,-0.7439729571342468,-2.798640012741089,-1.081181568213933,0.6785085348646664,2.8643357943325123
1687004825.700418,-0.6088764071464539,-0.7192491888999939,-0.3345891535282135,0.2064259648323059,0.07932621240615845,0.0276738703250885,-0.12505695223808289,-0.8701062202453613,-2.6670479774475098,-1.068322494849275,0.802721039602164,2.7851277143177993
1687004825.750101,-0.5273342132568359,-0.7970543503761292,-0.2943175435066223,0.2441006302833557,0.13142025470733643,0.07892447710037231,1.0200767517089844,-0.8037912845611572,-2.352848768234253,-1.0617377608398042,0.922401731987036,2.719690242509252
1687004825.918997,-0.4464917778968811,-0.8576028943061829,-0.2552686035633087,0.24533525109291077,0.024961471557617188,-0.034053295850753784,0.016389796510338783,-0.8495879173278809,-2.097899913787842,-1.0514299938306435,1.0305906559194733,2.656037492649256
1687004825.937855,-0.37414491176605225,-0.8996272087097168,-0.22513608634471893,0.2158350646495819,-0.06300389766693115,0.07003046572208405,0.6609601378440857,-0.6410858631134033,-1.6504559516906738,-1.0291020854137238,1.1189150616309627,2.5883006222064466
1687004825.953116,-0.31432807445526123,-0.9314914345741272,-0.18308880925178528,0.1607179045677185,-0.11292684078216553,0.09014749526977539,0.46347734332084656,-0.4212292432785034,-1.2384995222091675,-1.043361168498752,1.1984914914957574,2.574708610895449
1687004825.960501,-0.2666056752204895,-0.950449526309967,-0.15989695489406586,0.09943044185638428,-0.041783690452575684,0.11804205179214478,0.46956518292427063,-0.07100333273410797,-0.8957456946372986,-1.0305601262256563,1.254678688386063,2.5481195481466856
1687004826.000212,-0.233259916305542,-0.9655128717422485,-0.11564880609512329,0.050780102610588074,-0.11554175615310669,0.037401676177978516,1.3523995876312256,0.0694483146071434,-0.4986199140548706,-1.1105193705804894,1.3074060819337947,2.631092282213461
1687004826.052985,-0.21098318696022034,-0.9736853837966919,-0.08615481853485107,0.04501338303089142,-0.032067060470581055,0.00046139955520629883,0.2337835133075714,0.1823347806930542,-0.35300973057746887,-1.1831131327268083,1.3408797028523687,2.7127841928327547
1687004826.1017308,-0.19904018938541412,-0.9780833125114441,-0.061124466359615326,0.07794643938541412,0.027063965797424316,-0.027056165039539337,1.0188652276992798,0.18292935192584991,-0.16734956204891205,-1.2728421250726143,1.3610476905311846,2.81543492156064
1687004826.169486,-0.19170024991035461,-0.9811506867408752,-0.024371445178985596,0.07957872748374939,-0.11468958854675293,-0.12206721305847168,0.16655965149402618,-0.21297352015972137,-0.12118765711784363,-1.4443416119642583,1.3763286182881482,2.9890419903142855
1687004826.2123551,-0.1878354549407959,-0.9819632172584534,-0.021585846319794655,-0.040741145610809326,0.023589253425598145,0.07401502132415771,0.2681099772453308,0.0025973862502723932,-0.04929589480161667,-1.4563793297441334,1.3805791894978188,2.9960838309108526
1687004826.257467,-0.18720367550849915,-0.9823070168495178,0.005240331869572401,0.04103977978229523,-0.10791808366775513,-0.08621883392333984,0.41413894295692444,-0.1148243173956871,0.02091648243367672,-1.5987816935385526,1.3824063727879883,3.1389849068234876
1687004826.306473,-0.18893466889858246,-0.9819714426994324,0.005945608951151371,-0.0029750466346740723,-0.017509520053863525,0.051381587982177734,-0.21882112324237823,-0.08503991365432739,0.023550616577267647,-1.6022550720545017,1.3806229057868142,3.137346922438863
1687004826.36018,-0.1893143653869629,-0.9819032549858093,0.005067088641226292,-0.0009474009275436401,0.030289053916931152,-0.024277925491333008,0.09485950320959091,-0.07031942903995514,0.0037132613360881805,-1.5975554102714318,1.380262538308164,3.1284186416780564
1687004826.4240599,-0.19104354083538055,-0.9815078377723694,0.012030774727463722,0.028461143374443054,0.014756739139556885,-0.007926223799586296,0.15247966349124908,-0.06435874849557877,0.03635908663272858,-1.6336872695045275,1.3781856883547392,-3.121135384316298
1687004826.551332,-0.192928284406662,-0.9811368584632874,0.012212589383125305,0.009944885969161987,-0.046466290950775146,-0.011342881247401237,-0.12595795094966888,-0.06957454234361649,0.035336703062057495,-1.6340131654988255,1.3762572835259061,-3.1232523634862885
1687004826.569731,-0.19803671538829803,-0.9789963960647583,0.04844973608851433,0.02996121346950531,0.05690789222717285,0.02106928452849388,1.3565342426300049,-0.037325531244277954,0.11707071959972382,-1.81073363662555,1.3654791926463354,-2.9429963640013224
1687004826.585421,-0.19982413947582245,-0.9768129587173462,0.07685310393571854,-0.05119812488555908,-0.09450644254684448,0.05489122122526169,-0.2712070345878601,-0.01707511954009533,0.012156812474131584,-1.9379600079656432,1.3550316440369536,-2.8141522225905415
1687004826.642735,-0.20171001553535461,-0.9772790670394897,0.06510228663682938,0.025715216994285583,0.04180866479873657,-0.05272746831178665,0.056795477867126465,-0.09198424965143204,0.07881946116685867,-1.882993535643815,1.3572195791109998,-2.8727604918818246
1687004826.665474,-0.2055502086877823,-0.9750856757164001,0.0834072157740593,0.02340608835220337,0.023303627967834473,0.028683774173259735,0.29811960458755493,-0.10873380303382874,0.05455327033996582,-1.9562715417254237,1.3471070456779668,-2.8025286645048766
1687004826.699918,-0.2081577330827713,-0.9744863510131836,0.08394153416156769,0.00866439938545227,-0.04434269666671753,0.026638850569725037,-0.24288810789585114,-0.04787018150091171,0.07344280928373337,-1.9541092574510603,1.3444211677323417,-2.8087527927775104
1687004826.750826,-0.21240776777267456,-0.974003255367279,0.07874129712581635,-0.005701303482055664,0.007038712501525879,-0.003164537250995636,0.09329888969659805,0.03652685880661011,0.11204852163791656,-1.9257990225211374,1.34227850764436,-2.837752998949175
1687004826.814969,-0.22021062672138214,-0.9714483618736267,0.08829138427972794,0.05565987527370453,-0.005877077579498291,0.02386070042848587,0.28340011835098267,0.12074906378984451,0.2152492105960846,-1.9521132983605005,1.3312612174275196,-2.80709855034504
1687004826.8629599,-0.23492683470249176,-0.9680137634277344,0.08808358013629913,0.053927093744277954,-0.055561065673828125,0.12273181229829788,-0.4886566698551178,0.33745208382606506,0.3542883098125458,-1.9295148115155876,1.3171894256859968,-2.820504546645172
1687004826.9103122,-0.25890347361564636,-0.965651273727417,0.02205488830804825,0.20401766896247864,-0.08065903186798096,-0.32573533058166504,-0.9907258749008179,0.07209230959415436,0.7057206630706787,-1.6557769236277873,1.3079382397720982,-3.087725192913801
1687004826.972457,-0.30138981342315674,-0.9534282684326172,0.011768421158194542,0.11056345701217651,0.014036297798156738,0.043849825859069824,0.1701032519340515,0.20300158858299255,0.9452149868011475,-1.6098236752747694,1.2644050850849622,-3.1300106346510894
1687004827.021121,-0.355968177318573,-0.9344179034233093,0.012220810167491436,0.17913416028022766,-0.13558918237686157,0.04013204574584961,-0.22579267621040344,0.04245159029960632,1.4056321382522583,-1.6051140365865322,1.206621324030742,-3.1256190157759165
1687004827.116414,-0.42651763558387756,-0.9044515490531921,0.007055900990962982,0.14029338955879211,-0.06994402408599854,0.10009121894836426,-0.0018013911321759224,0.1906178891658783,1.7236604690551758,-1.587337863539349,1.130092232296254,3.1409793074560337
1687004827.137298,-0.5125399231910706,-0.858502984046936,-0.01659252680838108,0.25056183338165283,-0.1350272297859192,0.22878122329711914,-1.0274598598480225,0.47952625155448914,2.1657049655914307,-1.5384344902110827,1.0323432277370914,3.104574743607175
1687004827.153223,-0.6068909168243408,-0.7893499732017517,-0.09278979152441025,0.27321183681488037,0.03107970952987671,-0.06431472301483154,-1.002276062965393,0.3865598440170288,2.5466434955596924,-1.419077582915467,0.909749461894515,2.9869106346168364
1687004827.195348,-0.7082866430282593,-0.6938664317131042,-0.12992027401924133,0.31134462356567383,-0.09243416786193848,0.14508748054504395,-0.9949951171875,0.6885520219802856,2.9508962631225586,-1.3893840550732048,0.7668445236354438,2.985262989833979
1687004827.282866,-0.7985678911209106,-0.5657215118408203,-0.2055443823337555,0.16105574369430542,0.0076923370361328125,0.0704277753829956,-1.7258050441741943,0.6665678024291992,3.096191883087158,-1.318873389184384,0.6013079629781165,2.9245737141738357
1687004827.299707,-0.8689587712287903,-0.4215366542339325,-0.2592634856700897,0.37469613552093506,-0.010088711977005005,0.12117141485214233,0.05398750677704811,1.0139989852905273,3.492792844772339,-1.2808437913025337,0.4351392220627503,2.9380724536328717
1687004827.3595881,-0.9134604334831238,-0.259500652551651,-0.3134478032588959,0.129250168800354,0.03742420673370361,0.0508134663105011,-0.9063412547111511,1.0892006158828735,3.421499013900757,-1.2402429607838945,0.2625051049783349,2.970425292011949
1687004827.415129,-0.9232878088951111,-0.08875149488449097,-0.37371474504470825,0.29091787338256836,0.08794276416301727,0.030041038990020752,-0.029847804456949234,1.1914076805114746,3.575507164001465,-1.1861887872210575,0.08886842545487249,3.002865058805255
1687004827.459124,-0.9065237641334534,0.09121876209974289,-0.41218164563179016,0.2964469790458679,0.031629711389541626,0.021159887313842773,-2.5058324337005615,0.5266274213790894,3.3515727519989014,-1.1440542085448742,-0.09134574466646196,3.0233665081816414
1687004827.572311,-0.8643670678138733,0.28963735699653625,-0.41107121109962463,0.27427929639816284,0.3178454637527466,-0.010681718587875366,-1.4275071620941162,0.36601513624191284,3.3084938526153564,-1.126879094660152,-0.2938479346841364,2.9821878749565465
1687004827.59094,-0.8055171966552734,0.460626482963562,-0.3727804720401764,0.34401506185531616,-0.1535433828830719,-0.005957990884780884,-3.198669910430908,-0.6912727355957031,3.137246608734131,-1.1373622282787397,-0.4787009040218929,2.9676252886813987
1687004827.607328,-0.7308399677276611,0.638097882270813,-0.24228891730308533,0.2659199833869934,0.26343703269958496,0.18056708574295044,-2.5246949195861816,-0.6712934374809265,3.1941661834716797,-1.250677620974096,-0.6920253097046712,2.8305648008440865
1687004827.658167,-0.6296543478965759,0.7635708451271057,-0.14316004514694214,0.3601689338684082,-0.03485703468322754,0.11345113813877106,-2.827301025390625,-1.0285522937774658,2.9208273887634277,-1.3472339630495318,-0.8688251926414552,2.7457630273338918
1687004827.714571,-0.5151745080947876,0.8569338321685791,-0.016109533607959747,0.21291321516036987,0.35292017459869385,0.23997116088867188,-0.8031254410743713,-0.8669248223304749,3.023721218109131,-1.5395364609833626,-1.0292911651434393,2.572863945119589
1687004827.760582,-0.38505977392196655,0.9217209219932556,0.046468496322631836,0.22363704442977905,0.056168973445892334,0.1827794313430786,-2.0072948932647705,-0.8457043766975403,2.7868146896362305,-1.6908942181380104,-1.1724944525025642,2.449368859024282
1687004827.806288,-0.24646508693695068,0.9598667025566101,0.13383105397224426,0.2204030603170395,0.16932934522628784,0.21063601970672607,-0.6405196785926819,-0.6628767848014832,3.002303123474121,-2.068250975723904,-1.2865265857944923,2.09139138888043
1687004827.855541,-0.09559989720582962,0.9806792736053467,0.17067164182662964,0.13621872663497925,0.10347294807434082,0.06179596483707428,-0.950851321220398,-0.5879948139190674,2.990546941757202,-2.630998306855881,-1.3739042912238135,1.545397302910506
1687004827.9038172,0.055030353367328644,0.978054404258728,0.20095017552375793,0.3011860251426697,0.16298246383666992,0.1656726598739624,-0.10382861644029617,-0.4343739449977875,2.980478286743164,2.8742952043908145,-1.3609091473593973,0.7776704318907761
1687004827.960238,0.200138121843338,0.9562879800796509,0.21320852637290955,0.0898551195859909,0.17476963996887207,0.046205997467041016,-0.3452058732509613,-0.31088516116142273,2.894514560699463,2.387804896435969,-1.27403306315555,0.29654248342845907
1687004828.012457,0.33690187335014343,0.9170739054679871,0.21324248611927032,0.2720763087272644,0.12728333473205566,0.05578505992889404,-0.03444375470280647,-0.2552642524242401,2.813048839569092,2.1350930359032385,-1.1606785827761943,0.041044264534428276
1687004828.064693,0.46282345056533813,0.8620745539665222,0.20645059645175934,0.1269133985042572,0.1353466510772705,0.005585432052612305,0.303928017616272,-0.1942879855632782,2.7895169258117676,1.9903753570373823,-1.0393490726094825,-0.10578281218870719
1687004828.1377258,0.5796135067939758,0.7958171367645264,0.1752791851758957,0.23490041494369507,0.1507311463356018,-0.025895744562149048,0.6442089676856995,-0.13163618743419647,2.7148351669311523,1.8644599024406476,-0.9203558753994282,-0.24888645925800923
1687004828.154907,0.6802837252616882,0.7173314690589905,0.15049782395362854,0.1275622844696045,0.1696467399597168,-0.01089523732662201,0.7543544769287109,-0.11582566052675247,2.608476161956787,1.7885176493475858,-0.7999646256888092,-0.3366496895501652
1687004828.2153249,0.7666234374046326,0.6325908899307251,0.11007752269506454,0.1599205732345581,0.3672259449958801,-0.03689635545015335,1.119519829750061,0.21081490814685822,2.3124911785125732,1.7134090301750107,-0.6848939541253666,-0.4594362043467138
1687004828.269611,0.8253037333488464,0.5541345477104187,0.10866813361644745,0.05326688289642334,0.3180731534957886,-0.009821757674217224,0.10350532829761505,0.023327963426709175,1.808001160621643,1.7017136929691803,-0.5873229182822257,-0.4840179302585344
1687004828.317626,0.8675979971885681,0.4873603284358978,0.09875937551259995,0.029817044734954834,0.3762871325016022,-0.08887183666229248,0.3145749568939209,0.10216765105724335,1.367083191871643,1.6841392691358823,-0.5090642108801846,-0.5303619558227451
1687004828.341018,0.8934029340744019,0.4365515112876892,0.1060844361782074,-0.06703275442123413,0.35275518894195557,-0.03835080564022064,0.22309230268001556,0.1484704464673996,0.9994660019874573,1.6889849100868093,-0.45176206000372815,-0.532813140193292
1687004828.395906,0.9092910885810852,0.40228256583213806,0.10657524317502975,0.004694998264312744,0.35049453377723694,0.0022045373916625977,0.007919413037598133,0.08286399394273758,0.5499909520149231,1.6874709566340946,-0.4140086905449867,-0.551961783130004
1687004828.468206,0.9166239500045776,0.38494378328323364,0.10779006779193878,-0.04762077331542969,0.24406927824020386,-0.030763745307922363,0.651897132396698,0.2025953233242035,0.3242481052875519,1.6878533743281048,-0.39514692085425973,-0.5667491730522092
1687004828.523448,0.9177981019020081,0.3814363479614258,0.11024068295955658,-0.015118658542633057,0.150790274143219,0.00600065290927887,0.014075842685997486,0.13898931443691254,-0.041565269231796265,1.6903379354571695,-0.39134961707460625,-0.5872056321610634
1687004828.559428,0.9168473482131958,0.384231835603714,0.1084272712469101,-0.008003592491149902,0.060271888971328735,-0.032759085297584534,0.3847798705101013,0.06420215964317322,-0.029963210225105286,1.6885105746707887,-0.3943756432439476,-0.5998270859948571
1687004828.6164188,0.9141508340835571,0.390473872423172,0.10889510810375214,0.016909778118133545,-0.008485406637191772,0.0305701345205307,-0.056282009929418564,0.0840630829334259,-0.19394442439079285,1.6893592323602022,-0.4011462758244114,-0.6074621331040643
1687004828.6585221,0.9116098880767822,0.3970540165901184,0.10637449473142624,-0.009495019912719727,-0.06161999702453613,-0.03160642087459564,0.21662388741970062,-0.01265693362802267,-0.06405087560415268,1.6869596047445643,-0.40830476622955436,-0.6183219756120834
1687004828.7004561,0.9099003672599792,0.40131857991218567,0.10499713569879532,0.030361294746398926,-0.03678610920906067,0.01731729507446289,-0.14283254742622375,-0.0015707272104918957,-0.12942641973495483,1.685682290411528,-0.41295599666144805,-0.6211169155888101
1687004828.757454,0.9091334939002991,0.4031939208507538,0.10445499420166016,-0.025680243968963623,-0.013270825147628784,0.017233729362487793,0.14142726361751556,-0.004792885854840279,-0.029894500970840454,1.685189833106329,-0.41500435067868624,-0.6190831002075801
