Timestamp,gravityX,gravityY,gravityZ,accelerationX,accelerationY,accelerationZ,rotationRateX,rotationRateY,rotationRateZ,attitudeRoll,attitudePitch,attitudeYaw
1687020107.8122869,0.17558300495147705,-0.19000592827796936,-0.9659546613693237,-0.005233854055404663,0.0028873980045318604,0.0016449689865112305,0.0290682353079319,0.0028493795543909073,0.006241530179977417,0.17980828939085014,0.1911681895816568,-1.6532836779198046
1687020107.818321,0.17589376866817474,-0.18953955173492432,-0.9659897089004517,-0.0024623721837997437,0.01391090452671051,-7.468461990356445e-05,0.005604855250567198,0.006315750069916248,-0.0023367777466773987,0.18011329804525536,0.19069317915461673,-1.6531652785664084
1687020107.9043798,0.17605486512184143,-0.1896691769361496,-0.9659349322319031,0.0006571859121322632,-0.010556668043136597,0.004127681255340576,-0.021494604647159576,0.008659997954964638,-0.003338925540447235,0.18028472192772743,0.19082518899204284,-1.6531942118181733
1687020107.916761,0.17625461518764496,-0.18956288695335388,-0.9659193754196167,-0.0005191266536712646,-0.009823724627494812,-0.004203915596008301,0.003929727245122194,-0.0008265817305073142,-0.0022214632481336594,0.18048770750775814,0.19071693572471146,-1.6534923494472809
1687020107.958137,0.17632843554019928,-0.18992829322814941,-0.9658340811729431,0.002916574478149414,-0.003095388412475586,-0.005631923675537109,0.01832411251962185,0.0012267155107110739,0.0016427841037511826,0.18057725599785773,0.19108910650310082,-1.653480583702729
1687020108.054532,0.17621946334838867,-0.1906992346048355,-0.9657020568847656,0.002415180206298828,-8.13901424407959e-05,0.0040474534034729,0.01402270793914795,-0.0007283111335709691,0.002270757220685482,0.1804922154729998,0.19187440721251603,-1.6534358180226751
1687020108.141592,0.17620453238487244,-0.190578892827034,-0.9657285809516907,-0.01725369691848755,0.00577971339225769,0.023010075092315674,-0.002649945206940174,-0.0015737316571176052,-0.013861341401934624,0.18047239877676066,0.1917518208082994,-1.6537000440174765
1687020108.153857,0.17735089361667633,-0.19211269915103912,-0.9652146697044373,0.007387295365333557,-0.0026199817657470703,0.0018967986106872559,0.018187426030635834,0.021080447360873222,0.005745649337768555,0.18171553514591043,0.19331449022034655,-1.6538366311811934
1687020108.230691,0.17641611397266388,-0.19132289290428162,-0.9655427932739258,0.0053771138191223145,0.005348771810531616,0.006894111633300781,0.016970627009868622,-0.017064273357391357,-0.006052420474588871,0.1807184384601865,0.1925097586104678,-1.6535178275448907
1687020108.2369661,0.17661289870738983,-0.19200824201107025,-0.965370774269104,-0.008873015642166138,0.0046303123235702515,-0.007102370262145996,0.007928863167762756,0.003940742928534746,0.0046092793345451355,0.18094719172897117,0.1932080542817923,-1.6537842152887017
1687020108.322002,0.17768850922584534,-0.19311633706092834,-0.964952290058136,0.008651837706565857,-0.013136699795722961,0.00044423341751098633,0.016867296770215034,-0.014122013933956623,0.005289183929562569,0.1821022998832931,0.19433728620403953,-1.6539039456261935
1687020108.335051,0.1759164035320282,-0.19284330308437347,-0.965331494808197,-0.0010659098625183105,0.002734050154685974,0.0010980963706970215,2.996530383825302e-07,-0.006747720763087273,0.003051862120628357,0.1802561592296706,0.19405901661336836,-1.653678829435688
1687020108.4138808,0.17695869505405426,-0.1930273026227951,-0.9651041626930237,-0.0016962289810180664,0.008502766489982605,-0.003310084342956543,0.00843406468629837,0.008298739790916443,-0.0005077188834547997,0.18134275897002416,0.19424653866250777,-1.653821106641031
1687020108.4195251,0.17647024989128113,-0.1932033896446228,-0.9651584029197693,-0.005861714482307434,0.006206929683685303,0.003442704677581787,-0.004213420208543539,-0.0001890209678094834,-0.0045871492475271225,0.18084313673500818,0.19442600397211518,-1.6539181608195226
1687020108.469924,0.17663192749023438,-0.19269230961799622,-0.9652310013771057,-0.002162918448448181,-0.00022456049919128418,0.005376875400543213,-0.012954048812389374,0.004253930877894163,0.00752650573849678,0.1809919092536429,0.19390513462464834,-1.6539610054385818
1687020108.560629,0.17632170021533966,-0.1930750608444214,-0.9652112126350403,0.010323822498321533,-0.004465237259864807,-0.0016619563102722168,-0.007966946810483932,-0.012455940246582031,-0.0011601932346820831,0.18068452306358587,0.19429521102908331,-1.6538330367189114
1687020108.5735621,0.17587824165821075,-0.19163833558559418,-0.9655783772468567,0.00025397539138793945,0.019839614629745483,-0.00855797529220581,0.012128868140280247,-0.009701699949800968,0.0020140279084444046,0.18017281884776712,0.19283114305379348,-1.6538649729523094
1687020108.619598,0.17598223686218262,-0.19302405416965485,-0.9652833938598633,0.009320512413978577,-0.009582147002220154,-0.0031614303588867188,-0.008454237133264542,-0.008922324515879154,6.832275539636612e-05,0.18033096631758133,0.19424323011862696,-1.6540218979050088
1687020108.710494,0.17542292177677155,-0.19106212258338928,-0.9657753705978394,-0.008415460586547852,-0.008889064192771912,0.0011605024337768555,-0.029612453654408455,-0.0030688303522765636,-0.007720624562352896,0.17968049527710858,0.19224408217451955,-1.6540385582296127
1687020108.7232928,0.17588599026203156,-0.1918831616640091,-0.9655283689498901,-0.0029886364936828613,0.005588605999946594,-0.0003529787063598633,0.0324360691010952,0.004461923614144325,0.01155400462448597,0.18018971948499138,0.19308061185790748,-1.6541124352668757
1687020108.8021522,0.1751525104045868,-0.1915012001991272,-0.9657374620437622,-0.001202315092086792,0.008487299084663391,0.004342257976531982,-0.0033237251918762922,-0.008105932734906673,-0.0050707790069282055,0.17941632691135226,0.19269143134273028,-1.6539794027928887
1687020108.808609,0.17518287897109985,-0.19121961295604706,-0.9657877683639526,0.0008425265550613403,0.005718514323234558,0.0015848875045776367,0.004238187801092863,-0.006188989616930485,-0.0015998808667063713,0.17943762016111656,0.19240453651076087,-1.6541603949192278
1687020108.859019,0.17508253455162048,-0.19112373888492584,-0.9658249616622925,0.0062529295682907104,-0.0022966712713241577,-0.0063735246658325195,-0.012779544107615948,-0.009825536049902439,-0.006519272457808256,0.17933027443325836,0.1923068575366316,-1.6541899608784967
1687020108.9208941,0.17468713223934174,-0.19030921161174774,-0.9660573601722717,8.706748485565186e-05,-0.0034316331148147583,-0.0070566534996032715,-0.0069654639810323715,-0.012548618018627167,-0.011951321735978127,0.17889173602579045,0.1914771025016399,-1.6544965440642743
1687020109.015036,0.17474550008773804,-0.19086959958076477,-0.9659362435340881,0.007963255047798157,0.0034306347370147705,0.005120813846588135,0.013696870766580105,0.0028192857280373573,0.00397118553519249,0.1789722159729513,0.19204795881419748,-1.6543610029395108
1687020109.019958,0.17377260327339172,-0.1898731142282486,-0.966308057308197,-0.01733948290348053,-0.002952203154563904,0.0006555914878845215,-0.03168053179979324,-0.009607689455151558,-0.018861426040530205,0.17792969614085052,0.19103291493409444,-1.654743587594995
1687020109.101684,0.17491106688976288,-0.1905808001756668,-0.9659633040428162,0.009521931409835815,0.001295521855354309,0.006185472011566162,0.033458124846220016,0.0068407924845814705,0.002993538975715637,0.17913326849978248,0.1917537560060576,-1.6551188959461933
1687020109.107801,0.17348502576351166,-0.19118385016918182,-0.9661012887954712,-0.008522242307662964,0.017432019114494324,-0.0007261037826538086,0.04928202927112579,-0.004937703255563974,-0.018123464658856392,0.17767863332770453,0.19236810273288277,-1.6555168536608993
1687020109.1596909,0.17720571160316467,-0.1983288824558258,-0.9639832973480225,0.013620734214782715,0.010996729135513306,0.001565694808959961,0.2301066666841507,0.0443936251103878,-0.048888299614191055,0.18179689368871668,0.19965263568454525,-1.6582281949870967
1687020109.2222571,0.1765974909067154,-0.20037293434143066,-0.9636721611022949,0.056724682450294495,0.041116952896118164,0.018649578094482422,0.1748160570859909,-0.021917618811130524,0.10888402163982391,0.18124372966457772,0.20173855582870662,-1.6561762282292993
1687020109.314087,0.17224034667015076,-0.21830132603645325,-0.960561215877533,0.03299039602279663,-0.023062199354171753,0.02631133794784546,0.35741183161735535,-0.10615047067403793,0.22616857290267944,0.17742664337488387,0.22007347845629951,-1.6506766765439347
1687020109.3197799,0.16574452817440033,-0.23416092991828918,-0.9579652547836304,-0.021075934171676636,0.07029679417610168,-0.05035078525543213,0.4402628242969513,-0.06848286092281342,0.12199263274669647,0.17132121043311832,0.236355416720378,-1.643896234849291
1687020109.369748,0.16661269962787628,-0.268312007188797,-0.9488144516944885,-0.024828016757965088,0.037354975938797,0.0035477280616760254,0.8223499059677124,0.093677818775177,0.01541212573647499,0.17382867685203143,0.2716403476252638,-1.647724366686755
1687020109.460757,0.17305530607700348,-0.3011534810066223,-0.9377411603927612,-0.10085070133209229,-0.041101157665252686,-0.06914055347442627,0.6370879411697388,0.1607973426580429,-0.1373089700937271,0.1824916546411379,0.3059020581769411,-1.6560092386342866
1687020109.4701428,0.18515296280384064,-0.33528345823287964,-0.9237442016601562,-0.01404087245464325,0.04931849241256714,0.02077484130859375,1.018642544746399,0.2658815383911133,-0.051235612481832504,0.1978161695845736,0.34190608871997774,-1.6699005592485348
1687020109.5190802,0.2047099769115448,-0.3654342293739319,-0.9080482721328735,0.05446058511734009,-0.21092075109481812,0.043241143226623535,0.11291240155696869,0.20142745971679688,-0.09324857592582703,0.22173275293352782,0.37409924069687733,-1.6880605198901193
1687020109.609201,0.21400494873523712,-0.36135032773017883,-0.907539427280426,0.020476877689361572,-0.006218641996383667,-0.0018844008445739746,-0.136276975274086,0.13694153726100922,-0.03990945219993591,0.23157742169023424,0.36971567571493313,-1.6904869035168586
1687020109.621979,0.21838317811489105,-0.355601966381073,-0.9087662100791931,-0.009841293096542358,0.0585896372795105,-0.017350733280181885,0.01953664980828762,0.043267376720905304,-0.012347067706286907,0.23583554888858654,0.3635580590028799,-1.690288609290877
1687020109.670517,0.2221575230360031,-0.35899391770362854,-0.9065150022506714,0.008372291922569275,-0.00970420241355896,0.014791369438171387,0.05984126031398773,0.06486867368221283,-0.030670149251818657,0.24033111041490904,0.3671897444781547,-1.693000965437386
1687020109.758687,0.2231246381998062,-0.3550456464290619,-0.9078314900398254,-0.0068007707595825195,-0.00948682427406311,0.0017188191413879395,-0.10251109302043915,0.003795068012550473,-0.005498216487467289,0.24100070348011146,0.3629628851444961,-1.6928433432802605
1687020109.7712479,0.22389818727970123,-0.3522045314311981,-0.9087472558021545,-0.004476785659790039,0.01233026385307312,0.00017791986465454102,-0.06589968502521515,0.022335462272167206,0.004836445674300194,0.24156979511500498,0.35992550993183975,-1.6918527848939378
1687020109.8187718,0.22370100021362305,-0.3529004156589508,-0.908525824546814,-0.000983700156211853,0.005946069955825806,-0.007154107093811035,-0.008386461064219475,0.00396204786375165,0.016681121662259102,0.24142178796553024,0.36066916307390023,-1.6906953053299456
1687020109.9147658,0.22334599494934082,-0.35078638792037964,-0.9094313979148865,-0.0018188804388046265,0.001009136438369751,-0.01125335693359375,-0.04232139140367508,0.00222753151319921,0.03464147821068764,0.24082247237500218,0.35841070842638983,-1.6889404545888342
1687020109.9202108,0.22254586219787598,-0.35095810890197754,-0.9095613360404968,-0.009197443723678589,0.003942698240280151,-0.00030499696731567383,-0.001181877451017499,0.022234929725527763,0.016592703759670258,0.23995955654177692,0.35859409574368073,-1.6869957057909564
1687020110.0016541,0.22341249883174896,-0.3505153954029083,-0.9095195531845093,0.0023718178272247314,-0.004892319440841675,0.007267355918884277,-0.015237242914736271,0.017418868839740753,0.035358134657144547,0.24086898647647217,0.35812135071294593,-1.6860070842005523
1687020110.007141,0.22255796194076538,-0.35091543197631836,-0.9095748066902161,-0.006981775164604187,0.02805471420288086,0.0017531514167785645,0.043458759784698486,0.01827387697994709,0.038331288844347,0.23996869555156247,0.35854854069344466,-1.6836676356389761
1687020110.0639172,0.222093403339386,-0.35286009311676025,-0.9089357852935791,0.00024242699146270752,0.008484482765197754,0.0013430118560791016,0.02652025781571865,0.0027969153597950935,0.05596807226538658,0.23964872952783944,0.3606260540801401,-1.6818853554863133
1687020110.152,0.22150252759456635,-0.3533375561237335,-0.9088944792747498,-0.0036070048809051514,-0.008005857467651367,-0.004359245300292969,0.015385780483484268,0.006895919796079397,0.03735177963972092,0.23904565006686296,0.3611363984855627,-1.679513800455916
1687020110.1567168,0.2212836593389511,-0.35469427704811096,-0.9084192514419556,0.000136643648147583,-0.004924863576889038,-0.008862853050231934,0.04630941152572632,0.01611165702342987,0.04204560071229935,0.23893857171000654,0.36258706357045145,-1.6777681971443374
1687020110.21051,0.22024782001972198,-0.3575902283191681,-0.907535195350647,-0.006685778498649597,-0.014083325862884521,-0.005916953086853027,0.05454769730567932,0.005725726950913668,0.04650160297751427,0.23808494211161427,0.3656862393732208,-1.6758834205775004
1687020110.272036,0.22031138837337494,-0.35970374941825867,-0.9066841006278992,0.0003001987934112549,-0.011557847261428833,0.008734941482543945,0.0396384559571743,0.010593852028250694,0.020479056984186172,0.2383662743053198,0.36795038166666844,-1.675258813718413
1687020110.362139,0.2191638946533203,-0.36051273345947266,-0.9066409468650818,-0.011766418814659119,-0.0011968910694122314,0.005151689052581787,-0.0005572997033596039,-0.0031054485589265823,0.022490274161100388,0.23718177029434423,0.3688175233270872,-1.6736722620660152
1687020110.367945,0.21940812468528748,-0.36273470520973206,-0.9056950807571411,0.006925508379936218,0.005587488412857056,-0.016332507133483887,0.06587465107440948,0.001301417127251625,0.007255928590893745,0.23767499003019013,0.37120079223570457,-1.6738236299816522
1687020110.419405,0.21958526968955994,-0.3624540865421295,-0.9057645201683044,-0.020427539944648743,-0.05174574255943298,0.0021542906761169434,-0.16360047459602356,0.02455107867717743,-0.08219511806964874,0.23784218039561872,0.37089969526794286,-1.6748871179241624
1687020110.5117931,0.22338367998600006,-0.34765657782554626,-0.9106231927871704,-0.015513181686401367,-0.031722694635391235,-0.02521359920501709,-0.39409440755844116,0.04656370356678963,-0.1764201521873474,0.2405583534986016,0.35507062361600966,-1.677677800805542
1687020110.524249,0.2277900129556656,-0.3294527530670166,-0.9162819385528564,-0.014136433601379395,0.0040132999420166016,0.009543657302856445,-0.3372683525085449,0.05225048586726189,-0.04243466258049011,0.2436629712346014,0.33572389956619414,-1.6804440041711322
1687020110.665056,0.22785866260528564,-0.3106715679168701,-0.9228020310401917,0.03137291967868805,0.03486895561218262,-0.008304476737976074,-0.3181043863296509,-0.08248336613178253,-0.05425776541233063,0.24207813145837756,0.3158994750575895,-1.677463725639274
1687020110.6704059,0.22589099407196045,-0.29588356614112854,-0.9281304478645325,0.00010694563388824463,-0.00549277663230896,0.016021132469177246,-0.3653278052806854,-0.05864913389086723,-0.06247787922620773,0.23874108396526092,0.30038036394290923,-1.6763270097028733
1687020110.751274,0.2232915163040161,-0.2830697000026703,-0.932744562625885,-0.0032445043325424194,0.059162259101867676,-0.022959113121032715,-0.09699828177690506,-0.07691962271928787,0.0020704874768853188,0.2349699326983982,0.2869932049832405,-1.6735425850232617
1687020110.757608,0.22193942964076996,-0.27562063932418823,-0.9352946877479553,-0.021423667669296265,-0.00303533673286438,0.010856270790100098,-0.19702987372875214,-0.00441359356045723,-0.013363329693675041,0.23298439452828254,0.27923528549762994,-1.6714764476688044
1687020110.841405,0.22183334827423096,-0.2745078504085541,-0.9356470704078674,-0.00021466612815856934,-0.014341026544570923,-0.0013188719749450684,0.023062076419591904,0.003978959284722805,0.005928875878453255,0.23279244716167719,0.2780778474242178,-1.6710779372951194
1687020110.8542929,0.22215543687343597,-0.26947513222694397,-0.9370326399803162,-0.0015896111726760864,0.030644536018371582,-0.015985548496246338,-0.0639360100030899,0.00824760738760233,-0.0026574227958917618,0.2327859671762145,0.272847945424999,-1.6704184973166913
1687020110.9339252,0.22250263392925262,-0.27141258120536804,-0.9363908171653748,0.0012980550527572632,-0.026225358247756958,0.004872262477874756,0.0015077819116413593,-0.00023362890351563692,0.005614088848233223,0.2332907979395516,0.2748603937411058,-1.6705299087988121
1687020110.939062,0.22229021787643433,-0.2677135467529297,-0.9375054836273193,-0.008194118738174438,0.0118388831615448,-0.00022339820861816406,-0.039736729115247726,0.001152013661339879,-0.016862723976373672,0.23280886212222232,0.27101916044686014,-1.6698472502685686
1687020111.021163,0.22248606383800507,-0.2698040306568146,-0.9368594884872437,-0.008054301142692566,-0.024507462978363037,0.007523000240325928,-0.01944563537836075,0.011317431926727295,0.010936150327324867,0.23316154711994275,0.2731895045995142,-1.6700430644580655
1687020111.033657,0.2223546802997589,-0.2670731842517853,-0.9376728534698486,-0.004977956414222717,0.02075052261352539,-0.002360105514526367,0.01513963844627142,0.01140771433711052,0.0015732748433947563,0.23283389290680137,0.27035459787244887,-1.6695799079220561
1687020111.1153688,0.22210478782653809,-0.26863759756088257,-0.9372850656509399,-0.002103552222251892,-0.0028620362281799316,0.0035082101821899414,-0.032549452036619186,0.0006038020364940166,-0.006564545910805464,0.2326743518048863,0.27197835260164516,-1.6695437446976193
1687020111.120568,0.22248104214668274,-0.2666017413139343,-0.9377769827842712,0.006873831152915955,0.0014650523662567139,-0.007108211517333984,-0.0031711922492831945,-0.0007437574677169323,-0.0003716312348842621,0.23293651959658032,0.26986544054101796,-1.6694984032234308
1687020111.1708841,0.22161120176315308,-0.2662551701068878,-0.9380813837051392,-0.0012589991092681885,0.0033462345600128174,-0.00544583797454834,-0.0032698623836040497,-0.005577661097049713,-0.0021660691127181053,0.23198558461102273,0.26950586371116886,-1.669404301009974
1687020111.265318,0.22181010246276855,-0.2653617262840271,-0.9382874965667725,-0.003761991858482361,0.0021933913230895996,0.004800558090209961,-0.027087775990366936,0.002128328662365675,-0.005212725605815649,0.23213721300311504,0.26857908991122054,-1.6692025760105382
1687020111.270173,0.22151219844818115,-0.26337552070617676,-0.9389172792434692,-0.006988883018493652,0.0038693249225616455,0.0014631152153015137,-0.025741416960954666,0.002402101643383503,-0.02599337138235569,0.2316864959947005,0.26651961524157597,-1.6695830751721443
1687020111.319736,0.22189967334270477,-0.2626875936985016,-0.9390185475349426,0.0004971921443939209,-0.004753202199935913,0.002815544605255127,-0.028858447447419167,0.0040890807285904884,-0.02514888346195221,0.23205324668860616,0.2658065615550204,-1.6706108155779442
1687020111.4108539,0.22117744386196136,-0.2613528370857239,-0.9395611882209778,2.92360782623291e-05,0.018616020679473877,-0.003279387950897217,0.015612947754561901,-0.021143436431884766,-0.0031128227710723877,0.23119577350822934,0.2644234865961043,-1.6709123837926911
1687020111.424243,0.220529705286026,-0.2614516615867615,-0.9396859407424927,-0.003885403275489807,-0.004814207553863525,-0.006618380546569824,-0.028991470113396645,-0.013476330786943436,0.005219675600528717,0.2305129313050247,0.26452587816451295,-1.670680572276217
1687020111.502667,0.22002758085727692,-0.26046907901763916,-0.940076470375061,0.0036815404891967773,-0.01238858699798584,-0.005022406578063965,-0.0190450306981802,-0.017909295856952667,0.006471892818808556,0.22991420055515066,0.2635080096862579,-1.6702833239866866
1687020111.509269,0.21932053565979004,-0.25805845856666565,-0.9409061670303345,-0.00032636523246765137,0.00898924469947815,-0.0037196874618530273,-0.03781105950474739,-0.005738249514251947,-0.015032333321869373,0.22900590874547147,0.2610120405517484,-1.6698630368579765
1687020111.5577888,0.21889357268810272,-0.2586837410926819,-0.9408338665962219,-0.005072146654129028,0.0025191903114318848,0.009864628314971924,-0.01950163021683693,-0.0028776151593774557,0.0014246711507439613,0.22859243923090453,0.26165930767365997,-1.6699313890035836
1687020111.621319,0.21848642826080322,-0.25780636072158813,-0.941169261932373,-0.001994714140892029,0.012933284044265747,0.003501415252685547,0.03362496942281723,-0.012547287158668041,0.006991475820541382,0.2281033410810155,0.2607511124000643,-1.6697608283136822
1687020111.7118192,0.2186599224805832,-0.2610083520412445,-0.9402459859848022,-0.005616694688796997,0.06706911325454712,-0.002380967140197754,0.20276685059070587,0.04067705199122429,0.018976498395204544,0.22849468960240366,0.26406660451541214,-1.6700312201313352
1687020111.72476,0.21826164424419403,-0.26577553153038025,-0.939002275466919,-0.025054827332496643,-0.06730857491493225,0.041953325271606445,-0.11069072782993317,0.0024696127511560917,0.048175662755966187,0.2283845124274349,0.26900829769193146,-1.6698535685932407
1687020111.833493,0.21632079780101776,-0.2623194754123688,-0.9404221773147583,-0.006710797548294067,0.034627825021743774,0.0019303560256958008,0.01783708669245243,-0.021975411102175713,0.10269244015216827,0.22609233378604732,0.2654250637462425,-1.6644509030865418
1687020111.8402,0.21430087089538574,-0.2660146951675415,-0.9398464560508728,0.009072571992874146,-0.014609724283218384,-0.0329013466835022,0.03442278876900673,-0.04080542176961899,0.0842825323343277,0.22418410362171912,0.26925638089817633,-1.6593959262352376
1687020111.954138,0.21307191252708435,-0.2739963233470917,-0.9378306865692139,-0.004667341709136963,0.002756088972091675,0.002238035202026367,0.27078840136528015,0.019782956689596176,0.06734190881252289,0.22340417658529182,0.277545937123872,-1.6585775257007616
1687020111.966131,0.2132365107536316,-0.28768831491470337,-0.9336839318275452,-0.007914230227470398,0.01783663034439087,-0.005204617977142334,0.3898558020591736,0.030492058023810387,0.07633140683174133,0.22453105047018135,0.2918122306953397,-1.658506211132204
1687020111.969924,0.2139340490102768,-0.3026610016822815,-0.9287779927253723,-0.0023861676454544067,-0.010815560817718506,-0.0036866068840026855,0.29565557837486267,0.03365016728639603,0.03209656476974487,0.22639059004562218,0.3074833606287041,-1.660015931936268
1687020112.004674,0.21634185314178467,-0.31191781163215637,-0.9251505136489868,-0.010638117790222168,-0.03773730993270874,0.003901183605194092,0.0769721120595932,0.043395474553108215,-0.0018451586365699768,0.22971716118160576,0.3172108694450156,-1.662103014255217
1687020112.07254,0.2176586240530014,-0.31241562962532043,-0.9246735572814941,0.005501195788383484,-0.0031056106090545654,0.0005707740783691406,-0.05932234600186348,0.018011819571256638,0.018366103991866112,0.23118122094902063,0.3177348971914781,-1.6614919146691252
1687020112.1657329,0.21702983975410461,-0.3146035075187683,-0.9240793585777283,-0.0008738189935684204,0.01766747236251831,-0.015511035919189453,0.02316247671842575,0.024236293509602547,0.0026755575090646744,0.23067985347655265,0.320038926430391,-1.6601155918098358
1687020112.1713529,0.21784064173698425,-0.31589701771736145,-0.9234470725059509,0.002114817500114441,-0.016485154628753662,0.009109973907470703,-0.03687888756394386,0.00978092197328806,-0.009617594070732594,0.23166415213656996,0.321401946044381,-1.6604119912111208
1687020112.251075,0.21818073093891144,-0.3131840229034424,-0.9242905378341675,-0.00857071578502655,0.007931947708129883,0.00015723705291748047,0.01613273099064827,0.027135012671351433,-0.014715949073433876,0.23180877591221452,0.3185438734245021,-1.6603798471443614
1687020112.2575312,0.21972759068012238,-0.31484803557395935,-0.9233582615852356,0.0004262477159500122,-0.01359739899635315,0.005038559436798096,-0.00417453795671463,0.028539828956127167,-0.011689267121255398,0.23362057636170042,0.3202965426087517,-1.6611960170084301
1687020112.310972,0.2201041430234909,-0.3128295838832855,-0.923954427242279,0.001911252737045288,0.01046144962310791,-0.0004839897155761719,-0.014338892884552479,0.007299255579710007,-0.005681175738573074,0.23386095106381602,0.31817069746975957,-1.661170828314724
1687020112.370926,0.220683753490448,-0.3121427297592163,-0.9240484833717346,0.0010112076997756958,0.011178374290466309,-0.007210671901702881,-0.01821751892566681,0.00879541877657175,-0.00580368097871542,0.23443150328829643,0.3174476147493675,-1.661257743064829
1687020112.463624,0.2207985669374466,-0.3120039105415344,-0.9240679144859314,0.0059470534324646,0.0010908246040344238,-0.017277240753173828,0.007052416913211346,-0.008938037790358067,0.008869005367159843,0.23454428734185845,0.3173014974023958,-1.661266430483915
1687020112.469161,0.22060701251029968,-0.31153807044029236,-0.9242708683013916,-0.0008804351091384888,-0.014389663934707642,0.0065004825592041016,-0.044231679290533066,0.0008599981665611267,-0.008455123752355576,0.2342986002286568,0.31681123783834325,-1.661308190146685
1687020112.519599,0.22092510759830475,-0.3094232678413391,-0.9249050617218018,-0.006905317306518555,0.004354298114776611,0.005913972854614258,-0.021400662139058113,0.005808151327073574,-0.008713450282812119,0.23446913459091503,0.31458647884214386,-1.661219017781337
1687020112.6103292,0.22117960453033447,-0.3096879720687866,-0.9247556328773499,0.005215063691139221,0.005946516990661621,0.0014615654945373535,-0.004172474145889282,-0.005429456010460854,-0.00099161546677351,0.23476597807990468,0.3148648551992528,-1.6614463431541022
1687020112.623554,0.22059965133666992,-0.3087029755115509,-0.9252233505249023,-0.002154797315597534,0.007051974534988403,-0.0024652481079101562,-0.008793458342552185,0.003973100334405899,-0.0066447071731090546,0.2340585701926758,0.31382910816803783,-1.6612466864791828
1687020112.669931,0.22110620141029358,-0.30842137336730957,-0.9251963496208191,0.002770751714706421,-0.002262800931930542,-0.0001270771026611328,-0.010514859110116959,-0.005762750748544931,-0.009855680167675018,0.2345831476103485,0.31353304368911666,-1.6617010550783105
1687020112.7611442,0.2210167795419693,-0.3068726062774658,-0.9257325530052185,0.0063391923904418945,0.00401616096496582,-0.01692485809326172,-0.02608303353190422,0.002315415535122156,-0.02339865267276764,0.2343608110955151,0.3119053442650745,-1.6620042546983234
1687020112.774379,0.2217629849910736,-0.30516257882118225,-0.926119327545166,0.00016085803508758545,-0.011838763952255249,-0.009351253509521484,-0.06732973456382751,0.008151600137352943,-0.047511979937553406,0.23502866801758035,0.31010914508984533,-1.6631322703217672
1687020112.816653,0.22332467138767242,-0.30243661999702454,-0.926638126373291,-0.0030640363693237305,-0.005043238401412964,0.009813785552978516,-0.07637616246938705,0.024029765278100967,-0.050095777958631516,0.2364952921182729,0.3072479615897892,-1.6647368878722935
1687020112.911645,0.2246706187725067,-0.2967813313007355,-0.9281400442123413,-0.00273151695728302,0.0010049641132354736,-0.02687704563140869,-0.07939571887254715,0.022654643282294273,-0.16821761429309845,0.2374970018950877,0.30132035499801263,-1.6682148157882908
1687020112.9249802,0.22999919950962067,-0.2943746745586395,-0.927601158618927,-0.019290566444396973,-0.0028665363788604736,-0.002147376537322998,-0.04426729679107666,0.09383215010166168,-0.15206368267536163,0.2430488178302589,0.29880111999320785,-1.6763299082375935
1687020112.971517,0.2327229231595993,-0.28280559182167053,-0.9305165410041809,-0.03373304009437561,0.019393116235733032,0.009312927722930908,-0.2875905930995941,0.0385366715490818,-0.10956309735774994,0.24507352547531522,0.28671786162910384,-1.6801719924466942
1687020113.0594978,0.2327812761068344,-0.27132004499435425,-0.9339156150817871,0.03992381691932678,0.03430527448654175,0.02453756332397461,-0.1595914363861084,-0.04869610443711281,-0.015739668160676956,0.24427549921738578,0.2747642616481196,-1.6794362224118
1687020113.0729299,0.2309790402650833,-0.2630389630794525,-0.9367279410362244,-0.007086813449859619,0.0028918683528900146,-0.006539881229400635,-0.19131307303905487,-0.0316578634083271,-0.015468292869627476,0.2417579400989743,0.266170746201095,-1.6787359832440554
1687020113.116589,0.2321786731481552,-0.2619940936565399,-0.9367241859436035,0.0057363808155059814,0.02699345350265503,0.0021691322326660156,0.08106858283281326,0.02807297743856907,0.013695985078811646,0.24296576731431443,0.2650878857475789,-1.6784952020882091
1687020113.211077,0.23209615051746368,-0.2609841525554657,-0.9370265007019043,6.635487079620361e-05,0.0028207004070281982,0.006392955780029297,-0.04612751677632332,0.005629586521536112,-0.005696355830878019,0.24280744431497306,0.26404154845502853,-1.6780127701594887
1687020113.223973,0.23273882269859314,-0.2588196396827698,-0.9374673366546631,-0.005672767758369446,0.006881743669509888,0.002286672592163086,0.0003457781858742237,0.01834231987595558,0.0006475606933236122,0.24334354403835937,0.2617999891197044,-1.678164783747117
1687020113.270628,0.23356355726718903,-0.2600662112236023,-0.9369170665740967,-0.003598332405090332,0.0014297664165496826,0.005215466022491455,0.021196598187088966,0.013202684000134468,0.001997516490519047,0.24430980260637367,0.26309077631950917,-1.6783765766894339
1687020113.3615,0.23365376889705658,-0.2589336335659027,-0.9372082352638245,0.00894571840763092,0.008231759071350098,-0.0009478330612182617,0.003229715395718813,-0.0035970681346952915,0.0035522710531949997,0.24432752539815472,0.26191802364777195,-1.6781543493304283
1687020113.3750129,0.233629509806633,-0.2585764229297638,-0.93731290102005,0.0017068088054656982,-0.010771721601486206,-0.010410487651824951,-0.02373146079480648,0.0030136965215206146,0.006004242226481438,0.24427695011012568,0.2615482276056085,-1.677826270295839
1687020113.452848,0.23359832167625427,-0.2584396004676819,-0.9373584389686584,0.006605550646781921,0.0012527108192443848,0.0012164711952209473,0.0015262907836586237,-0.026259638369083405,0.0003705918788909912,0.2442342247793903,0.2614065714670188,-1.6774323926033456
1687020113.4592628,0.2327354997396469,-0.2569822072982788,-0.9379734992980957,-0.005196422338485718,-0.004919618368148804,0.013275682926177979,-0.060221366584300995,-0.014083664864301682,0.011524176225066185,0.24321399984043154,0.2598982347734179,-1.6765782425737816
1687020113.5110888,0.23238509893417358,-0.2558196485042572,-0.938378095626831,-0.00365583598613739,0.010336309671401978,0.00142747163772583,0.000802244059741497,-0.007567308377474546,0.014763379469513893,0.24276141619993685,0.2586954842902931,-1.6759734705827192
1687020113.573083,0.2320963591337204,-0.2540675699710846,-0.9389254450798035,-0.005121856927871704,0.013817936182022095,0.009329497814178467,-0.06025252491235733,0.00011417991481721401,0.00023876503109931946,0.2423356156612799,0.2568835262940863,-1.6751456560018196
1687020113.662508,0.23215028643608093,-0.2533896565437317,-0.9390952587127686,0.0010345429182052612,0.002687782049179077,-0.00134962797164917,-0.011929330416023731,0.0036921370774507523,-0.003596719354391098,0.24234758617800914,0.2561826790407653,-1.6749296990265925
1687020113.6673322,0.2323852777481079,-0.2512633800506592,-0.9396083354949951,0.004110708832740784,0.0019195079803466797,-0.005246400833129883,-0.03726298362016678,-0.0027440576814115047,-0.0024859150871634483,0.24245607513239711,0.25398530085394055,-1.6748219843229764
1687020113.7205591,0.23196294903755188,-0.2503029704093933,-0.9399689435958862,0.003419160842895508,0.00045555830001831055,-0.01169121265411377,-0.022244153544306755,-0.012000806629657745,0.0033757034689188004,0.24194318971865836,0.2529931715339884,-1.6743835062862606
1687020113.813618,0.2312704622745514,-0.24904701113700867,-0.9404730796813965,0.0028604120016098022,0.011437147855758667,0.009564876556396484,-0.010386760346591473,-0.030565036460757256,-0.005415392108261585,0.24112429476800015,0.2516961348044879,-1.674037091228245
1687020113.8258018,0.22975775599479675,-0.24997134506702423,-0.9405986070632935,-0.011663869023323059,-0.02055172622203827,0.001298069953918457,-0.004157960414886475,-0.0215410478413105,-0.001742626540362835,0.23957622471461892,0.2526506660341468,-1.6746077540470223
1687020113.865499,0.23027147352695465,-0.24688085913658142,-0.941288948059082,-0.0005808919668197632,0.03510412573814392,-0.0027723312377929688,0.015142367221415043,0.0032388668041676283,-0.0050555989146232605,0.23992215428341726,0.24946015700975754,-1.674418491705401
1687020113.959721,0.22936861217021942,-0.2501766085624695,-0.9406389594078064,-0.0019058138132095337,-0.005972683429718018,0.004146099090576172,0.003524061059579253,-0.009923008270561695,0.006711844354867935,0.23917587417428732,0.25286266951958025,-1.6747048342398576
1687020113.973223,0.2287936955690384,-0.24715803563594818,-0.9415765404701233,0.004253804683685303,0.006175979971885681,-0.012265622615814209,0.000655836658552289,-0.01371668092906475,0.0019312035292387009,0.2383702304795527,0.2497461965734684,-1.674216779767514
1687020114.015554,0.22864440083503723,-0.25048184394836426,-0.9407340884208679,0.0008935928344726562,0.007409334182739258,-0.0003822445869445801,0.07464663684368134,-0.0013746602926403284,0.0025083106011152267,0.2384258434455013,0.2531779293512516,-1.6748480972325022
1687020114.1121001,0.22978010773658752,-0.2525874972343445,-0.9398939609527588,-0.0003031492233276367,0.019036471843719482,-0.02234053611755371,0.10898570716381073,0.04066866636276245,-0.019104041159152985,0.23977146502947136,0.2553535289245127,-1.676292427227945
1687020114.125745,0.22824878990650177,-0.25643089413642883,-0.9392260909080505,-7.82310962677002e-06,-0.02990025281906128,0.03769111633300781,0.0049181594513356686,-0.020024511963129044,0.11715872585773468,0.23839659794536242,0.2593278189831427,-1.6728862597031016
1687020114.166267,0.223164901137352,-0.25666481256484985,-0.9403831958770752,-0.020985931158065796,0.09194621443748474,-0.04937809705734253,0.14528340101242065,-0.09009600430727005,0.06009544059634209,0.23300250699640382,0.25956981730037143,-1.666690167385633
1687020114.260654,0.2222415655851364,-0.2691327929496765,-0.9371106028556824,-0.005170002579689026,-0.08954030275344849,0.030189216136932373,0.09173674136400223,0.01433119922876358,0.09000913798809052,0.2328543045916267,0.27249247457634473,-1.6658143812571011
1687020114.273922,0.21926568448543549,-0.27383953332901,-0.93644779920578,-0.003277510404586792,0.0035758614540100098,-0.01664668321609497,0.16784162819385529,-0.05313146486878395,0.06178601458668709,0.23000268268878973,0.27738290900963347,-1.662475365846996
1687020114.32025,0.21832111477851868,-0.2838137745857239,-0.93369460105896,-0.004621773958206177,-0.0017696917057037354,-0.021642863750457764,0.19080394506454468,0.00954603124409914,0.033128805458545685,0.2296981329294204,0.2877691189065442,-1.6627668883992683
1687020114.443039,0.21849513053894043,-0.29126250743865967,-0.9313570857048035,0.006511002779006958,-0.005246281623840332,6.74128532409668e-05,0.20174820721149445,0.03809884563088417,0.005826609209179878,0.2304315893376716,0.2955462995520491,-1.664040064141253
1687020114.45508,0.219237819314003,-0.295213907957077,-0.9299373626708984,-0.001296505331993103,0.008302867412567139,0.0033016204833984375,0.0929112657904625,0.0412479005753994,-0.007670290768146515,0.2315277643799662,0.2996793892778668,-1.6654523576825753
1687020114.532538,0.22036266326904297,-0.300372838973999,-0.9280174970626831,-0.005503639578819275,0.0034520626068115234,-0.0063391923904418945,0.14177961647510529,0.0386316142976284,-0.02027769573032856,0.23313748095700965,0.30508352252496995,-1.667266693617246
1687020114.538708,0.22227385640144348,-0.30687421560287476,-0.9254310131072998,-0.006072059273719788,-0.0018568634986877441,0.005600690841674805,0.11921390891075134,0.04227069020271301,-0.013460801914334297,0.23571909524269785,0.31190704644428224,-1.6695989849976882
1687020114.6216822,0.22270041704177856,-0.30861201882362366,-0.9247503280639648,0.0037247836589813232,-0.010067790746688843,0.010458946228027344,0.018457069993019104,-0.004248344339430332,0.01126079075038433,0.2363222571241184,0.31373347421302844,-1.6703405275033694
1687020114.634225,0.22365888953208923,-0.3085465729236603,-0.9245408177375793,0.0059401243925094604,0.003935366868972778,-0.005070388317108154,-0.0011763516813516617,0.021144762635231018,-0.005844427272677422,0.23735346162702606,0.31366468115661406,-1.670416739328751
1687020114.71237,0.22419524192810059,-0.31088370084762573,-0.9236275553703308,0.0005819946527481079,0.014542758464813232,-0.00819617509841919,0.015558820217847824,0.0006054000114090741,0.0018153563141822815,0.2381278921291272,0.3161226761897801,-1.6707850655968726
1687020114.725141,0.22478087246418,-0.31058740615844727,-0.9235848784446716,0.006145671010017395,-0.009694576263427734,0.01329129934310913,-0.06091444939374924,0.006334259174764156,-0.003348778933286667,0.23873718471834315,0.3158109471236396,-1.670858440825272
1687020114.8021069,0.22448818385601044,-0.30966636538505554,-0.9239652752876282,-0.007676035165786743,-0.004054367542266846,0.004623234272003174,-0.010425710119307041,0.007288469932973385,-0.009361397475004196,0.23834350139532906,0.3148421178156488,-1.670478982693204
1687020114.8075109,0.22516140341758728,-0.31029874086380005,-0.9235892295837402,0.0008212774991989136,0.006923466920852661,-0.0006508827209472656,-0.010761667974293232,-0.0028933279681950808,0.006038064137101173,0.23912505573737972,0.3155072556540458,-1.67063196851282
1687020114.8552198,0.22482748329639435,-0.31050288677215576,-0.9236019253730774,0.009410187602043152,-0.005018323659896851,0.001406550407409668,0.01263113971799612,-0.010982680134475231,0.010261038318276405,0.2387805962859137,0.3157220357632501,-1.670348287192697
1687020114.952565,0.22467243671417236,-0.31072333455085754,-0.9235655665397644,0.00033368170261383057,0.001793891191482544,-0.004901230335235596,-0.0033491579815745354,-0.003942347131669521,0.0030108503997325897,0.23863115320204983,0.3159539403537505,-1.670319569357005
1687020114.958869,0.22557105123996735,-0.31023409962654114,-0.9235109686851501,0.011504769325256348,0.0018539726734161377,-0.0071225762367248535,-0.00043426197953522205,-0.002908108290284872,0.011224305257201195,0.23956319287108135,0.31543926684749707,-1.6705337086970462
1687020115.011005,0.22438625991344452,-0.3106478452682495,-0.9236605167388916,-0.004140883684158325,-0.005270153284072876,-0.0008847713470458984,-0.0010342053137719631,-0.003310645231977105,0.004141360521316528,0.23831500231124514,0.31587452194079835,-1.6699079523283569
1687020115.098386,0.22546255588531494,-0.3099152147769928,-0.9236445426940918,-0.0020891129970550537,-0.006841987371444702,0.011657238006591797,-0.03928105905652046,0.008789693005383015,-0.008024757727980614,0.23941899991145674,0.3151038682286284,-1.670152551428725
1687020115.1047711,0.22507749497890472,-0.3098350763320923,-0.9237653017044067,-0.00788387656211853,0.0015312433242797852,-0.0014513731002807617,0.015496434643864632,0.013535446487367153,-0.00363959651440382,0.23899543994112762,0.31501956050510255,-1.6699207391286446
1687020115.157222,0.22614559531211853,-0.3105113208293915,-0.9232772588729858,0.0018512457609176636,-0.01550796627998352,0.00799405574798584,-0.020570222288370132,0.007460509892553091,-0.009180835448205471,0.2402086941485158,0.31573088724377313,-1.6704553750156736
1687020115.223424,0.22592437267303467,-0.30965426564216614,-0.9236192107200623,-2.7120113372802734e-06,0.0009689629077911377,-0.002055227756500244,0.01691097393631935,0.002089979127049446,-0.01571223884820938,0.239897149525473,0.3148294065164188,-1.670688147495971
1687020115.235167,0.22661614418029785,-0.3087798058986664,-0.9237424731254578,0.0020063072443008423,-0.028073221445083618,-0.014138996601104736,-0.11548615247011185,0.004511191975325346,-0.053155750036239624,0.24057284831536363,0.31390989458109436,-1.6719711441052463
1687020115.278726,0.22976940870285034,-0.30449149012565613,-0.9243867993354797,-0.001269027590751648,0.016191929578781128,-0.009252727031707764,0.014524980448186398,0.07408414781093597,-0.07298058271408081,0.2436268076798161,0.30940451385227513,-1.6748608950932893
1687020115.338416,0.233200341463089,-0.3001094460487366,-0.9249604940414429,0.011382803320884705,-0.02102699875831604,0.012011885643005371,-0.22478480637073517,0.02982906438410282,-0.11419486999511719,0.24697225186306287,0.30480739527750284,-1.677978376640494
1687020115.401618,0.23608551919460297,-0.29269352555274963,-0.9266035556793213,-0.012254312634468079,0.0001520216464996338,-0.02330183982849121,-0.04822342470288277,0.059245675802230835,-0.14861169457435608,0.24947793620704042,0.29704250751933425,-1.6829869306833387
1687020115.4644508,0.23825110495090485,-0.2831648588180542,-0.9290070533752441,-0.05538976192474365,0.0764693021774292,-0.01180410385131836,-0.24871039390563965,0.04232808202505112,-0.05802800506353378,0.25104730652261686,0.28709244060234645,-1.6830447220712752
1687020115.552382,0.23734091222286224,-0.27742597460746765,-0.9309694766998291,-0.02051350474357605,-0.014306843280792236,0.0071413516998291016,-0.13490106165409088,0.0057390425354242325,-0.021340031176805496,0.24962219913286882,0.28111386216241163,-1.6819460026547284
1687020115.5584059,0.23756955564022064,-0.27613452076911926,-0.9312950372695923,-0.0022789984941482544,0.0028648674488067627,-0.004557013511657715,-0.010712198913097382,0.008315518498420715,-0.0015679234638810158,0.249769030608078,0.27976993273958534,-1.6813307503391384
1687020115.607564,0.23820607364177704,-0.2768130898475647,-0.9309309124946594,0.004134029150009155,-0.013958364725112915,-0.0037461519241333008,-0.0003600926138460636,0.024136560037732124,-0.00032049883157014847,0.25050454295172836,0.280476010456097,-1.6812148952451145
1687020115.731322,0.23871998488903046,-0.27657946944236755,-0.9308687448501587,0.004123657941818237,0.007368654012680054,0.0006471872329711914,0.022922726348042488,0.00447603827342391,0.006523026153445244,0.25103867404891195,0.28023289494928183,-1.681125138724406
1687020115.734655,0.239228293299675,-0.27607691287994385,-0.9308874011039734,-0.0072946697473526,0.00033533573150634766,0.007135570049285889,-0.015595370903611183,0.02681702934205532,-0.001194547861814499,0.25154612065343307,0.27970997670778175,-1.6808277068279327
