Timestamp,gravityX,gravityY,gravityZ,accelerationX,accelerationY,accelerationZ,rotationRateX,rotationRateY,rotationRateZ,attitudeRoll,attitudePitch,attitudeYaw
1687012930.4330459,0.8697772026062012,0.46870020031929016,0.15429802238941193,0.020771563053131104,0.01872652769088745,-0.024644017219543457,-0.06820175051689148,0.034996338188648224,-0.03504936397075653,1.7463692259778603,-0.48781878615517843,-2.5070289304948115
1687012930.448989,0.8684829473495483,0.4705897867679596,0.15582895278930664,-0.0009750127792358398,0.005484402179718018,-0.010671988129615784,-0.06543312966823578,-0.009327184408903122,-0.06018534302711487,1.7483338176557264,-0.48995908352027795,-2.503897051276255
1687012930.5297918,0.8665872812271118,0.47392916679382324,0.15626253187656403,-0.00663226842880249,0.005791902542114258,-0.016629323363304138,-0.060724589973688126,-0.002466747537255287,-0.08873868733644485,1.7491986634188896,-0.49374754991239556,-2.4988052042454307
1687012930.542906,0.8645815253257751,0.4781775176525116,0.15441828966140747,0.010860979557037354,-0.03756478428840637,0.003830656409263611,-0.05742906406521797,-0.048068586736917496,-0.09305886924266815,1.7475373927424482,-0.4985784304573268,-2.497536737311096
1687012930.580997,0.8633734583854675,0.4809267520904541,0.15263058245182037,0.009032607078552246,-0.0282289981842041,0.0009034872055053711,0.0520935021340847,-0.04630197957158089,-0.05575437843799591,1.7457724231987142,-0.5017114186951565,-2.495001058028412
1687012930.645094,0.8642988801002502,0.4803159236907959,0.1492786407470703,0.006611764430999756,-0.03959640860557556,0.008741483092308044,0.020732717588543892,-0.08613181859254837,-0.009133078157901764,1.7418254459260838,-0.5010148718969184,-2.497107825772898
1687012930.732477,0.8662265539169312,0.4780181050300598,0.1454305201768875,0.005599498748779297,-0.017660558223724365,0.01127728819847107,0.11346092075109482,-0.07263225317001343,0.022820327430963516,1.7371347477341785,-0.4983969552758383,-2.499375024621802
1687012930.745798,0.8685216903686523,0.4749464988708496,0.14176081120967865,0.01618295907974243,-0.01898336410522461,0.013253331184387207,0.0689505785703659,-0.060890644788742065,0.0387369729578495,1.7325904165628032,-0.4949032346853997,-2.5047778314437212
1687012930.858489,0.8706660866737366,0.4718628227710724,0.13887383043766022,-0.007766366004943848,-0.01205456256866455,0.020687445998191833,0.05997359752655029,-0.062321025878190994,0.05514577403664589,1.7289669327877044,-0.4914024153265164,-2.50932443808355
1687012930.871945,0.872015655040741,0.4690805971622467,0.13982996344566345,-0.00972604751586914,0.011495023965835571,0.005601659417152405,-0.062002506107091904,-0.0006038665305823088,0.012892861850559711,1.729795359996853,-0.4882494341135373,-2.506767567659491
1687012930.941987,0.8717399835586548,0.46892258524894714,0.14206065237522125,0.00855487585067749,0.002589195966720581,0.0026842355728149414,0.006302644498646259,0.02886427752673626,-0.00107648316770792,1.7323384893813127,-0.48807054386718113,-2.506058500125216
1687012930.958488,0.8711106777191162,0.46959879994392395,0.143678680062294,0.007933080196380615,0.0018978416919708252,-0.018937930464744568,-0.003925025928765535,-0.0022399795707315207,0.012692325748503208,1.734261953766397,-0.4888362928860418,-2.5051260771719805
1687012931.066821,0.8716251254081726,0.46919679641723633,0.14185933768749237,-0.004895329475402832,0.003108471632003784,0.005967855453491211,-0.026983072981238365,-0.04889670014381409,0.0011597732082009315,1.7321344115368025,-0.4883810219866587,-2.506164705930299
1687012931.0830898,0.8719737529754639,0.4690183997154236,0.14029759168624878,-0.005198240280151367,0.016607701778411865,-0.0016256719827651978,-0.0007153842598199844,-0.02689366042613983,-0.0007422566413879395,1.7303256565176324,-0.48817903475260865,-2.5038727654887527
1687012931.157402,0.8718146681785583,0.46966177225112915,0.1391298770904541,-0.0016363859176635742,0.003253847360610962,-0.0022126436233520508,0.029530003666877747,-0.04158099368214607,-0.0013795513659715652,1.7290484065056118,-0.4889076281937103,-2.5039667901860656
1687012931.1618152,0.8717207312583923,0.47042784094810486,0.13711607456207275,0.0039049386978149414,-0.005416244268417358,0.008315563201904297,-0.07001662999391556,-0.051739487797021866,0.001576824113726616,1.7268116129339208,-0.4897755619284015,-2.5029270587693633
1687012931.245748,0.8719511032104492,0.4702143967151642,0.1363813430070877,0.0027895569801330566,-0.011352092027664185,0.007387042045593262,0.023233558982610703,-0.022026866674423218,0.011701629497110844,1.7259486629749794,-0.48953367690469934,-2.5020317666104357
1687012931.2565022,0.8726492524147034,0.46876659989356995,0.136898472905159,0.0017556548118591309,0.0034013092517852783,0.0008884519338607788,-0.06785866618156433,-0.03840823844075203,0.023338578641414642,1.726404934283098,-0.48789393491854827,-2.499679215607826
1687012931.32655,0.8734201192855835,0.46705445647239685,0.13783276081085205,-0.00809401273727417,0.022050797939300537,0.00047303736209869385,-0.028690094128251076,-0.023641541600227356,0.016357634216547012,1.7273136577976642,-0.4859566509867985,-2.496198308110129
1687012931.336916,0.8736802935600281,0.4666512906551361,0.13754792511463165,-0.005149960517883301,0.027580857276916504,-0.005971312522888184,-0.016974715515971184,-0.04402244836091995,0.012988735921680927,1.7269496931207498,-0.4855007336545859,-2.4948316589736996
1687012931.3908238,0.8735125660896301,0.4674360156059265,0.13594000041484833,-0.0069506168365478516,0.0158250629901886,0.0028693675994873047,-0.059046998620033264,-0.04107392579317093,-0.008165284991264343,1.7251824673886411,-0.4863881980905944,-2.4934657884118625
1687012931.4783049,0.8725976943969727,0.4693862795829773,0.1350933313369751,-0.01210862398147583,0.021305888891220093,0.012016788125038147,0.05125381052494049,-0.007890408858656883,-0.017083946615457535,1.7243943396159596,-0.48859559015312976,-2.4929838275572775
1687012931.4881768,0.8713118433952332,0.4717726409435272,0.13507914543151855,-0.009113907814025879,0.01647809147834778,0.001151442527770996,-0.037657689303159714,-0.009063265286386013,-0.03414122760295868,1.7246015530882943,-0.4913001392983194,-2.491766839615367
1687012931.5402899,0.8696222305297852,0.4747582674026489,0.13550595939159393,0.0012426376342773438,0.012637913227081299,-0.0019456297159194946,0.03205907344818115,-0.0037694331258535385,-0.04438827186822891,1.7253748836995249,-0.49468936644247913,-2.490635845982731
1687012931.627331,0.8681953549385071,0.4774819612503052,0.13508526980876923,-0.004135847091674805,-0.0006753802299499512,-0.0023795366287231445,-0.03557603061199188,-0.02019820734858513,-0.0422244518995285,1.7251518233938625,-0.4977866507725296,-2.48976790846239
1687012931.637594,0.8669484853744507,0.4795663058757782,0.13570712506771088,0.001841127872467041,-0.0036142468452453613,-0.0036727339029312134,0.02606869302690029,0.01861576735973358,-0.04363539442420006,1.7260705311903675,-0.5001604049853292,-2.4879853156997567
1687012931.689591,0.8663329482078552,0.4806964099407196,0.1356399655342102,0.010223448276519775,-0.021986782550811768,0.0015518516302108765,0.0004197217058390379,-0.01150578260421753,-0.015508153475821018,1.726103414109079,-0.5014487397436556,-2.4891201839236614
1687012931.780185,0.8667922616004944,0.47964322566986084,0.13643303513526917,-0.004594206809997559,-0.011869758367538452,-0.0032847970724105835,-0.07556472718715668,-0.012705670669674873,0.012074471451342106,1.7269153904810763,-0.5002480790488267,-2.4847064920973376
1687012931.79104,0.8682381510734558,0.4771588444709778,0.13594844937324524,0.0046256184577941895,-0.013017028570175171,-0.008323922753334045,0.027136553078889847,-0.011103644967079163,0.022749487310647964,1.7261148757601736,-0.49741892055684706,-2.4856896746130537
1687012931.845622,0.8691779375076294,0.47558480501174927,0.13545791804790497,-0.00034248828887939453,0.01196393370628357,-0.00845886766910553,-0.04740166291594505,-0.023946871981024742,0.02627551183104515,1.725398689729508,-0.4956287215705049,-2.4842807305203043
1687012931.92887,0.8702516555786133,0.4739212989807129,0.1343904286623001,0.002657949924468994,0.009675443172454834,0.0036559104919433594,-0.019742470234632492,-0.034254636615514755,0.01665404438972473,1.724013107621484,-0.4937386360969909,-2.48402021146493
1687012931.939053,0.8708569407463074,0.4734917879104614,0.13196270167827606,-0.003608226776123047,0.031238466501235962,0.016764894127845764,0.08202336728572845,-0.0784030631184578,0.016538195312023163,1.7211842406689644,-0.4932509314912213,-2.48441336101472
1687012931.995408,0.8712127804756165,0.4733368754386902,0.13015654683113098,0.00419926643371582,0.009466469287872314,-0.027510523796081543,-0.13656330108642578,-0.07840092480182648,0.02031802013516426,1.7190964523303556,-0.4930750369109323,-2.4802768857219455
1687012932.077837,0.8708593249320984,0.4735620319843292,0.13169245421886444,-0.006265878677368164,0.011102765798568726,0.009207233786582947,-0.12019623816013336,-0.022843793034553528,-0.01933724619448185,1.7208804563058695,-0.49333068365338295,-2.4727852900108838
1687012932.087877,0.87098628282547,0.47377753257751465,0.13006846606731415,-0.006804764270782471,-0.0013349354267120361,-0.0008111149072647095,0.005626401398330927,-0.01832706853747368,-0.006649680435657501,1.7190355495930134,-0.49357535592831125,-2.4714958528337623
1687012932.228255,0.8703240752220154,0.4746689200401306,0.13124530017375946,-0.004540443420410156,0.009217709302902222,0.0033982843160629272,-0.008336551487445831,0.017367543652653694,-0.006223574746400118,1.7204690637816638,-0.4945878293299459,-2.469364487859297
1687012932.2392411,0.8699826002120972,0.4751317799091339,0.1318337619304657,0.007901310920715332,-0.0022467076778411865,-0.014249444007873535,0.0378953255712986,0.0055514974519610405,0.007091165520250797,1.721188215221953,-0.4951138017718632,-2.470467146573903
1687012932.319131,0.8698727488517761,0.4752178192138672,0.1322479546070099,-0.0006405115127563477,0.0006122291088104248,-0.005569338798522949,0.00918278656899929,0.005820610094815493,0.001799197867512703,1.7216723544798263,-0.49521156788179,-2.4709131747121442
1687012932.322383,0.8700536489486694,0.47489359974861145,0.13222190737724304,-0.000409543514251709,0.008321672677993774,0.0005296319723129272,0.04704294726252556,0.02293328382074833,-0.006193747278302908,1.721612204485957,-0.49484311407234166,-2.4725712714002612
1687012932.412506,0.8696080446243286,0.4751984775066376,0.13404574990272522,0.03731334209442139,0.14235517382621765,-0.003293052315711975,-0.05217151716351509,0.06013524904847145,-0.023408154025673866,1.7237375961320256,-0.495189586198553,-2.4709886930610425
1687012932.427125,0.8646776676177979,0.48144957423210144,0.1433154046535492,-0.057487547397613525,0.29516181349754333,-0.07265184819698334,-0.599978506565094,0.058615777641534805,-0.4179368317127228,1.7350474331324306,-0.5023078233122313,-2.455084316903623
1687012932.56502,0.8488723635673523,0.506664514541626,0.15068866312503815,-0.12908470630645752,0.4961583614349365,0.025992989540100098,0.3603315055370331,0.17433878779411316,-0.8617228269577026,1.7464824625693292,-0.5313115630086144,-2.437375333088969
1687012932.575934,0.8126028180122375,0.5599650144577026,0.16160492599010468,-0.020442605018615723,0.47571003437042236,0.0812387615442276,-0.3210434019565582,0.44339996576309204,-1.6826834678649902,1.7671081968408004,-0.5943435855625603,-2.429037848671378
1687012932.62118,0.7451005578041077,0.6398912668228149,0.1880546361207962,0.08374166488647461,0.6349653005599976,0.16251611709594727,0.2704336941242218,0.9659870862960815,-2.498727560043335,1.8180214905353564,-0.6943567832399806,-2.4021347455696316
1687012932.624547,0.6275448799133301,0.7473089098930359,0.21844181418418884,0.19855070114135742,0.5927178859710693,0.055667147040367126,0.496829628944397,1.205310344696045,-3.494065523147583,1.9057681800745319,-0.8440028762941045,-2.3550831884196644
1687012932.627989,0.46031486988067627,0.8636581301689148,0.20543785393238068,0.39791572093963623,0.5746657252311707,0.2482517659664154,1.5911664962768555,1.4127943515777588,-4.132254123687744,1.9905678564541673,-1.0424822346638007,-2.3343285705507597
1687012932.684754,0.24469929933547974,0.9573934078216553,0.15336376428604126,0.515615701675415,0.5577739477157593,0.1599602848291397,2.2521607875823975,1.154344081878662,-4.641685962677002,2.1306486211289672,-1.2778369077293719,-2.2518406155871205
1687012932.775264,-0.0018680884968489408,0.9990873336791992,0.04267556220293045,0.6294163465499878,0.38204675912857056,0.2754855155944824,1.643447995185852,0.6682529449462891,-5.329272270202637,-3.09784638178825,-1.5280688900284587,-1.2395170542060658
1687012932.7886438,-0.2737560570240021,0.961014449596405,-0.038847073912620544,0.7868786454200745,0.5400842428207397,0.1577436327934265,2.135892868041992,0.34690922498703003,-5.693681716918945,-1.4298334917479878,-1.2906480963114377,0.41088640436752716
1687012932.894003,-0.5356261730194092,0.8320914506912231,-0.14397373795509338,0.8435181379318237,0.31689542531967163,0.17067672312259674,2.168327808380127,-0.273615300655365,-5.870441913604736,-1.308207804842344,-0.9828679137986707,0.5440313780793335
1687012932.989403,-0.753756582736969,0.625481128692627,-0.20155519247055054,0.831240713596344,0.2864909768104553,0.10898017883300781,2.0042173862457275,-0.6562143564224243,-5.743903636932373,-1.3095085773002422,-0.6757480542432169,0.5736260874112932
1687012932.994813,-0.9046464562416077,0.36458075046539307,-0.22067105770111084,0.9018693566322327,0.2647070586681366,-0.014146387577056885,2.307638645172119,-1.2728205919265747,-5.569221496582031,-1.3315380516949467,-0.37318252878923364,0.6175612313546461
1687012932.99962,-0.9819239974021912,0.08912390470504761,-0.16697970032691956,0.7082423567771912,0.05491911619901657,0.005572333931922913,1.8540023565292358,-1.7860922813415527,-5.09979248046875,-1.4023540813944402,-0.0892423150474684,0.6576003046290692
1687012933.041695,-0.9848638772964478,-0.1568981260061264,-0.07366367429494858,0.6695714592933655,0.01708190143108368,0.04950910806655884,1.5243077278137207,-1.870040774345398,-4.400783538818359,-1.4961395490190565,0.1575490890186764,0.7193234049110427
1687012933.141842,-0.9315934181213379,-0.36224135756492615,0.030247895047068596,0.4678482413291931,0.04411092400550842,0.05980956554412842,0.21252891421318054,-1.9578890800476074,-4.053991317749023,-1.6032539130049175,0.3706714424106202,0.7517718916694553
1687012933.153811,-0.8415520787239075,-0.5238801836967468,0.13168182969093323,0.46217262744903564,0.12100231647491455,0.06897129118442535,1.3238539695739746,-1.7657232284545898,-3.5300469398498535,-1.7260126586825464,0.55139990208451,0.8209984160579539
1687012933.197089,-0.7274281978607178,-0.6532747745513916,0.20995287597179413,0.397288978099823,0.012100517749786377,0.11092421412467957,-0.14234109222888947,-1.3452019691467285,-3.246631383895874,-1.8517835871673125,0.7119017066318801,0.9014825666098042
1687012933.256956,-0.6031575798988342,-0.7542216777801514,0.259520024061203,0.29564714431762695,0.14367175102233887,0.02813875675201416,0.9668586850166321,-1.162153959274292,-2.9251227378845215,-1.9771214279728115,0.8544679747645467,0.9877037075021762
1687012933.350225,-0.479233980178833,-0.818743109703064,0.316218763589859,0.249070405960083,-0.11662054061889648,0.12715595960617065,0.15009596943855286,-0.9553123116493225,-2.571915626525879,-2.154059359197039,0.9592184969568788,1.1427538462710487
1687012933.3653588,-0.3670315146446228,-0.8674622178077698,0.3358529806137085,0.18882408738136292,0.0037080049514770508,0.08675453066825867,0.13437165319919586,-0.6747921705245972,-2.1323657035827637,-2.3118655856206916,1.0500783502721698,1.2820327109183427
1687012933.438101,-0.2723066210746765,-0.8953577280044556,0.35239753127098083,0.11199769377708435,-0.02685314416885376,0.007801562547683716,0.1498664766550064,-0.7093636989593506,-1.7232987880706787,-2.483705019714422,1.1092337847672384,1.439241064686773
1687012933.4419,-0.20314040780067444,-0.9039785265922546,0.3762405812740326,0.19174204766750336,-0.14420878887176514,0.03945469856262207,0.4167341887950897,-0.483685702085495,-1.0894944667816162,-2.6465201236352884,1.1289846519762912,1.590362376237372
1687012933.5636868,-0.14633376896381378,-0.9086724519729614,0.3910253047943115,-0.022779420018196106,-0.0307348370552063,0.0022090375423431396,0.028282178565859795,-0.6225698590278625,-0.8884984850883484,-2.783496388399806,1.1400933632668757,1.7051583957885228
1687012933.5782552,-0.10422839969396591,-0.906623899936676,0.4088641107082367,0.10537272691726685,-0.017875730991363525,0.17904192209243774,0.6666406989097595,-0.043661586940288544,-0.6722815036773682,-2.891987037277689,1.135212568542997,1.8089228860590971
1687012933.649286,-0.08937789499759674,-0.9042019844055176,0.4176488518714905,0.12857767939567566,-0.20187711715698242,-0.04789769649505615,-0.0777936577796936,0.5489480495452881,-0.2682802081108093,-2.9307701294579864,1.1295076456459772,1.8691081017116613
1687012933.663871,-0.09197753667831421,-0.9028908610343933,0.41991496086120605,-0.009676583111286163,0.03278881311416626,-0.00808018445968628,0.28470149636268616,0.26232707500457764,-0.05851234495639801,-2.925959661314106,1.1264476727065376,1.8834711022064576
1687012933.740056,-0.0965152159333229,-0.9014551043510437,0.42197558283805847,-0.06863071769475937,-0.05224961042404175,0.06418469548225403,-0.3607325553894043,0.281716912984848,-0.07865782827138901,-2.916738138313654,1.1231193020379675,1.8898126943207347
1687012933.744169,-0.0982435941696167,-0.9057221412658691,0.4123297333717346,0.023277096450328827,0.03627634048461914,-0.011466026306152344,0.11416573077440262,0.1004127636551857,-0.032184068113565445,-2.9076891705171404,1.1330803074640958,1.8900247696185795
1687012933.79557,-0.10088571906089783,-0.9101947546005249,0.40170586109161377,0.032297417521476746,0.007561147212982178,-0.022280722856521606,-0.47631120681762695,0.102594293653965,0.0025422200560569763,-2.895538271964298,1.1437540323866373,1.8839190242499761
1687012933.921076,-0.10350832343101501,-0.9128954410552979,0.3948523700237274,-0.0022046416997909546,0.0217057466506958,0.014663159847259521,-0.03810756281018257,0.04806993156671524,0.04661780223250389,-2.8852170592774034,1.150322067749299,1.8751260023363807
1687012933.9259129,-0.10650936514139175,-0.9173831343650818,0.38349005579948425,0.011920057237148285,-0.0017455816268920898,-0.040670543909072876,-0.17139418423175812,0.11546774208545685,0.011298426426947117,-2.870683683135572,1.161454831000583,1.8658626723072875
1687012934.009521,-0.11023028939962387,-0.917544424533844,0.3820492923259735,0.007279187440872192,-0.042080819606781006,0.013931632041931152,-0.1419527381658554,0.1561460644006729,0.016783740371465683,-2.860697507154581,1.1618603746581615,1.8618960865720986
1687012934.024919,-0.11398164927959442,-0.9200297594070435,0.37490472197532654,0.017546042799949646,0.03932297229766846,-0.007259398698806763,-0.09140707552433014,0.011660123243927956,0.07603002339601517,-2.846444267681076,1.168156349699887,1.8515289213913821
1687012934.100964,-0.11599455028772354,-0.9214305877685547,0.37082529067993164,-0.013522140681743622,-0.012514293193817139,-0.025778144598007202,-0.10269108414649963,0.041356634348630905,0.0791347324848175,-2.838433521562279,1.1717464611856692,1.8423009651150366
1687012934.116467,-0.11824595928192139,-0.9223455190658569,0.36782699823379517,-0.026132754981517792,0.009335935115814209,0.016435235738754272,0.03298285976052284,0.0010419669561088085,0.04624788835644722,-2.8305553027828734,1.1741078714151232,1.8337538670083524
1687012934.2198138,-0.12195925414562225,-0.9233274459838867,0.36413297057151794,0.02596612274646759,0.005633175373077393,-0.031079262495040894,-0.17761926352977753,0.08946530520915985,0.026250477880239487,-2.8184052854163135,1.17665702855337,1.8256397955453443
1687012934.224688,-0.12427029758691788,-0.9246997237205505,0.3598436713218689,-0.0358097180724144,0.020280778408050537,0.010655045509338379,0.07609231024980545,-0.03271852806210518,0.05768590047955513,-2.8090706149912954,1.1802461487602403,1.815393001904353
1687012934.3074288,-0.12500640749931335,-0.9250410795211792,0.3587097227573395,-0.003167480230331421,-0.004524409770965576,-0.03282773494720459,-0.04393875598907471,-0.09913989901542664,0.03341491520404816,-2.8062645282221643,1.1811436842785012,1.8096849812442046
1687012934.312285,-0.12715557217597961,-0.9239314794540405,0.3608074188232422,0.0028116852045059204,-0.008533000946044922,0.027650892734527588,-0.029762081801891327,-0.022107960656285286,0.020276207476854324,-2.8027639849588453,1.1782329380681982,1.803104964758947
1687012934.399513,-0.12852969765663147,-0.9255839586257935,0.35605472326278687,0.009526327252388,0.0005196928977966309,-0.025503486394882202,-0.014616352505981922,-0.056782715022563934,0.04484626650810242,-2.795167154490135,1.1825753179972038,1.7945849050402343
1687012934.415683,-0.12956351041793823,-0.9243508577346802,0.3588714599609375,0.003770008683204651,-0.004237949848175049,0.012741178274154663,-0.07038228213787079,-0.046936746686697006,0.022626712918281555,-2.7951252047135475,1.1793307318828032,1.791701477648605
1687012934.490573,-0.13013973832130432,-0.9257731437683105,0.35497573018074036,0.0013250112533569336,0.010261118412017822,-0.011591821908950806,0.013321539387106895,-0.06647448986768723,0.04161239042878151,-2.7901926408105964,1.1830755003702835,1.7838669651120793
1687012934.4954882,-0.131090447306633,-0.9250856041908264,0.356415718793869,-0.0057199448347091675,-0.010476648807525635,-0.012543529272079468,-0.04059369117021561,-0.008679769933223724,0.02446642518043518,-2.789147368480796,1.1812609464838137,1.7809923165154842
1687012934.5445042,-0.13301843404769897,-0.9265665411949158,0.35182490944862366,0.0037764310836791992,-0.0002218484878540039,0.015301704406738281,-0.12951870262622833,0.011127091944217682,0.04896670952439308,-2.780123273025764,1.1851792848441927,1.7711632772172514
1687012934.642353,-0.13864737749099731,-0.9325985908508301,0.33322176337242126,0.06926561892032623,-0.09382957220077515,0.08297702670097351,-0.947889506816864,0.1423664689064026,0.18001501262187958,-2.7473002998942015,1.2015472086801815,1.739135934732976
1687012934.655921,-0.15957185626029968,-0.9510424733161926,0.26467886567115784,0.1828109622001648,-0.11016041040420532,0.052749812602996826,-1.6497448682785034,0.1634061187505722,0.6138399243354797,-2.5990518881256457,1.2565915657761522,1.590717131742894
1687012934.759048,-0.21883901953697205,-0.9556485414505005,0.19709159433841705,0.39056140184402466,-0.18584609031677246,-0.03719475865364075,-1.1374348402023315,0.31198787689208984,1.8010001182556152,-2.3039558911017695,1.2718541415347264,1.2971745047905798
1687012934.854813,-0.3301759958267212,-0.9370294213294983,0.11384069919586182,0.3828797936439514,-0.30279290676116943,0.04092931002378464,-2.1512842178344727,0.0784926787018776,2.9712135791778564,-1.902820361269438,1.2140253306074937,0.8793304710596623
1687012934.86151,-0.5008513331413269,-0.8645828366279602,0.04055698961019516,0.5763059258460999,-0.18952494859695435,0.040360454469919205,-0.5138522982597351,0.15109869837760925,4.510599136352539,-1.6515961357709692,1.0443196095586056,0.6115435370584611
1687012934.874125,-0.6958991289138794,-0.7181376218795776,0.0018135785358026624,0.5405187010765076,-0.17500513792037964,0.06463861465454102,-1.897223711013794,0.19310235977172852,5.205916404724121,-1.573402414982597,0.8011223805069217,0.5245055013272986
1687012934.934685,-0.8656367063522339,-0.49832049012184143,-0.04847542196512222,0.6574762463569641,0.1818990409374237,-0.1444718837738037,0.1399078518152237,-0.05862828716635704,5.926845073699951,-1.5148550215746688,0.5216605395499638,0.4458022920939602
1687012934.947125,-0.9718735218048096,-0.23343896865844727,-0.0311159398406744,0.4033767580986023,0.08954863250255585,0.3371157646179199,-0.617337703704834,-0.15808337926864624,5.593068599700928,-1.5387908092262175,0.23561287708665365,0.470268588489334
1687012934.993489,-0.9983875751495361,0.051193300634622574,-0.0245310477912426,0.5890856385231018,0.3335723876953125,-0.12740063667297363,1.155057430267334,-0.5120900869369507,5.654693126678467,-1.546230603157436,-0.05121568862773335,0.48458899812572137
1687012935.091168,-0.9522914886474609,0.30452752113342285,0.020098013803362846,0.36668968200683594,0.18207532167434692,0.26414287090301514,-2.472456455230713,-0.5513683557510376,4.95813512802124,-1.5918980897667243,-0.3094423615858285,0.4219292957100249
1687012935.096158,-0.8425291180610657,0.538068413734436,0.025044066831469536,0.4120786786079407,0.299868106842041,0.013621807098388672,2.035372018814087,-0.6234545111656189,4.854927062988281,-1.6005124439644098,-0.5681438174038163,0.46137197896775106
1687012935.14166,-0.6995954513549805,0.7123363614082336,0.056066665798425674,0.3755902647972107,0.1829121708869934,-0.03423117846250534,-0.3994140326976776,-0.33755460381507874,4.5020527839660645,-1.6507669663739042,-0.7928214992122895,0.4171108686803793
1687012935.238958,-0.5171384215354919,0.8558908104896545,-0.004339857026934624,0.3546476364135742,0.19806432723999023,0.11229586601257324,1.2371480464935303,-0.39908838272094727,4.333682537078857,-1.562404463346142,-1.0272709455409001,0.5551651564724176
1687012935.2438989,-0.33776113390922546,0.9406048655509949,0.03435295820236206,0.33051323890686035,0.21927684545516968,-0.03827440366148949,0.005072596948593855,-0.3759304881095886,3.945849657058716,-1.6721556279258027,-1.224407622697697,0.45509532410345377
1687012935.295121,-0.1461104154586792,0.9890586733818054,-0.020371228456497192,0.3285598158836365,0.039902687072753906,0.06861960887908936,0.5526131987571716,0.044032711535692215,3.7548952102661133,-1.4322658162984165,-1.4227331969881511,0.7089965878928407
1687012935.390832,0.02924966998398304,0.9994364380836487,-0.016477394849061966,0.2819381356239319,0.2181844711303711,-0.016405224800109863,-0.0026070275343954563,-0.5061180591583252,3.3948898315429688,1.0577719482995782,-1.5372216738034,-3.0715245824784674
1687012935.396721,0.19706502556800842,0.9803111553192139,-0.012475142255425453,0.29446640610694885,0.09438067674636841,0.07027548551559448,-0.3701981008052826,-0.33549705147743225,3.317962646484375,1.5075759901000767,-1.3720311835981744,-2.600995212173887
1687012935.478828,0.3398912847042084,0.9404361844062805,-0.0073528108187019825,0.24114826321601868,0.03211337327957153,-0.0025042900815606117,-0.11296981573104858,-0.31409573554992676,2.6882524490356445,1.5491668693882779,-1.2239109788041156,-2.54062054230096
1687012935.495168,0.4602878987789154,0.8877454996109009,-0.0065515474416315556,0.22625085711479187,0.16193705797195435,-0.019617199897766113,0.15569452941417694,-0.36068081855773926,2.500211238861084,1.5565637017450578,-1.0924242817115524,-2.519467946193193
1687012935.532819,0.5579958558082581,0.8297687768936157,-0.011173499748110771,0.19832146167755127,0.1289563775062561,-0.06411325931549072,-0.11392982304096222,-0.16999995708465576,2.2199833393096924,1.5507746603231305,-0.9786932274282291,-2.5125907182699976
1687012935.661859,0.6466086506843567,0.7623569965362549,-0.0266343355178833,0.14372038841247559,0.026522457599639893,0.06446093320846558,0.013665951788425446,-0.15783196687698364,2.065664529800415,1.5296287848562344,-0.866947379556322,-2.525154763128501
1687012935.6787472,0.7160966396331787,0.697393536567688,-0.029122905805706978,0.03721463680267334,0.291162371635437,-0.061819374561309814,0.7027926445007324,0.0295399222522974,1.7571834325790405,1.5301497656263259,-0.7717541787483694,-2.521928266700553
1687012935.7441301,0.7705696821212769,0.635195255279541,-0.052437540143728256,0.21095210313796997,0.02793651819229126,0.010430149734020233,0.8604198694229126,0.28356724977493286,1.6080375909805298,1.5028507214736126,-0.6882612659517663,-2.5770186558920405
1687012935.75813,0.8217414021492004,0.5667999982833862,-0.058983247727155685,0.05663090944290161,0.16818541288375854,0.037529461085796356,-0.0336536280810833,0.14931252598762512,1.6822236776351929,1.499140863638422,-0.6026164641946365,-2.5978521285596
1687012935.841697,0.8622031211853027,0.5037326216697693,-0.05347386375069618,0.02547699213027954,0.3753719925880432,0.028205394744873047,0.5450528860092163,0.2979917526245117,1.3086050748825073,1.5088556343697643,-0.5279142258113864,-2.5982549176389864
1687012935.846509,0.8917663097381592,0.44953426718711853,-0.051690228283405304,0.0842316746711731,0.22121155261993408,-0.04538607597351074,0.7052296996116638,0.539783775806427,1.0397288799285889,1.512897239585318,-0.46624388483839824,-2.6390852330921915
1687012935.933053,0.9140215516090393,0.40317612886428833,-0.04487498849630356,0.022105276584625244,0.12927928566932678,-0.03088480234146118,-0.33064016699790955,0.07388754189014435,0.9564473628997803,1.5217395107651066,-0.41498492620273386,-2.653179291142615
1687012935.9492211,0.9305281043052673,0.3646412491798401,-0.03397228196263313,-0.05160665512084961,0.332425981760025,-0.08860146999359131,0.5617445707321167,0.2462003231048584,0.7143700122833252,1.534303931396002,-0.37324748562214194,-2.642393727391062
1687012935.983295,0.9394522905349731,0.3412744700908661,-0.03100348450243473,-0.03736788034439087,0.24249622225761414,-0.033800482749938965,-0.3202348053455353,-0.05635594576597214,0.31432220339775085,1.5378066400174282,-0.3482724289281487,-2.6459078818374637
1687012936.079701,0.941629946231842,0.3350563943386078,-0.03271351009607315,-0.041147828102111816,0.35343536734580994,-0.07484561204910278,0.6129099726676941,0.015169105492532253,-0.0007193535566329956,1.5360689277926978,-0.3416650799023763,-2.6465735177435765
1687012936.095667,0.9395329356193542,0.33944928646087646,-0.04530428349971771,0.010952472686767578,0.07357558608055115,0.04338174685835838,0.21971312165260315,-0.07658558338880539,-0.21494190394878387,1.522613643531625,-0.3463313674678284,-2.6820913945127822
1687012936.19585,0.934747576713562,0.351595014333725,-0.05126433074474335,0.016729533672332764,-0.05409443378448486,0.030420899391174316,0.23619283735752106,-0.038723818957805634,-0.27663561701774597,1.5160082448613381,-0.35927436362790754,-2.6928194366133855
1687012936.293041,0.9308555126190186,0.360758513212204,-0.057979516685009,0.009299695491790771,-0.07610580325126648,0.05569081753492355,0.08892781287431717,-0.08739349246025085,-0.15431876480579376,1.5085904174289666,-0.3690810555957539,-2.7054612266685263
1687012936.29919,0.9283460974693298,0.3670683205127716,-0.05860251560807228,0.01257181167602539,-0.07794484496116638,0.004052408039569855,-0.07866158336400986,-0.03740568831562996,-0.07571689784526825,1.5077542564137771,-0.37585537396757107,-2.7015451012508493
1687012936.304292,0.9282470941543579,0.368160605430603,-0.05306130647659302,0.012869477272033691,0.015201210975646973,0.054968707263469696,-0.26334598660469055,0.016014525666832924,-0.07980431616306305,1.5136955534690384,-0.3770299003613219,-2.6890499668538586
1687012936.373982,0.9281778931617737,0.3688502609729767,-0.04935097694396973,-0.027848243713378906,-0.05165058374404907,-0.009380042552947998,-0.14282631874084473,0.014548854902386665,-0.03153958544135094,1.5176766060485396,-0.37777175176810823,-2.6829008344767904
1687012936.377404,0.9268758893013,0.373313844203949,-0.03921932354569435,0.043354332447052,0.04567721486091614,-0.026790142059326172,-0.25445377826690674,0.05785318464040756,-0.10268433392047882,1.5285080950841357,-0.38257854941350017,-2.6634755068634193
1687012936.433116,0.926836371421814,0.37349948287010193,-0.03837553784251213,-0.03581458330154419,-0.062464356422424316,0.0067288875579833984,0.047649554908275604,0.03572830930352211,-0.01609671115875244,1.5294150960378485,-0.3827786795523327,-2.6669105550967505
1687012936.529521,0.9258182644844055,0.37672924995422363,-0.030593091621994972,0.02802407741546631,0.09072378277778625,-0.015747789293527603,-0.32910096645355225,0.026653720065951347,-0.05027439072728157,1.5377639658468119,-0.3862628415150366,-2.6469142967935158
1687012936.54723,0.9255781769752502,0.3775372803211212,-0.027761785313487053,-0.02009105682373047,-0.0729108452796936,-0.014062464237213135,-0.14634501934051514,0.02246856316924095,-0.03431406617164612,1.5408113227913063,-0.38713532421089325,-2.643193186852803
1687012936.584556,0.924452543258667,0.38077715039253235,-0.019903698936104774,0.019776582717895508,0.048605114221572876,-0.04303866624832153,-0.18906071782112122,0.031232625246047974,-0.040250785648822784,1.5492693982381973,-0.39063662093256724,-2.62413631045098
1687012936.687912,0.9239276051521301,0.38215529918670654,-0.017748869955539703,-0.021736502647399902,-0.006789177656173706,-0.013882515951991081,-0.3176734149456024,-0.027322296053171158,-0.0406569167971611,1.5515884508203945,-0.39212749422478366,-2.616783778297639
1687012936.694374,0.923115074634552,0.3841712772846222,-0.01645764894783497,0.012340188026428223,0.037108540534973145,0.0007717031985521317,0.06439444422721863,0.009271934628486633,-0.017006181180477142,1.5529698326567491,-0.3943100404818408,-2.608105429508173
1687012936.761061,0.9220907688140869,0.38673463463783264,-0.013602825812995434,-0.016176462173461914,0.04891902208328247,0.0011364826932549477,-0.25914353132247925,0.0295841284096241,-0.048315636813640594,1.5560452426086946,-0.39708805893836413,-2.5995599314433138
1687012936.852322,0.9205441474914551,0.3904702067375183,-0.011465471237897873,0.014148235321044922,0.001451730728149414,0.0010895729064941406,-0.02054954320192337,0.01721441186964512,-0.09990612417459488,1.5583418693126043,-0.40114229752406794,-2.5973945581524958
1687012936.865458,0.9175265431404114,0.39757680892944336,-0.008812393061816692,-0.006500601768493652,0.021246373653411865,0.008522571064531803,-0.02912132628262043,0.057872891426086426,-0.107529416680336,1.561192112278003,-0.4088744535329219,-2.5945220038939025
1687012936.946702,0.915122389793396,0.4031343460083008,-0.00581407593563199,-0.02571803331375122,0.007540613412857056,0.005173326004296541,-0.21092261373996735,0.03315835818648338,-0.14103437960147858,1.5644430803551799,-0.4149392735726447,-2.590202906470825
1687012936.959306,0.911497950553894,0.4113004207611084,-0.0019820011220872402,-0.018980681896209717,0.06306484341621399,-0.03024446964263916,-0.07644835859537125,0.004512465558946133,-0.19515807926654816,1.568621886394555,-0.4238802875116125,-2.582991445170401
1687012937.031121,0.9061992764472961,0.4228411912918091,0.002864021807909012,0.03537487983703613,0.03994256258010864,0.006779670715332031,-0.28709813952445984,0.017855701968073845,-0.26849326491355896,1.5739567930487481,-0.43657830789788293,-2.5709076091463476
1687012937.0441132,0.8999487161636353,0.4359441101551056,0.006718912627547979,-0.037872910499572754,0.007506757974624634,0.04629015922546387,-0.24051174521446228,0.02004801481962204,-0.2672088146209717,1.578262072325219,-0.45108705390517045,-2.560614602942188
1687012937.122124,0.8928992748260498,0.44996052980422974,0.01632085256278515,0.007613420486450195,0.0177975594997406,-0.012307645753026009,-0.27041730284690857,0.07171786576509476,-0.3599102795124054,1.5890727841321,-0.46672115212586235,-2.5411855520183413
1687012937.125438,0.8857824802398682,0.46366003155708313,0.02021791972219944,0.033818960189819336,-0.05615893006324768,0.0019074659794569016,-0.02358647808432579,0.04185397922992706,-0.2689175009727478,1.5936172901883952,-0.48212165322445333,-2.5381996142563485
1687012937.21066,0.8799367547035217,0.47435832023620605,0.026372648775577545,0.0068125128746032715,-0.11039051413536072,-0.015477780252695084,-0.286562979221344,0.043611131608486176,-0.21123424172401428,1.600758430318015,-0.49423497734085015,-2.5275696341676412
1687012937.305313,0.8759713172912598,0.48122552037239075,0.033113837242126465,-0.0042060017585754395,-0.019555598497390747,-0.020723577588796616,-0.05885332077741623,0.056084711104631424,-0.134948268532753,1.6085807595834332,-0.5020522291466937,-2.5160612507223754
1687012937.308605,0.8737697005271912,0.4850424528121948,0.0355071984231472,0.008188486099243164,0.030231624841690063,0.0034943856298923492,-0.17610418796539307,-0.03191385418176651,-0.10569050908088684,1.6114107719275759,-0.5064117065487754,-2.5119869128146988
1687012937.4277139,0.8707031011581421,0.4902898073196411,0.03862648829817772,-0.012090981006622314,0.10127812623977661,-0.05107760801911354,-0.017735779285430908,-0.058994341641664505,-0.1594243049621582,1.6151296719452037,-0.5124222440348873,-2.498519317479505
1687012937.4441972,0.8656397461891174,0.4995315670967102,0.03370624780654907,0.017569541931152344,-0.07060703635215759,0.024094104766845703,0.06241784244775772,0.02976469323039055,-0.23219092190265656,1.609714628211161,-0.5230579593680068,-2.507096815133149
1687012937.518476,0.8600338101387024,0.5090468525886536,0.034837186336517334,0.026425719261169434,-0.11024308204650879,0.01269400492310524,0.13368023931980133,0.01998623088002205,-0.11349277198314667,1.6112809583467904,-0.534077049888714,-2.506864871280468
1687012937.53369,0.8594030737876892,0.5101208686828613,0.0346878245472908,0.013506531715393066,-0.12743043899536133,0.02732396125793457,-0.07044533640146255,0.03745390474796295,0.043381527066230774,1.6111371250404851,-0.5353252804944206,-2.510480422169021
1687012937.603261,0.8644279837608337,0.501345694065094,0.03763928264379501,0.0008521676063537598,-0.02040398120880127,-0.006145123392343521,-0.01176457293331623,-0.0055556148290634155,0.13286401331424713,1.6143112571266858,-0.5251533164746408,-2.5076089729995896
1687012937.606477,0.8687549233436584,0.4937745928764343,0.03809839487075806,0.0037120580673217773,0.0540158748626709,-0.0007905997335910797,0.0631144642829895,0.010947195813059807,0.11254595220088959,1.614622264585491,-0.5164250990250866,-2.5093323483044827
1687012937.696846,0.8697987198829651,0.49174556136131287,0.04045696184039116,-0.04265016317367554,0.19744810461997986,-0.01680576801300049,-0.48477524518966675,-0.0872693881392479,-0.09281439334154129,1.617275846108693,-0.5140933233417939,-2.500926517947621
1687012937.711685,0.8631266951560974,0.502262532711029,0.052389077842235565,-0.05709642171859741,0.5189471244812012,0.027658578008413315,-0.4653535485267639,-0.03769770637154579,-0.4555393159389496,1.631418810142594,-0.5262133200731424,-2.46445017605705
1687012937.7880259,0.8422987461090088,0.5347536206245422,0.06761221587657928,-0.08343338966369629,0.516912579536438,0.09381067007780075,-0.8450774550437927,0.08520878106355667,-1.185447096824646,1.650895643976494,-0.5642161414717023,-2.4279804360855155
1687012937.793171,0.7980300188064575,0.5949583053588867,0.09577543288469315,0.041722238063812256,0.6777925491333008,0.16016030311584473,-0.09246181696653366,0.5414907336235046,-1.8319486379623413,1.6902398681257889,-0.6372137613219931,-2.385013739395084
1687012937.8806581,0.7235636711120605,0.6796093583106995,0.12077604979276657,0.10189110040664673,0.642366349697113,0.23682904243469238,0.22219786047935486,0.9112203121185303,-2.566044807434082,1.7361898683473582,-0.747229972716342,-2.3690396175225468
1687012937.897359,0.6104727983474731,0.7785740494728088,0.1454153209924698,0.27409452199935913,0.6012477278709412,0.21321213245391846,0.1669376641511917,1.2206554412841797,-3.273932695388794,1.804639725221665,-0.8923903656017703,-2.349623292927741
1687012937.93406,0.44353315234184265,0.8743894100189209,0.1967778503894806,0.47852498292922974,0.6058046221733093,0.1217493861913681,-0.44560694694519043,1.5526578426361084,-4.126161575317383,1.9883652999455244,-1.064175975830574,-2.214274801969642
1687012938.0262961,0.2236310839653015,0.9488931894302368,0.2226901650428772,0.6913012266159058,0.4845937490463257,0.15868817269802094,0.38726556301116943,1.70297110080719,-4.682534694671631,2.3540863216397105,-1.2497101502454053,-1.9055333673172008
1687012938.032207,-0.031113119795918465,0.9780319929122925,0.20611990988254547,0.8372502326965332,0.342448353767395,0.13001608848571777,0.6246996521949768,1.6541236639022827,-5.069178581237793,-2.9917769755144805,-1.3608014730801734,-1.027667539417826
1687012938.121692,-0.29423171281814575,0.941389799118042,0.16496384143829346,0.8887141942977905,0.2846996784210205,0.0639486163854599,0.5210486650466919,1.3246562480926514,-5.238831996917725,-2.081786661203048,-1.226726948759715,-0.16694327508098103
1687012938.238401,-0.5351991653442383,0.8360607624053955,0.12068343162536621,0.8843355178833008,0.27445870637893677,-0.05246126651763916,0.6228677034378052,0.85361248254776,-5.223968505859375,-1.7925795521207646,-0.9900633898094912,0.09392307561341964
1687012938.244882,-0.7372034192085266,0.671525239944458,0.0747334286570549,0.9048364758491516,0.173201322555542,-0.06238889694213867,0.7454339861869812,0.3071177303791046,-5.260046482086182,-1.6718254110134387,-0.7362653143720133,0.21399028360055555
1687012938.420939,-0.8857157230377197,0.46152597665786743,0.05001886561512947,0.8399239778518677,0.07910829782485962,-0.020477764308452606,0.21966178715229034,0.14333173632621765,-5.18281364440918,-1.6272092263866653,-0.4797145654195796,0.2730193447278078
1687012938.426441,-0.9740566611289978,0.22159327566623688,0.04593341052532196,0.7440610527992249,0.05181370675563812,-0.051151759922504425,-0.0006777001544833183,0.0424201674759388,-5.002339839935303,-1.6179182339628002,-0.2234480591449049,0.2893356107695497
1687012938.431082,-0.9988619685173035,-0.02364157699048519,0.04142381250858307,0.7312533259391785,0.09573940187692642,0.011676903814077377,-0.7516858577728271,0.1465379148721695,-4.9212541580200195,-1.612243583263681,0.023643779578177863,0.2825209008414811
1687012938.474358,-0.9653012156486511,-0.25971153378486633,0.027271300554275513,0.6379085779190063,0.10077601671218872,0.019741177558898926,0.16564616560935974,0.39027559757232666,-4.644250392913818,-1.599040409614158,0.26272348448004096,0.27380126043231817
1687012938.4779348,-0.8818650245666504,-0.471270352602005,0.01477806642651558,0.5747055411338806,-0.016598880290985107,-0.0295180082321167,0.2080281674861908,0.3198886513710022,-4.45361328125,-1.5875525004256785,0.4907305627210162,0.2932352940503339
1687012938.481052,-0.7646449208259583,-0.6444406509399414,0.0038295520935207605,0.4964867830276489,-0.08866792917251587,0.0469517707824707,0.1789054423570633,0.37693116068840027,-4.02094030380249,-1.5758045601012594,0.7002915228509081,0.303262378002044
1687012938.568984,-0.6317142248153687,-0.7750046849250793,0.017467979341745377,0.4387819766998291,-0.1456497311592102,-0.025127766653895378,0.8000010251998901,0.05320436879992485,-3.4173858165740967,-1.5984409926524243,0.8867224863672053,0.3499664953899012
1687012938.691829,-0.5051470994949341,-0.8617506623268127,0.04703716188669205,0.32019519805908203,-0.2273150086402893,0.011556752026081085,0.6494200825691223,-0.04062797874212265,-2.692211389541626,-1.6636443664954077,1.0387103144216676,0.430260453131368
1687012938.696725,-0.40128958225250244,-0.9122229218482971,0.08256088197231293,0.2113785743713379,-0.21914011240005493,0.04445338994264603,0.6724782586097717,-0.20213471353054047,-2.020958185195923,-1.773703934796174,1.1486775359700772,0.5446660966285046
1687012938.749738,-0.31752845644950867,-0.9409738779067993,0.11723601073026657,0.1475454568862915,-0.16893529891967773,0.0010655075311660767,0.8297610282897949,-0.0983465388417244,-1.5040578842163086,-1.9244848731504745,1.2254961093536432,0.7003104245715658
1687012938.76423,-0.2593703866004944,-0.9517688155174255,0.16389979422092438,0.1051497757434845,-0.2214183807373047,0.07213853299617767,1.0569226741790771,-0.09840645641088486,-0.9000755548477173,-2.134352095171495,1.2589502726838229,0.9168815747274933
1687012938.767478,-0.22859103977680206,-0.9506120681762695,0.20995908975601196,0.07256989181041718,-0.1459607481956482,0.05424688756465912,0.8812438249588013,0.0945945531129837,-0.40925171971321106,-2.3137346927182403,1.2552020578805614,1.1050051776547185
1687012938.8718572,-0.21784955263137817,-0.9420128464698792,0.25525230169296265,0.006072729825973511,-0.0948982834815979,0.017620712518692017,1.0051219463348389,0.1846098005771637,-0.12538592517375946,-2.4350889481725657,1.2285788119352237,1.2393800953443768
1687012938.9582958,-0.21684697270393372,-0.9320040941238403,0.2904234826564789,-0.0010027885437011719,-0.08621490001678467,0.027203530073165894,0.5323652625083923,0.22769787907600403,-0.005179082974791527,-2.500233950978583,1.1999033765327145,1.3196100515096678
1687012938.963365,-0.2166527658700943,-0.9259704351425171,0.3092585504055023,-0.03984758257865906,0.01665329933166504,-0.02727600932121277,0.4130651652812958,0.20758329331874847,-0.11787234246730804,-2.530494014072057,1.1835976139181839,1.363239009437967
1687012939.082456,-0.21207408607006073,-0.923491895198822,0.31966787576675415,0.01341983675956726,0.001464247703552246,0.016895294189453125,0.06693756580352783,0.23931805789470673,-0.2416001409292221,-2.5558410629544555,1.1770854787035612,1.4036592984978171
1687012939.10127,-0.20250339806079865,-0.9273468852043152,0.31467506289482117,-0.02068696916103363,0.020852744579315186,-0.013115525245666504,0.09666050970554352,0.3364332914352417,-0.27818503975868225,-2.5697779835433257,1.1872593471708779,1.4325244605427454
1687012939.171895,-0.19770443439483643,-0.9273067116737366,0.31782907247543335,0.0010643750429153442,-0.03907817602157593,0.004680722951889038,0.0894898772239685,0.246677964925766,-0.13276101648807526,-2.585120088262248,1.187151945253041,1.4641824430657333
1687012939.175971,-0.1986684650182724,-0.9276933670043945,0.3160944879055023,0.0008077174425125122,0.10057556629180908,-0.04326730966567993,0.2126367688179016,0.23723852634429932,-0.07375308126211166,-2.5804734340876725,1.1881862380503296,1.4760192131296146
1687012939.261423,-0.19632166624069214,-0.9239916801452637,0.3281726539134979,0.006532803177833557,-0.03281068801879883,-0.05049312114715576,0.29862505197525024,-0.024606138467788696,-0.08830086141824722,-2.602478006395714,1.1783904721296026,1.5045707038190326
1687012939.278922,-0.19166919589042664,-0.9180638194084167,0.3470185101032257,0.012408867478370667,0.06912583112716675,0.0008208751678466797,0.40805619955062866,-0.1368919312953949,-0.04604422673583031,-2.636961339670051,1.1631685401938792,1.536512372364752
1687012939.352573,-0.18711495399475098,-0.9117995500564575,0.36552608013153076,0.011669382452964783,-0.06859272718429565,0.043256938457489014,0.2773228883743286,-0.0204397551715374,-0.041283559054136276,-2.6684657461312296,1.1476453811826621,1.5658312932781349
1687012939.3679,-0.18580681085586548,-0.9111058115959167,0.36791563034057617,-0.004699185490608215,0.0603521466255188,-0.035762250423431396,0.002396519761532545,0.04099457710981369,-0.06211826577782631,-2.67393267600892,1.1459589735961073,1.5735021306517294
1687012939.370936,-0.18560510873794556,-0.9051675200462341,0.3823908567428589,-0.005724906921386719,-0.14222627878189087,0.054010629653930664,0.1654777228832245,0.03251587226986885,0.005683152936398983,-2.6897088092223567,1.1317737100740033,1.5919867915304413
1687012939.401679,-0.18585756421089172,-0.9041521549224854,0.38466355204582214,-0.007501885294914246,0.11653923988342285,-0.06522071361541748,0.40773817896842957,-0.023129815235733986,0.015647634863853455,-2.6915001554785194,1.1293909804829205,1.5950000008841532
1687012939.4698138,-0.18606610596179962,-0.8989182114601135,0.39664340019226074,-0.010512948036193848,-0.0860062837600708,0.046395719051361084,-0.14015263319015503,0.013836191967129707,0.004917494021356106,-2.7029677541385917,1.1172940036612142,1.6056890915570354
1687012939.526095,-0.18732832372188568,-0.899212658405304,0.395378977060318,0.0017814040184020996,-0.015124320983886719,-0.01677781343460083,0.11455128341913223,0.07061372697353363,0.02332206442952156,-2.6991284868575067,1.117966562883137,1.6043912054161684
1687012939.588326,-0.18901361525058746,-0.9000768065452576,0.3926014304161072,-0.012341469526290894,0.012549221515655518,0.03346985578536987,-0.05608849227428436,0.11671862751245499,0.00160159170627594,-2.6929038543781325,1.1199457826056822,1.601927567267697
1687012939.6849852,-0.1921347975730896,-0.9047271609306335,0.38020098209381104,0.022563844919204712,-0.03997480869293213,-0.03251415491104126,-0.5166503190994263,0.04583979770541191,0.05189431831240654,-2.6736737305038836,1.1307388362436752,1.5871191744403255
1687012939.6981869,-0.19637887179851532,-0.9165160059928894,0.3484733998775482,-0.027727022767066956,0.04156184196472168,0.16170427203178406,-1.0483530759811401,0.2763584852218628,0.01796005666255951,-2.62841316459191,1.1592816405850743,1.5436334035274883
1687012939.732331,-0.20523807406425476,-0.9455334544181824,0.25267288088798523,0.17102785408496857,-0.2912675142288208,0.09821826219558716,-2.849268674850464,0.44797033071517944,0.3158799111843109,-2.459415934492499,1.2392294521943639,1.3844757125726346
1687012939.828613,-0.2542908787727356,-0.955906331539154,0.14690028131008148,0.521899402141571,-0.038402259349823,-0.21860121190547943,-0.3024836778640747,0.08563195168972015,1.7702624797821045,-2.094646882106406,1.2727307365325329,1.0240503244083339
1687012939.842448,-0.36402612924575806,-0.9269844889640808,0.09047000110149384,0.40954306721687317,-0.4095786213874817,0.0462336465716362,-3.172639846801758,-0.10281772166490555,2.8059396743774414,-1.814387325043315,1.186291983918596,0.7190831280239717
1687012939.885411,-0.5262917280197144,-0.8500140905380249,-0.02220865711569786,0.6288917660713196,-0.2698894739151001,0.05057483911514282,-1.4607195854187012,-0.45690321922302246,4.387861251831055,-1.528622968143151,1.0160120960672874,0.3879331423284814
1687012940.001396,-0.7090131640434265,-0.7008171677589417,-0.07845743000507355,0.617597758769989,-0.09389102458953857,-0.005969338119029999,-2.0934457778930664,-0.3960241377353668,5.075199127197266,-1.4605874790467188,0.7765424353565619,0.2768926514510304
1687012940.0181289,-0.8758283257484436,-0.47083723545074463,-0.1060062125325203,0.7718242406845093,-0.040790021419525146,0.22777144610881805,-2.3083977699279785,-0.869007408618927,5.727296352386475,-1.4503468444412462,0.4902395412124993,0.20169307477635465
1687012940.1591659,-0.977570652961731,-0.19309288263320923,-0.08408867567777634,0.7627878785133362,0.28420311212539673,-0.14084100723266602,-1.059881329536438,-1.7979406118392944,5.732787609100342,-1.4849895337285306,0.19431337691671147,0.1259930034227147
1687012940.166095,-0.9956731200218201,0.09201760590076447,0.012967398390173912,0.6872775554656982,0.3162465989589691,0.33684051036834717,-0.9310393333435059,-2.0344207286834717,5.626628875732422,-1.5838193409630152,-0.09214796206958906,0.0940028986440582
1687012940.220909,-0.9293797016143799,0.33905085921287537,0.14593739807605743,0.6039251089096069,0.31806889176368713,0.020154565572738647,-1.3418774604797363,-2.7599222660064697,4.9933929443359375,-1.7265511380265028,-0.34590780077126987,-0.0012334519452615648
1687012940.234515,-0.7937144637107849,0.5447707772254944,0.27063363790512085,0.47035008668899536,0.3363785743713379,0.18937328457832336,-0.05795616656541824,-2.7343220710754395,4.474763870239258,-1.8994049811770923,-0.5761157699902459,-0.08748733159910987
1687012940.237306,-0.6099258065223694,0.7005833387374878,0.37036892771720886,0.3741624355316162,0.38068485260009766,0.05329135060310364,1.2758522033691406,-2.8794076442718506,4.374140739440918,-2.116519441690326,-0.7762146576025147,-0.19925433265966852
1687012940.305686,-0.3944552540779114,0.8197821378707886,0.4151659905910492,0.5489809513092041,0.06625014543533325,0.27880388498306274,-2.297710657119751,-2.6680824756622314,3.8954195976257324,-2.3817697064348358,-0.9610304966307063,-0.37020662974469076
1687012940.387423,-0.1774001270532608,0.8292198777198792,0.5300224423408508,0.3320022225379944,0.5404243469238281,-0.11089396476745605,1.4628745317459106,-2.7299604415893555,3.6377315521240234,-2.8186098809902926,-0.9777104256741699,-0.7280731948957905
1687012940.4004412,0.03006545454263687,0.8821336030960083,0.47003933787345886,0.365579754114151,-0.056922852993011475,0.2909013628959656,-1.1692873239517212,-2.4468624591827393,2.956653118133545,3.0777159736274773,-1.0803730644412284,-1.0289922928402246
1687012940.4836159,0.2064620852470398,0.858077347278595,0.4701882004737854,0.23947608470916748,0.38969486951828003,0.023357391357421875,1.835155725479126,-1.9134153127670288,2.8210175037384033,2.7278356856761605,-1.031513787130127,-1.3033621506450228
1687012940.4998941,0.3604598343372345,0.8442611694335938,0.3965999484062195,0.2003464698791504,-0.049186885356903076,0.265707790851593,-1.0066887140274048,-1.9404512643814087,2.429837226867676,2.4038957321934373,-1.0051851226806852,-1.5684379169778198
1687012940.602682,0.4868857264518738,0.7894739508628845,0.373729407787323,0.08428138494491577,0.44352787733078003,0.07631340622901917,1.3381413221359253,-1.4862480163574219,2.0242574214935303,2.2254613420608202,-0.9099514786173557,-1.6814459556644423
1687012940.6240048,0.577803909778595,0.7611527442932129,0.29460036754608154,0.15019303560256958,0.07313680648803711,0.10771298408508301,0.783113956451416,-1.0575923919677734,1.747804880142212,2.0423025277735545,-0.8650886366649362,-1.8384783843350507
1687012940.692864,0.6537835597991943,0.7203754782676697,0.2315737009048462,0.07197028398513794,0.25362348556518555,0.033822521567344666,1.2085565328598022,-0.802679717540741,1.5898634195327759,1.9112127304100943,-0.8043434849101387,-1.954194279766041
1687012940.696629,0.7126234173774719,0.6805447340011597,0.17037279903888702,0.052040278911590576,0.12878143787384033,0.09628987312316895,0.6156213283538818,-0.7032148838043213,1.3149617910385132,1.8054696191022257,-0.7485057953067993,-2.050400237740056
1687012940.790719,0.7592666745185852,0.6377416253089905,0.12961585819721222,0.0732683539390564,0.17076069116592407,0.004875212907791138,0.7222369909286499,-0.5159085988998413,1.2344310283660889,1.7398783168592078,-0.6915627293430038,-2.104999201977946
1687012940.7957292,0.7971267104148865,0.5966479778289795,0.09273859858512878,0.026161372661590576,0.126267671585083,0.09183180332183838,0.5652647614479065,-0.37917420268058777,1.0634294748306274,1.6866167472960567,-0.6393176212324198,-2.1534150020967817
1687012940.8766541,0.8279613256454468,0.5576006770133972,0.05968024954199791,0.031291663646698,0.04318356513977051,0.05869758129119873,0.7920869588851929,-0.1845121830701828,0.9925334453582764,1.6427528409246768,-0.5914926172967103,-2.203896540317365
1687012940.881608,0.854549765586853,0.5181084871292114,0.03617418557405472,0.014606297016143799,0.029285311698913574,0.09351027011871338,0.3700779974460602,-0.21187469363212585,0.9868600964546204,1.613102350429319,-0.5446380065939046,-2.2433641269955844
1687012940.934225,0.8786198496818542,0.4767267405986786,0.027545617893338203,0.003994286060333252,0.25566455721855164,0.12516438961029053,0.07979962974786758,-0.12193455547094345,0.8822181224822998,1.602137068255963,-0.49692731939580614,-2.2459626277781086
1687012940.997685,0.8957322835922241,0.4440437853336334,0.022105451673269272,-0.021373212337493896,0.23466703295707703,0.13693702220916748,0.17305873334407806,0.13742004334926605,0.5538786053657532,1.5954699539082835,-0.460106764616789,-2.2627202868702243
1687012941.014333,0.9043049812316895,0.42613285779953003,0.025363925844430923,-0.07111406326293945,0.2732536494731903,0.053157925605773926,0.5249852538108826,0.33065927028656006,0.2543374300003052,1.5988369516116545,-0.4402137663088312,-2.2811925104740327
1687012941.0805411,0.9064456224441528,0.4213120639324188,0.029202628880739212,0.006030082702636719,0.1388533115386963,-0.030972599983215332,0.5107457637786865,0.28915509581565857,0.022511932998895645,1.6030018248696325,-0.4348915517340323,-2.311965593395979
1687012941.169061,0.9057222008705139,0.42257848381996155,0.03308558091521263,-0.01981222629547119,0.05665421485900879,-0.05057204142212868,0.2553684115409851,0.19827380776405334,-0.019366007298231125,1.6073095941087645,-0.4362884249454445,-2.3289239391446714
1687012941.190668,0.9041810035705566,0.4257815480232239,0.034163810312747955,0.015100240707397461,-0.01426723599433899,-0.003875013440847397,0.2553953528404236,0.17017120122909546,-0.09460190683603287,1.6085626203815715,-0.4398254513226767,-2.347330842576065
1687012941.2943568,0.9025803208351135,0.42904016375541687,0.03568609431385994,-0.01248931884765625,-0.021157503128051758,-0.002788066864013672,0.09861992299556732,0.09430240839719772,-0.02795523591339588,1.6103136036716101,-0.4434298941401319,-2.356816557382486
1687012941.2980762,0.9021810293197632,0.4294995665550232,0.0399944894015789,0.003580749034881592,0.01988697052001953,-0.017197731882333755,0.04415881261229515,0.13606449961662292,-0.0568729043006897,1.6150982125742424,-0.44393854857483156,-2.3580005423004184
1687012941.425743,0.9013447761535645,0.4309670329093933,0.04295715317130089,0.002479255199432373,-0.0006996989250183105,-0.016620393842458725,0.06475649774074554,0.09173085540533066,-0.06872716546058655,1.6184192504913142,-0.4455641750637948,-2.362959616434099
1687012941.4306679,0.8995106816291809,0.43472322821617126,0.04354611411690712,0.012217223644256592,-0.01757851243019104,-0.03159833326935768,0.07070213556289673,0.05726076662540436,-0.04443887248635292,1.619169451390565,-0.44973091892716177,-2.3664862148674857
1687012941.504533,0.8988572359085083,0.43619245290756226,0.042329929769039154,0.0008772611618041992,0.005701988935470581,-0.05180549994111061,0.08223995566368103,0.02937467209994793,-0.0379953533411026,1.617854611246385,-0.45136302764683667,-2.3690560909473692
1687012941.520815,0.89909827709198,0.4363075792789459,0.03546668216586113,-0.0020340681076049805,0.0028860867023468018,-0.027974490076303482,0.12837761640548706,-0.04540848731994629,-0.02589288353919983,1.6102228308581723,-0.4514909701379324,-2.3778234468655275
1687012941.591917,0.8990187048912048,0.4371442198753357,0.02588585950434208,-0.009828150272369385,0.017033487558364868,-0.0009224452078342438,0.12773719429969788,-0.09717461466789246,-0.015588047914206982,1.5995818334933902,-0.4524209839847199,-2.386357701599796
1687012941.59648,0.8985462188720703,0.43853461742401123,0.017385318875312805,-0.009721696376800537,-0.013699442148208618,0.011957406997680664,0.11632955074310303,-0.061241649091243744,-0.008797519840300083,1.5901421865859837,-0.453967499234172,-2.3947135643781245
1687012941.6861448,0.8978826403617859,0.44002658128738403,0.013546217232942581,0.007177233695983887,-0.011010527610778809,0.0150488605722785,0.07668306678533554,-0.06329520791769028,0.007714078761637211,1.5858820290637026,-0.4556282688153567,-2.3993231374855775
1687012941.703264,0.8981257081031799,0.4395682215690613,0.012245037592947483,0.013876855373382568,0.011527270078659058,0.024437187239527702,-0.04408729448914528,-0.07170253992080688,0.004995257593691349,1.584429472996386,-0.4551179225678291,-2.399080067526806
1687012941.778017,0.8983926773071289,0.4390309751033783,0.011943192221224308,0.00108259916305542,0.026850402355194092,0.01945948787033558,-0.0043490007519721985,-0.04218286648392677,-0.027430061250925064,1.5840894994831523,-0.4545198682388804,-2.3967142210420893
1687012941.782033,0.8972676396369934,0.4413016736507416,0.01279620360583067,-0.008183717727661133,0.008939385414123535,0.02028489112854004,-0.025544367730617523,-0.0034742215648293495,-0.04938383027911186,1.5850566607328105,-0.4570487240846059,-2.3965886801724987
1687012941.829855,0.89540034532547,0.44500109553337097,0.01524827629327774,0.0004584789276123047,0.0022797584533691406,0.01374351978302002,-0.06457719206809998,0.008448617532849312,-0.0420345701277256,1.5878242428301428,-0.46117547940058023,-2.393374459358941
1687012941.930399,0.8943007588386536,0.44707953929901123,0.018607700243592262,-0.006864666938781738,-0.0050934553146362305,0.008919240906834602,-0.05922643095254898,-0.01615033484995365,-0.024779949337244034,1.5916003085548334,-0.46349774015749473,-2.388684071837168
1687012941.949666,0.8937581777572632,0.44798916578292847,0.022411074489355087,0.008417785167694092,-0.008444517850875854,0.0010417699813842773,-0.07319644093513489,0.032018523663282394,-0.02162277139723301,1.5958661728606531,-0.4645149205272866,-2.38222058923928
1687012942.015082,0.8938750624656677,0.4476411044597626,0.024601604789495468,-0.0068509578704833984,-0.012521445751190186,0.02839231863617897,-0.08426207304000854,0.003199526807293296,0.005701527930796146,1.5983118023508074,-0.46412562124380163,-2.379221648307589
1687012942.109902,0.8939885497093201,0.4472668468952179,0.027146978303790092,0.003548741340637207,0.008711487054824829,0.00749051570892334,0.03677966073155403,0.0660003274679184,-0.010159460827708244,1.6011531332180384,-0.46370715830646325,-2.377186741125043
1687012942.115278,0.8938955068588257,0.4473438560962677,0.028887055814266205,-0.005177795886993408,-0.021669447422027588,0.008619189262390137,-0.008449403569102287,0.037499845027923584,0.004261289723217487,1.6031010035691353,-0.4637932446269889,-2.380904907278027
1687012942.201644,0.8935048580169678,0.44791001081466675,0.032028183341026306,0.012790977954864502,0.016704797744750977,-0.01393115520477295,0.02347816899418831,0.0573105663061142,-0.018328707665205002,1.6066265469140213,-0.4644263909797673,-2.379108441254982
1687012942.221665,0.8933892250061035,0.4480852782726288,0.03279649093747139,-0.0047476887702941895,0.015980303287506104,-0.004796501249074936,0.06936716288328171,0.023703737184405327,-0.004570550285279751,1.6074900423872565,-0.4646224315033736,-2.3824888885321265
1687012942.284734,0.8924466967582703,0.4500015676021576,0.03221225365996361,-0.03284275531768799,0.08094319701194763,-0.024826884269714355,-0.0560520738363266,-0.04975862801074982,-0.07223507761955261,1.6068749837118417,-0.46676711070008287,-2.3813407022148616
1687012942.302641,0.8893848061561584,0.45584768056869507,0.034612610936164856,0.0021101832389831543,0.1746608018875122,-3.611668944358826e-05,-0.5901422500610352,-0.10422240197658539,-0.23052538931369781,1.6096941745509437,-0.4733243549650317,-2.3662479301189534
1687012942.3727322,0.8799505233764648,0.472495973110199,0.04934202507138252,-0.007925987243652344,0.43918609619140625,0.07167553901672363,-1.0801516771316528,-0.12413352727890015,-0.6043099164962769,1.626811302005169,-0.49212068593797087,-2.316416626455225
1687012942.376286,0.8576862215995789,0.5085333585739136,0.07594934105873108,-0.07635986804962158,0.6601524949073792,0.2306607961654663,-1.0325247049331665,0.20282302796840668,-1.251193642616272,1.659117383178987,-0.5334806302656051,-2.249981768320261
1687012942.435149,0.8099368214607239,0.5741832852363586,0.11964975297451019,-0.010406732559204102,0.8906298875808716,0.34400391578674316,-0.5936939716339111,0.8618538975715637,-2.1605224609375,1.7174628218623205,-0.6116062316446509,-2.1895408018827434
1687012942.55892,0.7148560285568237,0.6749331951141357,0.18288297951221466,0.22821348905563354,0.8587582111358643,0.3563474416732788,-0.5295729041099548,1.670279622077942,-3.291818618774414,1.8212562687420322,-0.7408741684530967,-2.1246222261803838
1687012942.565442,0.5525254607200623,0.7887434959411621,0.2694430351257324,0.5382643938064575,0.7179093360900879,0.30004560947418213,-0.5759914517402649,2.343576431274414,-4.282958507537842,2.024521063411187,-0.9087622766407243,-1.9858731553116877
1687012942.6459641,0.3153578042984009,0.8854931592941284,0.34124991297721863,0.8565629720687866,0.6172687411308289,0.23750078678131104,-0.08645132929086685,2.8053903579711914,-5.064907550811768,2.3956072134490087,-1.0875542312297284,-1.7012203260343834
1687012942.650772,0.018106764182448387,0.9340994954109192,0.3565540909767151,1.0638787746429443,0.49908244609832764,0.24575629830360413,0.4339030981063843,2.90099835395813,-5.607542037963867,3.0908535847143157,-1.205728335176695,-1.1007286871720756
1687012942.738196,-0.2958810031414032,0.9000482559204102,0.31994959712028503,1.131345510482788,0.4045019745826721,0.11167585849761963,0.42972826957702637,2.6498849391937256,-5.899740695953369,-2.3952577302851332,-1.1198801901317603,-0.3914071953772998
1687012942.7555041,-0.5801313519477844,0.7796013951301575,0.23594419658184052,1.1503674983978271,0.29914939403533936,0.009524136781692505,0.8864175081253052,1.9250223636627197,-5.989998817443848,-1.957072257052595,-0.8940290794012717,-0.01431031792396435
1687012942.9169621,-0.8012503981590271,0.5780013203620911,0.15463654696941376,1.0724754333496094,0.2789475917816162,-0.024143218994140625,0.8079708218574524,1.366275429725647,-5.928317546844482,-1.7614464001095833,-0.6162772994512371,0.14911203284614868
1687012942.936826,-0.9406014084815979,0.32930824160575867,0.08261402696371078,1.0163308382034302,0.14144068956375122,-0.0021390989422798157,1.009940266609192,0.830510139465332,-5.71499490737915,-1.6584025880564963,-0.3355708590278029,0.25386505110241964
1687012943.0117679,-0.996826171875,0.06507528573274612,0.045859672129154205,0.9067686200141907,0.08682601898908615,-0.08901143074035645,1.0865020751953125,0.3099936842918396,-5.22908878326416,-1.6167695957287487,-0.0651213003467239,0.3180577720431789
1687012943.015798,-0.9827154278755188,-0.1809520572423935,0.03907562792301178,0.780597448348999,-0.06804083287715912,-0.028607964515686035,0.799887478351593,0.1942921280860901,-4.773177623748779,-1.6105383048573523,0.18195440190301207,0.38620956860002764
1687012943.019548,-0.9183333516120911,-0.3934325575828552,0.043297506868839264,0.6674636006355286,0.00628662109375,0.00028168782591819763,1.3659396171569824,0.16840486228466034,-4.145025253295898,-1.6179093577021177,0.40436229897800696,0.4343142967617828
1687012943.035351,-0.8291236758232117,-0.5520735383033752,0.08814073354005814,0.5904914736747742,-0.3504074811935425,0.244653582572937,1.2816224098205566,0.08461994677782059,-3.5533533096313477,-1.6767044602048804,0.5848490657931528,0.568737063110994
1687012943.0955691,-0.7279026508331299,-0.680254340171814,0.08609161525964737,0.5111210346221924,-0.06567150354385376,0.0998063012957573,0.19294849038124084,0.40454161167144775,-3.018355131149292,-1.688522941544632,0.7481096012609516,0.6142790922223594
1687012943.188393,-0.6297657489776611,-0.7701025605201721,0.10167055577039719,0.3524373173713684,-0.16841965913772583,-0.0527508407831192,0.6324306726455688,0.011762255802750587,-2.459484100341797,-1.7308571386597222,0.8790019252522805,0.6850085677078435
1687012943.2056642,-0.538698136806488,-0.8345690965652466,0.11532167345285416,0.1796281933784485,-0.11797618865966797,-0.05868087708950043,-0.03333651274442673,-0.37421685457229614,-2.064335584640503,-1.7816879659881275,0.9873501913237385,0.7369360088143525
1687012943.275428,-0.4569016396999359,-0.8784717321395874,0.13974396884441376,0.08126071095466614,-0.1484600305557251,-0.008381009101867676,0.5018487572669983,-0.5367282629013062,-1.6572386026382446,-1.8676125995360013,1.0726541279993298,0.8102331642371283
1687012943.279128,-0.38176384568214417,-0.9114855527877808,0.15313571691513062,-0.00501599907875061,-0.06233036518096924,0.1307542324066162,-0.19329401850700378,-0.28686773777008057,-1.5309081077575684,-1.9522737315954946,1.1468813677213965,0.8788747472912168
1687012943.334528,-0.31800493597984314,-0.931718111038208,0.1754268854856491,-0.015247136354446411,-0.13371175527572632,0.13852275907993317,0.817754864692688,-0.028845757246017456,-1.2107412815093994,-2.074904142119125,1.199115189951008,1.0016868902063083
1687012943.434591,-0.2690260112285614,-0.942557156085968,0.19801802933216095,0.07470527291297913,-0.12067526578903198,0.0060378313064575195,0.2881680130958557,0.11158472299575806,-0.8978917598724365,-2.2053129636231192,1.230204561881608,1.1472501365100072
1687012943.450893,-0.2365405410528183,-0.9488071203231812,0.2093168944120407,0.028959915041923523,-0.09526020288467407,-0.017986908555030823,0.5090356469154358,0.12389638274908066,-0.5513742566108704,-2.2952111179860144,1.249437649978573,1.247446027457035
1687012943.486052,-0.22067604959011078,-0.9475744366645813,0.2310943752527237,0.047854989767074585,-0.16349416971206665,-0.03796379268169403,0.02814262919127941,0.02931874431669712,-0.23883338272571564,-2.3792515041647397,1.2455574602778126,1.340454461315268
1687012943.579921,-0.2139052152633667,-0.9503219723701477,0.22612598538398743,0.05175001919269562,0.07233119010925293,-0.02184128761291504,0.2909657955169678,0.015641149133443832,-0.04580241069197655,-2.3839598614861948,1.2542686569332,1.3469317416607636
1687012943.583328,-0.21149668097496033,-0.9478517174720764,0.23842476308345795,-0.03954097628593445,-0.054437100887298584,0.04351198673248291,-0.1717059165239334,0.16756051778793335,-0.08582253009080887,-2.4159738109406734,1.2464264250205874,1.3816438769626112
1687012943.6367211,-0.20945267379283905,-0.9506609439849854,0.22885195910930634,-0.011586159467697144,0.016594290733337402,-0.04887452721595764,0.0765698105096817,0.19553035497665405,-0.10228805243968964,-2.400425414429972,1.2553595191704827,1.3769347293972543
1687012943.76038,-0.2092863917350769,-0.9470658302307129,0.24344538152217865,0.019131317734718323,0.005186557769775391,-0.010855570435523987,0.6394557356834412,0.18566934764385223,0.09110857546329498,-2.431502627320196,1.2439694939665353,1.4210757181712996
1687012943.766465,-0.21019136905670166,-0.9471306800842285,0.24241089820861816,-0.036543309688568115,0.06041198968887329,-0.018182888627052307,0.04096062108874321,0.2444452941417694,-0.019652031362056732,-2.4272618833943347,1.2441716020954734,1.4290568468638754
1687012943.8483992,-0.21026268601417542,-0.9443908333778381,0.2528156638145447,0.02492937445640564,0.01217031478881836,-0.014076590538024902,0.26782530546188354,0.06336446851491928,-0.028989072889089584,-2.4478286753109773,1.2357370382369715,1.4585314708047676
1687012943.8643699,-0.20995274186134338,-0.9428563117980957,0.2587319016456604,0.01026087999343872,-0.04093897342681885,-0.013126343488693237,0.08117189258337021,0.024521326646208763,0.007360943593084812,-2.4598978609349946,1.2311013000827868,1.473687259231556
1687012943.9385738,-0.20889851450920105,-0.9423408508300781,0.2614481747150421,-0.015192121267318726,-0.0141562819480896,-0.015995293855667114,0.04247196763753891,0.010676484555006027,-0.016313493251800537,-2.46745848280605,1.2295576103653196,1.4817941023302212
1687012943.955487,-0.2089053839445114,-0.9412957429885864,0.26518163084983826,-0.0040005892515182495,0.0031699538230895996,0.035813361406326294,0.01605048030614853,0.03387288376688957,-0.015712684020400047,-2.4743461002202296,1.2264482110680517,1.4900891136901238
1687012944.030791,-0.2090609222650528,-0.941180944442749,0.2654660642147064,0.022049129009246826,-0.009517967700958252,-0.010201692581176758,0.061564698815345764,0.009595774114131927,-0.003795304335653782,-2.4745054160570383,1.226108351995733,1.492200755344832
1687012944.047312,-0.20933321118354797,-0.9401790499687195,0.2687813639640808,-0.007875755429267883,-0.006247580051422119,0.01005786657333374,0.01967211253941059,-0.016728242859244347,-0.008664095774292946,-2.4798983502238148,1.2231555069023416,1.4976162473397003
1687012944.084847,-0.20821627974510193,-0.9399887919425964,0.2703099548816681,0.0018868446350097656,-0.005781650543212891,0.009353309869766235,0.015788158401846886,-0.03053460083901882,-0.008557036519050598,-2.4852336933178667,1.2225974182502544,1.5023295592161006
1687012944.1817842,-0.20863889157772064,-0.9395908713340759,0.2713654637336731,0.012273430824279785,-0.015136420726776123,0.009350687265396118,-0.05009252205491066,-0.03875644505023956,0.029627099633216858,-2.486137312265619,1.2214331215963778,1.5010781331679055
1687012944.198625,-0.20843452215194702,-0.9397414922714233,0.2710001766681671,-0.00367794930934906,0.05439603328704834,-0.014988094568252563,0.07816299051046371,-0.02378828264772892,0.0139043303206563,-2.4859599640811245,1.2218733404805047,1.498515962097243
1687012944.296999,-0.20855440199375153,-0.9399305582046509,0.2702515423297882,-0.0037869811058044434,-0.024501264095306396,0.02410590648651123,-0.16957031190395355,0.013611954636871815,0.017630092799663544,-2.4843445967550766,1.2224267509596567,1.4962586708197834
1687012944.301543,-0.21064993739128113,-0.9421229362487793,0.2608279585838318,0.01855693757534027,0.012374281883239746,0.023595958948135376,-0.2574625015258789,0.006256836000829935,0.031538449227809906,-2.462222493862068,1.2289071252113233,1.4742123036449788
1687012944.388721,-0.21254637837409973,-0.9476562738418579,0.23826834559440613,0.020911186933517456,-0.06055295467376709,0.017774224281311035,-0.7386797666549683,-0.04309007152915001,0.09136849641799927,-2.413189329628036,1.245813750286858,1.42092917920007
1687012944.407796,-0.22269879281520844,-0.9549568295478821,0.19612038135528564,0.11008882522583008,-0.17341548204421997,0.037720710039138794,-0.8515950441360474,-0.02706996165215969,0.4848446846008301,-2.2928191481593014,1.2695143031009566,1.2920754170285234
1687012944.481728,-0.2647213339805603,-0.954463005065918,0.13756082952022552,0.3142818212509155,-0.37769025564193726,0.028058156371116638,-1.966456413269043,-0.10568501055240631,1.3983265161514282,-2.050035259461953,1.2678546089555567,1.0364852878736295
1687012944.499032,-0.352081298828125,-0.9355842471122742,0.02685559168457985,0.34982290863990784,-0.21628665924072266,-0.013092037290334702,-2.3499021530151367,-0.6792563796043396,2.4206557273864746,-1.646925587404015,1.2099100039434212,0.5881738798028513
1687012944.566732,-0.4889233708381653,-0.8721917271614075,-0.01535845547914505,0.47784537076950073,-0.21475297212600708,0.0964590311050415,-0.31212905049324036,-0.7968435883522034,3.5778512954711914,-1.5393938464007457,1.0596651345510273,0.43478344651066875
1687012944.58234,-0.646003782749176,-0.761338472366333,-0.05516258254647255,0.42536163330078125,-0.178969144821167,-0.03440636396408081,-1.7132195234298706,-0.5583146810531616,4.255712509155273,-1.4856124690301762,0.8653750295418623,0.33220947980538074
1687012944.627012,-0.8065348267555237,-0.5883519649505615,-0.05782113969326019,0.518067479133606,-0.16044247150421143,0.07190509140491486,-0.9347105622291565,-0.964232325553894,4.845702648162842,-1.4992279546822018,0.6290192311722773,0.29629833218591317
1687012944.725307,-0.9283464550971985,-0.3696061074733734,-0.039553530514240265,0.5343490839004517,-0.007347017526626587,-0.01069355383515358,-0.7144689559936523,-1.3544480800628662,5.149139881134033,-1.5282156486538176,0.37858508582765826,0.23764299835494715
1687012944.728946,-0.9937013983726501,-0.1063111200928688,0.03543153032660484,0.6311678886413574,-0.030804306268692017,0.0498347245156765,1.1396775245666504,-1.2865922451019287,5.681509017944336,-1.6064373394264901,0.10651240091316273,0.28543126766759286
1687012944.785717,-0.981521725654602,0.15263700485229492,0.11540131270885468,0.7277221083641052,0.29429298639297485,0.06750597059726715,-3.209568977355957,-1.8730359077453613,5.182756423950195,-1.687832890508264,-0.1532359908738572,0.1515887154733283
1687012944.836149,-0.8887524604797363,0.41417184472084045,0.19642063975334167,0.6452678442001343,0.2897619903087616,0.011160045862197876,3.7575342655181885,-2.1563503742218018,5.399448394775391,-1.7883070741661578,-0.42703275814624825,0.16718326440715808
1687012944.935906,-0.7396827936172485,0.5906838178634644,0.32243138551712036,0.8260018229484558,0.29222023487091064,0.09515604376792908,-4.746522426605225,-2.4345412254333496,4.262707233428955,-1.981867158585592,-0.6319060305469132,0.003638182086232945
1687012944.953584,-0.5505796074867249,0.7235111594200134,0.41640573740005493,0.4450804591178894,0.5482631325721741,0.10028749704360962,3.8285934925079346,-2.5349295139312744,4.343786716461182,-2.2183199898782586,-0.8088751459023026,-0.15216857998766636
1687012945.012285,-0.34538108110427856,0.8345905542373657,0.42915084958076477,0.6085494756698608,0.014026939868927002,0.10937768220901489,-1.7816722393035889,-1.7121764421463013,3.8709306716918945,-2.463931024283841,-0.9873890603887414,-0.33263139730115715
1687012945.015893,-0.13816845417022705,0.8956488370895386,0.4227558374404907,0.4179842174053192,0.3556480407714844,-0.045375436544418335,3.182157278060913,-1.8735532760620117,4.046010971069336,-2.8257082740159962,-1.1098879167734563,-0.6441814158031719
1687012945.2275171,0.06645280867815018,0.9385213851928711,0.3387652039527893,0.4033195972442627,0.12240707874298096,0.039408713579177856,0.4138665497303009,-1.2120561599731445,3.5103919506073,2.9478903416519735,-1.2183220030322954,-1.1126286806612278
1687012945.234727,0.2393539398908615,0.9305657744407654,0.2770504653453827,0.13843846321105957,0.24083608388900757,0.0475497841835022,1.4592119455337524,-1.1454551219940186,2.9879910945892334,2.4290633233713237,-1.1959550509308094,-1.5999155132506921
1687012945.318832,0.36351796984672546,0.9055534601211548,0.2186952531337738,0.2729261815547943,0.24927741289138794,-0.07367566227912903,0.8744240403175354,-0.3523171842098236,2.0981080532073975,2.112397199712687,-1.1326824651663554,-1.907049520122842
1687012945.337731,0.4678633511066437,0.8640010952949524,0.18602681159973145,0.00032207369804382324,0.30762964487075806,0.08019338548183441,-0.2747995853424072,-0.8934613466262817,2.1016290187835693,1.9492400555750853,-1.0431629992599771,-2.0501440738985344
1687012945.341323,0.5424513816833496,0.8205569982528687,0.18009081482887268,0.09576272964477539,0.4539485573768616,-0.1423710733652115,0.7887956500053406,-0.28983527421951294,1.2958685159683228,1.8913413311061833,-0.9623848456458375,-2.088219123704381
1687012945.345125,0.5976770520210266,0.7922000288963318,0.1232939064502716,0.03855353593826294,-0.010248124599456787,0.12299823760986328,0.3187519609928131,-0.5015121102333069,1.3055211305618286,1.7742311520945422,-0.9144056502791509,-2.2054817744367563
1687012945.371729,0.646772027015686,0.7548947930335999,0.10871881246566772,0.14634931087493896,0.31564652919769287,-0.060150034725666046,0.8493925333023071,-0.2320987433195114,1.1242107152938843,1.7373339099210001,-0.8554937275845795,-2.2322017573100212
1687012945.431375,0.6875478625297546,0.7225785851478577,0.0718211978673935,0.010190844535827637,-0.004988312721252441,0.09929095953702927,-0.051304325461387634,-0.37735968828201294,1.075132966041565,1.674878765704155,-0.8075252286783935,-2.2936983880714057
1687012945.5331712,0.7257018685340881,0.6846317648887634,0.0680912658572197,0.08962106704711914,0.10488849878311157,-0.05243563652038574,-0.007545327302068472,-0.380877286195755,0.9978674650192261,1.6643505781978138,-0.754098392832719,-2.28303853857456
1687012945.5526419,0.7600445747375488,0.647390604019165,0.056726716458797455,0.09078574180603027,-0.07979416847229004,0.09287060052156448,-0.5406787991523743,-0.47131454944610596,1.0098514556884766,1.6452942372030444,-0.7041557506873978,-2.27877884878492
1687012945.639004,0.7949092984199524,0.6038932800292969,0.05858403816819191,0.05660742521286011,0.11896127462387085,0.007837526500225067,-0.17789562046527863,-0.40881943702697754,1.1471054553985596,1.6443623526623505,-0.6483766370666803,-2.245451814746126
1687012945.655263,0.8267428874969482,0.5608434081077576,0.04417163506150246,0.052346646785736084,0.07206064462661743,0.07351946830749512,-0.12735874950885773,-0.28810355067253113,0.9854531288146973,1.6241740791533887,-0.595404183698139,-2.2486528920207287
1687012945.767715,0.8528047800064087,0.5213344097137451,0.03056897222995758,0.037026822566986084,0.1334964632987976,0.05361378192901611,0.4827564060688019,-0.2451305240392685,0.919930636882782,1.6066262022398208,-0.5484139197753267,-2.258681058008506
1687012945.7864342,0.8753103017807007,0.48330429196357727,0.015777219086885452,0.004618287086486816,0.11987560987472534,0.1374821662902832,-0.13275571167469025,-0.14262078702449799,0.8310979604721069,1.588819091516688,-0.5044251718206598,-2.2725358332977055
1687012945.882935,0.8923749923706055,0.45114395022392273,0.011666405014693737,-0.04342174530029297,0.22756695747375488,0.12323665618896484,0.35556015372276306,0.060572005808353424,0.6043449640274048,1.5838690160609,-0.4680467165737859,-2.277676626861014
1687012945.9005718,0.9025188684463501,0.43047279119491577,0.012370082549750805,-0.019889414310455322,0.19458824396133423,0.11041748523712158,0.1155029684305191,0.2648859918117523,0.3420822024345398,1.5845016443574922,-0.4450165062863021,-2.295124709342506
1687012945.978787,0.9072651863098145,0.42018574476242065,0.017720188945531845,-0.0314105749130249,0.16277626156806946,0.05446922779083252,0.6543726325035095,0.35311612486839294,0.1337449848651886,1.5903252764161966,-0.4336500067781161,-2.3179950733794854
1687012945.9831371,0.9079256653785706,0.4183422327041626,0.025705281645059586,-0.005154669284820557,0.05934935808181763,-0.012918354943394661,0.30386435985565186,0.40105023980140686,-0.003261607140302658,1.5991008650958414,-0.43161938686858586,-2.344630820003488
1687012945.986689,0.9077965021133423,0.4180556535720825,0.0336921289563179,0.042902469635009766,0.0037430226802825928,-0.010376691818237305,0.17952190339565277,0.17311160266399384,0.05017312243580818,1.6078934873535111,-0.4313039190241847,-2.35820301616668
1687012946.1245651,0.908155620098114,0.4167362153530121,0.03980531170964241,-0.02897465229034424,0.009853720664978027,-0.03301501274108887,0.19888493418693542,0.2320215255022049,0.004596049897372723,1.6145992268937526,-0.4298519329453264,-2.3660152440475337
1687012946.129982,0.9077103734016418,0.41712716221809387,0.04546431079506874,0.015187084674835205,-0.008954614400863647,-0.014778852462768555,0.1015402153134346,0.14897418022155762,0.00897295493632555,1.6208413085645863,-0.4302820398499265,-2.3755292603571077
1687012946.154633,0.9071692228317261,0.4179968237876892,0.04819416254758835,-0.0005530118942260742,-0.009961605072021484,-0.05765450373291969,0.008365528658032417,0.11645297706127167,0.002589358016848564,1.623872310632721,-0.4312391504344009,-2.379068788495716
1687012946.157862,0.9077507853507996,0.41706690192222595,0.04521048814058304,-0.00830608606338501,0.0061814188957214355,-0.04989480599761009,0.15842926502227783,0.0391886867582798,-0.026031101122498512,1.6205601631178066,-0.430215765167015,-2.3878170100177547
1687012946.1803699,0.9069927930831909,0.4194287061691284,0.0379936657845974,-0.0035962462425231934,0.009999275207519531,-0.008940819650888443,0.04938073828816414,0.01983562856912613,-0.042052146047353745,1.6126615607219932,-0.4328159162049851,-2.3951379107940696
1687012946.276778,0.9049535989761353,0.4241311252117157,0.03422967344522476,0.004088699817657471,0.013963848352432251,-0.0017741955816745758,0.15834057331085205,0.02708488516509533,-0.07483325898647308,1.6086030856893396,-0.43800222903903946,-2.4010394825393813
1687012946.430526,0.903300404548645,0.42783525586128235,0.031711146235466,0.003148019313812256,0.007620066404342651,0.004696369171142578,0.2142820805311203,0.005826868116855621,-0.035739656537771225,1.6058877845596509,-0.4420964040936447,-2.408997899813036
1687012946.4341521,0.9026952981948853,0.42928773164749146,0.02921169623732567,-0.013809800148010254,-0.0066193342208862305,0.02452981285750866,0.11684826016426086,0.02558925375342369,-0.031345173716545105,1.6031455656384976,-0.4437040070504323,-2.416960786316509
1687012946.507872,0.9023901224136353,0.42997902631759644,0.02846343442797661,-0.011856675148010254,-0.01815962791442871,0.011072156950831413,0.0988919734954834,0.008128638379275799,-0.01976867765188217,1.6023281441801127,-0.44446955479588107,-2.4246826187791926
1687012946.511231,0.9023193717002869,0.43014755845069885,0.028156382963061333,0.005700647830963135,0.014508724212646484,0.029521940276026726,0.16710983216762543,0.007370570208877325,-0.02222837507724762,1.6019906575430085,-0.4446562211233103,-2.4301216284338136
1687012946.539556,0.9017899632453918,0.4311598539352417,0.029604677110910416,-0.00960838794708252,0.03713241219520569,0.003537539392709732,0.07829567790031433,0.03341495245695114,-0.023574601858854294,1.6036133357354625,-0.4457778709333181,-2.431806907928187
1687012946.6953049,0.9012099504470825,0.43229466676712036,0.030690208077430725,-0.00788414478302002,0.026048779487609863,0.01972496509552002,0.18740598857402802,0.07393268495798111,-0.03503045439720154,1.6048376189871663,-0.4470359533499829,-2.438531595524212
1687012946.702582,0.8994799256324768,0.43583422899246216,0.03137288987636566,-0.05324280261993408,0.08366641402244568,0.0403587780892849,0.7132089734077454,0.3033132553100586,-0.0787116214632988,1.6056611160121976,-0.4509649676774063,-2.4575277106919295
1687012946.781972,0.8958041667938232,0.44368278980255127,0.026086075231432915,-0.012915313243865967,0.030743420124053955,0.019842982292175293,1.2886122465133667,0.4757811725139618,-0.18237489461898804,1.599908387310066,-0.45970393340385396,-2.5158171342016993
1687012946.796654,0.8924829363822937,0.45087769627571106,0.013556674122810364,0.01366037130355835,0.015400350093841553,0.046440958976745605,1.445504069328308,0.37573620676994324,-0.05329841002821922,1.5859849995612694,-0.467748427101312,-2.5954999644783223
1687012946.8000631,0.8901448845863342,0.4556201994419098,0.007241153623908758,0.022254467010498047,0.020667612552642822,0.1048499345779419,0.7845668196678162,0.4906754493713379,-0.14031080901622772,1.5789309504511462,-0.473068820836667,-2.6581515869238346
1687012946.872764,0.8882263898849487,0.459367573261261,0.0059601496905088425,0.024615466594696045,-0.032564014196395874,0.02391672134399414,0.7714405655860901,0.25381776690483093,-0.05807798355817795,1.577506395253777,-0.477283065936005,-2.7051037813900347
1687012946.888101,0.8858641386032104,0.46388211846351624,0.00761819863691926,-0.03909289836883545,0.03416469693183899,0.061717867851257324,0.4221423268318176,0.42410987615585327,-0.15100233256816864,1.5793958513686728,-0.4823723442310624,-2.733338746596114
1687012946.997163,0.8825249075889587,0.47019636631011963,0.008079113438725471,0.027539849281311035,-0.03365769982337952,0.003334522247314453,0.7559235095977783,0.2549128532409668,-0.07593713700771332,1.5799506154499785,-0.489513274285375,-2.770028649651554
1687012947.003325,0.8805829286575317,0.4737967848777771,0.009515166282653809,-0.026884078979492188,0.0004768669605255127,0.014883756637573242,0.44908612966537476,0.4104138910770416,-0.1043352261185646,1.5816014374829985,-0.49359722451723614,-2.8005659090301327
1687012947.120177,0.8779668211936951,0.47859859466552734,0.010859203524887562,0.03766739368438721,0.012063026428222656,0.0034536123275756836,0.7576227188110352,0.26775914430618286,-0.09035762399435043,1.5831642762536646,-0.4990579341921634,-2.8366448098644343
1687012947.140677,0.8764733076095581,0.4813700020313263,0.00881426502019167,-0.02382737398147583,-0.015656501054763794,0.015813589096069336,0.3271350562572479,0.307905912399292,-0.029052458703517914,1.5808525009328085,-0.502217061197749,-2.868303880214397
1687012947.202553,0.8753339052200317,0.4833555817604065,0.012574106454849243,0.04072755575180054,-0.008914083242416382,0.0016319751739501953,0.49713999032974243,0.2789447009563446,-0.06785284727811813,1.5851602649092615,-0.5044837816112172,-2.89275675200952
1687012947.2163749,0.8739810585975647,0.48579269647598267,0.012757538817822933,-0.018863201141357422,0.012803494930267334,0.03901565074920654,0.3775014281272888,0.2884618937969208,-0.055237989872694016,1.585392332825156,-0.5072698380107361,-2.918650748647398
