Timestamp,gravityX,gravityY,gravityZ,accelerationX,accelerationY,accelerationZ,rotationRateX,rotationRateY,rotationRateZ,attitudeRoll,attitudePitch,attitudeYaw
1687003376.6050348,0.05357005447149277,0.0005156556144356728,-0.9985639452934265,0.00029351189732551575,0.0008118327241390944,0.006696879863739014,-0.02989301085472107,-0.06499803811311722,-0.022995848208665848,0.05359571749662925,-0.0005156556567520196,0.9824736409637398
1687003376.6619759,0.05008890479803085,0.0024806733708828688,-0.9987416863441467,0.0001278109848499298,-0.025872422382235527,-0.0007395148277282715,-0.1414448469877243,-0.0848843902349472,0.04776886850595474,0.05011002866957169,-0.0024806759221169994,0.9828895949067682
1687003376.7248778,0.04327227547764778,0.014445357955992222,-0.9989588856697083,-0.006254412233829498,0.00551311019808054,-0.019992530345916748,-0.05826659873127937,-0.10427965968847275,0.03471884876489639,0.04329031167373246,-0.014445860272360328,0.985965821409596
1687003376.740642,0.03707028925418854,0.004198767244815826,-0.9993038177490234,0.045556094497442245,-0.053988225758075714,-0.05898469686508179,0.5470561385154724,-0.18677572906017303,0.13583135604858398,0.03707911050565734,-0.004198779772170365,0.98559382136415
1687003376.7442021,0.03179839253425598,0.01237140130251646,-0.9994177222251892,0.0095682293176651,0.10878335684537888,-0.006472170352935791,-0.1868986040353775,-0.0695834681391716,0.04331446439027786,0.03180618725697354,-0.012371716952320583,0.9877693238748799
1687003376.8060179,0.0328134186565876,-0.011762221343815327,-0.9993922710418701,-0.07521755248308182,0.0003486229106783867,0.04777795076370239,0.7061949372291565,0.1876324862241745,0.2856493294239044,0.03282158140780456,0.011762492612085234,0.9913206873315631
1687003376.820414,0.03584332391619682,-0.02019299380481243,-0.9991533756256104,0.02322348579764366,-0.0024510715156793594,-0.012717902660369873,-0.12456459552049637,-0.005095154047012329,0.15518054366111755,0.03585831971627817,0.020194367110424435,1.0013878679226684
1687003376.8668752,0.03994876891374588,-0.026902036741375923,-0.9988394975662231,0.004576418548822403,0.013581089675426483,0.044051289558410645,0.2665756046772003,0.14006097614765167,0.28072595596313477,0.03997387787076172,0.02690528269956972,1.0123570786853209
1687003376.870002,0.04510919004678726,-0.03599834069609642,-0.9983332753181458,0.02218211069703102,-0.007016211748123169,-0.018802344799041748,0.19292888045310974,0.09718634188175201,0.2631336450576782,0.04515378978303894,0.03600611941467908,1.025616996015539
1687003376.8902888,0.05002870410680771,-0.04198796674609184,-0.9978647828102112,0.036244526505470276,-0.04785580560564995,0.03395187854766846,-0.004241178743541241,0.05648232251405716,0.34451955556869507,0.05009380939312794,0.04200031332260601,1.0405720190991035
1687003376.998249,0.0493997260928154,-0.04335895925760269,-0.997837483882904,0.026665370911359787,-0.0471714586019516,0.024921894073486328,-0.1545804738998413,-0.06053564324975014,0.3236212134361267,0.0494663999904354,0.04337255735143812,1.057700845845664
1687003377.0028992,0.04415622353553772,-0.03198796510696411,-0.9985123872756958,0.002169497311115265,0.04068544879555702,0.0416032075881958,-0.12900014221668243,-0.06976988911628723,0.35708916187286377,0.04419321681335899,0.03199342286126377,1.0746289246211056
1687003377.00682,0.0417584665119648,-0.022578846663236618,-0.9988725781440735,-0.007975466549396515,-0.00580252893269062,-0.0025617480278015137,-0.4268288314342499,-0.01761121302843094,0.2439383715391159,0.041781268596511996,0.022580766197961847,1.091703558345983
1687003377.078041,0.04239652305841446,0.0010484246304258704,-0.9991003274917603,-0.040000855922698975,0.08603344857692719,-0.07488954067230225,-0.2873081564903259,0.011068767867982388,0.09391053020954132,0.042409259093916796,-0.0010484248592479172,1.1012026533925028
1687003377.081843,0.04361794516444206,0.004848893266171217,-0.9990364909172058,-0.028130237013101578,0.03840973973274231,0.054288625717163086,0.07102348655462265,0.09585556387901306,0.01735983043909073,0.04363230057248216,-0.004848912128201341,1.1031657051351473
1687003377.170238,0.048313286155462265,-0.0031475615687668324,-0.9988272786140442,0.025813952088356018,-0.03626592084765434,-0.04444664716720581,0.06323713064193726,0.020016323775053024,-0.04064781218767166,0.048332340471530955,0.0031475668742143334,1.1030564922789354
1687003377.1878319,0.050827253609895706,-0.004693102557212114,-0.9986964464187622,0.010467339307069778,0.0006494922563433647,-0.014075160026550293,0.09943301230669022,0.0521610751748085,-0.023596923798322678,0.05084972478773673,0.0046931195581165945,1.101225120320391
1687003377.191533,0.05243181437253952,-0.002203344600275159,-0.9986220598220825,-0.012957289814949036,-0.011727960780262947,0.01180565357208252,-0.17088867723941803,0.05532184988260269,0.006742339581251144,0.05245599624486574,0.0022033464157206824,1.1002773573952918
1687003377.204768,0.05326097086071968,0.0055804005824029446,-0.9985650181770325,-0.0025559738278388977,0.007313244044780731,-0.02075260877609253,-0.10141726583242416,-0.016902679577469826,-0.001532367430627346,0.05328701326197259,-0.005580429404960591,1.1012235411862152
1687003377.2576761,0.05374447628855705,0.008823727257549763,-0.9985157251358032,0.006497260183095932,-0.017109282314777374,0.0028187036514282227,-0.10965415090322495,-0.005158671177923679,-0.03517315164208412,0.05377247879781694,-0.008823841623162031,1.1010038846648045
1687003377.270078,0.05275452136993408,0.01478504203259945,-0.9984980821609497,-0.004689294844865799,0.00665352214127779,0.007180333137512207,-0.10440593212842941,-0.01406974159181118,-0.02961699850857258,0.052784795091148855,-0.014785581139059142,1.0996541639970037
1687003377.2728949,0.05275550112128258,0.017011452466249466,-0.9984625577926636,0.003030668944120407,0.03328148275613785,0.005741000175476074,0.04700383171439171,0.015292676165699959,0.011576510965824127,0.05278764788180731,-0.017012272985325712,1.098178336886255
1687003377.382549,0.05225810408592224,0.017375744879245758,-0.9984824061393738,-0.014614634215831757,-0.010249923914670944,-0.013190507888793945,-0.09181137382984161,-0.013808085583150387,-0.006333780474960804,0.05228982102981391,-0.017376620010677312,1.0979637142458534
1687003377.387529,0.05110134556889534,0.02315622568130493,-0.9984250068664551,0.0023960061371326447,-0.0004054047167301178,-0.007174968719482422,-0.0745820552110672,-0.006441515404731035,-0.010536781512200832,0.051137336310153485,-0.023158295083176742,1.097963859773722
1687003377.3916159,0.05117623135447502,0.025068262591958046,-0.9983749389648438,0.003770701587200165,0.01347540132701397,0.008766233921051025,-0.014132292941212654,-0.017129048705101013,-0.01849057897925377,0.05121470659243405,-0.02507088851161982,1.0971499487557714
1687003377.435835,0.0521848239004612,0.023900143802165985,-0.9983513951301575,-0.0007474087178707123,-0.004216339439153671,0.02487117052078247,0.022911278530955315,0.027651073411107063,0.024003619328141212,0.0522234710335481,-0.02390241902679994,1.09744140512777
1687003377.4475021,0.052044402807950974,0.024993471801280975,-0.9983319640159607,-0.02085540071129799,0.0005191899836063385,0.00031560659408569336,-0.024174872785806656,0.019703403115272522,0.019453609362244606,0.05208421201836605,-0.02499607509909155,1.0985479311654291
1687003377.4997358,0.05281874164938927,0.02564660832285881,-0.9982747435569763,0.0013652555644512177,-0.010189492255449295,-0.012208044528961182,-0.029868513345718384,-0.0006233075982891023,-0.005802480038255453,0.052860735142057295,-0.02564942157129078,1.0990936247908196
1687003377.5033479,0.05366102606058121,0.02692055143415928,-0.9981962442398071,0.004917502403259277,0.023112984374165535,-0.014407515525817871,0.03457479178905487,0.04053611308336258,-0.009334630332887173,0.053706295904517205,-0.026923804279893923,1.0986641840189608
1687003377.507162,0.054178886115550995,0.026257766410708427,-0.998185932636261,-0.007425922900438309,-0.018140126019716263,-0.013853192329406738,-0.04697665944695473,0.017751438543200493,-0.005314056295901537,0.054224141552388874,-0.02626078411259767,1.0980527079358546
1687003377.524015,0.05512843653559685,0.02768295258283615,-0.9980954527854919,0.001115497201681137,0.0029719211161136627,-0.008908331394195557,-0.017011037096381187,0.010408038273453712,-0.01350460760295391,0.0551775661987534,-0.027686489214776615,1.0976021421657907
1687003377.554158,0.05698101967573166,0.029590584337711334,-0.9979366660118103,0.009501561522483826,-0.004276284947991371,0.015758931636810303,-0.06580447405576706,0.03623124584555626,-0.004758787341415882,0.05703690140187175,-0.029594903823203712,1.0979591639001642
1687003377.617581,0.05758651718497276,0.03284237161278725,-0.9978001713752747,-0.01933269575238228,0.0033666975796222687,0.023343384265899658,-0.05955037102103233,0.03404838591814041,0.0013049645349383354,0.0576495272409396,-0.03284827929962502,1.0978559498927596
1687003377.630402,0.05862251669168472,0.034970853477716446,-0.9976674914360046,-0.0012189187109470367,-1.3004988431930542e-05,0.004518747329711914,-0.045200396329164505,0.006405972875654697,-0.0035776756703853607,0.05869208576018345,-0.034977984428923393,1.0979894501069598
1687003377.633062,0.059158504009246826,0.03609412908554077,-0.9975958466529846,0.0033415332436561584,-0.005530808120965958,-0.01563352346420288,-0.02598802000284195,0.005627663806080818,-0.01742025464773178,0.059231706891325626,-0.03610197010068495,1.097538538325843
1687003377.706376,0.059278976172208786,0.040610767900943756,-0.9974150657653809,0.0022750161588191986,-0.0009226910769939423,0.0027403831481933594,-0.12293187528848648,-0.014658698812127113,0.007768455892801285,0.0593627766053553,-0.04062193967897086,1.0976673976710147
1687003377.7186751,0.05891154333949089,0.04456508159637451,-0.9972679615020752,-0.015561290085315704,0.012151803821325302,-0.0002601146697998047,-0.05857891961932182,0.015563784167170525,0.0028874147683382034,0.05900436387494649,-0.04457984519955126,1.0981926628523047
1687003377.7662911,0.05949801951646805,0.045448582619428635,-0.9971932768821716,-0.0055581629276275635,-0.01461060345172882,0.00871366262435913,-0.04321407899260521,-0.00571806775406003,-0.007106630131602287,0.059594833868428405,-0.0454642416077064,1.0983007200534491
1687003377.76994,0.059372108429670334,0.048072099685668945,-0.9970777630805969,-0.00019848719239234924,0.00420447438955307,0.0009077191352844238,-0.03262561559677124,-0.001889773877337575,-0.015800518915057182,0.05947588724065698,-0.048090635882710404,1.0980201895585953
1687003377.773684,0.058207329362630844,0.051259707659482956,-0.9969876408576965,-0.0065868087112903595,-0.0013787634670734406,0.009362518787384033,-0.09078865498304367,-0.01437280885875225,-0.02787182852625847,0.0583170016770018,-0.051282182645474676,1.0971565300407622
1687003377.790676,0.05673440173268318,0.05541958659887314,-0.9968499541282654,-0.004869744181632996,0.003876030445098877,2.384185791015625e-05,-0.08356942236423492,-0.022236989811062813,-0.01585351675748825,0.05685234960437902,-0.05544799530842638,1.0962203969670408
1687003383.475626,0.05546202138066292,0.05941612645983696,-0.9966913461685181,-0.000866033136844635,0.012437473982572556,-0.014172911643981934,-0.06734830886125565,-0.021078916266560555,0.005825413390994072,0.05558880286336212,-0.05945114057453533,1.0962717248001341
1687003383.4909139,0.055655382573604584,0.060068279504776,-0.9966415166854858,0.005562916398048401,0.008352093398571014,0.0018905401229858398,0.010872126556932926,0.006687602028250694,0.0017561037093400955,0.055784992004223904,-0.06010445974042831,1.0965150462302182
1687003383.494516,0.055516213178634644,0.06030556559562683,-0.9966349601745605,-0.009831361472606659,0.0026521608233451843,0.006553173065185547,0.0028781823348253965,0.015156587585806847,-0.0019278470426797867,0.055646152997690865,-0.06034217900597609,1.0965861165583748
1687003383.879074,0.05604606866836548,0.05941640958189964,-0.9966586828231812,-0.005325816571712494,-0.006956733763217926,0.012817740440368652,0.0005870650056749582,0.002204303629696369,-0.00916418805718422,0.056174800337746925,-0.05945142584101725,1.0964665366931245
1687003384.29521,0.05621654912829399,0.059423528611660004,-0.9966486692428589,-0.0068543292582035065,-0.0017606019973754883,0.009633898735046387,0.0010541833471506834,0.012640698812901974,-0.005377972032874823,0.05634587630197268,-0.05945855641507523,1.0962868022939125
1687003384.311363,0.056332655251026154,0.05961741507053375,-0.9966305494308472,-0.003079444169998169,0.008040014654397964,-0.004788517951965332,0.013379359617829323,0.0017623520689085126,0.001018674112856388,0.05646303035611775,-0.05965278856537865,1.0959187609504115
1687003384.315014,0.05624217540025711,0.05960247293114662,-0.9966365098953247,-0.002317577600479126,0.004163973033428192,-0.012808680534362793,0.0010254213120788336,-0.007197986356914043,-0.007088254205882549,0.05637219419770156,-0.05963781807186864,1.0957515532076683
1687003384.318629,0.0562707781791687,0.05962761864066124,-0.9966334104537964,0.0047186389565467834,-0.006786469370126724,-0.007028698921203613,-0.026497283950448036,-0.0004127848078496754,-0.005104465410113335,0.056400976243320806,-0.059663010674146685,1.0953793350385708
1687003384.322287,0.05574098974466324,0.06068623438477516,-0.9965992569923401,-0.0035558976233005524,-0.002855464816093445,0.006380200386047363,-0.01128044631332159,-0.014829141087830067,0.011273708194494247,0.05587298098497297,-0.06072354477152902,1.095256834034628
1687003384.325492,0.055129580199718475,0.06174921244382858,-0.996567964553833,-0.005095977336168289,0.009356699883937836,0.004288971424102783,0.0017830906435847282,-0.02098730206489563,0.000628788024187088,0.055263111675306925,-0.0617885216581198,1.095602013037933
1687003385.106883,0.05300397798418999,0.06334813684225082,-0.9965829849243164,0.0012563131749629974,-0.005181670188903809,0.007584571838378906,-0.05115063115954399,-0.06365606933832169,-0.013315790332853794,0.053135652493367234,-0.06339058105636577,1.0956215217916272
1687003385.244203,0.050436507910490036,0.06513789296150208,-0.9966008067131042,-0.00462958961725235,0.008638307452201843,0.010288000106811523,-0.009460375644266605,-0.028834572061896324,-0.016434084624052048,0.05056539631984158,-0.06518404069374478,1.0949493884054926
1687003385.258803,0.0494496114552021,0.06569402664899826,-0.9966138005256653,0.004169810563325882,0.011225491762161255,-0.004255950450897217,-0.024650847539305687,-0.016705870628356934,-0.03364503011107445,0.04957696895234929,-0.06574137032829604,1.0941111823032281
1687003385.262533,0.050014909356832504,0.06533673405647278,-0.9966090321540833,0.00044594332575798035,0.00322096049785614,-0.018634438514709473,0.012526015751063824,0.020909015089273453,-0.020162511616945267,0.050143014630159556,-0.06538331052546234,1.0929613820800426
1687003385.774364,0.05066680163145065,0.06579263508319855,-0.9965461492538452,-0.0027999430894851685,-0.009899720549583435,-0.005406975746154785,-0.0414876826107502,0.01228383556008339,0.008261673152446747,0.050798663177566435,-0.06584019230365858,1.0925667503000889
1687003385.7906442,0.0511234849691391,0.06671968847513199,-0.9964611530303955,-0.002386879175901413,-0.00548621267080307,0.010529816150665283,-0.009915510192513466,0.0030786192510277033,0.011043345555663109,0.05126009942694753,-0.0667692889353428,1.0928140313212975
1687003385.794255,0.05106263607740402,0.06820680946111679,-0.9963635802268982,-0.008154883980751038,-0.0010681822896003723,0.011576652526855469,-0.03289998695254326,0.007695875130593777,-0.002567538060247898,0.05120419890372279,-0.06825980443285175,1.0930361987136257
1687003385.79784,0.05116167664527893,0.06945081055164337,-0.9962725639343262,-0.0044697485864162445,0.005500316619873047,0.007976114749908447,-0.022399943321943283,0.017633993178606033,0.00978260487318039,0.051308020500688806,-0.06950676570993483,1.0932596624109756
