Timestamp,gravityX,gravityY,gravityZ,accelerationX,accelerationY,accelerationZ,rotationRateX,rotationRateY,rotationRateZ,attitudeRoll,attitudePitch,attitudeYaw
1687011863.7226028,0.7907010912895203,0.5747934579849243,0.2107233703136444,0.0013673901557922363,-0.012323975563049316,0.0008244514465332031,0.02769288793206215,-0.1108693927526474,0.00987683143466711,1.8312449094574301,-0.6123517009316674,-2.3712224411686567
1687011863.737683,0.7928562164306641,0.5737989544868469,0.20526500046253204,0.003103196620941162,-0.0107344388961792,0.02282331883907318,0.05185195058584213,-0.09592599421739578,0.016353372484445572,1.8241272877355916,-0.6111368870697816,-2.3737496843763095
1687011863.7802582,0.7943264842033386,0.5730990767478943,0.20150096714496613,0.006302058696746826,-0.002649366855621338,0.030386894941329956,0.02184172347187996,-0.07560554146766663,0.013760252855718136,1.8192310415094683,-0.61028264259668,-2.3761321121220824
1687011863.868191,0.7952876091003418,0.5720973610877991,0.20055440068244934,-0.005187630653381348,0.0026248693466186523,0.019904598593711853,0.01804066076874733,-0.0402841679751873,0.007926066406071186,1.8178242421484068,-0.6090607817910608,-2.3764705869584306
1687011863.872913,0.7949857115745544,0.5722125768661499,0.2014218270778656,-0.008425533771514893,-0.000725090503692627,0.02301982045173645,-0.014145703986287117,-0.007843004539608955,-0.028992269188165665,1.8189398545022062,-0.6092012284084564,-2.375890872514662
1687011863.934136,0.793665885925293,0.5735887885093689,0.20270851254463196,-0.001688838005065918,0.008823990821838379,0.0011031925678253174,0.006444924045354128,0.010617761872708797,-0.03186449036002159,1.8208582300436529,-0.6108803003430883,-2.3746384489527226
1687011864.023532,0.7916179895401001,0.57547926902771,0.20534086227416992,0.0014119148254394531,0.00873410701751709,-0.00422997772693634,-0.023391535505652428,0.013080919161438942,-0.056329887360334396,1.8245965491632457,-0.6131900848621773,-2.37169859977993
1687011864.038161,0.7898927927017212,0.5775048136711121,0.20629474520683289,0.003609955310821533,0.0041602253913879395,-0.005565285682678223,-0.02427663467824459,0.00021865079179406166,-0.053248610347509384,1.8262581328643384,-0.6156690205209319,-2.369763136932299
1687011864.076335,0.7886185646057129,0.5789951086044312,0.20699137449264526,0.000688016414642334,-0.0033268332481384277,-0.006078854203224182,-0.046515561640262604,-0.008612258359789848,-0.04726555198431015,1.8274797589449268,-0.6174956351647027,-2.3661779613160183
1687011864.1727161,0.787492036819458,0.5802361965179443,0.20780368149280548,0.002043485641479492,-0.004506826400756836,-0.0061283111572265625,-0.09560514241456985,-0.02436339110136032,-0.05808411166071892,1.8287955904305364,-0.6190186662090248,-2.36110044726348
1687011864.188802,0.7868953347206116,0.5809367895126343,0.208105206489563,-0.000915229320526123,-0.013081073760986328,-0.005117565393447876,-0.027783885598182678,3.782217390835285e-05,-0.033996883779764175,1.829340821065028,-0.6198791237744816,-2.35848321586139
1687011864.230479,0.7861807942390442,0.5817107558250427,0.20864428579807281,0.0036446452140808105,-0.006484925746917725,0.001011490821838379,-0.00399613194167614,0.014523820951581001,-0.01758914813399315,1.830206151699564,-0.6208303277498614,-2.356873692216393
1687011864.3209782,0.7860597968101501,0.5818896293640137,0.20860160887241364,0.0018584132194519043,-0.015178203582763672,-0.009077638387680054,0.005417875945568085,0.012161063961684704,-0.007306948769837618,1.8301936071617808,-0.621050299130671,-2.357781561106399
1687011864.32586,0.7862147688865662,0.5814428925514221,0.2092621773481369,-0.0032098889350891113,-0.010443687438964844,-0.007495135068893433,-0.0037255550269037485,0.018318558111786842,0.007419266737997532,1.8309295012059252,-0.6205010298309804,-2.3576170743186986
1687011864.382427,0.7871043682098389,0.5804380178451538,0.20870672166347504,0.006123781204223633,-0.0027555227279663086,-0.01571357250213623,0.03992212191224098,0.002469155006110668,0.02212018147110939,1.8299893255220958,-0.6192665104159358,-2.3600002126636275
1687011864.47464,0.7880796790122986,0.5794128179550171,0.20787276327610016,0.007238864898681641,0.007028162479400635,-0.01590193808078766,-0.026522614061832428,-0.019865045323967934,0.012676079757511616,1.828693584891228,-0.6180080852009526,-2.360857672870918
1687011864.48929,0.7889875173568726,0.5788775682449341,0.2059122622013092,-0.007157504558563232,0.02469921112060547,-0.005991533398628235,0.05871452018618584,-0.022203834727406502,0.015900369733572006,1.8260848397831762,-0.6173515086733333,-2.3619859766272633
1687011864.529454,0.7892937064170837,0.5791379809379578,0.20399682223796844,-0.0010094642639160156,0.015191853046417236,0.0030344724655151367,0.0007281159050762653,-0.0219765342772007,-0.0020669130608439445,1.823716563972221,-0.6176709230193815,-2.3631550955689926
1687011864.623053,0.7883901000022888,0.5805056691169739,0.20360368490219116,-0.0005634427070617676,0.0076901912689208984,0.005716472864151001,-0.06527966260910034,-0.020075036212801933,-0.025616712868213654,1.823526815478926,-0.619349582673117,-2.361197697888609
1687011864.637833,0.7871490120887756,0.5821886658668518,0.20359952747821808,-0.006921350955963135,0.0029858946800231934,0.01310586929321289,-0.022086983546614647,-0.00558198057115078,-0.03624485805630684,1.8239035377097546,-0.6214180218392208,-2.3597132747350664
1687011864.680908,0.7859708666801453,0.5836291313171387,0.20402607321739197,-0.0009978413581848145,-0.012263834476470947,0.011611193418502808,-0.01697305031120777,0.0018943117465823889,-0.026995699852705002,1.8247754039650095,-0.6231908361438849,-2.3579010539650698
1687011864.773313,0.784570574760437,0.5846973657608032,0.20634430646896362,0.005178511142730713,-0.012126624584197998,0.013901099562644958,-0.08877281099557877,0.01021668966859579,-0.04046383500099182,1.8279750483774775,-0.6245069846474369,-2.353703340792009
1687011864.787725,0.7837724685668945,0.5845372080802917,0.20980241894721985,-0.0020342469215393066,-0.006564795970916748,0.01601243019104004,-0.06138445436954498,0.02703561633825302,-0.015935856848955154,1.832347155710307,-0.6243095702928217,-2.3486013494736535
1687011864.8309941,0.7834739089012146,0.5837706327438354,0.21302807331085205,0.0010416507720947266,-0.0044858455657958984,0.007812425494194031,-0.02778714895248413,0.037282794713974,-0.007015598937869072,1.8362800280897063,-0.6233650625487,-2.345436036436279
1687011864.9243488,0.7831169366836548,0.5832995772361755,0.21561451256275177,0.002069830894470215,-0.0002459883689880371,0.0007245540618896484,0.005180388689041138,0.05702533945441246,0.004534796811640263,1.839468046152946,-0.6227850410585298,-2.3448560113554384
1687011864.938383,0.782442569732666,0.5830685496330261,0.21866615116596222,-0.0021996498107910156,-0.000976264476776123,0.00363922119140625,0.0031573183368891478,0.06463053077459335,0.0026559364050626755,1.8433098410056,-0.6225006259639805,-2.34360664669488
1687011864.9806352,0.7821632027626038,0.5828681588172913,0.22019420564174652,0.00688403844833374,-0.00701671838760376,-0.011576056480407715,0.029765160754323006,0.06818757951259613,0.007917012088000774,1.8452135207050875,-0.6222540124221668,-2.3462817665698674
1687011865.070272,0.7819348573684692,0.5824772119522095,0.2220316231250763,-0.0032178759574890137,0.004192650318145752,-0.0092325359582901,0.0006291796453297138,0.04248421639204025,0.010880843736231327,1.8474655466330956,-0.6217729553564031,-2.346470655086021
1687011865.07711,0.7820417881011963,0.5820721387863159,0.2227165848016739,0.006639242172241211,0.002720952033996582,-0.016906023025512695,-0.04262128844857216,0.007305588573217392,-0.013159511610865593,1.8482399428580496,-0.6212746802267304,-2.3452805410925555
1687011865.132331,0.7820114493370056,0.5822355151176453,0.22239643335342407,0.0060135722160339355,-0.0031796693801879883,-0.01472422480583191,-0.011615769006311893,0.0006110676331445575,-0.004672016948461533,1.847871452508902,-0.6214756040044036,-2.3448374641917424
1687011865.222117,0.7828019261360168,0.5819216370582581,0.22042767703533173,0.002277970314025879,0.000674128532409668,-0.02029336988925934,0.029988599941134453,-0.0312681682407856,0.01451126392930746,1.8452770191729964,-0.6210896102261048,-2.345941178313389
1687011865.2286701,0.7841005325317383,0.5813570022583008,0.2172798216342926,-0.004727363586425781,0.006579399108886719,-7.092952728271484e-05,-0.01367279328405857,-0.045120466500520706,0.00981105212122202,1.8411204377414094,-0.6203955173126078,-2.347852897814572
1687011865.343515,0.784943163394928,0.581058144569397,0.21502533555030823,-0.011322438716888428,0.013302266597747803,0.002076774835586548,0.016965342685580254,-0.041901372373104095,0.001714242622256279,1.8381744284092565,-0.620028251626996,-2.3480108536239013
1687011865.35771,0.7848997712135315,0.5817586183547974,0.21328164637088776,-0.002917468547821045,0.0006387829780578613,0.00769612193107605,-0.0010577335488051176,-0.029752831906080246,-0.006018777843564749,1.83612090686865,-0.6208891515634195,-2.348784860410883
1687011865.438453,0.7839866876602173,0.5829889178276062,0.21328167617321014,0.0005288124084472656,0.0016821622848510742,0.003362685441970825,-0.07306861132383347,-0.03668197616934776,-0.039117876440286636,1.8364156284013955,-0.6224025865795332,-2.345903146674648
1687011865.444676,0.7822595238685608,0.5843720436096191,0.2158230096101761,-0.0012230873107910156,0.030847132205963135,-0.01674148440361023,-0.20926839113235474,-0.09193484485149384,-0.11316467076539993,1.839996223402113,-0.6241060095719747,-2.3347231079063215
1687011865.523124,0.7798125147819519,0.5877681374549866,0.21545545756816864,0.026110947132110596,0.11694377660751343,-0.06250131130218506,-0.09032995253801346,-0.15155142545700073,-0.18467001616954803,1.8403627041032677,-0.6282973536166299,-2.3250068109587345
1687011865.5358071,0.7716271877288818,0.6006729602813721,0.20924535393714905,-0.024312734603881836,0.26500391960144043,-0.12106478214263916,-0.4072343409061432,-0.46727651357650757,-0.6086269021034241,1.835602221360798,-0.6443425507863586,-2.3072944529777932
1687011865.644491,0.7515131831169128,0.6275070309638977,0.2036239355802536,-0.05258446931838989,0.611857533454895,-0.1404983103275299,-0.4048759639263153,-0.6686833500862122,-1.073590636253357,1.835395186777489,-0.6783472184493998,-2.2611931122582845
1687011865.658537,0.7135215997695923,0.676277220249176,0.18312834203243256,-0.09303826093673706,0.8992079496383667,-0.10684968531131744,-0.33153238892555237,-0.7821500301361084,-1.798372507095337,1.822027917335658,-0.7426971497638954,-2.2258849812658155
1687011865.732135,0.6367849111557007,0.7516802549362183,0.17170284688472748,0.1263071894645691,0.9743024706840515,0.026920810341835022,-0.05593762919306755,-0.5075494647026062,-2.8216726779937744,1.8341728277671927,-0.8506060986149007,-2.160979676787641
1687011865.738274,0.509712815284729,0.8473038077354431,0.14922791719436646,0.4956277012825012,0.5484632849693298,0.15388797223567963,0.18791525065898895,-0.17870822548866272,-3.5529417991638184,1.8556057092702725,-1.0108880273555856,-2.1149517099496364
1687011865.826089,0.34996581077575684,0.9259013533592224,0.14223437011241913,0.6141455173492432,0.1785144805908203,0.24808548390865326,0.303365558385849,0.12929433584213257,-3.5799365043640137,1.9568280247101852,-1.183414613877638,-1.9991612564530439
1687011865.840807,0.1794227510690689,0.9733378291130066,0.1429016888141632,0.6659904718399048,-0.18741869926452637,0.24110101163387299,-0.29196488857269287,0.3727787733078003,-3.5146868228912354,2.2433703454269613,-1.3393594155908763,-1.7140532659893053
1687011865.879885,0.017120329663157463,0.9881939888000488,0.15224896371364594,0.5447693467140198,-0.25047731399536133,0.15782487392425537,0.21572057902812958,0.6013291478157043,-2.9393043518066406,3.0296135040633145,-1.4169825713571975,-0.939396614830886
1687011865.9690409,-0.12282362580299377,0.9832009077072144,0.13501852750778198,0.4482630789279938,-0.24580484628677368,0.012823924422264099,0.32180315256118774,0.4267824590206146,-2.4923148155212402,-2.403455273391904,-1.3872408082528467,-0.10737389461368943
1687011865.975534,-0.2262486219406128,0.9683825969696045,0.10510316491127014,0.2517002820968628,-0.15650826692581177,-0.052368760108947754,1.1605485677719116,0.1409258246421814,-1.7023775577545166,-2.0056816510877935,-1.3186637932467873,0.2883628422206232
1687011866.0958982,-0.3064076900482178,0.9515143036842346,0.0271068774163723,0.29874780774116516,-0.018607258796691895,0.020271657034754753,1.459487795829773,-0.10271132737398148,-1.7538460493087769,-1.659033318560313,-1.2581219039815654,0.6467608896041162
1687011866.1100302,-0.3886626362800598,0.9209249019622803,-0.02895815297961235,0.2048705518245697,0.11877840757369995,0.10271912813186646,1.3739852905273438,-0.1331280916929245,-1.8299856185913086,-1.496426573041062,-1.1704469571052791,0.8295487059552512
1687011866.183492,-0.48415735363960266,0.8716151118278503,-0.07667344808578491,0.26057031750679016,0.07676440477371216,0.1851024031639099,0.31015580892562866,-0.06253154575824738,-2.3995988368988037,-1.4137359201668995,-1.0584875677140864,0.9240818557051771
1687011866.189485,-0.5925351977348328,0.8014614582061768,-0.08100533485412598,0.276495099067688,0.2012547254562378,0.27288466691970825,0.5534055829048157,0.3606039881706238,-2.7539944648742676,-1.434928845418137,-0.929734953025226,0.8932585153105206
1687011866.272427,-0.7034392356872559,0.6939629316329956,-0.15358644723892212,0.35169363021850586,0.2580329179763794,0.3265448808670044,1.326417088508606,0.9428536891937256,-3.4684507846832275,-1.3558332906128294,-0.7669785260103056,0.9555653602383821
1687011866.2762408,-0.8145116567611694,0.5395305752754211,-0.21325469017028809,0.43342339992523193,0.27092474699020386,0.19909453392028809,1.383962631225586,0.85532146692276,-4.0353193283081055,-1.3147251242910463,-0.5698794630869277,0.9557873777631688
1687011866.329825,-0.8969553709030151,0.3349337875843048,-0.28860118985176086,0.6122872829437256,0.2643857002258301,0.14953258633613586,1.5816396474838257,0.7125462889671326,-4.545959949493408,-1.2595008781437305,-0.34153496850731835,0.9826366104575384
1687011866.450583,-0.9431858062744141,0.09060398489236832,-0.3196741044521332,0.5758303999900818,0.2965725362300873,0.031344056129455566,1.7877275943756104,0.18000265955924988,-4.9392313957214355,-1.244017121083874,-0.09072841007595243,0.9732073508286252
1687011866.456711,-0.9335535764694214,-0.16792696714401245,-0.3166671395301819,0.5863551497459412,0.13821811974048615,0.05119475722312927,0.9710713028907776,-0.19944599270820618,-5.001843452453613,-1.2437695696555198,0.16872639184358273,0.9740018245472162
1687011866.543394,-0.8696762323379517,-0.40074872970581055,-0.2882077097892761,0.46103060245513916,-0.21762892603874207,0.03739899396896362,0.2131182700395584,-0.4927024841308594,-4.743063926696777,-1.2507898840372007,0.4123339256002025,0.927949803349271
1687011866.559129,-0.7603999972343445,-0.5925800800323486,-0.26578277349472046,0.5017330646514893,0.23708093166351318,-0.0006508529186248779,-0.28065115213394165,-0.43298524618148804,-4.804091930389404,-1.234540077011795,0.6342581264960845,0.8345309410395503
1687011866.598689,-0.6081865429878235,-0.7426313757896423,-0.2803708612918854,0.5522477626800537,-0.46256881952285767,0.014715373516082764,-1.2196815013885498,-0.456071674823761,-4.370469570159912,-1.1388368092475747,0.8369910206918945,0.6717457529590576
1687011866.668963,-0.4583355188369751,-0.8261903524398804,-0.32762500643730164,0.4559856355190277,-0.19016706943511963,0.11023306846618652,-1.2201951742172241,-0.07797841727733612,-3.446366548538208,-0.9501966040706311,0.9723117292795338,0.4158814987034218
1687011866.674282,-0.33318036794662476,-0.8695880174636841,-0.3644275963306427,0.20302289724349976,-0.15740478038787842,0.06839185953140259,-0.10710880160331726,0.32669797539711,-2.503979444503784,-0.7406361034966141,1.054367322831814,0.17297239874830464
1687011866.719967,-0.23698614537715912,-0.9045445919036865,-0.3544524013996124,0.19357489049434662,-0.2562524676322937,0.1326049268245697,0.6428363919258118,0.7168949246406555,-1.4073309898376465,-0.5893384455102818,1.1303104535353388,0.03218578662498602
1687011866.7835689,-0.18620054423809052,-0.9253758788108826,-0.3301648795604706,0.12556210160255432,-0.42778879404067993,-0.08241748809814453,0.7630841135978699,0.5179226398468018,-0.2736930847167969,-0.5134995569661325,1.1820260280359431,-0.014499273721233248
1687011866.8757281,-0.18336617946624756,-0.9392000436782837,-0.29031044244766235,0.020341292023658752,-0.2111600637435913,-0.08169874548912048,0.46157968044281006,0.2542828619480133,0.06128116324543953,-0.5633463307979143,1.2202930407981636,0.05664966076450748
1687011866.8905668,-0.18254654109477997,-0.9389989972114563,-0.2914749085903168,-0.032465070486068726,0.0942266583442688,-0.08239591121673584,0.25833189487457275,-0.07906924188137054,-0.0375058650970459,-0.5595232456770978,1.219708099320749,0.05541260753742071
1687011866.9298038,-0.1831555813550949,-0.9500353932380676,-0.2527581751346588,-0.022548168897628784,-0.0396801233291626,-0.012958317995071411,0.6986224055290222,0.08331859856843948,0.02048633247613907,-0.6270641088247255,1.253349220340864,0.1265484306090849
1687011867.027505,-0.18578873574733734,-0.9523674845695496,-0.24182353913784027,0.014402016997337341,-0.06728577613830566,-0.011960610747337341,-0.22267700731754303,-0.029548166319727898,0.041705332696437836,-0.6550994483353062,1.2609074545560013,0.15629280320913716
1687011867.043555,-0.1881691962480545,-0.9524860382080078,-0.23950472474098206,-0.03450232744216919,0.09129530191421509,-0.015805289149284363,0.3585151433944702,-0.025439707562327385,0.058072056621313095,-0.6659354550091412,1.261296499357533,0.1643278776603651
1687011867.079856,-0.19103366136550903,-0.9540011882781982,-0.231058269739151,0.00962190330028534,-0.024636507034301758,-0.004903614521026611,-0.08715473860502243,-0.09962445497512817,-0.019169466570019722,-0.6908564470668218,1.266310365608159,0.18749698015442015
1687011867.174211,-0.19140228629112244,-0.9528058767318726,-0.2356400042772293,-0.017337992787361145,-0.007460296154022217,-0.022813349962234497,-0.165483295917511,-0.09420078992843628,0.0009840046986937523,-0.6821753821333256,1.262348424052361,0.17404044282228362
1687011867.188764,-0.19243517518043518,-0.9522809386253357,-0.23691751062870026,0.026831522583961487,0.05658996105194092,-0.006933152675628662,0.2185017168521881,-0.08180497586727142,0.020287394523620605,-0.6821632308098378,1.2606237833134672,0.16886417151194993
1687011867.230725,-0.1962120085954666,-0.952761709690094,-0.23183207213878632,-0.01524430513381958,-0.025494515895843506,0.0009818673133850098,-0.06758536398410797,-0.13142725825309753,-0.00010656006634235382,-0.7023735704923718,1.2622028965843002,0.18368180505973136
1687011867.3550658,-0.19518375396728516,-0.9522817730903625,-0.23465405404567719,-0.0012426376342773438,0.0156058669090271,0.0028425604104995728,-0.016728706657886505,-0.08648481965065002,-0.007204150781035423,-0.6938289286636703,1.2606266256273602,0.17092404059391267
1687011867.3618011,-0.19607672095298767,-0.9525203108787537,-0.23293536901474,0.004044845700263977,-0.021692276000976562,-0.016683146357536316,0.008709742687642574,-0.09977545589208603,0.01432803925126791,-0.6996934549279713,1.2614090391683923,0.17176382478842597
1687011867.475867,-0.20170950889587402,-0.9500998258590698,-0.23795680701732635,0.05263115465641022,-0.0226021409034729,0.005489185452461243,-0.3726457357406616,-0.09548164159059525,0.11332891881465912,-0.7031414322063371,1.2535557670629318,0.16916023190392926
1687011867.4903011,-0.21889318525791168,-0.9383696913719177,-0.26748478412628174,0.10094273090362549,-0.2518921494483948,0.02401554584503174,-1.0975879430770874,-0.12032760679721832,0.5783836841583252,-0.6858235330536521,1.2178828628238108,0.14482961889145263
1687011867.561222,-0.279055118560791,-0.897957980632782,-0.3402934670448303,0.534975528717041,-0.6619021892547607,-0.1671070158481598,-1.6729073524475098,-0.7870677709579468,2.0989627838134766,-0.6868430793033495,1.1151071661292282,0.1264808238234157
1687011867.574273,-0.42802318930625916,-0.8163006901741028,-0.38787776231765747,0.822569727897644,-0.7118821740150452,-0.10397398471832275,-1.9028325080871582,-1.1034274101257324,4.110250949859619,-0.8345623295082527,0.9549774031825985,0.24258726652167503
1687011867.653401,-0.6306298971176147,-0.632602334022522,-0.4495779573917389,1.0412743091583252,-0.5564541220664978,0.1258474588394165,-3.1712541580200195,-1.6930339336395264,5.412637710571289,-0.9514629977470056,0.6849087186520292,0.3094487871863008
1687011867.6585,-0.8202770352363586,-0.3610874116420746,-0.4435778856277466,1.107920527458191,0.013309121131896973,0.10002627968788147,-2.4565463066101074,-2.593651294708252,5.68873929977417,-1.0750702302960915,0.36943371940170777,0.34259761234855013
1687011867.7448978,-0.9376041293144226,-0.07948876917362213,-0.3384965658187866,0.9891788959503174,0.2782802879810333,0.216426283121109,-0.7200689911842346,-3.003498077392578,5.527490139007568,-1.224335488208809,0.07957271488377833,0.38088083429354236
1687011867.760642,-0.9638173580169678,0.1832989603281021,-0.19353972375392914,0.8258168697357178,0.3332263231277466,0.2598087191581726,-0.0633225068449974,-3.0412445068359375,5.226749897003174,-1.3726264716681618,-0.18434122214460777,0.44946686093943083
1687011867.8339682,-0.907586932182312,0.41497406363487244,-0.06389333307743073,0.5080813765525818,0.4136086702346802,0.2457171082496643,0.40868067741394043,-2.5392251014709473,4.78529167175293,-1.500513152264047,-0.4279143070557549,0.48835195567448797
1687011867.838893,-0.7922362685203552,0.6084423661231995,0.046467311680316925,0.5134430527687073,0.3447282910346985,0.14120054244995117,-0.5034557580947876,-2.6872880458831787,4.20975923538208,-1.6293825577358367,-0.654096370736611,0.4867267140518626
1687011867.9241881,-0.6356412172317505,0.7563560605049133,0.15454959869384766,0.5956937670707703,0.033148884773254395,0.21834467351436615,-0.19907008111476898,-2.3838491439819336,4.2763352394104,-1.8093078690911748,-0.8577246299554165,0.41281444782284493
1687011867.938857,-0.4418451189994812,0.8708485960960388,0.2153964787721634,0.4676477313041687,0.1026926040649414,0.16170918941497803,0.12298811227083206,-2.3011815547943115,4.131945610046387,-2.024388508191133,-1.056926105115103,0.2966755971747881
1687011867.980885,-0.2275838404893875,0.9419407248497009,0.2468874305486679,0.6413869261741638,0.028213083744049072,0.14785754680633545,0.5830272436141968,-1.5760968923568726,4.364259719848633,-2.39685648967047,-1.2283639159406146,-0.008679378622138753
1687011868.078699,-0.01909671351313591,0.9780670404434204,0.20741337537765503,0.3865131139755249,-0.00820314884185791,0.3519279956817627,0.6226017475128174,-1.0855839252471924,3.7274796962738037,-3.049780708507015,-1.3609697369288407,-0.6065096831434328
1687011868.094812,0.17508500814437866,0.9710249900817871,0.16265234351158142,0.34491926431655884,0.4085220694541931,0.13077425956726074,1.7057539224624634,-0.6139596700668335,3.7077298164367676,2.319399455665312,-1.3294832432992267,-1.4978162372113912
1687011868.1312141,0.3375334143638611,0.9353691339492798,0.10562078654766083,0.3066163659095764,-0.00786370038986206,0.23762571811676025,0.37001121044158936,0.14598476886749268,3.154383897781372,1.8740633349999145,-1.2093014069431571,-1.952347320483425
1687011868.221638,0.47831568121910095,0.874741792678833,0.07772423326969147,0.18564000725746155,0.3056933879852295,0.19711709022521973,0.6296804547309875,0.24988825619220734,3.061760902404785,1.7318840262860942,-1.0649026711042757,-2.111232243583664
1687011868.226712,0.6026885509490967,0.7947262525558472,0.0719505026936531,0.4378083348274231,0.2552921772003174,-0.018132798373699188,0.42789995670318604,0.22085103392601013,2.8802969455718994,1.6896165348805303,-0.9185564696894549,-2.1827322879661293
1687011868.34371,0.7085543870925903,0.7034021615982056,0.0563579723238945,0.18370330333709717,0.42474114894866943,0.1164935827255249,0.9522464871406555,0.5340893864631653,2.7863261699676514,1.650168600095666,-0.7801726715106381,-2.261905728750168
1687011868.404885,0.7941127419471741,0.6055569648742676,0.05182361602783203,0.13452190160751343,0.4650454521179199,0.05260753631591797,0.9657853245735168,0.765324592590332,2.448732376098633,1.6359636880491835,-0.6504655388976398,-2.3359723427339647
1687011868.4094682,0.8492574691772461,0.5241532325744629,0.06344296038150787,0.10672086477279663,0.8630232214927673,0.07541202753782272,1.2792651653289795,1.2553789615631104,1.641573190689087,1.6453618587685652,-0.5517205331300502,-2.411436227633756
1687011868.4132671,0.8708618879318237,0.48267996311187744,0.09284298866987228,0.04504704475402832,0.8178266882896423,-0.2290581464767456,0.8034568428993225,1.297690749168396,0.43305471539497375,1.6770056124463222,-0.5037121747477566,-2.488032635466395
1687011868.4625978,0.8658677935600281,0.48492422699928284,0.1229696050286293,-0.059562861919403076,0.5100861191749573,-0.2900381088256836,0.11466141045093536,0.6790599822998047,-0.38586997985839844,1.7118718251022953,-0.5062765372589699,-2.515365697557694
1687011868.52104,0.8479121923446655,0.508089542388916,0.15129433572292328,0.06235086917877197,0.042706966400146484,-0.21889078617095947,-0.7072139382362366,0.21025684475898743,-0.700896143913269,1.7473696803391487,-0.5329652362338629,-2.4875063193787366
1687011868.58707,0.8317669630050659,0.5270172953605652,0.17440365254878998,0.07643616199493408,-0.19057625532150269,-0.05187559127807617,-0.6960881948471069,-0.0056464290246367455,-0.431039035320282,1.7774805795407445,-0.5550870379303305,-2.4337644333706767
1687011868.673455,0.8255447149276733,0.5339005589485168,0.1828281730413437,-0.010176122188568115,-0.15163737535476685,-0.05700421333312988,0.15063712000846863,0.06446794420480728,-0.060227956622838974,1.7887423080394136,-0.5632069234693484,-2.4173552673507728
1687011868.679527,0.8254822492599487,0.5339340567588806,0.183012455701828,0.03403007984161377,-0.14994663000106812,0.005708217620849609,-0.04203033074736595,0.018997931852936745,0.06659337878227234,1.7889710735158513,-0.5632465669102111,-2.4206278808807937
1687011868.732281,0.8288558721542358,0.5290287733078003,0.18200618028640747,-0.02989053726196289,0.07820993661880493,-0.01592947542667389,0.17045390605926514,0.025033321231603622,0.13600388169288635,1.786952892624047,-0.5574556822051926,-2.4282604349913663
1687011868.822891,0.8303595185279846,0.5278481841087341,0.17854854464530945,0.03865915536880493,0.11926186084747314,-0.005712255835533142,0.025516286492347717,-0.00027363456320017576,-0.05837492644786835,1.7825969582058399,-0.5560650715889965,-2.436008414637178
1687011868.828882,0.8259778022766113,0.5340036749839783,0.1805574893951416,0.021999001502990723,0.096596360206604,-0.04783652722835541,-0.027297060936689377,0.04429370164871216,-0.20071715116500854,1.7860094127677002,-0.5633288904895865,-2.433968719148592
1687011868.8823628,0.8192474842071533,0.5429967641830444,0.1843584179878235,0.0008360743522644043,-0.011395871639251709,-0.023378148674964905,-0.20222266018390656,-0.028525911271572113,-0.23063190281391144,1.7921429970175682,-0.5740017328467651,-2.4220666432774354
1687011868.9701781,0.8143540620803833,0.5512216091156006,0.1816091537475586,-0.016838371753692627,-0.03652745485305786,-0.011260047554969788,0.028544368222355843,-0.08239899575710297,-0.1438695788383484,1.7902159168519178,-0.5838276522866966,-2.419153607882969
1687011868.976557,0.8120465874671936,0.5553249716758728,0.17942816019058228,0.006373763084411621,-0.0595058798789978,0.00665283203125,-0.1278303861618042,-0.08696991205215454,-0.10429021716117859,1.7882601745328135,-0.5887536920519537,-2.4134300589880704
1687011869.033732,0.8124518990516663,0.5552050471305847,0.1779596358537674,-0.0028510093688964844,-0.02541983127593994,0.005969896912574768,-0.08342524617910385,-0.11539969593286514,-0.033212848007678986,1.7864309562999863,-0.5886094925643965,-2.406014363690579
1687011869.124627,0.8144325613975525,0.5525346994400024,0.17721468210220337,-0.00519794225692749,-0.0018144845962524414,0.035721778869628906,-0.12268102914094925,-0.08673236519098282,-0.03493138402700424,1.7850494191156239,-0.5854022348320123,-2.4003353870191595
1687011869.141489,0.8153934478759766,0.5507397055625916,0.17838062345981598,-0.02645289897918701,0.011317849159240723,0.02837599813938141,-0.057722944766283035,-0.029221396893262863,-0.03238380700349808,1.7861695997153813,-0.583250181608323,-2.3937263487728373
1687011869.180721,0.8128610253334045,0.5529030561447144,0.18318133056163788,0.0032249093055725098,0.0032492876052856445,0.023102298378944397,-0.1130455881357193,0.009968350641429424,-0.06056058406829834,1.7924475210363293,-0.5858442946354973,-2.3856560349274383
1687011869.276009,0.8094510436058044,0.5565104484558105,0.18731093406677246,0.0022403597831726074,-0.0012735724449157715,-0.0005891174077987671,-0.010293242521584034,0.02747170999646187,-0.020088789984583855,1.7981986232956175,-0.5901798300453527,-2.38203185957637
1687011869.29196,0.80848228931427,0.5566309690475464,0.19109812378883362,-0.00802147388458252,-0.007131457328796387,-0.0038880109786987305,0.004118386656045914,0.021467480808496475,0.0169437974691391,1.8029028713678341,-0.5903249293829012,-2.378372568220864
1687011869.3611221,0.8091865181922913,0.5553413033485413,0.1918679177761078,0.01068347692489624,0.045076727867126465,-0.009311795234680176,-0.04461965709924698,0.020522991195321083,-0.029372036457061768,1.8036089105140698,-0.588773349396495,-2.3789748638309263
1687011869.374996,0.8070501685142517,0.5575650334358215,0.1943998783826828,0.009584903717041016,0.05541104078292847,-0.02579021453857422,-0.05239428952336311,0.012636704370379448,-0.08696502447128296,1.8071704309767236,-0.5914496599974731,-2.374386918946195
1687011869.41581,0.8041545748710632,0.5619879961013794,0.19366216659545898,0.012099087238311768,-0.0036383867263793945,-0.004712581634521484,-0.058607980608940125,-0.017689509317278862,-0.07527054846286774,1.807123160979141,-0.5967872987545239,-2.374014462655726
1687011869.513686,0.8019803166389465,0.5651165246963501,0.1935739666223526,-0.01972329616546631,-0.020805001258850098,0.014418601989746094,0.009744714014232159,0.004369453527033329,-0.04570653662085533,1.807636261913483,-0.6005744880239525,-2.3697019869062843
1687011869.5300112,0.8011375069618225,0.5663121342658997,0.1935698688030243,0.01218646764755249,-0.05705004930496216,0.01697087287902832,0.04149731621146202,0.02366591989994049,0.003959287889301777,1.8078713701953688,-0.6020244004145148,-2.370348811477652
1687011869.569644,0.8027853965759277,0.5639633536338806,0.19360055029392242,0.0029398202896118164,-0.02960050106048584,0.004458576440811157,0.02062579058110714,0.008994165807962418,0.07239320874214172,1.807438825016116,-0.5991773660434152,-2.374260755562067
1687011869.661372,0.8066973090171814,0.5583236813545227,0.1936856061220169,-0.0010485649108886719,0.02569115161895752,-0.014120116829872131,0.11861953884363174,0.011483022943139076,0.08324212580919266,1.8064330278793046,-0.5923638171536241,-2.3772986129635876
1687011869.6776052,0.8085276484489441,0.5563807487487793,0.19163328409194946,-0.011912167072296143,0.030197560787200928,-0.009321227669715881,0.07486559450626373,0.021746179088950157,0.026555940508842468,1.80351708698205,-0.5900237493652781,-2.383295784903793
1687011869.718555,0.8077171444892883,0.5578763484954834,0.19070084393024445,-0.006279885768890381,0.021820247173309326,-0.029140740633010864,0.025739992037415504,0.008623720146715641,-0.012919827364385128,1.802649098185858,-0.5918247684154715,-2.3867517040394537
1687011869.873234,0.8060016632080078,0.561042070388794,0.1886616349220276,0.0061626434326171875,0.006294965744018555,-0.011201858520507812,0.04429975897073746,-0.026612963527441025,-0.006743689998984337,1.800727752650363,-0.5956441348469181,-2.3879414010486095
1687011869.879482,0.8056091666221619,0.562508225440979,0.185952290892601,-0.0004029273986816406,-0.01120823621749878,-0.010949268937110901,0.02400987036526203,-0.01572476141154766,0.011158077977597713,1.7976452492526929,-0.5974163842802818,-2.389792720328242
1687011869.962681,0.806344747543335,0.5618906021118164,0.18462683260440826,-0.003991901874542236,-0.014786779880523682,0.007038816809654236,-0.03724995627999306,-0.022889330983161926,0.013416704721748829,1.795883978738075,-0.5966695166097464,-2.3899659583382467
1687011869.9785352,0.8079177737236023,0.5600067377090454,0.18347054719924927,-0.006144702434539795,-0.00541079044342041,-0.008665800094604492,-0.002526533091440797,-0.023206114768981934,0.03109663352370262,1.794099749341833,-0.5943939035874224,-2.390806445248923
1687011870.058126,0.8090874552726746,0.5582683086395264,0.18361347913742065,0.003320932388305664,0.020146548748016357,0.0015519708395004272,0.0019434494897723198,-0.024378439411520958,0.018434900790452957,1.7939555384978576,-0.592297113523866,-2.3893343846605224
1687011870.073519,0.8092265725135803,0.5583616495132446,0.18271556496620178,-0.0051340460777282715,0.016208112239837646,0.0022515207529067993,-0.006095502059906721,-0.015195459127426147,0.0058996668085455894,1.792862924481165,-0.5924096181595303,-2.3884915204741355
1687011870.13768,0.8085233569145203,0.5594617128372192,0.18246284127235413,-0.004491984844207764,0.004670977592468262,0.0020312070846557617,-0.002186114899814129,-0.0024410481564700603,-0.01136400830000639,1.7927523662564544,-0.5937362180745179,-2.3891339277822867
1687011870.1413732,0.8075745701789856,0.5607882142066956,0.18259236216545105,-0.005145370960235596,0.007174432277679443,0.0010472536087036133,-0.03268031030893326,-0.01042134314775467,-0.024612966924905777,1.7931572329066587,-0.5953374830243855,-2.3880312423882426
1687011870.238097,0.8066699504852295,0.5616946220397949,0.18380126357078552,-0.004133820533752441,0.024334490299224854,-0.004357919096946716,-0.06947746872901917,-0.02318694069981575,-0.04339491203427315,1.7948235656624492,-0.5964326373270664,-2.383862146988616
1687011870.243562,0.8039355874061584,0.5653740167617798,0.18449890613555908,-0.006434977054595947,0.20504224300384521,-0.08998596668243408,-0.08359215408563614,-0.12124758958816528,-0.2352125495672226,1.7963846920190698,-0.6008865931673764,-2.3769767350378657
1687011870.3242478,0.7940387725830078,0.5804761648178101,0.18041503429412842,-0.04524433612823486,0.3056168556213379,-0.0692090094089508,-0.3171609044075012,-0.3376290202140808,-0.6191205382347107,1.7942150534716232,-0.6193133372032157,-2.359020452269455
1687011870.3291368,0.7733069658279419,0.6102511882781982,0.17201772332191467,-0.00040340423583984375,0.510644257068634,-0.01709519326686859,0.0049901725724339485,-0.31652602553367615,-1.020400881767273,1.7896768765890112,-0.6563776474783116,-2.3376603698912635
1687011870.38302,0.7344637513160706,0.6599191427230835,0.15833432972431183,-0.04543787240982056,0.6736074686050415,-0.03888845443725586,0.015618516132235527,-0.368394672870636,-1.6196843385696411,1.7831250198496538,-0.7207111298482474,-2.3205663849004576
1687011870.4770489,0.6676724553108215,0.7291975617408752,0.14994753897190094,0.06154501438140869,0.7076462507247925,-0.00590457022190094,-0.21464066207408905,-0.2787920832633972,-2.3833155632019043,1.79171334545565,-0.8171485720074102,-2.2832465234219645
1687011870.490197,0.5624693632125854,0.8141875267028809,0.1439674347639084,0.2885895371437073,0.6721251606941223,-0.0469978004693985,0.21418148279190063,-0.11990828812122345,-3.1007156372070312,1.8213727944737272,-0.9513285063358048,-2.2334421092691494
1687011870.530525,0.4214409589767456,0.8972894549369812,0.13137373328208923,0.5365058183670044,0.4481236934661865,-0.04467332363128662,0.19764909148216248,-0.25573083758354187,-3.445664167404175,1.872975101088585,-1.1135905380251174,-2.164512307519726
1687011870.623004,0.2687312960624695,0.9589522480964661,0.09052173048257828,0.581076443195343,0.35107582807540894,-0.002600550651550293,1.5704659223556519,-0.35235846042633057,-3.207728624343872,1.8957071763537723,-1.2832840061411832,-2.1226348632894094
1687011870.629364,0.1052938848733902,0.9932273626327515,0.049119848757982254,0.717429518699646,0.06402373313903809,0.18961918354034424,-0.3302493393421173,-0.5408768057823181,-3.496049404144287,2.0072885840387538,-1.4543463499793587,-1.985193535780389
1687011870.714223,-0.07049790769815445,0.9955770373344421,0.06210112199187279,0.6226066946983337,0.12046605348587036,0.17521882057189941,0.29912683367729187,-0.05571385473012924,-3.5746495723724365,-2.2929542991343004,-1.4767088441395948,0.017983397649518406
1687011870.730737,-0.25257962942123413,0.9670911431312561,0.03063087910413742,0.6337441802024841,0.13087022304534912,0.24355435371398926,0.6279520392417908,0.3666369915008545,-3.845973253250122,-1.6914791748788793,-1.3135379875392026,0.6156255099915348
1687011870.805479,-0.435912162065506,0.8999890685081482,-0.0001377168227918446,0.6810752153396606,0.12295997142791748,0.22837871313095093,0.2858445346355438,0.5169668793678284,-4.038219928741455,-1.5704803988752898,-1.1197444238034007,0.722427657177761
1687011870.892729,-0.6113666892051697,0.7905080318450928,-0.03643964231014252,0.6675494909286499,0.13046669960021973,0.2877671718597412,0.8929328918457031,0.8400538563728333,-4.261179447174072,-1.5112631781529626,-0.9116380909818667,0.757046228324964
1687011870.910561,-0.766969621181488,0.6329129338264465,-0.10573005676269531,0.752962052822113,0.07877224683761597,0.2709827423095703,0.9218254685401917,0.9117001891136169,-4.610086917877197,-1.4338054564502642,-0.6853098657609148,0.7994819856449067
1687011870.980531,-0.8851420879364014,0.43327659368515015,-0.16968998312950134,0.7149914503097534,0.14773225784301758,0.23835457861423492,0.8720003366470337,1.0041483640670776,-4.752551555633545,-1.3813851429504949,-0.4481251808721317,0.8050416808979953
1687011870.9948502,-0.9527881145477295,0.20323820412158966,-0.22558586299419403,0.7080981731414795,0.15102510154247284,0.22059625387191772,0.5952343344688416,0.9354948997497559,-4.905701160430908,-1.3383134071850353,-0.20466401972585252,0.7934346323907009
1687011871.070854,-0.9606198072433472,-0.0429592989385128,-0.2745252251625061,0.7072781324386597,0.1821957528591156,0.13087907433509827,1.2334004640579224,0.9193084239959717,-4.877105712890625,-1.292436583336947,0.04297252212657093,0.7719068368394864
1687011871.0752091,-0.9062483310699463,-0.2881680130958557,-0.30931058526039124,0.6957228779792786,0.10643589496612549,0.2470090091228485,0.9607067704200745,0.9519639611244202,-4.8415141105651855,-1.2418850371203594,0.29231315525192514,0.7616265331577904
1687011871.223881,-0.7956723570823669,-0.5032092928886414,-0.33717337250709534,0.6311520934104919,0.11424756050109863,0.10241696238517761,-0.2000211626291275,0.8170557022094727,-4.9150190353393555,-1.1699772119963725,0.5273085302740782,0.684559513203914
1687011871.22961,-0.6403297185897827,-0.6551679372787476,-0.40091514587402344,0.5464728474617004,-0.09719717502593994,0.007558763027191162,-2.2947475910186768,0.6760950684547424,-4.769196033477783,-1.0114011278868034,0.7144049279847373,0.4758835129495715
1687011871.2857242,-0.4691315293312073,-0.7381414175033569,-0.484832763671875,0.558059811592102,-0.18680059909820557,-0.1618194580078125,-1.0238628387451172,0.7368369102478027,-4.149133682250977,-0.7689407446800195,0.8303112668838366,0.18203546386226688
1687011871.289882,-0.3137439489364624,-0.8074774742126465,-0.49954453110694885,0.4053272306919098,-0.41823047399520874,0.004686802625656128,0.6564708948135376,1.0250533819198608,-2.6811766624450684,-0.5607967606168257,0.9398633064762204,-0.027987015399309718
1687011871.293087,-0.20906171202659607,-0.8544599413871765,-0.4755958020687103,0.28680527210235596,-0.4934709072113037,-0.1139121949672699,0.9945674538612366,0.8291863799095154,-1.2978609800338745,-0.4141537275237888,1.0245103782578295,-0.14428050475456172
1687011871.339731,-0.16476517915725708,-0.8890612125396729,-0.4271094501018524,0.11576920747756958,-0.3252636790275574,-0.1716148555278778,1.5202232599258423,0.359983891248703,-0.04004332423210144,-0.368177569258697,1.0952903957402447,-0.1617836887495124
1687011871.404814,-0.15969930589199066,-0.9131590723991394,-0.3750157356262207,0.013764232397079468,-0.11709922552108765,-0.17451435327529907,0.9791068434715271,0.11473377794027328,0.1202629953622818,-0.40258781150464257,1.150968317553767,-0.11139378708947353
1687011871.465095,-0.16341517865657806,-0.9287639856338501,-0.3327057361602783,0.020547136664390564,0.0018383264541625977,-0.01778864860534668,0.9598403573036194,-0.24646782875061035,-0.08576446771621704,-0.4565589564884516,1.191064201742532,-0.060039911256036214
1687011871.522454,-0.16179274022579193,-0.9443507790565491,-0.28639906644821167,-0.03504560887813568,-0.0742037296295166,0.036505937576293945,0.6101931929588318,0.04347704350948334,0.009042729623615742,-0.5142263604118121,1.2356153929838176,0.0009874017633840094
1687011871.592112,-0.16278979182243347,-0.9463006854057312,-0.27931103110313416,0.023278653621673584,-0.10184085369110107,0.026717066764831543,0.2040299028158188,-0.01906369999051094,0.09786767512559891,-0.527695975408972,1.2415944250032758,0.015013831812511227
1687011871.606391,-0.16617007553577423,-0.948918342590332,-0.2682192325592041,-0.02946285903453827,-0.01800060272216797,-0.002929389476776123,-0.05461856350302696,0.03817455470561981,0.020184863358736038,-0.5546567289419683,1.2497898326507686,0.04279512136421523
1687011871.637238,-0.16869017481803894,-0.947044849395752,-0.2732205390930176,0.015034154057502747,0.039009690284729004,-0.056308239698410034,0.1072528287768364,-0.06539750844240189,0.0977369174361229,-0.5531255549453742,1.2439041596872966,0.04042479954385685
1687011871.702496,-0.17199961841106415,-0.9480465650558472,-0.2676263451576233,-0.008374512195587158,-0.005032658576965332,0.0021692514419555664,0.005700237583369017,0.004435100592672825,0.011173524893820286,-0.5712161334885767,1.2470382231354862,0.05614257302974665
1687011871.761205,-0.17369095981121063,-0.9471678137779236,-0.26963797211647034,-0.011337116360664368,-0.010397493839263916,-0.018875181674957275,0.0026920640375465155,-0.12493007630109787,0.01953771337866783,-0.5722613108927621,1.2442872490446355,0.05537950254424646
1687011871.828683,-0.1744428128004074,-0.9449886083602905,-0.27670612931251526,-0.017024487257003784,-0.04237711429595947,0.057269513607025146,-0.23772859573364258,-0.00919482484459877,0.026070181280374527,-0.5624918551239855,1.2375598204062628,0.04163780543288138
1687011871.916362,-0.17756378650665283,-0.9432551264762878,-0.2806081771850586,0.003674626350402832,-0.013455688953399658,-0.012040138244628906,-0.03346654027700424,-0.10041075199842453,0.017095062881708145,-0.5641757724623588,1.2323001759641103,0.040303215304816696
1687011871.9337912,-0.18039710819721222,-0.9406819939613342,-0.2873572111129761,0.007743924856185913,0.013847947120666504,0.010379701852798462,-0.15178225934505463,-0.08228527754545212,0.07074764370918274,-0.5605959123559338,1.2246348189039038,0.03142522348854587
1687011872.005886,-0.18551191687583923,-0.938980221748352,-0.2896578013896942,0.046168625354766846,-0.0232391357421875,-0.026840001344680786,-0.10531829297542572,-0.11087790876626968,0.12603139877319336,-0.5696337500226524,1.2196534797408558,0.036825510112984225
1687011872.096729,-0.19550679624080658,-0.9286912679672241,-0.3151344358921051,0.027446478605270386,-0.04262220859527588,0.00474017858505249,-0.8791503310203552,-0.1606244295835495,0.24129247665405273,-0.5552786138898242,1.1908681505865593,0.01284541694008074
1687011872.1136851,-0.21383051574230194,-0.9238689541816711,-0.31739985942840576,0.08034659922122955,-0.009877324104309082,0.03083980083465576,0.22659985721111298,0.016802819445729256,0.39313313364982605,-0.5928522013372581,1.1780696668969923,0.049965549859722715
1687011872.183804,-0.237208291888237,-0.9142415523529053,-0.32847297191619873,0.1608991026878357,-0.13385409116744995,-0.1188078224658966,-0.6606860756874084,-0.4284561276435852,0.6402321457862854,-0.6254406237099549,1.1536320049034425,0.07796981563266328
1687011872.198546,-0.2883160412311554,-0.9024009108543396,-0.32022908329963684,0.1172344982624054,-0.09512728452682495,-0.05397745966911316,0.6043242812156677,-0.3081617057323456,1.1954436302185059,-0.7330046578664926,1.125309288374988,0.1732953702042623
1687011872.2729049,-0.3538203239440918,-0.8796479105949402,-0.31785354018211365,0.2458491027355194,-0.12468570470809937,-0.0071891844272613525,-0.22076092660427094,-0.27087917923927307,1.7390486001968384,-0.8388950871990316,1.0751214052300555,0.27896659828924
1687011872.276685,-0.4521908462047577,-0.8318048119544983,-0.3219068944454193,0.5075498223304749,-0.29249322414398193,0.010368287563323975,-0.8094329237937927,-0.31083762645721436,2.580674648284912,-0.952139740638267,0.982351277281425,0.39525435059885394
1687011872.366576,-0.587628185749054,-0.7237424254417419,-0.3617871403694153,0.6981781721115112,-0.4410982131958008,-0.08608880639076233,-1.3928141593933105,-0.7570099234580994,4.052245616912842,-1.0189318187543486,0.8092102312795014,0.4471114310018506
1687011872.383654,-0.7595549821853638,-0.5317421555519104,-0.3746017515659332,1.0108673572540283,-0.4278983473777771,0.009336918592453003,-2.0456504821777344,-1.3261470794677734,5.5285210609436035,-1.112614909469024,0.5606563136286248,0.5112058594456356
1687011872.4199781,-0.9089948534965515,-0.24024257063865662,-0.340605229139328,1.1738264560699463,-0.20867100358009338,-0.015916407108306885,-1.8406271934509277,-2.2103238105773926,6.438639163970947,-1.2122840117162803,0.24261573003777598,0.5387317113449754
1687011872.514042,-0.9672139883041382,0.09674331545829773,-0.23481419682502747,1.4483084678649902,0.015256188809871674,0.13145120441913605,-1.4561675786972046,-2.827011823654175,6.743321418762207,-1.3326303025480684,-0.09689485884638493,0.5524882658658721
1687011872.5308828,-0.9005677103996277,0.42778709530830383,-0.07730428874492645,1.267770528793335,0.14490577578544617,0.16870445013046265,-0.11650782823562622,-3.2925829887390137,7.088148593902588,-1.4851667228963434,-0.44204313619963076,0.573606974150039
1687011872.572875,-0.6907742619514465,0.7216372489929199,0.045503828674554825,1.5289090871810913,0.2919430732727051,0.37837016582489014,-0.06795580685138702,-2.6986002922058105,7.41510009765625,-1.6365749514065446,-0.8061644638720965,0.5644311213573135
1687011872.6605291,-0.38189059495925903,0.9193764925003052,0.09437348693609238,1.2577146291732788,0.39896756410598755,0.2848074436187744,0.7121538519859314,-2.4164626598358154,7.006199836730957,-1.813064240774625,-1.166492471375635,0.5149645055889318
1687011872.676177,-0.03589046373963356,0.9945517778396606,0.09787170588970184,1.4471606016159058,0.5404825210571289,0.30961430072784424,0.5916100144386292,-2.4919533729553223,6.724240303039551,-2.7901102875910793,-1.4663626157059062,-0.3576566205469923
1687011872.7208462,0.2743876576423645,0.9598300457000732,0.05862982198596001,0.8256183862686157,0.7059718370437622,0.3754369020462036,0.27272829413414,-1.8235825300216675,5.41517448425293,1.781305826065032,-1.2863958448013304,-1.9718040478871677
1687011872.813658,0.4906300902366638,0.8708816170692444,0.029111037030816078,0.7208109498023987,0.8778976798057556,0.28515899181365967,0.5090189576148987,-0.8954550623893738,4.025213241577148,1.6300608276352389,-1.0569932442529952,-2.071374955025371
1687011872.830206,0.6376965045928955,0.7702872157096863,-0.0007341424934566021,0.2545611262321472,0.6390907168388367,0.418474018573761,0.36407363414764404,0.19906702637672424,3.159491777420044,1.5696450861090725,-0.8792914287294542,-2.127058680735125
1687011872.87007,0.7449323534965515,0.667127251625061,-0.0041330717504024506,0.257921040058136,0.796129584312439,0.29327189922332764,0.5699175596237183,0.5273956656455994,2.822265386581421,1.5652481329492596,-0.7303457678105703,-2.1584087642062286
1687011872.9685411,0.8221225738525391,0.5692902207374573,0.004804390482604504,-0.06687361001968384,0.9569090604782104,0.3957388401031494,1.3625084161758423,1.414654016494751,2.0343017578125,1.5766401461160615,-0.6056422696036665,-2.2111502477532734
1687011872.973434,0.8624364733695984,0.5051542520523071,0.03197547420859337,0.048162221908569336,0.8800080418586731,-0.09397196769714355,1.6926325559616089,1.855224370956421,0.9833276867866516,1.60785509845781,-0.529560656230314,-2.320844681950752
1687011873.0191731,0.8687922358512878,0.48875415325164795,0.07949583977460861,-0.03607434034347534,0.584152340888977,-0.24459588527679443,0.8603667616844177,1.5080362558364868,-0.05272876098752022,1.6620437841075704,-0.5106611542336259,-2.383662309844616
1687011873.144557,0.8553460240364075,0.5061883330345154,0.11025641113519669,0.06730711460113525,0.14774227142333984,-0.362041711807251,0.25070419907569885,0.7292121052742004,-0.48983871936798096,1.6989921171693536,-0.5307593245996702,-2.4191138968061257
1687011873.1638079,0.8379887938499451,0.5284015536308289,0.13625851273536682,0.14901059865951538,-0.16171765327453613,-0.24377192556858063,-0.2606391906738281,0.37273427844047546,-0.4980825185775757,1.7319874330029688,-0.5567166961229343,-2.4095126734813883
1687011873.232538,0.8283377289772034,0.5407172441482544,0.14656589925289154,0.07153409719467163,-0.2133704423904419,-0.14679479598999023,-0.10296585410833359,0.03979402408003807,-0.14270232617855072,1.7459235198462693,-0.5712894909312183,-2.400091399985983
1687011873.248054,0.8267201781272888,0.541385293006897,0.1530868262052536,0.037018775939941406,-0.16939133405685425,-0.08213342726230621,-0.4134431481361389,-0.09606607258319855,0.018727581948041916,1.7538960302304458,-0.5720838772762197,-2.380207077401031
1687011873.318012,0.8287420272827148,0.5373525023460388,0.1563297063112259,0.039772987365722656,-0.03951925039291382,-0.018481850624084473,-0.32677340507507324,-0.11918231099843979,0.021888751536607742,1.757240449857496,-0.5672946900528558,-2.364335667538592
1687011873.3337178,0.8296583294868469,0.5347169637680054,0.16045165061950684,-0.0370558500289917,0.061962664127349854,0.013788461685180664,-0.260280579328537,-0.08086621761322021,-0.013055115938186646,1.7618327782439258,-0.5641728020692632,-2.344231569732045
1687011873.409377,0.8280130624771118,0.5356232523918152,0.16583764553070068,-0.014750123023986816,0.07297354936599731,0.008921265602111816,-0.24272741377353668,-0.023154715076088905,-0.10539010167121887,1.7684648010488717,-0.5652456496341995,-2.329037112562628
1687011873.4246678,0.8243406414985657,0.5397292971611023,0.17074793577194214,0.016571223735809326,0.054142773151397705,0.030835986137390137,-0.17391186952590942,-0.00666628684848547,-0.17888589203357697,1.7750407880309549,-0.5701154861290407,-2.314420288471898
1687011873.46906,0.8189419507980347,0.5471153259277344,0.17320233583450317,-0.025729060173034668,-0.014110565185546875,0.013733148574829102,-0.0593770295381546,0.016810011118650436,-0.1533576250076294,1.7792201792484068,-0.5789141097024904,-2.307755833368465
1687011873.5619268,0.8138639330863953,0.5527567863464355,0.17912350594997406,-0.0071776509284973145,-0.03185230493545532,0.012770995497703552,-0.25532078742980957,-0.02254951186478138,-0.13151384890079498,1.7874326966440872,-0.5856687293344265,-2.2924067650238893
1687011873.578638,0.8107265830039978,0.5560367703437805,0.18315400183200836,0.019336223602294922,0.017418980598449707,-0.013888254761695862,-0.08900463581085205,0.02793150581419468,-0.1350041925907135,1.792979981265709,-0.5896098501382612,-2.2830957894141055
1687011873.6195688,0.8096867799758911,0.5564191937446594,0.18656054139137268,0.029332876205444336,0.0081559419631958,0.0005732625722885132,-0.08740334212779999,-0.055896416306495667,-0.07589719444513321,1.7972547930061349,-0.5900700097833159,-2.27453192292498
1687011873.7469,0.808604896068573,0.5592676401138306,0.18269594013690948,-0.027309179306030273,0.03371936082839966,0.01194523274898529,-0.00037429947406053543,-0.05453021451830864,-0.12635451555252075,1.793004988929381,-0.5935020766727166,-2.2736728221962954
1687011873.764309,0.8047040104866028,0.5648975372314453,0.18259775638580322,-0.032060086727142334,0.0007303953170776367,0.03288683295249939,-0.04156268388032913,0.036150019615888596,-0.1670801043510437,1.7939307943421903,-0.6003090846290587,-2.269851795150201
1687011873.830226,0.7973971366882324,0.5733551383018494,0.18820688128471375,0.009014725685119629,-0.0035614371299743652,0.038843899965286255,-0.11461858451366425,0.0672508180141449,-0.1895928680896759,1.8025808702012884,-0.6105951387285287,-2.2618495368615217
1687011873.846006,0.7901722192764282,0.5805668830871582,0.19639214873313904,-0.018962562084197998,-0.012833237648010254,-0.00648130476474762,0.09764654189348221,0.1280774176120758,-0.1678348332643509,1.8144036765085054,-0.6194247809480437,-2.2554459235687125
1687011873.91973,0.7855175137519836,0.5846615433692932,0.20281323790550232,0.06258124113082886,-0.023595869541168213,-0.003762364387512207,-0.03996292129158974,0.06747385114431381,-0.10082491487264633,1.8234688100275744,-0.6244627963835853,-2.2516537320227807
1687011873.923442,0.7834907174110413,0.5870370864868164,0.20378945767879486,0.03039795160293579,-0.0008248686790466309,-0.03130409121513367,-0.015609512105584145,-0.014418881386518478,-0.05870968848466873,1.8252622670700698,-0.6273940273263132,-2.2500696230335047
1687011874.013739,0.7831146121025085,0.5886223316192627,0.20063738524913788,-0.040942370891571045,0.017700910568237305,-0.0393977165222168,0.22813516855239868,0.04993068054318428,-0.06758599728345871,1.8216058161136772,-0.6293535776990898,-2.2566237004559513
1687011874.031728,0.7804657816886902,0.5932937264442444,0.19716954231262207,-0.012918055057525635,-0.040803492069244385,-0.06249544024467468,-0.08714934438467026,-0.05733359232544899,-0.127251997590065,1.8182493213313344,-0.6351443886741053,-2.2618483211127605
1687011874.069531,0.7780067920684814,0.596173882484436,0.19819775223731995,0.008660197257995605,-0.04025036096572876,-0.04983648657798767,-0.23310647904872894,-0.1514756679534912,-0.0734071359038353,1.8202411850429132,-0.6387269640797828,-2.248242475583138
1687011874.163789,0.7795741558074951,0.5949268341064453,0.19577154517173767,0.026471495628356934,-0.023057878017425537,-0.001176208257675171,-0.07540939003229141,-0.1660226434469223,0.03024015948176384,1.8168347291759062,-0.6371746453886953,-2.2379831667355297
1687011874.1806111,0.783795952796936,0.5920162200927734,0.1875651776790619,-0.003903985023498535,0.0052127838134765625,0.029063940048217773,0.05617799237370491,-0.09899954497814178,0.03962806984782219,1.805682712480244,-0.6335582590003247,-2.2436005256511744
1687011874.218818,0.7856701612472534,0.5900218486785889,0.18600131571292877,-0.04839605093002319,0.004094302654266357,0.03450344502925873,-0.02606315165758133,-0.008666320703923702,0.009886684827506542,1.8032587076750743,-0.6310859083855852,-2.2435679882000827
1687011874.312726,0.7850049734115601,0.5898350477218628,0.18937234580516815,0.011320710182189941,0.016076207160949707,0.03325343132019043,0.021713759750127792,0.04215278476476669,0.018185626715421677,1.807510733436158,-0.6308545400168728,-2.241424268781663
1687011874.32908,0.7826040983200073,0.5910029411315918,0.1955675482749939,0.0019114017486572266,0.01648002862930298,0.010273605585098267,-0.03350655362010002,0.0836031585931778,-0.0038184737786650658,1.8156745847313998,-0.6323015918525696,-2.237970988716836
1687011874.37087,0.7811223864555359,0.5916223526000977,0.19957682490348816,-0.03388422727584839,0.017569541931152344,-0.038154006004333496,-0.026945125311613083,0.015339281409978867,-0.02288351207971573,1.8209447940163643,-0.6330696790848042,-2.2359476496537805
1687011874.4626288,0.7800925374031067,0.592365562915802,0.20139144361019135,-0.004656195640563965,0.0016131997108459473,-0.016927972435951233,-0.04956454783678055,-0.012604470364749432,0.004735865630209446,1.8234434275574425,-0.6339918618655599,-2.2311974776445678
1687011874.4793,0.7794222235679626,0.5940895080566406,0.19889423251152039,0.015865981578826904,0.01426321268081665,0.0007670223712921143,0.05955015495419502,0.02297842502593994,0.006640824489295483,1.8206458423120178,-0.6361332508391294,-2.2327454079435736
1687011874.5187259,0.7785459756851196,0.5955755114555359,0.1978793740272522,-0.027630329132080078,-0.009195446968078613,-0.008563488721847534,-0.015962714329361916,0.010372085496783257,-0.024783676490187645,1.8196914234784614,-0.637981901986646,-2.2350958273814943
1687011874.5820498,0.777743399143219,0.5961669683456421,0.19924969971179962,0.013562262058258057,-0.010916054248809814,0.012740761041641235,-0.09353993088006973,0.010652249678969383,-0.015880463644862175,1.821591862414581,-0.6387183856209032,-2.2327894683522462
1687011874.6786861,0.7764604687690735,0.5967899560928345,0.20236414670944214,0.016859352588653564,0.006344258785247803,-0.014467328786849976,0.08131010830402374,0.05138516426086426,0.004895654506981373,1.8257486659304027,-0.6394945390924968,-2.2292616835671337
1687011874.693623,0.7771145105361938,0.596015214920044,0.20213532447814941,-0.0038602352142333984,-0.02532130479812622,-0.006273537874221802,0.008093753829598427,-0.012280762195587158,0.009321029298007488,1.8252675093510995,-0.6385293853694234,-2.232694798277577
1687011874.759678,0.778272271156311,0.5949419140815735,0.2008390724658966,0.02176123857498169,-0.008561909198760986,-0.01613140106201172,0.054169170558452606,0.020193956792354584,0.039105821400880814,1.823344103297585,-0.6371933437689967,-2.235918050433331
1687011874.7756891,0.7800636291503906,0.5928062796592712,0.20020315051078796,-0.0004768967628479004,-0.005373477935791016,0.0026167482137680054,0.03281833976507187,0.006744193844497204,0.04402494803071022,1.8220237344368093,-0.634538925697743,-2.2383999875517024
1687011874.8163671,0.7828385829925537,0.5902708172798157,0.19683510065078735,0.017011821269989014,0.04818737506866455,0.014071926474571228,0.11208439618349075,0.016715869307518005,0.056512776762247086,1.817127621456249,-0.6313943172050733,-2.2458317178648604
1687011874.911965,0.7828603982925415,0.5901510715484619,0.19710764288902283,-0.026390671730041504,0.045194387435913086,0.014089345932006836,0.016078775748610497,0.04032132774591446,-0.030328646302223206,1.8174484370171964,-0.6312459649551286,-2.2477907168986087
1687011874.9281611,0.7803421020507812,0.5933902263641357,0.19736874103546143,0.00467681884765625,0.15789151191711426,-0.045345425605773926,0.07710743695497513,0.006924889516085386,-0.13468781113624573,1.8185269008079883,-0.6352642495451348,-2.249235445937681
1687011875.001342,0.7724518179893494,0.6041345000267029,0.19580508768558502,-0.01213693618774414,0.26296138763427734,-0.10051394999027252,-0.2626290023326874,-0.2684173583984375,-0.4531922936439514,1.8190524456009531,-0.648679336638747,-2.2379849884001146
1687011875.093657,0.7554764747619629,0.6263719797134399,0.19212886691093445,-0.05686807632446289,0.37596261501312256,-0.08386778831481934,-0.43807241320610046,-0.45905107259750366,-0.9042167663574219,1.819831863301488,-0.6768903009747249,-2.2059970511151175
1687011875.113431,0.7260293364524841,0.6619788408279419,0.18618594110012054,-0.041642189025878906,0.5431907773017883,-0.06179632246494293,0.0016429784009233117,-0.426295667886734,-1.2074825763702393,1.821830770353068,-0.7234557898064606,-2.1681142285367185
1687011875.184839,0.6785063147544861,0.7155690789222717,0.16610167920589447,0.04297494888305664,0.5457528829574585,-0.003458276391029358,0.005210415460169315,-0.32759222388267517,-1.820466160774231,1.8108795514886085,-0.7974384252898038,-2.1578217993438207
1687011875.200856,0.6030021905899048,0.7819660305976868,0.1578523963689804,0.15148383378982544,0.5012675523757935,0.015441641211509705,0.3444262742996216,-0.22408130764961243,-2.2587008476257324,1.8268285930876889,-0.8978137340071408,-2.1169171195887855
1687011875.304662,0.5034891963005066,0.8533660173416138,0.1351490169763565,0.2833303213119507,0.3864412307739258,0.07632257044315338,0.0028617074713110924,-0.37144824862480164,-2.6761679649353027,1.8330394823554839,-1.0224084112710965,-2.0925976655189005
1687011875.309552,0.3825547397136688,0.9146102666854858,0.1309201866388321,0.28452906012535095,0.4976060390472412,0.1287386566400528,0.16868828237056732,-0.24117346107959747,-2.94344162940979,1.9005288163598049,-1.1545430196317534,-1.9961115240441278
1687011875.393684,0.22790776193141937,0.9681021571159363,0.10409713536500931,0.5141118764877319,0.5645058155059814,0.2130568027496338,0.5696036219596863,0.22188898921012878,-3.627007007598877,1.999250317251762,-1.3175420015685153,-1.8923354063990763
1687011875.412966,0.03876534476876259,0.9942238330841064,0.10008063167333603,0.6576610803604126,0.2987601161003113,0.26954829692840576,-0.17103472352027893,0.5531120896339417,-3.9313912391662598,2.7720465039709916,-1.463262785957342,-1.128000822779918
1687011875.480188,-0.16399073600769043,0.9812500476837158,0.10126840323209763,0.7336928844451904,0.2075468897819519,0.21712160110473633,0.20600470900535583,0.963672399520874,-4.083944320678711,-2.1240024196296754,-1.3768434608325217,0.23046446035073842
1687011875.496787,-0.36889931559562683,0.9274446368217468,0.06131647899746895,0.8349485397338867,0.16458112001419067,0.18920230865478516,0.666046142578125,1.2608227729797363,-4.2826104164123535,-1.7355051952811835,-1.1875206069314028,0.5734745582636511
1687011875.5691218,-0.5614920258522034,0.8274596929550171,0.006118705030530691,0.8435506224632263,-0.02470993995666504,0.16676342487335205,0.5067657828330994,1.160391926765442,-4.337330341339111,-1.5816931208344047,-0.974568508970106,0.6784777096324611
1687011875.58503,-0.7216635346412659,0.6901553869247437,-0.053732939064502716,0.7697744965553284,-0.028412222862243652,0.09783083200454712,0.7961537837982178,1.165838360786438,-4.148606300354004,-1.4964764136724964,-0.7617037270973611,0.7141978991860639
1687011875.6593509,-0.8412951231002808,0.5253170728683472,-0.1275317668914795,0.6802692413330078,-0.05379003286361694,0.11059458553791046,0.9709039926528931,1.1536778211593628,-4.0551958084106445,-1.4203519288143074,-0.5530877266525468,0.7397892963524589
1687011875.6631079,-0.9177709817886353,0.34224045276641846,-0.20141467452049255,0.5909124612808228,-0.09045517444610596,0.13307052850723267,1.2104673385620117,1.0367611646652222,-3.8441221714019775,-1.3547604714508754,-0.34930030556314334,0.7638360055325221
1687011875.7216449,-0.9542990326881409,0.14709235727787018,-0.2601480782032013,0.6297904849052429,0.05185173451900482,0.18519696593284607,0.6328610777854919,0.9676320552825928,-4.081272602081299,-1.304656738986263,-0.14762800969583278,0.7609971429226428
1687011875.844069,-0.9483402967453003,-0.06272900849580765,-0.3109915852546692,0.6416538953781128,0.16748060286045074,0.1262381672859192,1.4938193559646606,0.9800422191619873,-4.150012969970703,-1.253914391185544,0.06277022358631934,0.7483634853301862
1687011875.862678,-0.8937326669692993,-0.2840403616428375,-0.3472217321395874,0.6024882197380066,0.1582469642162323,0.2849048674106598,0.31211280822753906,1.0369832515716553,-4.660940647125244,-1.2002364678544855,0.2880054271569926,0.7271983732627516
1687011875.9620051,-0.7890046834945679,-0.4845365583896637,-0.37775102257728577,0.48205894231796265,0.015115231275558472,-0.015300065279006958,0.716728150844574,0.6967094540596008,-4.603376388549805,-1.1242772845579265,0.5058333104430082,0.6412398409833377
1687011875.9803839,-0.6491935849189758,-0.6505285501480103,-0.3941579759120941,0.48735880851745605,-0.04441779851913452,0.09592491388320923,-0.5991091132164001,0.37089136242866516,-4.550363063812256,-1.0251359314154707,0.7082801282474293,0.511447405554986
1687011876.054641,-0.4905592203140259,-0.7678043842315674,-0.4121020436286926,0.4694715738296509,-0.07731890678405762,-0.10810059309005737,0.7508478164672852,0.1992633193731308,-3.9603357315063477,-0.8720978882947267,0.8754070726750254,0.3180240324981821
1687011876.0584102,-0.34343475103378296,-0.8620466589927673,-0.3727308213710785,0.35075893998146057,-0.43353134393692017,0.19508802890777588,0.9629046320915222,0.4118073880672455,-2.9437546730041504,-0.7445140920343708,1.0392940539073636,0.17692645393473283
1687011876.1465778,-0.22882889211177826,-0.9221467971801758,-0.3119014799594879,0.07471512258052826,-0.49119848012924194,0.10302397608757019,2.513319730758667,1.0401126146316528,-1.5762252807617188,-0.6329596571953016,1.1735938109483737,0.0944362388724757
1687011876.165091,-0.16945475339889526,-0.9625775814056396,-0.21149401366710663,0.14099709689617157,-0.8008197546005249,0.0026774704456329346,1.4293251037597656,0.6060980558395386,-0.12194537371397018,-0.6754887503491823,1.2963580926210119,0.19417383172103725
1687011876.232064,-0.16152246296405792,-0.9631139039993286,-0.21522589027881622,0.03679710626602173,-0.06323802471160889,-0.1521141529083252,0.31368255615234375,0.06644973158836365,-0.07506974786520004,-0.6438074383570087,1.2983440071592114,0.16578471436689018
1687011876.2484179,-0.15770509839057922,-0.9709501266479492,-0.17995767295360565,0.010091572999954224,0.02716362476348877,-0.08459918200969696,0.6454548239707947,-0.03125285729765892,-0.011428723111748695,-0.7195915532568313,1.3291700910013056,0.24660034407045126
1687011876.356113,-0.1572386920452118,-0.9751287698745728,-0.15620474517345428,0.039486587047576904,-0.025832533836364746,0.03331047296524048,0.43741586804389954,0.024237699806690216,-0.020554576069116592,-0.7886967805286585,1.3473013828308755,0.31743743946716196
1687011876.361095,-0.15922319889068604,-0.9770871996879578,-0.14123931527137756,0.02290116250514984,-0.05805373191833496,-0.03098660707473755,0.0445440411567688,-0.037112075835466385,0.04673231765627861,-0.8451808102035624,1.3563164021970966,0.37543141759329124
1687011876.478849,-0.1599600464105606,-0.9777402877807617,-0.13578170537948608,-0.024579733610153198,-0.0014619231224060059,-0.04637770354747772,0.29845649003982544,0.03801090270280838,0.044898465275764465,-0.86697165376091,1.35940661773129,0.39841091591929334
1687011876.4948292,-0.16099978983402252,-0.9787774085998535,-0.1267835944890976,-0.001979336142539978,-0.011792778968811035,-0.052919164299964905,-0.09358034282922745,-0.048825591802597046,-0.028093187138438225,-0.9037382753129383,1.3644079271552225,0.43574888354182695
1687011876.498312,-0.16182498633861542,-0.9773876667022705,-0.13611051440238953,0.0016534924507141113,0.009919404983520508,0.002794519066810608,-0.0003814899828284979,-0.042642660439014435,0.002238885499536991,-0.8714936586894639,1.3577325376348808,0.4003580564232343
1687011876.5586538,-0.16040529310703278,-0.976773738861084,-0.1420673280954361,-0.006266459822654724,-0.00981372594833374,-0.04125170409679413,-0.14631405472755432,-0.02168678119778633,-0.02138148993253708,-0.8459509288669959,1.3548485217449122,0.3741387450842434
1687011876.562492,-0.16212506592273712,-0.9757369160652161,-0.14715006947517395,0.02520790696144104,-0.01785445213317871,-0.018880799412727356,-0.10772065818309784,-0.11623472720384598,0.012138121761381626,-0.8337800334578084,1.3500619588874967,0.3572531765208351
1687011876.623797,-0.16414117813110352,-0.9757866263389587,-0.14456242322921753,-0.0005316883325576782,0.03172534704208374,0.01342839002609253,0.14230088889598846,-0.0474117174744606,0.052182745188474655,-0.8487358081084739,1.3502890037787294,0.3693274639030235
1687011876.715541,-0.16491982340812683,-0.9760273098945618,-0.1420288383960724,-0.010159522294998169,0.03166085481643677,0.049362242221832275,0.0537506528198719,-0.06153818964958191,-0.01866959221661091,-0.8598362667731497,1.3513920479860955,0.37664120179991684
1687011876.730612,-0.16321848332881927,-0.9766249060630798,-0.1398700475692749,-0.014653235673904419,-0.003447115421295166,0.0005420446395874023,0.04314195364713669,-0.0300670824944973,-0.03686297684907913,-0.8622813833115394,1.35415500436415,0.3776262912999664
1687011876.802732,-0.16283157467842102,-0.9769311547279358,-0.13817161321640015,0.02441909909248352,-0.014554381370544434,-0.00504736602306366,-0.10036520659923553,-0.05773559585213661,-0.046763014048337936,-0.8671415264573858,1.3555844184689276,0.3802766225074824
1687011876.893435,-0.1631108671426773,-0.9773088097572327,-0.13513807952404022,0.0362187922000885,-0.008241057395935059,-0.05428449809551239,0.1501530259847641,-0.07363972067832947,0.04174261912703514,-0.878914629921427,1.3573600339993623,0.3899652793575465
1687011876.897568,-0.16777272522449493,-0.9761239886283875,-0.13796530663967133,0.04240649938583374,-0.03391629457473755,-0.01971900463104248,-0.3114568889141083,-0.15698668360710144,0.12179377675056458,-0.8825843595991035,1.3518367757905803,0.38599219445834454
1687011876.991214,-0.17791034281253815,-0.9671038389205933,-0.1818191260099411,0.10765886306762695,-0.17007267475128174,0.027918994426727295,-1.29527747631073,-0.25479528307914734,0.3286636173725128,-0.7745327234254521,1.3135878226294584,0.2665353892997248
1687011876.997031,-0.21014417707920074,-0.946296751499176,-0.24568668007850647,0.26602184772491455,-0.3083266615867615,-0.06730157136917114,-1.688923716545105,-0.5722913146018982,0.9448356628417969,-0.7075825756462307,1.2415822610323328,0.17854886268986578
1687011877.0733619,-0.29045677185058594,-0.9013680219650269,-0.3212014138698578,0.4119167625904083,-0.3770284652709961,-0.016429752111434937,-2.0551395416259766,-0.9854065179824829,2.0819666385650635,-0.7351760008685156,1.1229182521561767,0.16521824518502248
1687011877.079737,-0.4260273277759552,-0.8159291744232178,-0.39084553718566895,0.5456256866455078,-0.3330576419830322,0.01093226671218872,-2.0326688289642334,-1.2887139320373535,3.2800724506378174,-0.8284404252275134,0.9543344800998249,0.20761188088465823
1687011877.16383,-0.600482165813446,-0.678432047367096,-0.4232625663280487,0.6923553347587585,-0.26485103368759155,-0.024399757385253906,-1.9377954006195068,-1.686392068862915,4.2494659423828125,-0.9568085825252093,0.7456263056083201,0.2797214964996638
1687011877.181004,-0.7727658748626709,-0.4830630123615265,-0.41168296337127686,0.8793944120407104,-0.059203773736953735,0.08880704641342163,-1.767395257949829,-2.251532554626465,4.746219635009766,-1.0813013925044948,0.5041495809098737,0.3258852362849073
1687011877.2557669,-0.9095383286476135,-0.24840450286865234,-0.3332192897796631,0.8379136323928833,0.05626584589481354,0.039609700441360474,-2.175957679748535,-2.9944398403167725,4.654879570007324,-1.2196210895665918,0.2510327875851353,0.34010776862341785
1687011877.345706,-0.9822262525558472,0.0018352854531258345,-0.18769191205501556,0.9198177456855774,0.14171938598155975,0.23189660906791687,-1.4179096221923828,-3.5186593532562256,4.725792407989502,-1.3819842528013586,-0.0018352864322923005,0.3145503670893802
1687011877.3646898,-0.9728402495384216,0.23107478022575378,0.013646990060806274,0.9174051284790039,0.12512637674808502,0.1689091920852661,-1.8078609704971313,-4.213953971862793,4.395474433898926,-1.584823393423944,-0.23318221925762223,0.26319000048982855
1687011877.434752,-0.8687857389450073,0.4406524896621704,0.2259131371974945,0.9253806471824646,0.09296262264251709,0.1894005537033081,-0.07161945104598999,-4.185839653015137,4.844929218292236,-1.8251954859013464,-0.4563253990065411,0.170941376065654
1687011877.4512138,-0.683122456073761,0.6177613735198975,0.3895052373409271,0.8608874082565308,0.3889065980911255,0.1911984384059906,-0.2241133153438568,-4.286133766174316,4.308528423309326,-2.08900343961173,-0.66589273688778,0.06741179370130564
1687011877.558187,-0.44369378685951233,0.73262619972229,0.5161344408988953,0.7225633859634399,0.2604767680168152,0.387689471244812,0.09913238883018494,-3.9871654510498047,4.251706600189209,-2.4315242312465633,-0.8221724813347451,-0.12892736097361335
1687011877.562588,-0.1805112063884735,0.8124185800552368,0.5544295310974121,0.7282100915908813,0.09892797470092773,0.36091482639312744,0.7520003318786621,-3.296264886856079,4.394871234893799,-2.8268362063841557,-0.9482882179883798,-0.40339979055123404
1687011877.6841788,0.08509678393602371,0.862604558467865,0.49866992235183716,0.5601668953895569,0.5366873741149902,0.2670617997646332,1.6593806743621826,-2.729170799255371,4.078803539276123,2.9725732371803653,-1.0403958247889138,-0.80156094190017
1687011877.701155,0.30932867527008057,0.8464521765708923,0.4333992004394531,0.5834172964096069,0.16186398267745972,0.39434438943862915,0.9246669411659241,-2.0964057445526123,3.85164213180542,2.5217132657623385,-1.0092865152977302,-1.1827586370520642
1687011877.730469,0.5020578503608704,0.8014223575592041,0.3250542879104614,0.27133387327194214,0.5137479305267334,0.3110541105270386,2.3576371669769287,-1.3046832084655762,3.837460994720459,2.145372536312043,-0.9296695610109409,-1.5355412761110097
1687011877.744304,0.655164361000061,0.7258949875831604,0.20937100052833557,0.11329877376556396,0.4276083707809448,0.3690439462661743,2.3079135417938232,-0.7265740036964417,3.526768684387207,1.8801093205397668,-0.812334754643543,-1.8137252654402087
1687011877.746757,0.7724769711494446,0.624439537525177,0.11556325852870941,0.11436396837234497,0.6563680171966553,0.4013282060623169,2.4305782318115234,0.31407058238983154,3.025482416152954,1.719295937620886,-0.6744137605110789,-2.0362089221816024
1687011877.7866812,0.8476596474647522,0.5252388119697571,0.07481621950864792,0.1373562216758728,0.7397148013114929,0.279172420501709,3.2049076557159424,1.435798168182373,2.3621883392333984,1.6588302930942864,-0.5529956970330085,-2.2191860969830466
1687011877.87937,0.8869024515151978,0.45570266246795654,0.0757545679807663,-0.07000815868377686,0.8784494400024414,-0.08490981161594391,2.376903772354126,1.6643128395080566,1.2553099393844604,1.65600427789059,-0.47316144836972357,-2.3940445568371165
1687011877.973892,0.8930095434188843,0.4375421702861786,0.10531359910964966,0.007075905799865723,0.618945837020874,-0.3443577289581299,1.124392032623291,1.167872428894043,-0.02409791201353073,1.6881852245409352,-0.4528634848435793,-2.489090717481163
1687011877.979739,0.8794254064559937,0.4576890766620636,0.13088850677013397,0.03301966190338135,0.1774275004863739,-0.2796311378479004,-0.47065773606300354,0.39783766865730286,-0.6837136745452881,1.7185458529426583,-0.4753943056440381,-2.506854567236084
1687011878.093529,0.8614370226860046,0.48287340998649597,0.15735149383544922,0.07813811302185059,-0.10445550084114075,-0.1631956249475479,-0.515602707862854,0.13999292254447937,-0.620363175868988,1.751466172737353,-0.5039330781066641,-2.4630469103610135
1687011878.100071,0.8478757739067078,0.5010403990745544,0.17339380085468292,0.07168000936508179,-0.18759429454803467,-0.07819412648677826,-0.5006637573242188,0.021450834348797798,-0.4053475260734558,1.772518672460831,-0.5248005544048419,-2.426351746945789
1687011878.18322,0.8401051759719849,0.5119174718856812,0.17934280633926392,0.005750536918640137,-0.09886205196380615,-0.08061838150024414,0.08100011944770813,0.11151907593011856,-0.20871062576770782,1.7811159448883345,-0.5374154239904952,-2.4188446568285555
1687011878.200048,0.835867166519165,0.5167713165283203,0.1851310282945633,0.037149131298065186,-0.09198194742202759,-0.003154650330543518,-0.30026376247406006,-0.07845911383628845,-0.0820046216249466,1.7887614868483963,-0.5430753703633374,-2.4008789744784296
1687011878.270677,0.8351883292198181,0.5183555483818054,0.183761328458786,-0.0044539570808410645,0.0056923627853393555,0.013336434960365295,0.23887403309345245,0.051969196647405624,-0.010268117301166058,1.7873693649086213,-0.5449268363714702,-2.401606171763494
1687011878.274586,0.8331606388092041,0.5217347741127014,0.18340110778808594,-0.014740347862243652,0.07508218288421631,-0.01827050745487213,-0.00817995797842741,0.06872633844614029,-0.13918614387512207,1.787467710823165,-0.5488831371067492,-2.4088435351946518
1687011878.364075,0.828005313873291,0.5290667414665222,0.18573008477687836,0.02877575159072876,0.05256783962249756,-0.002838239073753357,0.027624845504760742,0.04816234111785889,-0.20519046485424042,1.7914541622721687,-0.5575004088850158,-2.406899944748287
1687011878.383061,0.8201841711997986,0.5403439402580261,0.18795335292816162,0.048269808292388916,0.031158745288848877,-0.02976548671722412,-0.04780200123786926,0.0363866426050663,-0.22927023470401764,1.796066706479768,-0.5708458064123902,-2.4021351632615913
1687011878.4193358,0.8140408396720886,0.5490477681159973,0.18943068385124207,0.0162813663482666,-0.02658689022064209,-0.030693426728248596,-0.12128753960132599,-0.03243716433644295,-0.20124100148677826,1.7994314789931707,-0.5812244914895106,-2.3956316817499266
1687011878.513215,0.8100776076316833,0.5549716353416443,0.18915824592113495,-0.01442331075668335,-0.05161470174789429,-0.025980710983276367,-0.008585557341575623,-0.07259829342365265,-0.12067318707704544,1.800192319621399,-0.588328846285915,-2.386750355330109
1687011878.5292978,0.8106088638305664,0.556447446346283,0.1824267953634262,0.010313987731933594,-0.08330291509628296,-0.009163260459899902,-0.06450275331735611,-0.130048006772995,-0.06989975273609161,1.792157491199046,-0.5901040286698547,-2.389050770321227
1687011878.569646,0.8123107552528381,0.5550480484962463,0.17908906936645508,-0.011392176151275635,-0.04169660806655884,0.008502483367919922,-0.036976851522922516,-0.12022946774959564,0.016990136355161667,1.7877936155274006,-0.5884207003779341,-2.384351572913006
1687011878.663408,0.8158411383628845,0.5509313941001892,0.1757207214832306,-0.006682872772216797,-0.009931087493896484,0.029616817831993103,-0.025157608091831207,-0.10513413697481155,0.06948716938495636,1.7829413597774668,-0.583479865132229,-2.382289936050573
1687011878.679733,0.819076657295227,0.5468077659606934,0.17353679239749908,-0.0324249267578125,0.014456331729888916,0.0478987842798233,0.03716821223497391,-0.021487977355718613,0.05521715059876442,1.7795777126836545,-0.5785467200176194,-2.3849529732770214
1687011878.720079,0.8197333216667175,0.5446372032165527,0.17722150683403015,-0.022003889083862305,0.034220099449157715,0.020196780562400818,-0.007661907002329826,0.014658442698419094,0.03005986288189888,1.7837135408436378,-0.5759565013528792,-2.383829175367373
1687011878.844455,0.8159665465354919,0.5478233098983765,0.18463003635406494,-0.018526971340179443,0.042874932289123535,0.010377287864685059,-0.05462801828980446,0.03334970399737358,-0.025762122124433517,1.7933207408209313,-0.5797601535527876,-2.3775551160315027
1687011878.850593,0.8117293119430542,0.5524218082427979,0.18954065442085266,-0.0099104642868042,0.02086615562438965,0.013859033584594727,-0.02675231173634529,0.09431558847427368,-0.043312884867191315,1.8001884847568874,-0.5852668296688905,-2.3737491422075347
1687011878.9337292,0.8061532378196716,0.5580943822860718,0.19658976793289185,-0.028382301330566406,-0.013966023921966553,0.003300294280052185,-0.11025998741388321,0.11293960362672806,-0.066264808177948,1.8099893240307856,-0.5920874850348251,-2.367461971316242
1687011878.948703,0.8032227754592896,0.5601789951324463,0.20256438851356506,-0.007522881031036377,-0.043028175830841064,-0.016834408044815063,-0.058414630591869354,0.08069857954978943,0.009123689495027065,1.8178346770417244,-0.5946018421689384,-2.362280015854598
1687011879.019531,0.8034420013427734,0.5589946508407593,0.20495331287384033,0.026773393154144287,-0.011249959468841553,-0.013943806290626526,0.04738510027527809,0.06249653548002243,0.05829416587948799,1.8205636572016755,-0.5931727947067247,-2.363297663505044
1687011879.03575,0.8058651685714722,0.5565030574798584,0.20220279693603516,0.05428814888000488,0.04307585954666138,0.012244254350662231,0.24834556877613068,0.02541188895702362,0.08849921077489853,1.8166349796859251,-0.5901709642780931,-2.372536130467448
1687011879.112061,0.8073962926864624,0.557145357131958,0.19416534900665283,0.0013652443885803223,0.06989926099777222,0.040972575545310974,0.2932492792606354,0.03563868999481201,-0.02090398408472538,1.8067982786786623,-0.5909442207044724,-2.3918958967227075
1687011879.1277618,0.8039718270301819,0.5635241270065308,0.1899203211069107,-0.04091036319732666,0.05860716104507446,0.061666592955589294,0.2769922614097595,0.1738666146993637,-0.15268199145793915,1.8027713124763263,-0.598645618909997,-2.4081775368728593
1687011879.20089,0.7962659597396851,0.5744647979736328,0.18960602581501007,-0.0014052391052246094,0.05334270000457764,0.05595371127128601,0.6622026562690735,0.3501710593700409,-0.1872575432062149,1.8045619660656844,-0.611950175706438,-2.4277107217871743
1687011879.296921,0.7910316586494446,0.591136634349823,0.15756426751613617,-0.01541215181350708,0.1102946400642395,0.05892741680145264,3.6713430881500244,0.877638578414917,0.2714642286300659,1.7674112970539828,-0.6324673226976479,-2.5389503618931477
1687011879.3142781,0.8039962649345398,0.5936210751533508,0.0347006730735302,-0.0050460100173950195,0.18723225593566895,0.13567900657653809,7.774217128753662,1.6001520156860352,0.9867666363716125,1.613929796325587,-0.6355510349031408,-2.903392138872702
1687011879.3814878,0.8404045104980469,0.5260686874389648,-0.130275696516037,-0.007656216621398926,0.14212888479232788,0.4024772644042969,9.377019882202148,2.5195250511169434,0.9827737808227539,1.4170049341395337,-0.5539712735145407,2.8517470158710054
1687011879.3972979,0.880700409412384,0.4148307144641876,-0.2286532074213028,0.04494351148605347,0.11034631729125977,0.4246981143951416,9.117264747619629,3.164357900619507,0.15622419118881226,1.3167780985448823,-0.42775675610286445,2.348365510237521
1687011879.469214,0.9077274799346924,0.32359233498573303,-0.26705583930015564,0.2508113384246826,0.04608240723609924,0.338955283164978,8.271604537963867,2.0855154991149902,-0.9263883829116821,1.2846666337564159,-0.3295236277108255,1.887830233313542
1687011879.4852939,0.909804105758667,0.278486967086792,-0.30773627758026123,0.11148190498352051,-0.1391894817352295,0.19555366039276123,5.323368072509766,0.7503008842468262,-1.3667558431625366,1.2446322004301138,-0.2822184046571604,1.5170403374410577
1687011879.5587401,0.8963338136672974,0.2855995297431946,-0.3391440510749817,-0.18101710081100464,-0.3031776249408722,0.1497061848640442,0.9869459867477417,0.020452016964554787,-1.0787198543548584,1.2090761403878334,-0.28963194478588444,1.3408092671381127
1687011879.5624619,0.8816893696784973,0.32937759160995483,-0.3378377854824066,-0.23682242631912231,-0.26719802618026733,0.10854393243789673,-1.5200940370559692,-0.39940932393074036,-0.5931973457336426,1.2048813492697266,-0.33564429865079676,1.3494252179010555
