Timestamp,gravityX,gravityY,gravityZ,accelerationX,accelerationY,accelerationZ,rotationRateX,rotationRateY,rotationRateZ,attitudeRoll,attitudePitch,attitudeYaw
1687014975.01858,0.9781932830810547,0.15426024794578552,-0.13907593488693237,-0.004285693168640137,0.045950308442115784,-0.03911620378494263,-0.05701254680752754,0.020959481596946716,0.017711583524942398,1.429566526410394,-0.15487870211751115,0.6088459962332117
1687014975.024743,0.9767796397209167,0.1590041071176529,-0.14359475672245026,-0.0038944482803344727,0.04129800200462341,-0.030874252319335938,-0.04102851822972298,-0.019498195499181747,-0.018781976774334908,1.4248334885068836,-0.15968185009936042,0.6103887969932086
1687014975.074177,0.9750385880470276,0.16516801714897156,-0.14839008450508118,-0.0022448301315307617,0.03969648480415344,-0.018831029534339905,0.007491612806916237,-0.0315663106739521,-0.06015098839998245,1.419766304229968,-0.16592836904652777,0.6110008282246859
1687014975.2012792,0.9732010960578918,0.17184895277023315,-0.15279921889305115,-0.004069626331329346,0.020472824573516846,-0.0029930323362350464,0.07425493001937866,-0.03161770850419998,-0.09038558602333069,1.4150608836888412,-0.17270623458250958,0.6070531749697375
1687014975.206918,0.9712746739387512,0.17932859063148499,-0.15641893446445465,0.009178876876831055,-0.0008465498685836792,0.011567249894142151,-0.01242863293737173,-0.06183459982275963,-0.12448976188898087,1.4111223084052231,-0.1803039393071038,0.6035354043388235
1687014975.288424,0.9692588448524475,0.18783633410930634,-0.15891821682453156,-0.0004477500915527344,-0.0023962706327438354,0.014524221420288086,-0.08214899152517319,-0.07107657194137573,-0.16785773634910583,1.4082837864550246,-0.18895880145122115,0.6056310068788023
1687014975.293683,0.9677339792251587,0.1945616453886032,-0.16011561453342438,0.008996546268463135,-0.008434891700744629,0.006779953837394714,-0.019490137696266174,-0.07116951793432236,-0.14017631113529205,1.4068276174234409,-0.19581053449265529,0.607312265217176
1687014975.3778071,0.9666396379470825,0.19895033538341522,-0.1613272875547409,0.001591503620147705,-0.034735262393951416,0.020580187439918518,-0.03101389855146408,-0.04281270503997803,-0.10228965431451797,1.405425537697948,-0.20028673479169937,0.6065278873500468
1687014975.3988972,0.9661017060279846,0.2016163468360901,-0.1612405627965927,0.008767127990722656,-0.027681410312652588,0.015595391392707825,-0.0443074032664299,-0.02709752507507801,-0.06406716257333755,1.4054224490029854,-0.20300787107182844,0.6083521986518915
1687014975.464007,0.9664484262466431,0.200921431183815,-0.16002503037452698,0.0009434819221496582,-0.02268354594707489,0.015707388520240784,-0.02111799269914627,-0.006600639317184687,-0.021547403186559677,1.4067046341515934,-0.20229844862085244,0.6100911271616398
1687014975.481133,0.9673510789871216,0.1985975205898285,-0.157451793551445,0.005076348781585693,-0.02296885848045349,0.017833828926086426,-0.035257115960121155,0.03575214371085167,0.025264840573072433,1.4094453422141735,-0.1999267359914262,0.6111639245133728
1687014975.5549111,0.9688029885292053,0.19456757605075836,-0.15350693464279175,0.007484912872314453,-0.008120432496070862,0.005221962928771973,-0.041624534875154495,0.06271838396787643,0.07780128717422485,1.4136526496219317,-0.1958165845892437,0.6142554563488427
1687014975.558342,0.9705837965011597,0.18860694766044617,-0.1496482491493225,0.0002719759941101074,-0.005776137113571167,-0.010172367095947266,-0.023419298231601715,0.05481038987636566,0.10924150794744492,1.4178172225207832,-0.1897434419556037,0.6163449296051284
1687014975.617738,0.971946656703949,0.18351928889751434,-0.14710752665996552,0.0032578706741333008,0.005354002118110657,-0.016314148902893066,-0.08026780188083649,0.028400886803865433,0.12192720174789429,1.4205829346746124,-0.1845653560243099,0.6201355461417661
1687014975.675107,0.9730236530303955,0.17847678065299988,-0.1461886763572693,0.008528530597686768,0.004598170518875122,-0.0026761293411254883,-0.14404191076755524,0.003457586979493499,0.12193280458450317,1.4216700581523192,-0.17943816246117122,0.6258553442758314
1687014975.7641978,0.9735966324806213,0.17520388960838318,-0.14633305370807648,-0.009332656860351562,0.03690852224826813,-0.018049880862236023,-0.06447970867156982,0.008994299918413162,0.09908527135848999,1.4216115145424015,-0.1761128622126348,0.6330703359927902
1687014975.783206,0.9741613864898682,0.17243272066116333,-0.14586548507213593,-0.0032140612602233887,0.02780836820602417,-0.0031976699829101562,-0.027006177231669426,0.008016252890229225,0.06455046683549881,1.4221661395293677,-0.1732988587121211,0.6351571582209508
1687014975.821996,0.9736554026603699,0.17439891397953033,-0.14690227806568146,0.00013005733489990234,0.029336407780647278,-0.0045869797468185425,-0.05308251827955246,-0.007946734316647053,-0.009879029355943203,1.421048707306251,-0.1752952949094274,0.6371748961227366
1687014975.913453,0.9727723002433777,0.1785770207643509,-0.14773115515708923,-0.00376284122467041,0.016369253396987915,-0.0021254420280456543,-0.03663330152630806,-0.024379104375839233,-0.0517287440598011,1.4200818222407237,-0.17954003463022924,0.63892262778295
1687014975.932075,0.971730649471283,0.1834917664527893,-0.14856092631816864,0.014887392520904541,-0.0033770352602005005,0.0056623369455337524,-0.08450635522603989,-0.02030273713171482,-0.052284277975559235,1.4190881934338637,-0.1845373608873026,0.6411495497539594
1687014975.974606,0.9707485437393188,0.18829534947872162,-0.14897054433822632,-0.007568001747131348,-0.01667974889278412,0.006911173462867737,-0.12377918511629105,-0.03612031415104866,-0.07276345044374466,1.418524780596177,-0.18942615318581313,0.6458850911962871
1687014976.063768,0.9703543186187744,0.1908215880393982,-0.1483231782913208,-0.007707774639129639,-0.013071969151496887,-0.005576953291893005,-0.01981617510318756,-0.0012414272641763091,-0.027802903205156326,1.4191157069138896,-0.1919990505117097,0.6497124674321536
1687014976.0825438,0.970653772354126,0.18946482241153717,-0.1481034904718399,0.012012362480163574,-0.01916147768497467,-0.001081705093383789,-0.025197157636284828,-0.018775014206767082,0.026892300695180893,1.4193829654131724,-0.19061706148310206,0.6501227506438524
1687014976.1229692,0.97086101770401,0.18748340010643005,-0.14926162362098694,-0.004735469818115234,-0.00692613422870636,0.007110714912414551,-0.05814298987388611,-0.01718883588910103,0.02621931955218315,1.4182492384687997,-0.18859948669159526,0.6521697581342054
1687014976.215499,0.9715471267700195,0.1810947209596634,-0.15264707803726196,0.20110613107681274,-0.1693912297487259,-0.0033740997314453125,-0.7356466054916382,-0.5549088716506958,0.5064697861671448,1.4149528454863607,-0.18209946907011756,0.6620948384903623
1687014976.233625,0.9582119584083557,0.2051285356283188,-0.1993805319070816,-0.020620226860046387,-0.6808211803436279,0.48693230748176575,-10.479339599609375,-2.323986291885376,0.24889421463012695,1.365647954722396,-0.2065950267714023,0.9038860888106737
1687014976.2748752,0.9466515183448792,0.3002670109272003,-0.11700837314128876,-0.020320892333984375,0.9938615560531616,0.6658517718315125,-10.318924903869629,-0.9549256563186646,-0.3824763000011444,1.4478176953974795,-0.30497255747181523,1.5157447738912881
1687014976.3367481,0.9445868134498596,0.3142895996570587,-0.09475399553775787,-0.1330326795578003,-0.480427086353302,0.42852479219436646,-4.413330078125,-0.9264301061630249,0.24279743432998657,1.4708181412876928,-0.31970823093869055,1.7732376634789855
1687014976.340553,0.9425909519195557,0.32843658328056335,-0.06042871251702309,-0.18055188655853271,0.06345498561859131,-0.18185023963451385,-4.363545894622803,-0.9090612530708313,0.16499584913253784,1.5067747794229913,-0.3346478685814042,2.0204779390864345
1687014976.394742,0.9477413892745972,0.3138379752635956,-0.05737653747200966,0.011716008186340332,0.03413885831832886,-0.12704110145568848,-2.1324968338012695,-1.0519596338272095,0.7018001675605774,1.5103298356324641,-0.3192325477176143,2.1913796699596664
1687014976.51539,0.951564610004425,0.300773561000824,-0.0637204572558403,0.03322243690490723,0.11833977699279785,0.18281537294387817,-1.8881906270980835,-0.5136135220527649,0.1731131672859192,1.5039322730126046,-0.305503659557598,2.2986494089527048
1687014976.535585,0.95168536901474,0.30144643783569336,-0.05852462351322174,-0.04726642370223999,0.13126245141029358,0.1514507532119751,-1.0664381980895996,-0.16302673518657684,0.01597893238067627,1.509377902772764,-0.30620928025877836,2.370063345171338
1687014976.572521,0.9505614638328552,0.3062954545021057,-0.05115102231502533,-0.0444791316986084,0.172434002161026,0.07437502592802048,-0.23923547565937042,0.07521019876003265,-0.164629727602005,1.5170367971147931,-0.31129898317624777,2.4015818799914737
1687014976.666542,0.946918785572052,0.31898248195648193,-0.03994191437959671,0.007854223251342773,0.0988185703754425,-0.045934438705444336,0.058664388954639435,0.24912874400615692,-0.3234787583351135,1.5286403859372966,-0.32465570402649613,2.409426420278433
1687014976.6714401,0.9417109489440918,0.3348180651664734,-0.032827094197273254,0.01959282159805298,0.00501057505607605,-0.04386347532272339,-0.01813358999788761,0.059578247368335724,-0.24992837011814117,1.5359514444803988,-0.34141215823152876,2.406572205865088
1687014976.7250729,0.9385978579521179,0.3433719575405121,-0.03361609950661659,0.03181546926498413,-0.09967362880706787,-0.04119766131043434,0.2536534368991852,0.06643935292959213,-0.16350480914115906,1.534996398400254,-0.35050480626507774,2.3950652022509713
1687014976.820307,0.9364341497421265,0.34940457344055176,-0.03174561262130737,-0.01469641923904419,-0.10942944884300232,0.0011823773384094238,0.035648882389068604,0.08116383105516434,-0.0953073725104332,1.5369087744997507,-0.3569355411248877,2.386237806754441
1687014976.826213,0.9370161294937134,0.3479821979999542,-0.0301611740142107,-0.04793208837509155,0.0012153685092926025,-0.043874386698007584,0.03435385227203369,-0.01277557760477066,0.030734706670045853,1.5386189033049176,-0.3554179175770435,2.387691007712437
1687014976.8699598,0.9362305998802185,0.35016930103302,-0.029222676530480385,0.02026665210723877,0.13727283477783203,0.06991797685623169,-0.30522769689559937,0.03850119188427925,-0.24325183033943176,1.5395933384159708,-0.3577518573041939,2.3911490038079424
1687014976.996629,0.9248935580253601,0.3801724314689636,-0.006414469331502914,-0.018979191780090332,0.2590031027793884,0.23071879148483276,-1.2647782564163208,0.4899706542491913,-1.1606684923171997,1.5638610785350835,-0.3899827257817578,2.4268990301370086
1687014977.01717,0.8859787583351135,0.4578477442264557,0.0736013650894165,0.0219801664352417,0.38782498240470886,0.38973188400268555,-2.24430513381958,1.3518402576446533,-2.2922120094299316,1.6536795244740332,-0.47557277989694374,2.5327833492260576
1687014977.084657,0.8047646284103394,0.5549685955047607,0.2106286585330963,0.1481163501739502,0.44225460290908813,0.324466735124588,-2.1220624446868896,2.3747406005859375,-2.982860803604126,1.8267813834276092,-0.5883251824877431,2.6889727583487275
1687014977.088224,0.6694226264953613,0.6548657417297363,0.35074856877326965,0.2080339789390564,0.5547138452529907,0.22968065738677979,0.015837160870432854,3.0826146602630615,-3.2831356525421143,2.0534251967980675,-0.7140049568534793,2.833722152183356
1687014977.1812658,0.4827928841114044,0.7598863244056702,0.43529820442199707,0.35801222920417786,0.341508686542511,0.22523972392082214,-0.1210637018084526,3.1885011196136475,-3.733593702316284,2.3045085789511495,-0.8631381960874435,2.964966057048256
1687014977.200625,0.24736064672470093,0.8191051483154297,0.5175714492797852,0.4100337326526642,0.3168814778327942,0.040045976638793945,-0.47004351019859314,3.3610517978668213,-4.09459924697876,2.695759995711458,-0.959849335848769,-3.0339343522948874
1687014977.263392,-0.023180831223726273,0.8390535712242126,0.5435554385185242,0.44806167483329773,0.27773743867874146,0.33754831552505493,-0.03586045652627945,3.623664617538452,-4.394973278045654,-3.0989718062331892,-0.9955412786706884,-2.6555089907783747
1687014977.2804089,-0.3297158181667328,0.7815259695053101,0.5296275019645691,0.7946966886520386,0.49684035778045654,0.49019378423690796,-0.809556782245636,4.495096683502197,-5.19423246383667,-2.5847622233577425,-0.8971080012081036,-2.2725167293107327
1687014977.324054,-0.6352039575576782,0.6548178791999817,0.4095480740070343,0.7941851615905762,0.3355080485343933,0.3165872097015381,0.5535893440246582,4.941280364990234,-5.488193035125732,-2.143472349043174,-0.7139416436909772,-1.9926450409684273
1687014977.4178882,-0.8708740472793579,0.44283637404441833,0.21324755251407623,0.9626402854919434,0.24994316697120667,0.14583754539489746,-0.08362704515457153,5.0433831214904785,-5.792481422424316,-1.8109372948843725,-0.4587596786744352,-1.8499851569236478
1687014977.42191,-0.9855156540870667,0.16753239929676056,-0.026299498975276947,1.1324273347854614,0.4728788733482361,0.35454654693603516,1.2814750671386719,4.829306602478027,-6.052886486053467,-1.5441166308263712,-0.16832615219221309,-1.7881181209927106
1687014977.510081,-0.9655359387397766,-0.11699158698320389,-0.23249416053295135,1.5245873928070068,0.01968618482351303,-0.09515786170959473,6.130679607391357,3.076005220413208,-4.299878120422363,-1.3345018035847862,0.11726012457734415,-1.6463312322557695
1687014977.526747,-0.9161534309387207,-0.31743699312210083,-0.24473784863948822,0.3224950432777405,-1.897498369216919,0.1584494262933731,1.0409857034683228,1.1166129112243652,-1.382781744003296,-1.3097555259717808,0.3230254523691715,-1.4033612667837745
1687014977.56375,-0.9197990298271179,-0.2938152551651001,-0.2600814402103424,0.3708336353302002,-0.11487627029418945,-0.3648879826068878,0.2400028258562088,-0.4642297327518463,1.5941662788391113,-1.2952310477702083,0.2982158312974386,-1.3874964434128163
1687014977.624207,-0.9381706714630127,-0.2555113732814789,-0.23355922102928162,-0.2609260678291321,0.9711942076683044,0.0949331521987915,0.20017783343791962,-0.3072543442249298,-0.3188951909542084,-1.3268044969040766,0.2583766077449671,-1.3797924799131176
1687014977.750329,-0.9223774075508118,-0.299643337726593,-0.24379071593284607,0.09606820344924927,-0.44165927171707153,-0.10436902940273285,0.5497421026229858,0.4567700922489166,-0.44741854071617126,-1.3123983325024386,0.3043188005799737,-1.354708849393154
1687014977.755542,-0.9246294498443604,-0.29603397846221924,-0.23963433504104614,0.13683325052261353,-0.2719746232032776,0.01595577597618103,0.13842558860778809,-0.153020977973938,0.6729738116264343,-1.3172077717000825,0.3005378451385422,-1.3252208315468452
1687014977.8686419,-0.9344477653503418,-0.2715507447719574,-0.23036450147628784,-0.06393486261367798,0.35098785161972046,0.11824291944503784,-0.08480768650770187,-0.04864675924181938,0.1350555270910263,-1.3290911530670304,0.2750039559720392,-1.3163411517757497
1687014977.874261,-0.9317531585693359,-0.27712827920913696,-0.23459801077842712,-0.013864576816558838,-0.06357008218765259,-0.10194975137710571,0.005663818679749966,0.07650543004274368,-0.18012665212154388,-1.3241418576235362,0.2808040450381491,-1.3216406440718882
1687014977.95794,-0.9337247014045715,-0.2746655344963074,-0.2296021580696106,0.020577728748321533,-0.09458202123641968,0.0006745606660842896,0.12648364901542664,-0.1821017563343048,0.29304808378219604,-1.329680951461367,0.2782418394051338,-1.3147667821709483
1687014977.9784799,-0.9388633370399475,-0.263611376285553,-0.22146040201187134,-0.046259284019470215,0.07849159836769104,0.083994060754776,-0.07275129109621048,-0.100645512342453,0.09977822750806808,-1.339149262176909,0.2667640859173503,-1.310948885457532
1687014978.048417,-0.9382256269454956,-0.26456668972969055,-0.22301892936229706,-0.01196974515914917,-0.03301036357879639,-0.003848731517791748,-0.0018034849781543016,0.06710993498563766,-0.054215867072343826,-1.33742450026559,0.26775456270771275,-1.3138937721089259
1687014978.066306,-0.9387102723121643,-0.26289957761764526,-0.22295056283473969,-0.008494317531585693,-0.0486239492893219,-0.022502273321151733,-0.06917832791805267,-0.05334097892045975,0.07135990262031555,-1.3376095925547393,0.26602628488907204,-1.3142339414255935
1687014978.131668,-0.939818263053894,-0.2588871717453003,-0.22297780215740204,-0.012452185153961182,0.03560519218444824,0.041016772389411926,-0.15912985801696777,0.010314561426639557,0.03567300736904144,-1.3378472295072337,0.2618699313958048,-1.3201894094342403
1687014978.1477308,-0.9378829598426819,-0.26040345430374146,-0.2292720526456833,-0.017622411251068115,0.001568526029586792,0.010079637169837952,0.016411004588007927,0.1825738251209259,-0.05772804468870163,-1.3310413691325593,0.2634400506404864,-1.3257149408668818
1687014978.223061,-0.9359330534934998,-0.2617783844470978,-0.23558737337589264,0.006504952907562256,-0.17231902480125427,-0.021706268191337585,0.43225228786468506,0.26922693848609924,0.18733523786067963,-1.3242052168689968,0.2648643745596814,-1.3132279626263155
1687014978.2265959,-0.938875138759613,-0.24704816937446594,-0.23975151777267456,-0.016538679599761963,-0.2737039029598236,0.058263570070266724,0.7877296805381775,0.23650576174259186,0.7628927826881409,-1.3207789837282002,0.2496328048411036,-1.2801129672805278
1687014978.316364,-0.9475842118263245,-0.209505096077919,-0.2412303239107132,-0.06898689270019531,-0.42904484272003174,0.20247304439544678,2.700201988220215,0.8164896368980408,1.7782272100448608,-1.3215173493108432,0.2110687999438322,-1.1799172100047344
1687014978.335456,-0.9504996538162231,-0.13895443081855774,-0.2779247462749481,-0.0053566694259643555,-0.5569380521774292,0.33691534399986267,3.1864919662475586,1.9529346227645874,2.791856288909912,-1.2863278073971578,0.13940552208863255,-0.9927660897678351
1687014978.404649,-0.9233291745185852,-0.03182590380311012,-0.3826887011528015,0.16708815097808838,-0.4621164798736572,0.310011088848114,2.7829575538635254,2.9540653228759766,3.74922251701355,-1.1778816464871826,0.03183127909288031,-0.806986942426141
1687014978.408267,-0.8309868574142456,0.084031842648983,-0.5499088168144226,0.11814188957214355,-0.702058732509613,0.5399143695831299,2.5328633785247803,4.579825401306152,4.479406833648682,-0.9862025592548079,-0.08413105710795724,-0.5816092450250461
1687014978.46384,-0.6067169308662415,0.19598731398582458,-0.770378828048706,0.1177489161491394,-0.7503697276115417,0.9499748349189758,1.868412733078003,7.140452861785889,5.542246341705322,-0.6671072914617999,-0.1972641946854292,-0.32874325962078665
1687014978.524085,-0.0990343987941742,0.27285364270210266,-0.9569446444511414,1.656010627746582,-0.5406912565231323,1.3981373310089111,-0.9265536069869995,13.795976638793945,6.048498153686523,-0.10312309359930133,-0.27635799451503307,-0.021553473337366336
1687014978.6463308,0.43505051732063293,0.21131977438926697,-0.875257134437561,2.664421558380127,2.9679555892944336,-3.4838128089904785,4.373249530792236,1.4248390197753906,4.814616680145264,0.461288447587979,-0.21292502557474605,0.2911883134724931
1687014978.664431,0.42024990916252136,0.01454152911901474,-0.9072918891906738,-0.43137362599372864,-1.6568450927734375,-0.37374454736709595,-1.2090905904769897,1.646860957145691,0.7402159571647644,0.4337696778671406,-0.014542041376492896,0.21998059705529835
1687014978.7330651,0.4215073883533478,0.017412960529327393,-0.9066577553749084,0.44546639919281006,0.21999846398830414,-0.27827876806259155,1.916780948638916,-0.4213162064552307,-0.9481474757194519,0.4351774427936192,-0.017413840486401412,0.1767231121763692
1687014978.736911,0.38642072677612305,0.007911169901490211,-0.922288715839386,0.1850666105747223,-0.02973131835460663,0.005693256855010986,0.6155415177345276,-0.695351243019104,-0.45307138562202454,0.39676082904151994,-0.007911252770243366,0.12998965814743696
1687014978.858154,0.3601760268211365,-0.015397774055600166,-0.9327572584152222,-0.00540924072265625,-0.25520166754722595,0.15286529064178467,0.09445101022720337,-0.6453554034233093,-0.348736435174942,0.3685023552563041,0.015398382641204572,0.09895971404695986
1687014978.8780031,0.33609700202941895,-0.01778048649430275,-0.9416595101356506,0.01000279188156128,-0.10905065387487411,0.20763546228408813,0.5130261182785034,-0.34100180864334106,-0.19070206582546234,0.3428261680743087,0.017781422748356812,0.08087059305170997
1687014978.944736,0.3265622556209564,-0.030654288828372955,-0.9446784853935242,-0.034738004207611084,-0.09390329569578171,0.13593214750289917,0.11843191087245941,-0.11898017674684525,-0.087654247879982,0.33282656693637364,0.03065909202063371,0.06910934911665055
1687014978.962659,0.32367101311683655,-0.03324626758694649,-0.9455854296684265,-0.015702933073043823,-0.053683143109083176,0.03664982318878174,0.03595208376646042,0.002724418882280588,-0.029658328741788864,0.32979600821163574,0.033252394324233485,0.06427670382936018
1687014979.068243,0.32468467950820923,-0.03504187613725662,-0.9451729655265808,-0.019798874855041504,0.03037259727716446,0.01469200849533081,0.06557229161262512,-0.0014713912969455123,-0.05907320976257324,0.3308892934487413,0.03504905193470462,0.06194375033377832
1687014979.0724158,0.3250231146812439,-0.036561958491802216,-0.9449990391731262,-0.025905132293701172,0.012987036257982254,-0.05777806043624878,0.05077197402715683,-0.0024566277861595154,-0.04836410656571388,0.33126611913689397,0.03657010846342062,0.058685595323782855
1687014979.1619592,0.32281890511512756,-0.04036911204457283,-0.9455994367599487,0.04832056164741516,0.002069462090730667,-0.05374443531036377,0.11711844801902771,-0.11434227973222733,-0.08302700519561768,0.3289846255720367,0.040380085538784576,0.05355450655860142
1687014979.181129,0.3142894208431244,-0.03857177123427391,-0.9485433101654053,0.010554879903793335,-0.011782322078943253,-0.0368998646736145,-0.06458690762519836,-0.168752521276474,-0.12051312625408173,0.3199546224157413,0.038581343809560416,0.04815963043982559
1687014979.184682,0.3073525130748749,-0.03667403385043144,-0.9508887529373169,0.017018765211105347,-0.02545984834432602,-0.0072563886642456055,0.09703181684017181,-0.1698438823223114,-0.08111059665679932,0.31262705536132207,0.03668226005936777,0.04301097875158534
1687014979.211101,0.2992902100086212,-0.03472433239221573,-0.9535300731658936,0.01819932460784912,-0.07687854766845703,0.036644697189331055,-0.14804604649543762,-0.2038121074438095,-0.05874457582831383,0.30413797545100735,0.03473131470136587,0.0394204662702889
1687014979.3106642,0.2917092442512512,-0.031905002892017365,-0.9559747576713562,0.009392380714416504,-0.0728924497961998,0.0342676043510437,-0.15444108843803406,-0.21519127488136292,-0.04702027514576912,0.29616865888306226,0.0319104196507878,0.038170754180033066
1687014979.3289552,0.28311899304389954,-0.017452659085392952,-0.9589260220527649,-0.008430331945419312,-0.009326605126261711,-0.010220766067504883,-0.64848393201828,-0.3082025647163391,-0.10763487964868546,0.28708957384421074,0.01745354592301344,0.04101212712311514
1687014979.3623772,0.26345497369766235,0.021443698555231094,-0.9644333124160767,0.014254927635192871,0.04601532220840454,-0.01228177547454834,-0.7750310897827148,-0.5301706194877625,-0.3066433072090149,0.2666647704944582,-0.02144534238730258,0.04180369547801799
1687014979.4560041,0.22654175758361816,0.08278419077396393,-0.9704769849777222,0.03481070697307587,-0.050420381128787994,0.04596221446990967,-1.8126344680786133,-0.9665659070014954,-0.738109290599823,0.22932684383075042,-0.08287904220157388,0.03091589168534384
1687014979.45966,0.163732647895813,0.1977328360080719,-0.9664850234985352,0.07766132056713104,0.05823327600955963,0.08036136627197266,-1.9903321266174316,-1.2514636516571045,-1.1161996126174927,0.16781708649555227,-0.19904454920585035,0.005810542485395883
1687014979.517683,0.09457733482122421,0.27056631445884705,-0.9580443501472473,0.05149497836828232,-0.003812253475189209,0.12563163042068481,-1.540205955505371,-1.1412484645843506,-1.1910405158996582,0.09840033161019145,-0.27398124913142946,-0.04126118434523294
1687014979.576144,-0.013324554078280926,0.4526887834072113,-0.8915690183639526,0.35023853182792664,-0.007528930902481079,0.02578526735305786,-6.43989372253418,-2.2617344856262207,-2.6655399799346924,-0.014943949474923389,-0.46977850717842573,-0.1335434256336439
1687014979.672854,-0.20563818514347076,0.7177244424819946,-0.6652703881263733,0.1424056589603424,0.31555497646331787,-0.036496639251708984,-7.1206583976745605,-2.5482940673828125,-3.559567451477051,-0.29978863236825753,-0.8005288812312481,-0.387323571502139
1687014979.677767,-0.4415165185928345,0.838172197341919,-0.3202041983604431,0.3344149589538574,0.30826646089553833,0.12389987707138062,-8.605640411376953,-1.7995686531066895,-5.146716117858887,-0.9433326694725667,-0.9939232605178567,-1.0526358216011489
1687014979.754257,-0.6647904515266418,0.7469217777252197,-0.01271714735776186,-0.034809887409210205,0.6426351070404053,-0.09172928333282471,-4.884121417999268,0.2970627248287201,-5.462101459503174,-1.5516691023135107,-0.8434204660449903,-1.7404885098595677
1687014979.7580109,-0.8412458896636963,0.5372140407562256,0.06088336557149887,0.05386161804199219,0.5782187581062317,0.08792031556367874,-2.7371299266815186,1.9550880193710327,-5.384761333465576,-1.6430432167818754,-0.5671305406903461,-1.9682075401540988
1687014979.8153229,-0.9607590436935425,0.2770794928073883,-0.013003862462937832,0.1775558590888977,0.4659777283668518,0.4817538261413574,-2.4457221031188965,3.580829381942749,-5.844911098480225,-1.5572621647724887,-0.280753258949447,-2.0998328154533343
1687014979.9101639,-0.9730343222618103,0.00562072591856122,-0.23059211671352386,0.6570857763290405,-0.024831578135490417,0.10446292161941528,-0.5788398385047913,5.501435279846191,-5.2877678871154785,-1.3381064510056706,-0.005620755353053438,-2.2033289357490524
1687014979.929023,-0.8779362440109253,-0.21280056238174438,-0.42888715863227844,1.1780307292938232,-1.1781296730041504,-1.6576454639434814,3.9762284755706787,2.4353864192962646,-2.2473604679107666,-1.1163768765130506,0.21444028035505847,-2.2286328471206835
1687014979.960613,-0.8935465216636658,-0.23298926651477814,-0.38378456234931946,0.30348920822143555,-1.7345248460769653,0.6005508899688721,-1.066660761833191,-0.8591760993003845,2.4144630432128906,-1.1651143486984106,0.2351504110092832,-2.0210593876587333
1687014980.061109,-0.9153679609298706,-0.13672678172588348,-0.37869176268577576,-0.6207038760185242,2.1339495182037354,0.09205538034439087,-1.4543144702911377,0.420696884393692,-0.6039940714836121,-1.178531894195969,0.13715640155369435,-2.1582242026770704
1687014980.078751,-0.8714746236801147,-0.24979621171951294,-0.4220593273639679,0.27058345079421997,-0.8730218410491943,-0.4105212688446045,3.0271544456481934,0.8411712646484375,-0.3682110905647278,-1.1197835423387672,0.2524697902486057,-2.0707932628733645
1687014980.1109161,-0.8731830716133118,-0.2555447518825531,-0.41502824425697327,0.1716296672821045,-0.2517032325267792,0.05135023593902588,-1.167393684387207,-0.7303435206413269,0.317595511674881,-1.1270991976412252,0.2584111147735738,-2.0557062461103897
1687014980.1755571,-0.8818333148956299,-0.24298299849033356,-0.40414056181907654,-0.07255828380584717,0.5194568634033203,0.22240829467773438,0.7160189747810364,0.42338788509368896,-0.16198280453681946,-1.1410650131402986,0.24543983489574236,-2.0566776661343344
1687014980.236061,-0.8699715733528137,-0.26205557584762573,-0.4177037477493286,0.12874537706375122,-0.22280773520469666,-0.20258131623268127,0.37878814339637756,0.12313205748796463,0.02440783753991127,-1.1231666834812952,0.2651516180762682,-2.034327921292394
1687014980.361117,-0.8781314492225647,-0.2592097520828247,-0.4021139442920685,-0.04836702346801758,-0.19435781240463257,0.0820455551147461,0.30466362833976746,-0.24566315114498138,0.41969072818756104,-1.141375684065191,0.2622039101128236,-2.006578668609051
1687014980.381911,-0.8820372819900513,-0.24890409409999847,-0.4000714421272278,-0.08141791820526123,0.1772029846906662,0.04837161302566528,0.2588641941547394,0.1781024932861328,0.005548662506043911,-1.1449721039921785,0.251548573778038,-2.0006756691798064
1687014980.449349,-0.8759577870368958,-0.25588110089302063,-0.40892907977104187,0.06388503313064575,-0.14812594652175903,-0.06902199983596802,-0.2483345866203308,0.16776517033576965,0.00319789070636034,-1.1340297210171326,0.25875904129138166,-1.9868651879537402
1687014980.466984,-0.8786125183105469,-0.24929867684841156,-0.4072965085506439,0.0098990797996521,0.016937747597694397,-0.019598662853240967,0.10397228598594666,-0.09436910599470139,0.13887476921081543,-1.1367168381786041,0.25195599248714656,-1.9916527877466006
1687014980.5329862,-0.8808258175849915,-0.2481154501438141,-0.4032179117202759,-0.012240588665008545,0.06343825161457062,0.059315264225006104,0.2934981882572174,0.02982674352824688,0.10069409012794495,-1.1414975677737305,0.2507343825345907,-1.9810366919551452
1687014980.548691,-0.8799976110458374,-0.24995006620883942,-0.4038926362991333,-0.0017772912979125977,-0.08377498388290405,0.016044676303863525,0.2713736295700073,0.16372448205947876,0.19322322309017181,-1.1405078998784772,0.2526286870675036,-1.962020392596433
1687014980.623306,-0.8798716068267822,-0.24004508554935455,-0.4101274907588959,-0.017528295516967773,0.013406231999397278,-0.051893413066864014,-0.1328134387731552,0.07046445459127426,0.1951364427804947,-1.1346165490520337,0.24241230068639688,-1.9568179584253496
1687014980.62684,-0.8807044625282288,-0.23472841084003448,-0.41141489148139954,0.007062554359436035,0.03814937174320221,0.01734134554862976,0.08394677191972733,0.11035633832216263,0.09563647955656052,-1.133778135902549,0.23693915729964812,-1.950563181973093
1687014980.7142081,-0.8782628178596497,-0.23142096400260925,-0.418448269367218,0.023648500442504883,0.021963492035865784,0.014914274215698242,0.20063431560993195,0.21708744764328003,0.1419142335653305,-1.1261656335225148,0.23353803738970957,-1.9435561165531852
1687014980.7335238,-0.876231849193573,-0.22532758116722107,-0.4259640872478485,0.0652424693107605,-0.056059807538986206,-0.020569145679473877,0.27449774742126465,0.25910627841949463,0.3972911238670349,-1.118304773103499,0.2272792541604213,-1.9259679696731766
1687014980.804142,-0.8749595284461975,-0.20753483474254608,-0.4374644458293915,0.127507746219635,-0.007263213396072388,-0.03941851854324341,0.5821583271026611,0.4640193283557892,0.8366886973381042,-1.1071627187043864,0.2090542535459604,-1.8935812930549372
1687014980.807704,-0.8743643164634705,-0.17960835993289948,-0.45080816745758057,0.22928375005722046,-0.11040027439594269,0.011599123477935791,1.1881556510925293,0.6058674454689026,1.5213618278503418,-1.0947594869656752,0.18058832205800546,-1.823828026291743
1687014980.862824,-0.8774490356445312,-0.11272615939378738,-0.4662362039089203,0.344108521938324,-0.12839332222938538,-0.0903739333152771,1.2565973997116089,0.3627066910266876,2.686335563659668,-1.08238112135691,0.11296627739609422,-1.7266960625437344
1687014980.9227161,-0.8797537088394165,-0.01886322721838951,-0.4750554859638214,0.27738243341445923,-0.16436442732810974,-0.04850411415100098,2.528944730758667,0.454243928194046,3.7905783653259277,-1.0756732209195867,0.018864346055080743,-1.562054062576911
1687014981.017242,-0.8511869311332703,0.12115823477506638,-0.5106872916221619,0.455053448677063,-0.33288928866386414,-0.13932186365127563,1.2712572813034058,0.8821650147438049,4.910872459411621,-1.0303983108581474,-0.12145663271391062,-1.3691934795353509
1687014981.0372682,-0.7706783413887024,0.3002942204475403,-0.562030553817749,0.5153224468231201,-0.17930734157562256,-0.13067269325256348,1.9483662843704224,0.8779451251029968,5.760061740875244,-0.9406966858962106,-0.30500108559078015,-1.1556566257811702
1687014981.073273,-0.6214861273765564,0.4512409567832947,-0.6404192447662354,0.45501261949539185,-0.35894057154655457,0.09059929847717285,1.9615964889526367,1.3876479864120483,6.440239429473877,-0.7703956852266016,-0.4681554190891273,-0.8538334316605511
1687014981.164535,-0.38443082571029663,0.5918951034545898,-0.7084301114082336,0.4777229428291321,-0.3895483613014221,0.41186022758483887,-0.4273086488246918,2.2644519805908203,7.017457485198975,-0.49718404085467666,-0.6334080258836394,-0.5024601686431154
1687014981.183296,-0.05901307985186577,0.7140134572982788,-0.6976406574249268,0.6142193078994751,-0.10169345140457153,0.571267306804657,-0.974088728427887,2.9706480503082275,7.0248332023620605,-0.08438861536138292,-0.7952139685370289,-0.07926461213335974
1687014981.256139,0.3297680914402008,0.6742098927497864,-0.6608283519744873,1.027470588684082,0.011840581893920898,0.7794044017791748,-0.5001200437545776,4.692413330078125,7.556869029998779,0.46286514596390715,-0.7398943687009606,0.4260608160231971
1687014981.259728,0.6693249344825745,0.5818518400192261,-0.46200940012931824,2.1279773712158203,0.930767297744751,0.5031012892723083,-1.7546355724334717,3.9100115299224854,5.634597301483154,0.9666360733224892,-0.6210037965296353,0.8561466219682127
1687014981.31359,0.8730937838554382,0.31803205609321594,-0.36954447627067566,0.4113606810569763,0.6562721729278564,0.6445688009262085,4.324948787689209,4.8895721435546875,3.612614393234253,1.1704015806661119,-0.3236530572555472,0.8372312325286366
1687014981.409027,0.9701864123344421,0.17179381847381592,-0.1709541380405426,0.5654886960983276,0.7389270067214966,-0.1486564725637436,2.3403539657592773,4.595559120178223,1.529098629951477,1.3963792654174771,-0.17265027267374322,0.7438260249114207
1687014981.428791,0.989491879940033,0.14451265335083008,0.004695881623774767,0.6175180673599243,0.4249758720397949,-0.4785881042480469,-2.330609083175659,2.906155824661255,-0.923780620098114,1.5755420416512416,-0.14502043990098257,0.7305616544012031
1687014981.496721,0.9904810786247253,0.1251785010099411,0.0572538785636425,-0.250582218170166,-1.172709584236145,-1.5858336687088013,-1.707905650138855,-0.7300376892089844,-0.13818959891796112,1.6285361845789292,-0.12550774061070075,0.9812856882344014
1687014981.616755,0.9991955757141113,0.03738707676529884,0.014504950493574142,0.18665647506713867,-0.702471911907196,-0.4053894281387329,3.7089710235595703,-1.491335153579712,3.3114442825317383,1.585311934992285,-0.037395792476326364,0.8277758432328371
1687014981.637543,0.996810793876648,-0.06790081411600113,-0.04192928224802017,-0.021148383617401123,1.4572135210037231,0.001981731504201889,1.2745715379714966,-0.8401252627372742,1.4112199544906616,1.5287576780959764,0.06795309896872812,0.8733714518949276
1687014981.7103992,0.99224454164505,-0.09387695789337158,-0.08147502690553665,0.003773033618927002,0.9237109422683716,-0.02179652452468872,-0.6378781199455261,-0.6410359144210815,-0.01796199008822441,1.4888682818501044,0.09401539533587315,0.8873779088156638
1687014981.7290912,0.9913540482521057,-0.07586684823036194,-0.10705848038196564,-0.10571861267089844,0.24273696541786194,0.27682769298553467,-1.1663352251052856,-0.3064342141151428,-0.6249358654022217,1.4632210523633944,0.07593981531927964,0.9323550116943837
1687014981.791631,0.9926637411117554,-0.018593711778521538,-0.11947043985128403,-0.019046127796173096,0.04496093466877937,0.14681416749954224,-1.7095202207565308,-0.01000668853521347,-0.9693565964698792,1.451019052326,0.01859478366881343,1.0039099957618378
1687014981.795207,0.9927602410316467,0.028356466442346573,-0.11671806126832962,0.08248084783554077,-0.09822643548250198,-0.019817642867565155,-0.6032351851463318,0.11838790029287338,-0.7639989256858826,1.4537643451301199,-0.02836026850926034,1.0526994971492047
1687014981.883016,0.991359293460846,0.06851747632026672,-0.11185869574546814,0.017689287662506104,-0.19548580050468445,-0.13600510358810425,-0.5986079573631287,-0.018794454634189606,-0.6337460875511169,1.4584378854401343,-0.06857119947013923,1.0775973739374962
1687014981.8867269,0.9889972805976868,0.09365955740213394,-0.11451028287410736,-0.0004870295524597168,-0.03579817712306976,-0.07408833503723145,-0.14384065568447113,-0.13286443054676056,-0.33830830454826355,1.4555253797589418,-0.09379703134667054,1.0984506235889135
1687014981.976932,0.987276554107666,0.10287647694349289,-0.1212499588727951,-0.0010704398155212402,-0.09681868553161621,0.05917716771364212,0.17729243636131287,-0.08883346617221832,-0.14373642206192017,1.4485957021471016,-0.10305881007603022,1.0861544297080656
1687014981.997369,0.9861456751823425,0.10987049341201782,-0.12427907437086105,-0.0021979212760925293,-0.003684528172016144,0.02241136133670807,-0.47471898794174194,-0.058597661554813385,-0.11316093802452087,1.4454321637378222,-0.1100927500344725,1.0954196739877726
1687014982.0636501,0.9859111905097961,0.11434542387723923,-0.12208385765552521,0.006566286087036133,0.021396830677986145,0.030622661113739014,0.2492963820695877,0.058880764991045,-0.029544610530138016,1.447595022125008,-0.11459607718184744,1.1022252006708653
1687014982.080336,0.9858739972114563,0.11530110985040665,-0.12148416042327881,0.023159325122833252,-0.015523836016654968,0.012078583240509033,0.07421225309371948,0.00994265079498291,-0.07539918273687363,1.4481895682307988,-0.1155581224780261,1.0917358677948483
1687014982.152718,0.9853845238685608,0.12237577140331268,-0.1184978038072586,0.010404109954833984,0.07206705212593079,-0.005617201328277588,-0.08586397022008896,0.024039562791585922,-0.13081610202789307,1.4511156430310848,-0.12268329462756346,1.096661039211187
1687014982.156245,0.9846339821815491,0.12798786163330078,-0.11880812793970108,0.0025487542152404785,0.021273642778396606,-0.008923232555389404,0.03404832258820534,-0.03698118403553963,-0.15829220414161682,1.4507146204373178,-0.12833989572036,1.0931658696728708
1687014982.214939,0.9824658632278442,0.14019326865673065,-0.12290987372398376,0.003023087978363037,-0.02544713020324707,-0.016158759593963623,-0.022115813568234444,-0.05809858441352844,-0.15929648280143738,1.4463394723689187,-0.14065660243914294,1.088878632103814
1687014982.307894,0.980963408946991,0.1472959667444229,-0.12655049562454224,0.01265859603881836,0.0026980042457580566,-0.001608148217201233,0.1283252239227295,-0.0441683866083622,-0.12512759864330292,1.442498598986543,-0.14783386158340664,1.088476751097377
1687014982.313198,0.9799985289573669,0.14865566790103912,-0.13230492174625397,-0.008425593376159668,-0.031712278723716736,0.03432817757129669,0.0149464663118124,-0.028247211128473282,-0.10924476385116577,1.4366024654903418,-0.14920868995023695,1.081560478406589
1687014982.36447,0.9793505668640137,0.15354794263839722,-0.13151396811008453,-0.025019943714141846,0.014893919229507446,0.011427268385887146,0.05400651693344116,-0.012126565910875797,-0.0525151751935482,1.4373079816740353,-0.15415780589562622,1.080577995719741
1687014982.458488,0.9799755215644836,0.1535639613866806,-0.1267525851726532,0.016148746013641357,0.005539447069168091,0.014707282185554504,0.14628437161445618,0.04198407381772995,-0.11885930597782135,1.4421678525035064,-0.15417401022867133,1.0757192966671618
1687014982.463939,0.979343593120575,0.16070353984832764,-0.12272236496210098,-0.005313992500305176,0.03044337034225464,-0.019001305103302002,-0.026784799993038177,0.05785371735692024,-0.1331053525209427,1.4461352948480848,-0.1614034094793299,1.075018143962768
1687014982.514697,0.9785682559013367,0.1666024774312973,-0.12102939933538437,0.0006035566329956055,-0.002280503511428833,-0.03500699996948242,0.10675075650215149,-0.08092733472585678,-0.06457342952489853,1.4477411563715128,-0.167382985876051,1.073966370433715
1687014982.573587,0.9769353270530701,0.17294318974018097,-0.12525314092636108,-0.006598353385925293,0.042465224862098694,-0.010916352272033691,-0.0831584632396698,-0.06041273847222328,-0.16990996897220612,1.4432817102145146,-0.1738171003741497,1.0764282781554135
1687014982.668521,0.9734929203987122,0.1890699416399002,-0.12870249152183533,-0.0001804828643798828,0.04637324810028076,-0.03406304121017456,-0.6624918580055237,-0.21990571916103363,-0.5338184237480164,1.439351696062941,-0.19021491588647035,1.087142866455414
1687014982.688272,0.9578065872192383,0.25698408484458923,-0.12870866060256958,0.016940176486968994,0.40706324577331543,-0.0708305835723877,-2.6177825927734375,-0.41195932030677795,-2.031827211380005,1.4372179756819565,-0.25990019101327433,1.1638878924885336
1687014982.753036,0.9124484062194824,0.39118844270706177,-0.12004037201404572,0.17887544631958008,0.4558117389678955,-0.3192601799964905,-1.280462622642517,-0.7621785998344421,-2.910210371017456,1.4399890011562746,-0.40192259281354364,1.2496034083493928
1687014982.756411,0.8280551433563232,0.5461934208869934,-0.12648215889930725,0.06368386745452881,0.6568859219551086,-0.17725934088230133,-1.384544014930725,-0.9769613742828369,-3.8686182498931885,1.4192218478838405,-0.5778131749877233,1.3060068584421516
1687014982.8121,0.6815215945243835,0.7198570966720581,-0.13165928423404694,0.2939574718475342,0.7549812197685242,-0.036248430609703064,-0.3033611476421356,-0.7195509076118469,-4.983287811279297,1.3799628224299403,-0.8035964521415051,1.3132321276149426
1687014982.906622,0.46416646242141724,0.8722938895225525,-0.15379548072814941,0.3327847719192505,0.38934868574142456,-0.032727956771850586,-0.0002494640648365021,-0.6956977844238281,-5.5401482582092285,1.250843633213865,-1.0598740589638989,1.1986583642747721
1687014982.911905,0.19459651410579681,0.9676573872566223,-0.16053563356399536,0.4667803943157196,0.411462664604187,0.19260959327220917,-0.13270078599452972,-0.23677246272563934,-5.948032855987549,0.8810161293873844,-1.3157729806038303,0.8311597184902371
1687014982.963326,-0.11049506068229675,0.9810925126075745,-0.15889813005924225,0.7081207036972046,0.5287952423095703,0.054238080978393555,0.23879261314868927,0.10286899656057358,-6.540852069854736,-0.6076205874359254,-1.376027880752899,-0.682208820077524
1687014983.053417,-0.42062079906463623,0.8891323804855347,-0.18033821880817413,0.6937987804412842,0.42533600330352783,0.20960457623004913,0.4108974039554596,0.3004084527492523,-6.785091876983643,-1.1657596141846351,-1.0954458523197033,-1.2729082186706198
1687014983.060221,-0.6957097053527832,0.6869091391563416,-0.21010498702526093,0.9927066564559937,0.640224039554596,0.3998175263404846,0.016613805666565895,0.7381659150123596,-7.288442134857178,-1.2775048077943227,-0.7572274224108133,-1.4420885362036007
1687014983.111442,-0.8943853974342346,0.36813464760780334,-0.2540706396102905,1.2719335556030273,0.9148242473602295,0.16820937395095825,0.4515516757965088,1.479130506515503,-8.63845157623291,-1.2940148694467748,-0.377001980664237,-1.5807873475177037
1687014983.243115,-0.9368294477462769,-0.060821402817964554,-0.34445828199386597,2.0262763500213623,0.4156339168548584,0.43776577711105347,3.7831673622131348,1.5681424140930176,-7.346986293792725,-1.2184540359239582,0.060858965682940025,-1.5906579641653418
1687014983.2635689,-0.8746050000190735,-0.35554808378219604,-0.3296235501766205,0.7261217832565308,-3.601651191711426,0.39839497208595276,4.317258834838867,0.20309893786907196,-2.1593050956726074,-1.2103760437480715,0.36350041507743663,-1.477419607783995
1687014983.323279,-0.8872782588005066,-0.30533871054649353,-0.3456958830356598,0.6496226191520691,-0.4390309154987335,-0.23847153782844543,-0.7140402793884277,0.14681394398212433,2.8120601177215576,-1.1992754849055418,0.3102940930724969,-1.4427433426376421
1687014983.326899,-0.9214423298835754,-0.2172231823205948,-0.32211536169052124,-0.33304381370544434,1.8839558362960815,-0.40719372034072876,0.23390837013721466,-1.3202228546142578,-0.6368617415428162,-1.2344980951437243,0.21896881696554998,-1.4363744613602114
1687014983.416337,-0.9004941582679749,-0.30537471175193787,-0.3096075654029846,-0.04227018356323242,-0.8228755593299866,-0.09990781545639038,0.3709774911403656,0.5110787153244019,-0.8565994501113892,-1.2396379790572096,0.3103319016261265,-1.4137347962565319
1687014983.4349341,-0.8974336385726929,-0.3128815293312073,-0.31099534034729004,0.10588395595550537,-0.3209534287452698,0.11200547218322754,0.22781193256378174,0.06016187742352486,0.6565399765968323,-1.2372085461827467,0.31822538758951086,-1.4015317564318885
1687014983.4721122,-0.9047800302505493,-0.2879457473754883,-0.313784122467041,0.027765870094299316,0.46040043234825134,0.15931940078735352,-0.08659739792346954,0.13103926181793213,0.10991767793893814,-1.236968808222635,0.292081042995855,-1.3919334596733484
1687014983.564338,-0.8978639841079712,-0.2950570583343506,-0.3267747163772583,0.01885092258453369,-0.09852826595306396,-0.09630569815635681,0.15364989638328552,0.3534751236438751,-0.11923640966415405,-1.2217511675156145,0.2995152261470437,-1.391177609327734
1687014983.5824409,-0.894374668598175,-0.30065685510635376,-0.3312091529369354,-0.09495943784713745,-0.10818728804588318,-0.12087821960449219,0.8788834810256958,0.19197171926498413,0.2176172435283661,-1.2161307311108351,0.30538130920019896,-1.361921020115859
1687014983.6551151,-0.8940616846084595,-0.306375652551651,-0.32678428292274475,-0.047756731510162354,0.12162208557128906,0.01667991280555725,0.4696595072746277,0.09017583727836609,-0.12068384140729904,-1.2203756508043186,0.3113832426362089,-1.3291327752233555
1687014983.6585588,-0.8874104022979736,-0.32869991660118103,-0.3232017755508423,-0.03458672761917114,-0.03227740526199341,0.054463982582092285,0.38828229904174805,0.13527926802635193,-0.39277446269989014,-1.221520737206888,0.33492667118245106,-1.310096977021861
1687014983.714445,-0.880815863609314,-0.3418322801589966,-0.3275882601737976,0.06825488805770874,-0.13991832733154297,-0.03589126467704773,-0.15633487701416016,0.07893569767475128,-0.06522457301616669,-1.214733429983722,0.3488659256592539,-1.3080957428890807
1687014983.810031,-0.8811703324317932,-0.33845674991607666,-0.33013010025024414,0.05727207660675049,0.04000997543334961,-0.0007414519786834717,-0.06936241686344147,0.026412837207317352,0.10189277678728104,-1.2123329128627014,0.3452763679018866,-1.3119693352823907
1687014983.827364,-0.881927490234375,-0.3312070667743683,-0.33541885018348694,0.02813720703125,0.037170082330703735,0.051101863384246826,-0.08862505853176117,0.13323542475700378,0.08877085149288177,-1.2073655703374562,0.3375825661992915,-1.3173871619550166
1687014983.8634171,-0.8823433518409729,-0.3184991776943207,-0.3464513421058655,0.018299221992492676,-0.13920357823371887,0.07333430647850037,-0.3996293544769287,0.17660434544086456,0.3358408212661743,-1.1966429361514834,0.32414579727877946,-1.3242391600299883
1687014983.9246612,-0.8856609463691711,-0.2885242700576782,-0.36381110548973083,0.03853875398635864,-0.21878477931022644,0.10299268364906311,-0.4743913412094116,0.39787307381629944,0.7123145461082458,-1.1810322038167818,0.29268520078703086,-1.3368219919081763
1687014984.0181231,-0.8899867534637451,-0.2334071546792984,-0.39172032475471497,0.011980772018432617,-0.34180355072021484,0.16064125299453735,0.08435423672199249,0.7187480330467224,1.6261247396469116,-1.1561707036499003,0.2355801545521123,-1.3243219811518445
1687014984.037113,-0.8899027109146118,-0.15234526991844177,-0.4299582839012146,-0.09888207912445068,-0.4659104645252228,0.147518128156662,1.067468285560608,1.285280704498291,2.5454816818237305,-1.1207177235265147,0.15294081109571725,-1.2531895751350988
1687014984.136174,-0.8647621870040894,-0.05285773053765297,-0.49939224123954773,-0.12052839994430542,-0.5921314358711243,0.22319293022155762,1.3881608247756958,2.2925219535827637,3.405492067337036,-1.0470921329171468,0.05288237380815569,-1.1258517214920276
1687014984.154911,-0.7823531627655029,0.08011342585086823,-0.6176614165306091,0.1204877495765686,-0.7521411180496216,0.42459189891815186,0.705650269985199,3.392686128616333,4.547919273376465,-0.9024957378142422,-0.08019937359234121,-0.9745904745019945
1687014984.224258,-0.5978568196296692,0.2372981160879135,-0.7656741738319397,-0.09647923707962036,-1.0632259845733643,0.6483188271522522,1.296205997467041,5.042901515960693,6.647536754608154,-0.6629384211012369,-0.2395835716749368,-0.7374656035784249
1687014984.227971,-0.15230774879455566,0.3355172276496887,-0.929639995098114,1.3141728639602661,-0.765647292137146,1.0624678134918213,0.6894826292991638,11.919936180114746,9.167523384094238,-0.16239247408477564,-0.34215422052495387,-0.3193772475033713
1687014984.3151379,0.3860003650188446,0.37954381108283997,-0.840803325176239,2.118455171585083,2.530749797821045,-1.0045336484909058,-5.0539960861206055,-0.6754282116889954,2.3590400218963623,0.4303834463694011,-0.3893031610472023,0.1283049072166361
1687014984.333597,0.3275412917137146,0.26408150792121887,-0.9071811437606812,-0.9537315368652344,-0.6576515436172485,0.5251010060310364,5.318389892578125,1.7825835943222046,-1.8798741102218628,0.34648826249382647,-0.26725151115956136,0.04378240058618859
1687014984.4042401,0.36735233664512634,0.28682732582092285,-0.8847498893737793,0.07467946410179138,0.6216351985931396,-0.352600634098053,-1.9920214414596558,0.19161351025104523,0.4516920745372772,0.3935448051266255,-0.29091335939993807,0.1052557548847217
1687014984.407742,0.3516300916671753,0.2625132203102112,-0.8985783457756042,0.32276254892349243,0.05038344860076904,0.06242722272872925,1.615383505821228,-0.23116303980350494,-0.19977492094039917,0.3729997671096268,-0.26562586248657144,0.059490216972299906
1687014984.496759,0.3376087546348572,0.24497763812541962,-0.9088488817214966,-0.05483296513557434,0.07440400123596191,-0.05657470226287842,0.04961516335606575,-0.3077612817287445,-0.44916266202926636,0.35567098689421456,-0.2474966264867854,0.042265745834862464
1687014984.590948,0.31410539150238037,0.2433723658323288,-0.9176642894744873,-0.010577619075775146,0.013021022081375122,0.05185002088546753,0.6078135967254639,-0.26433923840522766,-0.35330456495285034,0.3297879208681499,-0.24584124495084747,0.016967593633251617
1687014984.596983,0.3026353716850281,0.2205645889043808,-0.9272341132164001,0.004584997892379761,-0.12602120637893677,0.09675925970077515,0.25605934858322144,-0.1778034120798111,-0.22664089500904083,0.3154841489305491,-0.22239327102088852,-0.00454181269287514
1687014984.711324,0.29353564977645874,0.20928815007209778,-0.9327568411827087,-0.007326602935791016,-0.10644398629665375,0.061678290367126465,0.3048786222934723,-0.16120485961437225,-0.13338792324066162,0.3048850309930116,-0.21084692944764594,-0.01797922859718512
1687014984.732216,0.2889210879802704,0.1961718648672104,-0.9370385408401489,-0.03029996156692505,-0.02963753044605255,0.07307064533233643,0.33494582772254944,-0.00913410447537899,0.009253651835024357,0.29908525369686934,-0.19745239616831373,-0.024500190300261154
1687014984.82952,0.28931766748428345,0.18268983066082,-0.939638078212738,-0.01923719048500061,-0.03565622866153717,0.03819459676742554,0.26862919330596924,0.021800775080919266,-0.03258354216814041,0.2986916571138457,-0.18372163156080107,-0.030067775181956823
1687014984.8498101,0.29116544127464294,0.17066988348960876,-0.9413259029388428,0.00519070029258728,-0.011948034167289734,0.03400778770446777,0.08599141240119934,0.03552524000406265,-0.051202766597270966,0.29997984229045943,-0.171509480951345,-0.035071780625741907
1687014984.885903,0.28893065452575684,0.1754738688468933,-0.9411312341690063,0.010751903057098389,0.0014211833477020264,0.011535286903381348,-0.05718791484832764,-0.02287321910262108,-0.11289063096046448,0.29786962676870454,-0.17638708760263178,-0.03843095856571733
1687014984.8987389,0.28980642557144165,0.17798294126987457,-0.9403905272483826,-0.0019799768924713135,-0.017491087317466736,-0.02059274911880493,-0.095948226749897,0.014457641169428825,-0.06535293906927109,0.29894134925138566,-0.17893628527142064,-0.040726869311792445
1687014984.9007978,0.28369835019111633,0.19120633602142334,-0.9396570920944214,0.019142746925354004,-0.02291722595691681,-0.02579706907272339,-0.4929064214229584,-0.227664053440094,-0.2238893210887909,0.29321449934344623,-0.19239101673390094,-0.044743610443167096
1687014984.9411569,0.263901948928833,0.22897900640964508,-0.9369761943817139,0.023970305919647217,0.008325621485710144,-0.05002331733703613,-1.2244763374328613,-0.47922730445861816,-0.5040938258171082,0.274540672689062,-0.23102869641119966,-0.049914397697855994
1687014985.0034862,0.2124563306570053,0.32864755392074585,-0.9202462434768677,0.07092985510826111,0.054546356201171875,-0.1362113356590271,-2.453557014465332,-1.2093621492385864,-1.2761082649230957,0.2268935704938136,-0.33487122370358446,-0.06949722802828288
1687014985.070386,0.12007177621126175,0.4492853581905365,-0.8852826952934265,0.13912919163703918,0.04419904947280884,-0.039155781269073486,-2.5189290046691895,-1.5333961248397827,-1.8350064754486084,0.1348083809490876,-0.4659652669772753,-0.12788719774614374
1687014985.154654,-0.03560234606266022,0.6440435647964478,-0.7641599774360657,0.46176499128341675,0.033492445945739746,0.0993955135345459,-6.649261474609375,-2.391660690307617,-3.7587642669677734,-0.04655650958047831,-0.6997723911540551,-0.27878284451359453
1687014985.158455,-0.24812792241573334,0.7921569347381592,-0.5576019883155823,0.13014687597751617,0.42726439237594604,-0.1440582275390625,-2.5893683433532715,-1.4916237592697144,-3.9155406951904297,-0.4186807230542363,-0.9143350990940471,-0.6403576597791621
1687014985.215732,-0.45300137996673584,0.7820126414299011,-0.4280727207660675,0.4936200976371765,-0.03710901737213135,0.04780834913253784,-4.2549543380737305,-1.2002073526382446,-4.7907328605651855,-0.8136840999131445,-0.8978885412416251,-1.0675264399573083
1687014985.310147,-0.6545819640159607,0.7207886576652527,-0.22800548374652863,-0.04045593738555908,0.4015411138534546,0.06826120615005493,-3.9479174613952637,-0.8046132922172546,-4.947671890258789,-1.2356169225075562,-0.8049393876851676,-1.5424205681983887
1687014985.3142982,-0.829964280128479,0.5504602193832397,-0.09029468148946762,0.44861650466918945,0.6806341409683228,0.15776902437210083,-4.609482288360596,1.3142682313919067,-5.76324987411499,-1.462429081689843,-0.5829154019384168,-1.91666407667377
1687014985.365334,-0.9473985433578491,0.2880183458328247,-0.13957571983337402,0.1699938178062439,0.4124973714351654,0.5748631358146667,-0.3616475462913513,3.1425819396972656,-6.3159685134887695,-1.4245233064188514,-0.2921568515768879,-2.0693362696327418
1687014985.493554,-0.9473758339881897,0.014401455409824848,-0.31979960203170776,0.7563662528991699,-0.05250268429517746,-0.2280672788619995,-1.3170630931854248,4.30340051651001,-5.414953231811523,-1.2452433728607188,-0.014401953498584115,-2.191756965359905
1687014985.49846,-0.8731152415275574,-0.1987171322107315,-0.4451757073402405,1.2004315853118896,-2.039060592651367,-1.6464838981628418,6.046483516693115,0.9652476906776428,-0.20494066178798676,-1.099283537221239,0.20004877297754867,-2.153980409694018
1687014985.58046,-0.9072796702384949,-0.14093273878097534,-0.3962092399597168,0.19153565168380737,-0.9011052846908569,0.8437342047691345,-3.045596122741699,-0.575374186038971,2.2832705974578857,-1.1590573805548299,0.1414034874869323,-1.9796672883321098
1687014985.602491,-0.9128707051277161,-0.048738326877355576,-0.405329167842865,-1.0907914638519287,2.203294515609741,0.1105903685092926,0.30064111948013306,2.2321789264678955,-1.6561437845230103,-1.1529298596437094,0.04875764281569819,-2.116026402107218
1687014985.663826,-0.8592572808265686,-0.18431268632411957,-0.4771854281425476,0.6594281792640686,-0.931806743144989,-0.5945461988449097,2.8834750652313232,0.6906828880310059,-0.11863959580659866,-1.0638576855674573,0.1853725239474989,-2.0199544071480533
1687014985.681242,-0.8700105547904968,-0.16626662015914917,-0.464152067899704,0.08505266904830933,-0.3662804365158081,0.10985821485519409,-1.3051084280014038,-0.872424304485321,0.8424230217933655,-1.0807079718312318,0.1670423696541635,-1.999121773458566
1687014985.7218142,-0.8850619792938232,-0.12782803177833557,-0.4475770890712738,-0.12851834297180176,0.4336140751838684,0.2981172204017639,0.5241638422012329,0.3537239730358124,0.24686142802238464,-1.102598014017837,0.12817873745864092,-2.0082603202704625
1687014985.815119,-0.8738664984703064,-0.12897272408008575,-0.4687468409538269,0.061305463314056396,-0.17414319515228271,-0.14664018154144287,-0.09117776900529861,0.41022828221321106,0.36027851700782776,-1.0784501982986663,0.12933298721998948,-1.9877082897233966
1687014985.833753,-0.8790909647941589,-0.10534561425447464,-0.46486717462539673,-0.07310324907302856,-0.11409110575914383,-0.05252790451049805,0.3773888349533081,-0.29833167791366577,0.8044506311416626,-1.0843716305824804,0.10554144512505481,-1.9673569382168519
1687014985.908461,-0.883782684803009,-0.07057816535234451,-0.4625439941883087,-0.04700344800949097,0.14821481704711914,0.14459660649299622,-0.09289710968732834,0.25586479902267456,0.6757733225822449,-1.0886291898070275,0.07063689114944251,-1.9508922502168995
1687014985.9114351,-0.8738734126091003,-0.05176364257931709,-0.4833899140357971,0.06971997022628784,0.038015395402908325,-0.013009071350097656,0.7364656925201416,0.5490338206291199,0.5947884917259216,-1.0655319294112042,0.051786785329513016,-1.9199420739548594
1687014985.9605489,-0.8663561940193176,-0.026101430878043175,-0.49874430894851685,0.23711419105529785,-0.20574069023132324,-0.04308009147644043,0.2648766338825226,0.1560327559709549,1.4004932641983032,-1.0484508390457312,0.02610439532573946,-1.8722363787455358
1687014986.055506,-0.8691776990890503,0.04806254059076309,-0.4921586513519287,0.05889022350311279,-0.16372424364089966,0.08169719576835632,-0.1752375215291977,-0.3497167229652405,1.8051810264587402,-1.055574292032,-0.04808106407850892,-1.8276973607274407
1687014986.0596108,-0.8694334626197815,0.12094764411449432,-0.4790170192718506,-0.009793281555175781,-0.052222125232219696,0.02592247724533081,0.34042948484420776,-0.20748861134052277,1.679356575012207,-1.067221704758006,-0.12124447850467542,-1.7871883704303904
1687014986.113573,-0.8564336895942688,0.19500429928302765,-0.4780113101005554,0.16609549522399902,-0.10601507127285004,-0.09266740083694458,0.7373155951499939,-0.05489613488316536,2.3715314865112305,-1.0617238185012103,-0.19626183953115683,-1.7112614699767152
1687014986.203543,-0.8272983431816101,0.2926843464374542,-0.47949305176734924,0.29163849353790283,-0.1259211003780365,-0.030028462409973145,0.7034342288970947,-0.3635004460811615,3.127312183380127,-1.0455201000874426,-0.29703291750027877,-1.6085190853513087
1687014986.225037,-0.7756614685058594,0.41059771180152893,-0.47933170199394226,0.3322715163230896,-0.0950002670288086,0.06876343488693237,1.1836960315704346,-0.4021349251270294,3.8386714458465576,-1.0172718277802686,-0.42310948964177314,-1.4714119509017602
1687014986.267161,-0.6776999831199646,0.5401338934898376,-0.49897730350494385,0.33308011293411255,-0.2997012734413147,0.05248981714248657,1.011796474456787,0.009758359752595425,4.866549491882324,-0.9361336626407424,-0.5705962286745321,-1.2804149209465756
1687014986.353632,-0.512923002243042,0.6639034748077393,-0.544189453125,0.2936388850212097,-0.29297763109207153,0.07452398538589478,1.5145224332809448,0.6122736930847168,5.515336513519287,-0.7558295135316361,-0.7260265566642399,-1.0087232837657294
1687014986.37356,-0.2747405171394348,0.7527186870574951,-0.5982744693756104,0.37360212206840515,-0.7729213237762451,0.15290087461471558,0.31934383511543274,1.0302451848983765,6.524478912353516,-0.4304960425244088,-0.8521819986729909,-0.6123190024895852
1687014986.412684,0.035652607679367065,0.8159956336021423,-0.576957643032074,0.47269386053085327,-0.8076795339584351,0.3767927885055542,-1.691161870956421,1.0710489749908447,7.8165059089660645,0.061715676823255,-0.9544494622476136,-0.05418794603294902
1687014986.5066829,0.4190309941768646,0.7876175045967102,-0.45174309611320496,1.1532955169677734,-0.5615279674530029,0.43656060099601746,-3.8034980297088623,1.3266863822937012,9.630247116088867,0.7478491367997656,-0.9069327097349943,0.7179854082492927
1687014986.510415,0.8072265982627869,0.4928966760635376,-0.3247127830982208,3.454446315765381,1.2533345222473145,0.08324241638183594,3.7219772338867188,2.2833034992218018,11.226394653320312,1.1883455178538527,-0.5154157920626392,1.1972898688689138
1687014986.562346,0.9517374038696289,0.09996430575847626,-0.2901781499385834,0.5296012163162231,0.8512991666793823,0.10460066795349121,6.3034539222717285,2.131404399871826,1.4252009391784668,1.2748565341367837,-0.10013154962402118,1.017925020589823
1687014986.652698,0.9735151529312134,0.09935265779495239,-0.2059069275856018,0.08304935693740845,0.14912152290344238,-0.29139235615730286,-5.416178226470947,0.9396512508392334,1.2531535625457764,1.3623595907177877,-0.0995168426192709,1.0814955899384147
1687014986.6565552,0.9886443018913269,0.02384823188185692,-0.14837190508842468,-0.0928921103477478,1.43173348903656,-0.7439315915107727,3.8883605003356934,1.2360693216323853,1.6619893312454224,1.4218319280380187,-0.02385049380611814,1.1669007121156212
1687014986.713779,0.9937384724617004,-0.030814262107014656,-0.10739937424659729,0.1711328625679016,0.07923044264316559,-0.3019634485244751,-0.6083978414535522,0.18201960623264313,-0.0229591466486454,1.4631380995337435,0.030819140066319268,1.0467935285542511
1687014986.800838,0.9929195642471313,-0.005588112398982048,-0.11865794658660889,-0.10383564233779907,0.350528359413147,-0.2739507555961609,-0.9669660925865173,-0.35992395877838135,-0.6192257404327393,1.4518563001693705,0.005588141420097993,1.1023845731131363
1687014986.822478,0.9899935722351074,0.03055899776518345,-0.137764111161232,-0.07692289352416992,0.11684096604585648,0.020958080887794495,-0.29927265644073486,-0.36790502071380615,-0.6608853340148926,1.4325276974651684,-0.03056375561918249,1.125120694687894
1687014986.861979,0.9864717125892639,0.06348000466823578,-0.1511424034833908,0.01032400131225586,0.027889683842658997,0.11391092836856842,-0.43047329783439636,-0.19860683381557465,-0.5898510813713074,1.4187634715275468,-0.0635227157567099,1.1380653180977884
1687014986.95365,0.983000636100769,0.09613703936338425,-0.15642115473747253,0.03918570280075073,-0.06575670838356018,0.060183942317962646,-0.1437385231256485,-0.057030122727155685,-0.5760031938552856,1.4129931757707985,-0.09628574455786401,1.14576928392203
1687014986.97372,0.9806234836578369,0.1175294890999794,-0.1567317098379135,-0.019258558750152588,-0.07497265189886093,0.017846211791038513,0.030097655951976776,0.010018284432590008,-0.26898330450057983,1.4123081605620307,-0.11780175836960426,1.1468611571061447
1687014987.010209,0.9799613356590271,0.12585733830928802,-0.15438847243785858,0.0003090500831604004,-0.12729158997535706,-0.008102402091026306,0.4974013864994049,0.08746501058340073,-0.046263135969638824,1.41453523717184,-0.12619199239617784,1.1363331392841438
1687014987.104239,0.9811879396438599,0.11794932186603546,-0.15283504128456116,0.04701042175292969,-0.01681400090456009,-0.05354011058807373,0.8756037950515747,0.16427576541900635,0.09605646133422852,1.4162727558063923,-0.11822453776491734,1.1026955024302616
1687014987.124332,0.9830774068832397,0.10874637961387634,-0.14742302894592285,0.010025858879089355,-0.017575040459632874,0.05513779819011688,0.3487590551376343,0.20769767463207245,0.1274748295545578,1.4219447589854237,-0.10896186409942248,1.0729181633641696
1687014987.1925259,0.9854572415351868,0.09496451169252396,-0.14091143012046814,-0.05972164869308472,0.04968884587287903,-0.015399634838104248,0.7833101749420166,0.1876751035451889,0.25988322496414185,1.4287681842979811,-0.0951078274536073,1.0472347551144456
1687014987.286542,0.9874006509780884,0.08101063221693039,-0.13593174517154694,0.059382855892181396,-0.061662457883358,-0.07251857221126556,-0.03883593529462814,0.05998384580016136,0.15504761040210724,1.4339899997744165,-0.08109949993157134,1.0278433501995885
1687014987.3075662,0.9882166385650635,0.0744020864367485,-0.13376256823539734,0.009235203266143799,0.03848246484994888,0.00015652179718017578,0.16672566533088684,0.04574405774474144,0.06424073874950409,1.436256480091562,-0.07447090100837174,1.025828015207588
1687014987.373189,0.9882559776306152,0.07402171939611435,-0.133681982755661,-0.01790386438369751,0.046370163559913635,0.021117880940437317,0.13346366584300995,-0.006503567099571228,-0.092471644282341,1.436341849260714,-0.07408948054403088,1.0172887059762725
1687014987.376718,0.9874992370605469,0.08315866440534592,-0.13390357792377472,-0.0162467360496521,0.09488092362880707,-0.009468019008636475,-0.09521885216236115,-0.014388788491487503,-0.2001376450061798,1.4360197050065886,-0.0832548077826645,1.0169358869674217
1687014987.46812,0.9862649440765381,0.09995775669813156,-0.13149090111255646,-0.0006387829780578613,0.014040693640708923,-0.05027179419994354,-0.04966135323047638,-0.036351341754198074,-0.26748794317245483,1.4382558518027306,-0.1001249618413847,1.0176322491115342
1687014987.4890041,0.9837519526481628,0.11915674805641174,-0.13429050147533417,0.010465025901794434,-0.06079182028770447,-0.022691965103149414,-0.018620016053318977,-0.07403014600276947,-0.23647941648960114,1.4351264042179346,-0.11944053347814025,1.015608893672198
1687014987.5528212,0.9816529154777527,0.1287693828344345,-0.1406283676624298,0.00845956802368164,-0.03161659836769104,0.002704128623008728,0.03883981704711914,-0.0941908061504364,-0.17196832597255707,1.4285077147090577,-0.1291279282060971,1.0152372833661758
1687014987.5710058,0.9809507727622986,0.1282399445772171,-0.1459125578403473,0.003637969493865967,-0.05875135958194733,0.023048758506774902,-0.010563487187027931,-0.055130090564489365,-0.15240368247032166,1.4231329588315147,-0.12859406647445268,1.0117813139034442
1687014987.613817,0.981191873550415,0.12696878612041473,-0.14540134370326996,-0.01601243019104004,-0.012878775596618652,0.02401764690876007,0.018143124878406525,-0.015142728574573994,-0.0702853798866272,1.4236784962341054,-0.12731242954562538,1.0115376499907214
1687014987.70192,0.9819517731666565,0.1225886419415474,-0.14402413368225098,0.02326679229736328,0.018921412527561188,-0.044574543833732605,0.05372855067253113,-0.04435094818472862,-0.03530023247003555,1.4251634203546995,-0.1228977835202471,1.0099264446594245
1687014987.7205381,0.9816930890083313,0.12386289238929749,-0.14469577372074127,0.0009119510650634766,0.0446246862411499,-0.03158901631832123,0.08835796266794205,-0.04239232838153839,-0.034540168941020966,1.4244559035915048,-0.12418181744788896,1.0081407712636874
1687014987.764544,0.9804747104644775,0.12588085234165192,-0.15107491612434387,-0.007208049297332764,0.035221487283706665,-0.11664056777954102,0.09830107539892197,-0.13195030391216278,-0.08295802772045135,1.4179152043276402,-0.12621569509897146,1.0027125453069152
1687014987.890867,0.9764714241027832,0.14211826026439667,-0.16219191253185272,0.015517771244049072,0.12594819068908691,-0.19846487045288086,-0.5677531957626343,-0.3955917954444885,-0.6658012270927429,1.4061990390691195,-0.14260106327375824,1.0096662994570573
1687014987.894825,0.9581313729286194,0.21735668182373047,-0.18638868629932404,0.09911972284317017,0.3054705262184143,-0.09702807664871216,-1.201259970664978,-0.9233272671699524,-2.2881662845611572,1.3786624528773486,-0.2191055835472689,1.0387378597942876
1687014988.010209,0.9034383296966553,0.3754006624221802,-0.20705942809581757,0.14241427183151245,0.5980033874511719,-0.15494011342525482,-2.4612574577331543,-1.3397738933563232,-3.408784866333008,1.3454969645424657,-0.3848290024129316,1.1136746894418783
1687014988.0150828,0.8068646788597107,0.5454595685005188,-0.226811021566391,0.02933216094970703,0.5591394305229187,-0.2877458930015564,-2.0242319107055664,-1.5502352714538574,-3.8175060749053955,1.296766331424344,-0.5769373293048495,1.1724148173165425
1687014988.101694,0.6588655710220337,0.7156867384910583,-0.2317088395357132,0.1253141164779663,0.5072748064994812,0.063587486743927,-0.8588880300521851,-1.0274944305419922,-4.574958801269531,1.2326269787244337,-0.7976068463623477,1.178542419805004
1687014988.124116,0.4634307026863098,0.8530251979827881,-0.23995821177959442,0.2925659120082855,0.43380945920944214,0.012632772326469421,0.024706684052944183,-0.5461162328720093,-4.812699317932129,1.0930208884340793,-1.0217549603183493,1.0504193378400302
1687014988.184496,0.23337310552597046,0.9464311003684998,-0.2231713831424713,0.39582300186157227,0.40482640266418457,0.13828670978546143,-1.0893930196762085,-0.24217747151851654,-5.224669933319092,0.807739946618224,-1.2419980560744448,0.7605208330166069
1687014988.203261,-0.04854002594947815,0.985247790813446,-0.16410648822784424,0.643419086933136,0.9589508771896362,0.12454044818878174,-0.9652587175369263,0.3148976266384125,-6.563317775726318,-0.28758416437825535,-1.3988160553323192,-0.3621690939109751
1687014988.273427,-0.39590588212013245,0.9081040024757385,-0.13640402257442474,1.108903169631958,0.8217698335647583,0.30876731872558594,-0.9883701205253601,0.9662640690803528,-8.025372505187988,-1.2389970321022916,-1.138733744423722,-1.3739253494555297
1687014988.2760391,-0.7379187345504761,0.6621836423873901,-0.13034182786941528,1.7010533809661865,1.3994464874267578,0.4546521306037903,-0.7658700346946716,2.6462788581848145,-9.553680419921875,-1.3959652762756998,-0.7237290693222669,-1.6718141662634372
1687014988.364361,-0.9334443807601929,0.21368393301963806,-0.2881336212158203,2.1984894275665283,0.8296967148780823,0.5370655059814453,3.208409309387207,3.592736005783081,-10.366355895996094,-1.2713973250419985,-0.21534444519840498,-1.7370769897342866
1687014988.3840961,-0.8753155469894409,-0.22682078182697296,-0.4270539879798889,2.9366559982299805,-2.2827160358428955,-0.6376279592514038,3.225865602493286,1.3212987184524536,-5.132339954376221,-1.1168869970349207,0.228812139835625,-1.7648342945347713
1687014988.484117,-0.8595287203788757,-0.3635231554508209,-0.3592509925365448,0.7835094928741455,-3.1463799476623535,0.2430247962474823,0.23119235038757324,-0.7917054295539856,3.583199977874756,-1.1749013466999607,0.3720470216231465,-1.6115431672194944
1687014988.504228,-0.9205877184867859,-0.19888873398303986,-0.336097776889801,0.2596379518508911,2.0305840969085693,0.7317734360694885,-4.162353038787842,-1.636511206626892,2.1062049865722656,-1.2207416496030528,0.2002238674756373,-1.6556391884009594
1687014988.572849,-0.904339075088501,-0.24372069537639618,-0.350387305021286,-0.2231176495552063,0.3629985451698303,-0.1896517276763916,2.056807518005371,1.5970805883407593,-2.833829164505005,-1.2011544092346083,0.2462003982699989,-1.7147753989167254
1687014988.5763721,-0.8743891716003418,-0.32123371958732605,-0.36366569995880127,0.23446601629257202,-1.0300236940383911,-0.07992255687713623,-0.35288694500923157,-0.001591899199411273,-0.3498728275299072,-1.1766515713539436,0.3270319793929564,-1.6859329123665499
1687014988.6660209,-0.883377730846405,-0.2982077896595001,-0.3615468442440033,0.15377867221832275,0.06912750005722046,0.3399251103401184,0.11355652660131454,0.09042351692914963,0.6841420531272888,-1.1823175697609751,0.30281446382191424,-1.6882327865933324
1687014988.685594,-0.8808172345161438,-0.29211482405662537,-0.37259918451309204,-0.0524560809135437,0.2826390266418457,0.20873498916625977,0.6327704191207886,0.7562401294708252,-0.10650916397571564,-1.1706079377431278,0.2964373747711112,-1.660191040207596
1687014988.7530808,-0.8618167638778687,-0.31874537467956543,-0.39455461502075195,-0.04258692264556885,-0.02904832363128662,-0.16664838790893555,1.455310344696045,0.8563970923423767,-0.10996514558792114,-1.1414605943415266,0.32440551824945396,-1.6173276767567826
1687014988.7704759,-0.8514683842658997,-0.34169214963912964,-0.3978043496608734,0.0015385746955871582,-0.1696605086326599,-0.16938012838363647,1.054296851158142,0.3513636291027069,0.28182846307754517,-1.1337329157894696,0.34871683433941736,-1.546898618783417
1687014988.906835,-0.8538328409194946,-0.34259238839149475,-0.39191827178001404,-0.02749955654144287,0.03517341613769531,-0.038150668144226074,0.4120267927646637,-0.050626687705516815,0.1842252016067505,-1.1404745615246659,0.3496748892535659,-1.5102974834535197
1687014988.912815,-0.8546370267868042,-0.35580211877822876,-0.3781542181968689,-0.0139542818069458,-0.03436526656150818,0.0773424506187439,1.0241416692733765,0.13295459747314453,0.00030569732189178467,-1.1542190503735028,0.3637722021706245,-1.471171650016173
1687014988.996515,-0.8547393679618835,-0.3603178858757019,-0.37361976504325867,-0.006604015827178955,-0.41212794184684753,0.12900614738464355,0.7055566310882568,0.3584095537662506,0.6926705837249756,-1.158708734155846,0.3686086438595961,-1.4254502833667064
1687014989.019609,-0.8655866384506226,-0.3264217972755432,-0.3797484040260315,-0.015227079391479492,-0.3476963937282562,0.1821470856666565,1.5214190483093262,0.8581498861312866,1.7942442893981934,-1.1573640677058148,0.33251554317142396,-1.3455903145474004
1687014989.084951,-0.8721349835395813,-0.2691262364387512,-0.4085974097251892,-0.03651070594787598,-0.24486622214317322,0.15626287460327148,2.205730438232422,1.7035781145095825,2.337934732437134,-1.1326627148930382,0.2724856806070177,-1.212674341813415
1687014989.103225,-0.8553815484046936,-0.21690133213996887,-0.47040027379989624,-0.07531309127807617,-0.31613409519195557,0.15259027481079102,2.296994924545288,2.489812135696411,2.4779627323150635,-1.068006576967143,0.2186391074135013,-1.04717489219104
1687014989.173514,-0.8048524856567383,-0.16065484285354614,-0.5713165998458862,-0.012515127658843994,-0.3823140859603882,0.32694709300994873,1.656206727027893,3.3690857887268066,2.812544345855713,-0.9534967370174439,0.1613540731647185,-0.8880520682120153
1687014989.176108,-0.7050362229347229,-0.08620762825012207,-0.7039121985435486,0.040683746337890625,-0.41022196412086487,0.4677519202232361,1.303231120109558,4.1290507316589355,3.601821184158325,-0.7861959452894827,0.0863147680143811,-0.7319211872539749
1687014989.3291411,-0.5139859914779663,0.004944539163261652,-0.8577843308448792,-0.19116854667663574,-0.7450112104415894,1.0735894441604614,1.1663333177566528,6.815331935882568,5.416642189025879,-0.5398324175341612,-0.0049445593138232,-0.5234123035721175
1687014989.33531,-0.01127945352345705,0.10945263504981995,-0.9939280152320862,2.696215867996216,-0.2409377247095108,1.6107797622680664,-1.276403784751892,15.0775785446167,5.890320301055908,-0.011347873295168844,-0.10967236238491908,-0.22626017517400882
1687014989.387332,0.29121243953704834,-0.03392191231250763,-0.9560568332672119,-0.12061923742294312,2.5065321922302246,-0.10401707887649536,6.535136699676514,-1.362042784690857,0.542013943195343,0.29566926003785704,0.03392842171888528,-0.00800071587620726
1687014989.407504,0.2852005958557129,-0.04746994748711586,-0.9572916030883789,-0.012251436710357666,-0.0703737810254097,-0.6860799789428711,-2.5159404277801514,0.7140763998031616,0.47146815061569214,0.2895515511454152,0.047487793660200325,-0.048288465407698516
1687014989.410095,0.3007403314113617,-0.06715933978557587,-0.9513384699821472,0.2935131788253784,-0.1840004324913025,-0.03833132982254028,0.44645747542381287,-0.1473923772573471,0.039779335260391235,0.30618247231884826,0.06720993063257376,-0.060419056336004105
1687014989.472937,0.28963497281074524,-0.046905506402254105,-0.9559871554374695,0.015662819147109985,0.19114673137664795,-0.282492458820343,0.1766749769449234,-0.28949835896492004,-0.18963921070098877,0.2941789039470763,0.0469227232762203,-0.06587065379081601
1687014989.567507,0.26903998851776123,-0.04747990518808365,-0.9619579911231995,-0.0054597556591033936,0.04099481925368309,0.030439436435699463,-0.21613441407680511,-0.5380105972290039,-0.1909516155719757,0.272711547349498,0.0474977623190398,-0.07198508302563347
1687014989.5880718,0.2511988580226898,-0.04082074388861656,-0.9670743346214294,-0.027306705713272095,0.030551470816135406,0.08349889516830444,0.20164117217063904,-0.19809657335281372,-0.11776314675807953,0.2541351401401664,0.04083208738033218,-0.08110515468989685
1687014989.715966,0.24691863358020782,-0.0511569119989872,-0.9676849246025085,0.0229787677526474,0.01743488386273384,0.06442564725875854,0.14647120237350464,-0.07091611623764038,-0.08442649990320206,0.2498332263597306,0.051179251494767465,-0.0868950652116023
1687014989.744436,0.2416028529405594,-0.05380760505795479,-0.9688822627067566,-0.022471442818641663,-0.023707151412963867,0.04122418165206909,0.07534056901931763,-0.1485951989889145,-0.13039612770080566,0.24437852338100713,0.053833602504249935,-0.09375718694165798
1687014989.747963,0.2351374328136444,-0.05037442594766617,-0.9706558585166931,-0.03028826415538788,-0.05774946138262749,0.047895848751068115,-0.19797086715698242,-0.1478670835494995,-0.14703288674354553,0.23766750905081271,0.05039575664349632,-0.10064150178905192
1687014989.7509599,0.23018087446689606,-0.03391069173812866,-0.9725568294525146,-0.0023519694805145264,-0.041589897125959396,0.028312504291534424,-0.45206066966056824,-0.10016561299562454,-0.1294592171907425,0.2323996608403941,0.03391719277395883,-0.10442867278236269
1687014989.770582,0.22197888791561127,-0.0010198373347520828,-0.9750509262084961,0.0048429518938064575,-0.028032999485731125,0.010176658630371094,-0.8206361532211304,-0.26930269598960876,-0.2558845579624176,0.22384364544265276,0.0010198374704501773,-0.10603767930149964
1687014989.842941,0.20569667220115662,0.038071177899837494,-0.9778749942779541,0.010672897100448608,0.007949233055114746,0.0005037188529968262,-0.5654525756835938,-0.3575393557548523,-0.3023329973220825,0.20732804046328823,-0.038080380283081194,-0.11229366595647847
1687014989.8916721,0.18021859228610992,0.08525608479976654,-0.9799247980117798,0.060107260942459106,-0.0771842896938324,-0.017954230308532715,-1.538948893547058,-0.7116513848304749,-0.6396998763084412,0.1818782413347358,-0.08535970966052846,-0.12608166676662536
1687014989.960295,0.12879522144794464,0.2070179432630539,-0.969822347164154,0.06802782416343689,-0.09074606001377106,0.019306600093841553,-3.007802963256836,-1.082173466682434,-0.9047866463661194,0.13203033495748637,-0.20852587710407106,-0.14673179792716073
1687014990.015754,0.06268075853586197,0.3551757335662842,-0.932695746421814,0.07039106637239456,-0.023159801959991455,0.026613593101501465,-2.9514224529266357,-1.089766502380371,-1.08885657787323,0.06710296892741521,-0.36310204383082134,-0.1823109802437038
1687014990.115057,-0.01647048071026802,0.5208660960197449,-0.8534795045852661,0.09100958704948425,-0.15555542707443237,0.11873829364776611,-4.8731689453125,-1.3246675729751587,-1.3534208536148071,-0.019295643634606927,-0.5478652193129029,-0.24412852158046544
1687014990.136078,-0.11977257579565048,0.7404769062995911,-0.6613233089447021,0.025961466133594513,-0.02708280086517334,0.07604193687438965,-6.478646278381348,-1.362372875213623,-1.7864512205123901,-0.17916835719414756,-0.833779707062905,-0.38067980836207654
1687014990.16061,-0.23105168342590332,0.8785445690155029,-0.4180606007575989,0.04942621290683746,0.17193150520324707,0.0236361026763916,-4.508907318115234,-0.9096930623054504,-2.0213510990142822,-0.5048947016513974,-1.0728065886105513,-0.705111182351523
1687014990.257927,-0.34646856784820557,0.9061957597732544,-0.24242261052131653,0.1747155487537384,0.12578654289245605,0.13677075505256653,-3.619842052459717,-0.46624720096588135,-2.6718223094940186,-0.960274533930288,-1.134199061490556,-1.173551966471814
1687014990.2615042,-0.47621646523475647,0.875333309173584,-0.08372429013252258,0.16666129231452942,0.2283654808998108,0.1132957935333252,-2.864152669906616,-0.11395026743412018,-2.9628682136535645,-1.3967634645222469,-1.0661247642694889,-1.642640983666359
1687014990.346535,-0.6060627698898315,0.7951749563217163,0.01961868442595005,0.11472970247268677,0.2993532419204712,0.2602427005767822,-2.5343267917633057,0.4316675066947937,-3.256293535232544,-1.603155742291544,-0.919296045433309,-1.8951647960375195
1687014990.35042,-0.7490611672401428,0.6552987694740295,0.09742289036512375,0.31397193670272827,0.7820181846618652,0.45117640495300293,-3.6719777584075928,1.6160974502563477,-4.591119766235352,-1.7001303228828113,-0.7145780717755158,-2.094373666931927
1687014990.403912,-0.8977358937263489,0.43352457880973816,0.07827402651309967,0.2037813663482666,0.9545674324035645,0.518604040145874,-1.8562899827957153,3.7909398078918457,-4.960971355438232,-1.6577668632025646,-0.4484003667174214,-2.249330851762002
1687014990.498225,-0.971686065196991,0.19421672821044922,-0.1345590204000473,0.016928374767303467,0.1611451953649521,0.15723355114459991,-0.6500956416130066,5.834627628326416,-5.050137042999268,-1.4331915492218168,-0.1954589099348774,-2.3030084446033197
1687014990.5193129,-0.9114816188812256,-0.04119491204619408,-0.40927305817604065,0.7668282389640808,-0.5179482102394104,-2.411008834838867,7.185042381286621,4.444427490234375,-3.3829710483551025,-1.1487580326873101,0.04120657074335193,-2.2873125226857636
1687014990.551231,-0.8965516090393066,-0.13817916810512543,-0.4208347201347351,0.38924264907836914,-3.146580457687378,1.0113040208816528,-1.923805594444275,-0.23635300993919373,2.170077323913574,-1.1319330390815898,0.1386227102128614,-1.9476377985227407
1687014990.614531,-0.9168639183044434,0.017312902957201004,-0.3988247215747833,-0.45990628004074097,2.477987289428711,0.5430659055709839,-4.732722282409668,-0.40438756346702576,-0.5425925254821777,-1.1604963340907435,-0.01731376725453642,-2.1421276553128967
1687014990.70927,-0.8859589695930481,-0.08672334998846054,-0.4555830955505371,0.1935914158821106,-0.47466281056404114,-0.25965744256973267,3.921264171600342,1.5660483837127686,-0.8797886371612549,-1.0958328486995383,0.08683242418279187,-2.100839409575956
1687014990.712964,-0.8774413466453552,-0.11541420966386795,-0.46559256315231323,0.16757190227508545,-0.6989016532897949,-0.11315810680389404,-0.8020068407058716,-0.4667932689189911,0.527669370174408,-1.0829497034966795,0.1156719872799042,-2.043150236861617
1687014990.76191,-0.8901113271713257,-0.08570642024278641,-0.44761183857917786,-0.06547033786773682,0.5694862604141235,0.3195752799510956,0.7266404032707214,0.0096393171697855,0.2894895672798157,-1.104853955556222,0.08581169561680249,-2.041219625243661
1687014990.826812,-0.8754276633262634,-0.09943561255931854,-0.47301051020622253,0.0766301155090332,-0.09497667849063873,0.013736158609390259,0.17126263678073883,0.7364412546157837,-0.031577132642269135,-1.075415853258827,0.09960020800256943,-2.0065570510900117
1687014990.914637,-0.8666555285453796,-0.09709238260984421,-0.48936840891838074,-0.02297765016555786,-0.31048518419265747,-0.13682183623313904,-0.04861719533801079,0.13190703094005585,0.40705323219299316,-1.056765189500004,0.09724557942909604,-1.9976110839295722
1687014990.936096,-0.8693716526031494,-0.07500418275594711,-0.48843371868133545,-0.12141209840774536,0.25087693333625793,-0.06707781553268433,0.12042348831892014,-0.04020693898200989,0.10173485428094864,-1.058920649870747,0.07507468352513832,-2.004821409755508
1687014991.002481,-0.8631502985954285,-0.09455054253339767,-0.4960159361362457,-0.05256009101867676,-0.129372239112854,0.09173426032066345,0.3207017183303833,0.4112686514854431,-0.2569255828857422,-1.0492193760874708,0.0946919913728169,-1.9828397320874698
1687014991.0204182,-0.8525910377502441,-0.09342848509550095,-0.5141592621803284,0.02649545669555664,0.06736642122268677,-0.1178598403930664,-0.24098317325115204,0.3437250256538391,-0.004618753679096699,-1.0281335535676983,0.09356494463778656,-2.0006838449524507
1687014991.0926452,-0.8455549478530884,-0.0943896472454071,-0.5254782438278198,0.08450758457183838,0.015242241322994232,-0.07410061359405518,0.519766092300415,0.244774729013443,0.3339345455169678,-1.0147469433061256,0.09453036805383283,-1.9833133589607825
1687014991.095227,-0.8421324491500854,-0.08614350110292435,-0.5323460102081299,0.15701282024383545,0.033058106899261475,-0.03691369295120239,0.6571188569068909,0.21105019748210907,0.7584391832351685,-1.0070787507526835,0.08625039772426037,-1.945726329676809
1687014991.152813,-0.8430607914924622,-0.05784961208701134,-0.5346980094909668,0.25338488817214966,-0.15732990205287933,-0.0717473030090332,0.713251531124115,0.003053185995668173,1.6052974462509155,-1.0055841804345187,0.057881926596918716,-1.8846045960214022
1687014991.214433,-0.8531966209411621,0.006867701653391123,-0.521544337272644,0.1745924949645996,-0.15019358694553375,-0.028504490852355957,1.100368857383728,-0.5373079180717468,2.433650255203247,-1.0221220006712617,-0.006867755783483967,-1.7965153291341496
1687014991.277293,-0.8621468544006348,0.09461889415979385,-0.49774518609046936,0.253839910030365,-0.20297163724899292,-0.016247153282165527,1.497024655342102,-0.6866653561592102,3.3037991523742676,-1.0472110630646574,-0.09476065183941063,-1.6654096522393522
1687014991.281159,-0.8459928631782532,0.2189847230911255,-0.48614999651908875,0.3155820965766907,-0.16208478808403015,-0.05202752351760864,1.7666630744934082,-0.40803781151771545,4.304445266723633,-1.0492249483363896,-0.22077380969566907,-1.4981253195616449
1687014991.333641,-0.7814972400665283,0.36635565757751465,-0.5050204992294312,0.42410582304000854,-0.19429758191108704,0.05903661251068115,1.8578276634216309,0.009292840026319027,5.179355144500732,-0.9970817581826685,-0.3750893263089491,-1.285927467181656
1687014991.3948221,-0.6505308151245117,0.5183283090591431,-0.5551085472106934,0.42972075939178467,-0.21579235792160034,0.27169179916381836,2.0035691261291504,0.5714126229286194,5.962860107421875,-0.8643801204800236,-0.5448949992502415,-1.0174729658942672
1687014991.4547892,-0.4373980462551117,0.6376689672470093,-0.634083092212677,0.32822132110595703,-0.590855062007904,0.168415367603302,1.0358160734176636,1.3844455480575562,6.516106128692627,-0.6038555166420551,-0.6914683433023564,-0.6587626032870967
1687014991.545196,-0.14757654070854187,0.7552449703216553,-0.6386128067970276,0.5215235948562622,-0.5501210689544678,0.6471119523048401,-1.7056224346160889,1.6776597499847412,7.417409896850586,-0.2271026358076122,-0.8560277569148197,-0.2229664913997206
1687014991.549078,0.23096683621406555,0.7879953384399414,-0.5707168579101562,0.6718193292617798,-0.48362821340560913,0.6025314331054688,-0.8447036147117615,2.521773099899292,8.770543098449707,0.3845480847033542,-0.9075462174040249,0.417037980448274
1687014991.6028152,0.6544362902641296,0.5906115174293518,-0.4721137583255768,1.8569772243499756,0.12604814767837524,0.9715949296951294,-1.3624166250228882,4.784979820251465,10.612161636352539,0.9458484432285013,-0.6318164454553828,0.9903331997888439
1687014991.6967258,0.9171624183654785,0.1724010705947876,-0.35929247736930847,1.0344977378845215,2.7160725593566895,0.2807859778404236,10.548052787780762,3.2259554862976074,5.4213032722473145,1.197427764421256,-0.17326671519874834,1.0425759044665748
1687014991.70156,0.9736001491546631,-0.030030235648155212,-0.22627656161785126,0.2556021809577942,-1.3218984603881836,0.16771328449249268,0.6009317636489868,3.020516872406006,-1.4688903093338013,1.3424381246888009,0.03003475181565307,0.684720013358354
1687014991.754935,0.9969934821128845,0.028282055631279945,-0.07214232534170151,0.5731055736541748,0.4262162446975708,-1.18081796169281,-1.8406951427459717,2.65337872505188,0.21467551589012146,1.4985623443733234,-0.028285826699248718,0.8069158346128507
1687014991.87787,0.9999257922172546,0.009807617403566837,-0.0072400933131575584,0.46299540996551514,-1.8180809020996094,-1.3868334293365479,-5.866818428039551,-0.19295892119407654,-0.02342972531914711,1.5635558227570874,-0.009807774541989174,0.880724373936254
1687014991.8839068,0.9982430338859558,0.05716994032263756,-0.015577102079987526,-0.16592174768447876,1.035557746887207,-0.7173330783843994,3.4539787769317627,-0.5093201994895935,-0.40246811509132385,1.5551930745413496,-0.05720112717025215,0.9913360247643466
1687014991.967828,0.9975645542144775,0.052435677498579025,-0.045997075736522675,-0.161260724067688,0.38910794258117676,0.33364051580429077,0.2667246460914612,-0.4414267838001251,0.004180329851806164,1.5247195902630772,-0.05245973703042633,0.9084092754047989
1687014991.991108,0.9951992034912109,0.07786539196968079,-0.059292275458574295,0.08785444498062134,0.1856081336736679,0.2370418906211853,-0.008700938895344734,0.018245188519358635,-1.126118779182434,1.5112883711090574,-0.07794428717796624,0.9024571566016126
1687014992.053565,0.9913685917854309,0.11863104999065399,-0.0558152012526989,0.04339104890823364,-0.5653320550918579,-0.17451626062393188,-0.6954214572906494,-0.028614062815904617,-0.2816988229751587,1.5145545421239266,-0.11891108341440397,0.9122564596577043
1687014992.072289,0.9915922284126282,0.11491341143846512,-0.05949721485376358,0.0776369571685791,-0.12896673381328583,-0.09290754795074463,0.8406752943992615,-0.019482217729091644,0.11637531220912933,1.51086648352639,-0.11516783378524377,0.8952050464491168
1687014992.1755471,0.9921188950538635,0.10685834288597107,-0.06543464958667755,0.00251007080078125,0.10848897695541382,0.12778204679489136,0.6553523540496826,-0.004053059499710798,0.1757880449295044,1.5049372680470485,-0.10706275580302375,0.8580897385696619
1687014992.179038,0.9932224750518799,0.09629303216934204,-0.06509137898683548,-0.04195898771286011,0.23978179693222046,-0.005282215774059296,1.2446473836898804,0.1297907531261444,0.11868134140968323,1.5053543590171332,-0.09644247000871395,0.8193015904836963
1687014992.29615,0.9935360550880432,0.09213259816169739,-0.06631535291671753,0.027139604091644287,-0.01747135818004608,-0.05700623244047165,1.2646116018295288,0.0658196285367012,-0.12356004863977432,1.5041483851510562,-0.09226343974422165,0.7456682054187148
1687014992.299932,0.9930059313774109,0.09575052559375763,-0.0690741315484047,0.008642077445983887,-0.07254192978143692,-0.056322626769542694,0.7460805773735046,0.03683085739612579,-0.1368361860513687,1.5013475523826902,-0.09589744131869454,0.6971650248292329
1687014992.3889909,0.9922570586204529,0.10304684191942215,-0.06933517009019852,-0.04294675588607788,0.08697082847356796,-0.06504898518323898,1.3432285785675049,0.13210144639015198,-0.20941796898841858,1.5010335006890325,-0.10323008647256879,0.6521732443449626
1687014992.413764,0.9924400448799133,0.09778619557619095,-0.07416624575853348,-0.04488450288772583,-0.07125119864940643,0.010201342403888702,2.014606475830078,-0.015514904633164406,0.09266545623540878,1.4962037715096577,-0.09794271015973088,0.5565864926386284
1687014992.473268,0.9913648366928101,0.09656093269586563,-0.08872489631175995,0.04997134208679199,-0.03515959531068802,-0.10959362983703613,0.22863563895225525,-0.3763507306575775,-0.22296494245529175,1.4815364160651094,-0.09671162084254176,0.49811101686537884
1687014992.492696,0.9868541955947876,0.11663544178009033,-0.11187023669481277,0.13825255632400513,0.11975369602441788,-0.13086657226085663,-0.1199738010764122,-0.5530055165290833,-0.44746488332748413,1.4579177469649902,-0.11690151873516187,0.5063678784461016
1687014992.561688,0.9805101752281189,0.13472458720207214,-0.14300119876861572,0.09094685316085815,0.16138745844364166,-0.024479269981384277,0.5874732136726379,-0.6760669946670532,-0.3995650112628937,1.4259737063749232,-0.13513550869812604,0.48777873632061564
1687014992.5643039,0.9723270535469055,0.147312194108963,-0.18132725358009338,-0.06212490797042847,0.0676688700914383,0.0928109884262085,0.6993388533592224,-0.6340629458427429,-0.38274261355400085,1.3864262496027082,-0.14785027314420537,0.4507519572583931
1687014992.651943,0.963911771774292,0.1614818423986435,-0.21165518462657928,-0.05622738599777222,0.04825019836425781,0.0739903450012207,0.3538990020751953,-0.4685448408126831,-0.41919997334480286,1.3546472330545398,-0.16219201584965423,0.42015953173162224
1687014992.67234,0.9556711912155151,0.17783349752426147,-0.23466576635837555,-0.010679066181182861,0.08893588185310364,0.07345664501190186,0.26818206906318665,-0.3854468762874603,-0.3748375475406647,1.3300095710574376,-0.17878441685532628,0.4014608744982046
1687014992.743468,0.9486427903175354,0.19063426554203033,-0.25245916843414307,0.002864837646484375,0.02005907893180847,0.1302362084388733,0.34321895241737366,-0.2325940877199173,-0.3406178057193756,1.310698123312802,-0.19180821496376982,0.38138335682313124
1687014992.747033,0.9424575567245483,0.20590239763259888,-0.26339754462242126,-0.017545878887176514,-0.01860077679157257,0.1753542721271515,0.3993123173713684,-0.07976166903972626,-0.49237483739852905,1.2982703676400977,-0.20738576928880031,0.35801591113070574
1687014992.803944,0.9362143874168396,0.2269846647977829,-0.26829230785369873,-0.0012930631637573242,-0.03525799512863159,0.18537598848342896,0.3763752579689026,0.05430252477526665,-0.5955979228019714,1.2917043864479698,-0.22898040458160018,0.3306292342504388
1687014992.901262,0.930487871170044,0.25049957633018494,-0.26728731393814087,0.01525193452835083,-0.07944858074188232,0.15153414011001587,0.20275677740573883,0.1523274928331375,-0.5604495406150818,1.2910727789851546,-0.25319624499410304,0.30709677045585154
1687014992.922656,0.9269387125968933,0.27163127064704895,-0.25884580612182617,0.01933509111404419,-0.09357652068138123,0.11954829096794128,0.09081286936998367,0.28524813055992126,-0.405110239982605,1.298485075097917,-0.27508761983425545,0.2935390060630643
1687014992.981762,0.9271647334098816,0.2843492329120636,-0.24394898116588593,0.017079651355743408,-0.10437184572219849,0.08162596821784973,0.12180833518505096,0.4073745906352997,-0.18962880969047546,1.3135147047787625,-0.2883275633829966,0.28455273396025293
1687014993.10534,0.9316138625144958,0.2855319678783417,-0.22487160563468933,0.040294766426086426,-0.11054420471191406,0.04567235708236694,0.139045849442482,0.47880199551582336,0.06889834254980087,1.3339482884682696,-0.28956144655844523,0.27661952589186445
1687014993.129807,0.9394079446792603,0.2751898467540741,-0.20441019535064697,0.05584675073623657,-0.10784673690795898,0.015140146017074585,0.08567722886800766,0.45667845010757446,0.3068169057369232,1.3565414290987647,-0.27878717425797206,0.2726042035619619
1687014993.193965,0.948723554611206,0.2567932605743408,-0.18433941900730133,0.08455592393875122,-0.0932801365852356,-0.01021014153957367,-0.15204119682312012,0.37331435084342957,0.46948036551475525,1.3788850174998808,-0.2597027316597052,0.278079665763133
1687014993.1975288,0.9578811526298523,0.23354500532150269,-0.16709472239017487,0.10033118724822998,-0.07279369235038757,-0.03450441360473633,-0.38580355048179626,0.22603127360343933,0.5814979672431946,1.3980921139643852,-0.23572192914515971,0.2955052842127752
