Timestamp,gravityX,gravityY,gravityZ,accelerationX,accelerationY,accelerationZ,rotationRateX,rotationRateY,rotationRateZ,attitudeRoll,attitudePitch,attitudeYaw
1687006250.1937099,0.8865708708763123,0.43797847628593445,-0.1488848775625229,0.001017451286315918,0.004877328872680664,-0.006342872977256775,-0.02024492621421814,-0.022684000432491302,0.04679383710026741,1.4044153842954052,-0.4533487748533503,-0.7025733471036516
1687006250.1986241,0.887265682220459,0.43625253438949585,-0.1498105823993683,-0.002561211585998535,0.00837332010269165,-0.0159304141998291,-0.014788440428674221,-0.015113567002117634,0.03385593369603157,1.403528722084354,-0.4514297945813186,-0.7020808681008307
1687006250.289489,0.887502133846283,0.43589532375335693,-0.14944963157176971,0.0026802420616149902,0.008806824684143066,-0.007166624069213867,-0.06929149478673935,-0.027535881847143173,0.0164140947163105,1.4039679141401582,-0.45103285700269075,-0.698644585322677
1687006250.2913961,0.8874801397323608,0.43594056367874146,-0.1494477093219757,0.0008559226989746094,0.004656970500946045,0.0002930164337158203,-0.10650890320539474,-0.034522950649261475,0.012197510339319706,1.403965968431378,-0.4510831091359535,-0.694892307690482
1687006250.293435,0.8874372243881226,0.4361734986305237,-0.1490231305360794,-0.0006421804428100586,0.014266014099121094,-0.009881928563117981,-0.05700087547302246,-0.03614028915762901,0.007163337431848049,1.4044233127781942,-0.45134195626294654,-0.6893961513150263
1687006250.37389,0.8870853781700134,0.436771035194397,-0.14936764538288116,0.00027424097061157227,0.007732808589935303,0.002105042338371277,-0.07389750331640244,-0.033527061343193054,-0.007418535184115171,1.4039808661959776,-0.4520060872697041,-0.6859870949840293
1687006250.3751678,0.8866260647773743,0.4372868239879608,-0.1505792886018753,-0.007353842258453369,0.007430523633956909,-0.00197814404964447,0.006690418813377619,-0.031727299094200134,0.011987653560936451,1.4025674694320978,-0.45257954982924364,-0.6845390886036791
1687006250.462669,0.8866732716560364,0.43672123551368713,-0.15193749964237213,-0.004532277584075928,0.003800004720687866,-0.0014744400978088379,-0.01087199617177248,-0.04249219596385956,0.02529893070459366,1.40108777108749,-0.4519507205714267,-0.6837184245080473
1687006250.464654,0.8867567777633667,0.43587642908096313,-0.15386448800563812,0.009407222270965576,0.005056887865066528,0.005579516291618347,-0.01700139418244362,-0.03870251774787903,0.023060012608766556,1.3989931127933894,-0.45101183507453674,-0.6837078882399991
1687006250.554575,0.8868678212165833,0.4353659451007843,-0.15466661751270294,0.0013308525085449219,0.0035836100578308105,-0.0044520944356918335,-0.0008872062899172306,-0.02490481175482273,0.013441472314298153,1.3981363197851706,-0.4504447361551804,-0.6826503875193914
1687006250.5556998,0.8868018388748169,0.43534889817237854,-0.1550932228565216,-0.008383870124816895,-0.0025180280208587646,-0.001812949776649475,-0.055848125368356705,-0.046444859355688095,0.014033493585884571,1.3976568957853053,-0.4504257921566625,-0.6806961307731723
1687006250.644754,0.886702299118042,0.4351003170013428,-0.1563543975353241,0.002778172492980957,0.009189844131469727,0.004559934139251709,0.008652902208268642,-0.032140087336301804,0.014224176295101643,1.3962580847064976,-0.4501496888783337,-0.6786983246771403
1687006250.792296,0.8864161968231201,0.4353078305721283,-0.1573944240808487,-0.004229545593261719,0.0004068315029144287,0.006378188729286194,-0.011345306411385536,-0.016577374190092087,-0.018691962584853172,1.3950652316097776,-0.45038017365382443,-0.6787909727529963
1687006250.793304,0.8859628438949585,0.4363445043563843,-0.1570766568183899,-0.0016551613807678223,0.00039252638816833496,0.004687085747718811,-0.052562981843948364,-0.01656978391110897,-0.002166781574487686,1.3953248592591403,-0.45153201094746664,-0.676557016388313
1687006250.945866,0.8859667778015137,0.43629616498947144,-0.15718881785869598,0.0032390356063842773,0.0010969936847686768,-0.003730401396751404,0.013964977115392685,-0.019267700612545013,0.007127384655177593,1.3952028951583009,-0.4514782593658758,-0.6759306309781331
1687006250.949938,0.8859396576881409,0.43607255816459656,-0.15796039998531342,-0.0004112124443054199,0.007729321718215942,-0.001616060733795166,0.005953455809503794,-0.021829526871442795,0.003961152397096157,1.3943534042507777,-0.45122976829747835,-0.6759421675011019
1687006250.9705849,0.8857780694961548,0.43605920672416687,-0.15890085697174072,0.003061532974243164,-0.0017635524272918701,-0.0022320151329040527,-0.00423899432644248,-0.01452341116964817,-0.005847536493092775,1.3932930687866911,-0.4512149547722048,-0.6769451111981709
1687006251.188953,0.8852537870407104,0.43729549646377563,-0.15842390060424805,-0.008972227573394775,0.013052374124526978,-0.0028920620679855347,-0.007999710738658905,0.00259365770034492,-0.01844402216374874,1.393712154190645,-0.4525891895624944,-0.6753233735404751
1687006251.190866,0.8848581314086914,0.437868595123291,-0.15905076265335083,-0.00012314319610595703,-0.012285709381103516,-0.012137651443481445,-0.0006510503590106964,-0.02216481976211071,-0.002773716114461422,1.3929482827308908,-0.453226556939696,-0.6758716061478538
1687006251.192778,0.8845933675765991,0.4379768669605255,-0.16022057831287384,0.0029796957969665527,0.003826051950454712,-0.003735169768333435,0.01498403586447239,-0.02616342157125473,0.008502640761435032,1.3916154383206831,-0.4533469738903446,-0.6756330449558104
1687006251.1943278,0.8845750093460083,0.4375256299972534,-0.16154928505420685,-0.0052111148834228516,-0.014994502067565918,0.005207717418670654,-0.06411997228860855,-0.028476644307374954,-0.0007619643583893776,1.3901578212901893,-0.45284511071537537,-0.6751955725122034
1687006251.277986,0.8845372200012207,0.4374760687351227,-0.16189008951187134,-0.004349350929260254,-0.007590204477310181,0.0021610260009765625,-0.0034220032393932343,-0.012273705564439297,0.01761065050959587,1.389777427615598,-0.45278998940026843,-0.6729252323739535
1687006251.281688,0.8849484324455261,0.4367872178554535,-0.16150356829166412,-0.008895576000213623,-0.027699023485183716,0.003285154700279236,-0.06469175219535828,-0.005228312686085701,0.017161909490823746,1.3902823777518676,-0.45202408817275747,-0.6713753785904264
1687006251.282364,0.8856358528137207,0.4357442855834961,-0.1605490744113922,0.001128554344177246,-0.018874168395996094,-0.0013924837112426758,-0.035371147096157074,0.0013864468783140182,0.04149014875292778,1.3914627286755146,-0.45086504218151185,-0.6690145309915597
1687006251.427382,0.8868838548660278,0.4335769712924957,-0.15952469408512115,-0.005002140998840332,-0.0010512769222259521,-0.006231620907783508,-0.024885550141334534,0.007018100470304489,0.0520905964076519,1.392828334214353,-0.4484585031652473,-0.6665117384208935
1687006251.519105,0.8882278800010681,0.43085238337516785,-0.159428671002388,-0.006163120269775391,-0.010716885328292847,-0.011225700378417969,-0.017518047243356705,-0.0066484431736171246,0.06045078858733177,1.3931967251360573,-0.4454371193075392,-0.6654183669043658
1687006251.521213,0.8895600438117981,0.42788636684417725,-0.1599879115819931,0.010265946388244629,-0.008345961570739746,0.00016731023788452148,-0.022321458905935287,-0.01608828455209732,0.07703696191310883,1.3928480937159395,-0.44215294584791776,-0.6639362830007577
1687006251.610283,0.8912132978439331,0.42446663975715637,-0.15989629924297333,-0.002358376979827881,0.003176182508468628,0.006881058216094971,-0.028752658516168594,-0.0001264948514290154,0.08692315220832825,1.3932708793341906,-0.43837274489072425,-0.6613523750304704
1687006251.612319,0.8930184245109558,0.42092880606651306,-0.15917499363422394,-0.0017222166061401367,0.0037080049514770508,0.0017957836389541626,-0.06834913790225983,-0.015027547255158424,0.08956793695688248,1.3944050062051627,-0.43446902453685726,-0.657330635746512
1687006251.617218,0.8948670625686646,0.4171828031539917,-0.15865464508533478,0.0034940242767333984,0.010566800832748413,-0.0011201351881027222,-0.007369539700448513,-0.0021407767198979855,0.09323111176490784,1.3953256102937062,-0.4303432818708982,-0.654635665664442
1687006251.634521,0.8961821794509888,0.4143497347831726,-0.15865622460842133,0.0015076398849487305,0.017794489860534668,-0.00642867386341095,-0.019716354086995125,-0.006549640092998743,0.05190471187233925,1.3955761506408784,-0.42722821717227594,-0.6534739403098678
1687006251.69703,0.8968959450721741,0.41280117630958557,-0.15865938365459442,-0.004180610179901123,0.02031955122947693,-0.013276755809783936,-0.007735125254839659,-0.012644416652619839,0.042852357029914856,1.395709350703645,-0.42552737221431014,-0.6519917075756206
1687006251.6979508,0.8972044587135315,0.4118175506591797,-0.15946918725967407,-0.003054797649383545,0.011369705200195312,-0.006088733673095703,-0.03518199548125267,-0.024658869951963425,0.018772054463624954,1.3948932596202157,-0.42444769168744195,-0.6511600235662309
1687006251.721854,0.8970401883125305,0.4118685722351074,-0.1602594256401062,-0.0009831786155700684,0.005184650421142578,0.0022393465042114258,-0.05205485224723816,-0.026325741782784462,0.016508370637893677,1.3940078729839156,-0.4245036866281757,-0.6489403673383856
1687006251.757052,0.8968707919120789,0.4119081199169159,-0.16110414266586304,-0.002919435501098633,0.0042448341846466064,0.007860064506530762,-0.024141397327184677,-0.020950550213456154,0.013451592065393925,1.3930626220782936,-0.4245470782031565,-0.6473864739692962
1687006251.8145518,0.8968758583068848,0.41185492277145386,-0.1612110733985901,0.004628479480743408,-0.004307925701141357,0.010026946663856506,-0.031679872423410416,-0.017466602846980095,0.026236098259687424,1.392948111662969,-0.42448869542155965,-0.6452881423255858
1687006251.8423839,0.8974956274032593,0.4105691611766815,-0.16104206442832947,-0.0038341283798217773,0.016112416982650757,-0.01647879183292389,-0.006640633102506399,-0.015811581164598465,0.03921367973089218,1.3932507877799982,-0.4230781623387192,-0.6438130115719358
1687006251.995885,0.8984559774398804,0.40767306089401245,-0.1630319058895111,-0.013720989227294922,0.15720731019973755,-0.10828471183776855,0.052328478544950485,-0.10130051523447037,0.09112215787172318,1.3912916413345118,-0.41990428598618573,-0.6438100884453619
1687006252.1490622,0.8968865275382996,0.40688377618789673,-0.1733207106590271,-0.04752141237258911,0.39972633123397827,-0.2194100022315979,-0.16924798488616943,-0.39337417483329773,-0.16930542886257172,1.379902295802661,-0.41904008334649945,-0.6434158799094805
1687006252.1549602,0.881080150604248,0.4346013367176056,-0.1865999400615692,0.018486440181732178,0.4397272765636444,-0.21261578798294067,-0.574321448802948,-0.5597264170646667,-0.9283942580223083,1.3620947235159175,-0.4495955772430877,-0.6279852550016581
1687006252.156756,0.8463772535324097,0.49491286277770996,-0.19674056768417358,0.05991852283477783,0.2705596089363098,-0.15584436058998108,-0.9364819526672363,-0.697121262550354,-1.4511724710464478,1.342402083943868,-0.5177345339181149,-0.6024828341147157
1687006252.267616,0.7984521985054016,0.5680426955223083,-0.19950367510318756,0.1378423571586609,0.15426266193389893,-0.1958058774471283,-1.2140519618988037,-0.9047538638114929,-1.5412182807922363,1.3259465880263892,-0.6041256264917397,-0.5586368836079048
1687006252.272728,0.7404628992080688,0.6411522030830383,-0.20158959925174713,0.1622164249420166,0.16823488473892212,-0.19280432164669037,-1.0033713579177856,-0.9837397336959839,-1.6796642541885376,1.3049903470755588,-0.6959987551638188,-0.5144696015372044
1687006252.274201,0.6713044047355652,0.7116580009460449,-0.20710648596286774,0.18286728858947754,0.1477474570274353,-0.10278427600860596,-0.7235179543495178,-0.9311798214912415,-1.8083794116973877,1.2715473713095902,-0.7918554262083568,-0.49208789989593643
1687006252.358371,0.5933403372764587,0.7775222063064575,-0.20834168791770935,0.22538518905639648,0.041615307331085205,-0.007677018642425537,-0.8414818644523621,-0.8885835409164429,-1.8605653047561646,1.2331120263688407,-0.8907160447340521,-0.48274109021590295
1687006252.359997,0.5087171196937561,0.8381361365318298,-0.19681134819984436,0.1867937445640564,0.0034775733947753906,0.04252970218658447,-0.8200088739395142,-0.7583578824996948,-1.8937549591064453,1.201653117333825,-0.9938571327282498,-0.4700485079549548
1687006252.4496121,0.42150551080703735,0.8882999420166016,-0.18236280977725983,0.22612321376800537,-0.021539807319641113,-0.0015209168195724487,-0.7104508280754089,-0.6607012152671814,-1.8505678176879883,1.1624670527713428,-1.0936301192920181,-0.47443301276812666
1687006252.4561682,0.3297754228115082,0.9299564361572266,-0.16257062554359436,0.20171868801116943,-0.06421858072280884,0.027316689491271973,-0.6311817765235901,-0.545137345790863,-1.9183967113494873,1.1127854969506987,-1.1942942829912377,-0.4957071359972881
1687006252.536251,0.23526796698570251,0.9617259502410889,-0.14047104120254517,0.1618572324514389,-0.05074578523635864,0.12826400995254517,-0.5957265496253967,-0.3918832242488861,-1.8826453685760498,1.0325352764713305,-1.2932328784739193,-0.5556578717912368
1687006252.541502,0.14397025108337402,0.982475757598877,-0.11837911605834961,0.1482507586479187,-0.01256626844406128,0.24789565801620483,-0.4785471558570862,-0.033509351313114166,-1.818747639656067,0.8826365330441017,-1.3833095762704406,-0.6973163221287723
1687006252.6597052,0.05701622739434242,0.994053065776825,-0.09277592599391937,0.1347409188747406,0.05840647220611572,0.2073999047279358,-0.45498573780059814,0.26818937063217163,-1.7914369106292725,0.5510555355263199,-1.4616833154172117,-1.0388913022800976
1687006252.661854,-0.03008238784968853,0.9966484308242798,-0.0760716050863266,0.1990429311990738,0.01673346757888794,0.026556789875030518,-0.19050940871238708,0.4192171096801758,-1.7869195938110352,-0.37657637154926427,-1.4889006933786386,-1.9879611743423755
1687006252.751287,-0.1197451502084732,0.9901272058486938,-0.0728643462061882,0.212854266166687,-0.03385889530181885,-0.042858369648456573,-0.045770056545734406,0.3473202884197235,-1.8210570812225342,-1.0241537460554866,-1.4301615271120014,-2.6586134015903626
1687006252.758761,-0.20322759449481964,0.9768490791320801,-0.06681523472070694,0.18146853148937225,-0.11001265048980713,0.027066051959991455,-0.41975298523902893,0.3053392767906189,-1.6184232234954834,-1.2531579379956386,-1.3552003921591578,-2.9072106463379743
1687006252.985229,-0.273896187543869,0.9602712988853455,-0.05347836762666702,0.14590546488761902,-0.057683467864990234,0.07012569904327393,-0.14375567436218262,0.379382461309433,-1.2214215993881226,-1.3779717465588015,-1.2879726813158745,-3.053225267781771
1687006252.993079,-0.33994734287261963,0.9377415776252747,-0.07124839723110199,0.13380110263824463,-0.004392087459564209,0.2419026494026184,0.2914198935031891,0.6952062249183655,-1.4536902904510498,-1.3642001195099198,-1.2160699945892912,-3.0670114913178983
1687006253.014481,-0.40517276525497437,0.9089944362640381,-0.0977945476770401,0.15099191665649414,0.04147529602050781,0.25726407766342163,0.49842527508735657,0.9136922359466553,-1.4623082876205444,-1.333961034221875,-1.1408651400647078,-3.0767569245414923
1687006253.01585,-0.46537140011787415,0.8710982203483582,-0.15689846873283386,0.21412020921707153,0.011439502239227295,0.11023706197738647,0.8733683228492737,1.0430879592895508,-1.5973806381225586,-1.2456175994541825,-1.057434151499485,-3.0349553055687264
1687006253.017221,-0.5233505368232727,0.8212499022483826,-0.22727231681346893,0.12779700756072998,-0.08513551950454712,-0.19550298154354095,1.3983738422393799,0.7743328809738159,-1.4520782232284546,-1.1611052012986056,-0.9635982019297247,-2.9904690753480883
1687006253.07578,-0.5708776712417603,0.7674188017845154,-0.2918338477611542,0.17067021131515503,-0.12177371978759766,-0.2667141556739807,0.9972984790802002,0.3699406385421753,-1.3324439525604248,-1.0982272661332364,-0.8748054691679287,-2.9481196462806265
1687006253.0770202,-0.6122902631759644,0.7146846652030945,-0.33812186121940613,0.13435453176498413,-0.17859774827957153,-0.16622692346572876,1.3589913845062256,0.1014813557267189,-1.0768470764160156,-1.0662466249631455,-0.7961732081345569,-2.9200380162581423
1687006253.166786,-0.6495734453201294,0.654489278793335,-0.3869082033634186,0.12720412015914917,0.0027219653129577637,0.11836874485015869,1.3336589336395264,-0.05848607420921326,-1.172156810760498,-1.0335931124222848,-0.7135069165192836,-2.8725765801836927
1687006253.173248,-0.6867682933807373,0.5879128575325012,-0.4274432063102722,0.04979020357131958,0.040840744972229004,0.21975582838058472,1.607176423072815,0.1664251983165741,-1.0803190469741821,-1.0140703201532646,-0.6284762349413693,-2.84098871054606
1687006253.287269,-0.7074524164199829,0.5173951983451843,-0.4814697504043579,0.09107375144958496,-0.06474334001541138,0.1663605272769928,1.4112709760665894,0.3700040280818939,-0.9262485504150391,-0.9732311142312627,-0.5438042329018894,-2.794099261087205
1687006253.294018,-0.717674195766449,0.45463499426841736,-0.5274947285652161,0.08078765869140625,-0.19760075211524963,-0.00697481632232666,1.1802197694778442,0.3059186637401581,-0.7795621752738953,-0.9369607356295926,-0.471962348241116,-2.758147087502486
1687006253.408359,-0.7305672764778137,0.40131813287734985,-0.5524628758430481,0.05947047472000122,-0.46398597955703735,-0.12286067008972168,0.9246971607208252,-0.03943009302020073,-0.5292561650276184,-0.9233321572716398,-0.4129555014142498,-2.737598901300906
1687006253.4111009,-0.7388129830360413,0.3715132176876068,-0.5622573494911194,0.037000298500061035,-0.3329085111618042,-0.01518106460571289,0.5273457169532776,-0.10665373504161835,-0.07119405269622803,-0.9202746232000296,-0.38063835923657635,-2.719553791089427
1687006253.529564,-0.7427676916122437,0.35744690895080566,-0.5661518573760986,0.04777568578720093,-0.04259708523750305,0.05089306831359863,0.39883801341056824,-0.1673574298620224,-0.042946700006723404,-0.9195206541388156,-0.36553276564680715,-2.6988414980526665
1687006253.536605,-0.7458189129829407,0.34173113107681274,-0.5718162655830383,0.0034331679344177246,0.16679850220680237,0.07608872652053833,0.4578200578689575,-0.021991578862071037,-0.05473225563764572,-0.9166952454936341,-0.3487582978006934,-2.6779633149429674
1687006253.538196,-0.747679591178894,0.33419910073280334,-0.5738345980644226,-0.0004892945289611816,0.22555428743362427,0.03756445646286011,-0.28421032428741455,0.047260597348213196,-0.2975480854511261,-0.9161969420782861,-0.34075535098396287,-2.6797642273037914
1687006253.616806,-0.753894567489624,0.32574597001075745,-0.5705545544624329,-0.023433923721313477,0.07717758417129517,-0.012498974800109863,0.014098800718784332,0.021521009504795074,-0.4358969032764435,-0.9229513453009812,-0.3318006159154411,-2.7033946568713425
1687006253.62394,-0.7583015561103821,0.29755836725234985,-0.5800325274467468,0.0060585737228393555,-0.02779826521873474,-0.07339465618133545,0.6830652952194214,0.029149102047085762,-0.36399397253990173,-0.917820853383692,-0.30213414794751503,-2.695742809391345
1687006253.768166,-0.763619601726532,0.27010542154312134,-0.5864538550376892,-0.004202663898468018,-0.044931501150131226,-0.046648502349853516,0.19645102322101593,-0.07006989419460297,-0.31044816970825195,-0.9158793110662196,-0.27350253353793147,-2.6867096620898554
1687006253.777639,-0.7687326669692993,0.2565920352935791,-0.5858417749404907,-0.0004323124885559082,0.221725195646286,0.04064524173736572,-0.10731910914182663,0.001106548705138266,-0.404997855424881,-0.9196037985180678,-0.2594945253625906,-2.6949379099440467
1687006253.858536,-0.7744450569152832,0.23961924016475677,-0.5855062007904053,0.01744133234024048,0.15475940704345703,0.018840551376342773,-0.01298241876065731,0.06920397281646729,-0.6645122766494751,-0.9234451474772526,-0.241973648793137,-2.7186071983907785
1687006253.863421,-0.7792892456054688,0.2082451730966568,-0.5910518169403076,0.009208738803863525,-0.04204645752906799,-0.023450136184692383,0.21016870439052582,0.05324564874172211,-0.6495064496994019,-0.9219092080177773,-0.20978045381101992,-2.729415445225864
1687006253.870889,-0.7818647623062134,0.17962419986724854,-0.597011387348175,-0.011363327503204346,-0.13174214959144592,-0.017444849014282227,0.3723340332508087,0.10180120170116425,-0.36367517709732056,-0.9186645099038279,-0.1806044268770483,-2.7328369169609346
1687006253.941609,-0.7804883122444153,0.16223421692848206,-0.6037532687187195,0.009827971458435059,0.05036646127700806,0.05617642402648926,0.01941586844623089,0.17201079428195953,-0.29096928238868713,-0.9123875370971849,-0.16295445371671724,-2.7348374241923876
1687006254.1552749,-0.7782026529312134,0.14925596117973328,-0.6100191473960876,0.02846205234527588,0.07150818407535553,0.062442243099212646,0.01741889677941799,0.17744523286819458,-0.42428499460220337,-0.9059609138073006,-0.1498157614629997,-2.7471854607373767
1687006254.1647801,-0.776062548160553,0.12265784293413162,-0.6186128258705139,0.01548832654953003,-0.09075173735618591,0.06413900852203369,0.35685282945632935,0.1408306211233139,-0.4859773814678192,-0.8978156712919315,-0.1229675104452284,-2.7499078198434463
1687006254.248567,-0.7753258943557739,0.08832702785730362,-0.6253542900085449,0.019878625869750977,-0.1957336664199829,-0.022030293941497803,0.6996513605117798,0.06590858101844788,-0.41515594720840454,-0.8920623612559794,-0.08844228336447564,-2.744672811465908
1687006254.257066,-0.776898205280304,0.05564974620938301,-0.6271619200706482,0.01891791820526123,-0.2833566665649414,0.005518913269042969,0.4599670171737671,-0.05750443413853645,-0.21247901022434235,-0.8916418020724003,-0.0556785106346419,-2.729581315353515
1687006254.25941,-0.7770577669143677,0.04103928804397583,-0.6280898451805115,0.017032861709594727,-0.09777147322893143,0.028099000453948975,0.21395838260650635,0.04166276380419731,-0.02343691512942314,-0.8910195249739076,-0.04105081839342866,-2.71835786658891
1687006254.261592,-0.7749496102333069,0.03380593657493591,-0.63111811876297,0.02047884464263916,0.09020224213600159,0.035033583641052246,0.11559958755970001,0.08116516470909119,-0.0618082731962204,-0.8873370111939222,-0.0338123803143053,-2.7109829534783945
1687006254.336849,-0.7741244435310364,0.03011907823383808,-0.6323164701461792,0.023681998252868652,0.12114129960536957,-0.0127946138381958,-0.1481052190065384,-0.019410843029618263,-0.3100939691066742,-0.8858861208147302,-0.03012363318652288,-2.7221012539873506
1687006254.342318,-0.7754921913146973,0.011633064597845078,-0.6312498450279236,-0.02159637212753296,-0.10349097847938538,-0.04309701919555664,0.6346455216407776,-0.0133195286616683,-0.23826666176319122,-0.8875775144665754,-0.011633326957102293,-2.724913466561753
1687006254.394326,-0.7765820026397705,-0.014806988649070263,-0.6298421621322632,0.03453189134597778,-0.22178053855895996,-0.07030737400054932,0.40242505073547363,-0.09131725877523422,-0.06057176738977432,-0.8893574196671482,0.014807529351916654,-2.7033958353765057
1687006254.397016,-0.7811468243598938,-0.013366764411330223,-0.6242042779922485,0.015277743339538574,-0.13594049215316772,0.023877739906311035,-0.25319522619247437,-0.15314054489135742,0.0964367613196373,-0.8966123627478731,0.013367162495161462,-2.704665240501995
1687006254.458925,-0.7858761548995972,-0.0048053511418402195,-0.6183652281761169,0.004824578762054443,0.11929204314947128,0.06007665395736694,-0.13405285775661469,-0.16378891468048096,-0.01404234953224659,-0.9041263918075788,0.004805369734633112,-2.708518311368935
1687006254.519216,-0.7906820178031921,-0.006009616889059544,-0.6121973991394043,-0.02906578779220581,0.21781685948371887,0.04121357202529907,-0.010967337526381016,-0.10403251647949219,-0.1727409064769745,-0.9119456328993896,0.0060096530936174924,-2.7167079037131323
1687006254.666737,-0.7939114570617676,-0.014915667474269867,-0.6078504323959351,-0.021518230438232422,0.22905750572681427,-0.02271902561187744,-0.0590917207300663,-0.10788478702306747,-0.4137474000453949,-0.9173604545323923,0.014916220789860607,-2.7297227031221922
1687006254.678004,-0.7970782518386841,-0.04021567851305008,-0.6025353074073792,-0.014628171920776367,0.08747215569019318,-0.041461825370788574,0.44771069288253784,-0.1411547213792801,-0.5225697755813599,-0.9235108513338466,0.04022652719096626,-2.7352142920039895
1687006254.742535,-0.8003904223442078,-0.07603886723518372,-0.5946370363235474,-0.04239821434020996,-0.01626153290271759,-0.004773974418640137,0.5537135004997253,-0.14203661680221558,-0.5024970173835754,-0.9318330115419494,0.07611233695026665,-2.7318800590310546
1687006254.744852,-0.8024429082870483,-0.10775841772556305,-0.5869186520576477,-0.005464136600494385,-0.20037756860256195,0.028874218463897705,0.432463675737381,-0.11979590356349945,-0.33248743414878845,-0.9392962279240142,0.10796806030862252,-2.724686872720313
1687006254.746626,-0.8044692873954773,-0.12577494978904724,-0.5805255174636841,0.04308629035949707,-0.27641618251800537,0.06065857410430908,0.18318575620651245,-0.08413657546043396,-0.05851127952337265,-0.9457036022948391,0.12610895080953244,-2.7155004265214604
1687006254.7857962,-0.80572509765625,-0.12140021473169327,-0.5797145962715149,0.035827696323394775,-0.29987967014312744,0.11262780427932739,-0.15487177670001984,0.03350989520549774,0.18398258090019226,-0.9471064154377531,0.12170040657592365,-2.717605992021019
1687006254.84796,-0.8039391040802002,-0.10944006592035294,-0.5845550298690796,0.025237441062927246,-0.24117636680603027,0.12242740392684937,0.11949153244495392,0.22262534499168396,0.4629495143890381,-0.9421041407313284,0.10965971563974614,-2.704494752101166
1687006254.939002,-0.7990537881851196,-0.08647550642490387,-0.595008373260498,0.056317031383514404,-0.13442596793174744,0.03269147872924805,-0.10407743602991104,0.2401549518108368,0.6490250825881958,-0.9307336822878062,0.08658364826039527,-2.6893806312896245
1687006255.023699,-0.7942923307418823,-0.06021975725889206,-0.6045438647270203,0.027477145195007324,-0.13486385345458984,0.03412461280822754,0.24929992854595184,0.27266016602516174,0.7572631239891052,-0.9202226105649511,0.06025621372513106,-2.6666817600042565
1687006255.028894,-0.7862972021102905,-0.030811285600066185,-0.6170796751976013,0.0556301474571228,-0.09098436683416367,0.020369529724121094,-0.17068323493003845,0.3217179775238037,0.8695574402809143,-0.9053976406726395,0.03081616261104968,-2.6370053512733924
1687006255.1182761,-0.7776215076446533,0.010387622751295567,-0.6286467909812927,0.057269394397735596,-0.09196110814809799,0.026840150356292725,-0.03579339012503624,0.27745959162712097,0.9790464043617249,-0.8909407131685873,-0.010387810032249598,-2.6150295581956238
1687006255.1291099,-0.7663635015487671,0.05031493306159973,-0.6404337286949158,0.057852208614349365,-0.08251097053289413,0.04175519943237305,0.014891822822391987,0.33743810653686523,1.0935287475585938,-0.8746754350162124,-0.050336186026616984,-2.582290766881752
1687006255.172995,-0.7512772083282471,0.09696534276008606,-0.6528248190879822,0.06400614976882935,-0.06446412950754166,0.05582475662231445,-0.3173699378967285,0.3464687466621399,1.1359026432037354,-0.8554012678457061,-0.09711794070214604,-2.5495536062396074
1687006255.416082,-0.7317805886268616,0.1456371694803238,-0.665798008441925,0.09049952030181885,0.04784427583217621,0.009303867816925049,-0.012051178142428398,0.39686906337738037,1.1455304622650146,-0.8325752175765764,-0.1461569822021337,-2.51871756141355
1687006255.427038,-0.7101010084152222,0.1896638125181198,-0.6780738830566406,0.04339873790740967,0.03221423923969269,0.032672882080078125,-0.13752120733261108,0.3755933344364166,1.066817045211792,-0.8084654508068368,-0.19081972962037344,-2.4858768662643818
1687006255.480504,-0.6847613453865051,0.23370826244354248,-0.6902769804000854,0.05532103776931763,-0.025685206055641174,0.03128039836883545,-0.1337720900774002,0.4172668755054474,1.1300441026687622,-0.7813869101002381,-0.23588982545387535,-2.4521154598050825
1687006255.489644,-0.6546139717102051,0.27755457162857056,-0.7031670808792114,0.035275042057037354,0.019976526498794556,-0.0232427716255188,-0.019821282476186752,0.4833556115627289,1.2147427797317505,-0.7496542154909925,-0.28124774125132074,-2.4131277386788725
1687006255.4915361,-0.6224309206008911,0.3198075592517853,-0.7143548130989075,0.10346424579620361,0.040864408016204834,0.050811171531677246,-0.3229028582572937,0.40787816047668457,1.097176194190979,-0.7167413505617131,-0.3255263818413932,-2.3741066509472573
1687006255.5664768,-0.5894216299057007,0.3574146330356598,-0.724456250667572,0.039876341819763184,0.08118399977684021,-0.0475621223449707,-0.16988161206245422,0.38490840792655945,1.045828104019165,-0.6829821267380166,-0.3654981898465005,-2.3363807838813986
1687006255.5742989,-0.5596882700920105,0.3930296301841736,-0.7295729517936707,0.0986592173576355,0.026541292667388916,-0.01992344856262207,-0.3030075132846832,0.23793081939220428,0.8936337828636169,-0.6543839264809682,-0.4039240441117339,-2.302498698044399
1687006255.597251,-0.5323917269706726,0.42170414328575134,-0.7339786887168884,-0.05635339021682739,0.01158440113067627,0.026291310787200928,0.2287694215774536,0.37459835410118103,0.8626241683959961,-0.6275378096362957,-0.4353239178308566,-2.270062384638895
1687006255.653851,-0.4980446398258209,0.4402312934398651,-0.7470930218696594,0.04597249627113342,0.04336550831794739,0.08234387636184692,-0.09554014354944229,0.4536789357662201,0.8772627711296082,-0.5879864996141849,-0.45585625216870124,-2.2260170247834634
1687006255.661108,-0.4610673487186432,0.4652215838432312,-0.7556359767913818,0.058448970317840576,0.04233148694038391,0.061650991439819336,-0.13470779359340668,0.49323970079421997,0.8435351848602295,-0.5478648145762507,-0.48388493248937675,-2.1885220384316018
1687006255.779609,-0.42272087931632996,0.48427075147628784,-0.7660214304924011,0.035437554121017456,0.01415756344795227,0.0385282039642334,0.13359491527080536,0.544194757938385,0.8216168284416199,-0.5042543778415518,-0.5055294608043849,-2.149841035151296
1687006255.902827,-0.380960077047348,0.49353769421577454,-0.781850278377533,0.05478823184967041,-0.08782178163528442,0.07745885848999023,0.21206188201904297,0.5748589038848877,0.8078538775444031,-0.45339932815073397,-0.5161526742328663,-2.1034472055523703
1687006255.9122381,-0.33545151352882385,0.5008713006973267,-0.7978723049163818,0.06207504868507385,-0.10696566104888916,0.14340758323669434,0.027611147612333298,0.6628277897834778,0.8755894899368286,-0.3979956694017629,-0.5246051513285075,-2.055277740658792
1687006255.914707,-0.2833443284034729,0.5258603692054749,-0.8019893169403076,0.0786171555519104,-0.14809852838516235,0.20863604545593262,-0.5625739097595215,0.7841077446937561,0.935704231262207,-0.33961332175476194,-0.5537263042571272,-2.011422648522707
1687006255.9905581,-0.2160276621580124,0.5573140978813171,-0.8017063140869141,0.0700620710849762,-0.08951020240783691,0.08748817443847656,-0.363839715719223,0.9996352791786194,1.2209197282791138,-0.26320831779760606,-0.5911474383560035,-1.9564653847714337
1687006255.993835,-0.14133912324905396,0.5809491276741028,-0.8015742897987366,0.09139707684516907,-0.03820931911468506,0.04345661401748657,-0.15723945200443268,1.0180453062057495,1.2257120609283447,-0.17453285477116928,-0.619894317544176,-1.8889388401333191
1687006255.996492,-0.06314536929130554,0.5951378345489502,-0.8011389374732971,0.10055989027023315,0.0679328441619873,0.04784303903579712,-0.3053414523601532,1.0367810726165771,1.2805726528167725,-0.07865688862589942,-0.637437152345107,-1.811888366937319
1687006256.049207,0.01450458262115717,0.6110110878944397,-0.7914891242980957,0.13465005159378052,0.05228841304779053,0.0377812385559082,-0.20686879754066467,1.0782972574234009,1.1837295293807983,0.018323637125525042,-0.6573372327118991,-1.7369401449723871
1687006256.1078649,0.09275180101394653,0.6036399006843567,-0.7918433547019958,0.11788049340248108,0.048932671546936035,0.03833383321762085,0.135512575507164,1.0218147039413452,1.1098874807357788,0.11660268064403233,-0.6480588155733192,-1.663564547696067
1687006256.170199,0.1674729287624359,0.6019479632377625,-0.7807761430740356,0.11057266592979431,0.03765463829040527,0.06687843799591064,-0.002060395199805498,1.1958484649658203,1.1579314470291138,0.2112938490309102,-0.6459383267635387,-1.595863463955501
1687006256.258369,0.25275081396102905,0.5813893675804138,-0.7733713984489441,0.10879087448120117,0.0853128433227539,-0.027089357376098633,0.17345742881298065,1.274665355682373,1.2174317836761475,0.3158742898783755,-0.620435291324925,-1.5253254089189576
1687006256.2634811,0.33150267601013184,0.5668224692344666,-0.7542003393173218,0.11339777708053589,0.13343381881713867,0.021213889122009277,-0.0039017717353999615,1.2059423923492432,0.9912815093994141,0.41412301642721727,-0.6026437578858969,-1.4611157763059175
1687006256.380059,0.40608468651771545,0.5377531051635742,-0.7388618588447571,0.17667889595031738,0.04627704620361328,0.036011457443237305,0.5001233816146851,1.3566665649414062,0.9875141382217407,0.5025425276235936,-0.5677697704679047,-1.418883331014357
1687006256.3847551,0.48778048157691956,0.49388012290000916,-0.7198281288146973,0.01907062530517578,0.13870346546173096,0.008219301700592041,0.9296514987945557,1.5858176946640015,1.065268874168396,0.5955574362543354,-0.5165464596895767,-1.3818866565931391
1687006256.472132,0.5680934190750122,0.44029706716537476,-0.6952756643295288,0.11441689729690552,-0.003407418727874756,0.03901040554046631,0.42946290969848633,1.5850456953048706,0.9698827266693115,0.6850670480134998,-0.45592951058131115,-1.3625257502633468
1687006256.4852018,0.6390114426612854,0.4153834283351898,-0.6473954916000366,0.15572720766067505,0.05554857850074768,-0.01849806308746338,-0.4595352113246918,1.4641833305358887,0.8351949453353882,0.778880816615977,-0.42836428158521744,-1.3212060588127053
1687006256.559861,0.7028494477272034,0.3926302194595337,-0.5931645035743713,0.13407981395721436,0.04685342311859131,-0.05121421813964844,0.19071410596370697,1.5271626710891724,0.9826275706291199,0.869829520287553,-0.4034897362850129,-1.278759359196241
1687006256.56434,0.7639578580856323,0.3500445783138275,-0.5420674085617065,0.19131851196289062,0.038291603326797485,-0.06344717741012573,0.031228985637426376,1.481519341468811,0.899539053440094,0.9536887390081564,-0.3576187009211958,-1.2572519324681968
1687006256.614603,0.8148401975631714,0.32433485984802246,-0.48046043515205383,0.36774635314941406,0.07225632667541504,-0.11588358879089355,-0.5659515857696533,1.258734941482544,0.8598949909210205,1.0380310740280583,-0.3303085049683345,-1.2143905692463546
1687006256.711513,0.857210636138916,0.29156801104545593,-0.4244736433029175,0.11289727687835693,0.14208680391311646,-0.2180892825126648,0.45481228828430176,1.2807167768478394,0.9013489484786987,1.1110120694763963,-0.2958656575076259,-1.1847747249731466
1687006256.71502,0.8918263912200928,0.24432358145713806,-0.3807251751422882,0.13748574256896973,0.06478902697563171,-0.11053162813186646,0.22818319499492645,1.0879967212677002,0.5436842441558838,1.1673132136570865,-0.24682207347600593,-1.2019230114741766
1687006256.8005152,0.9133120179176331,0.23957562446594238,-0.32933977246284485,0.06010705232620239,0.09202840924263,-0.07019644975662231,-1.5525668859481812,0.7897858619689941,0.352409690618515,1.2247102006873851,-0.24192872869216234,-1.152980643010486
1687006256.9488978,0.9314860701560974,0.23259560763835907,-0.2797013521194458,0.03155702352523804,0.13479028642177582,-0.06273645162582397,-0.04027516022324562,0.9595037698745728,0.4240979850292206,1.27908788084269,-0.23474564119901314,-1.1085558543036211
1687006256.963567,0.9478510022163391,0.21438118815422058,-0.23583707213401794,0.008829236030578613,0.1117144376039505,-0.06767559051513672,0.009744333103299141,0.9202386736869812,0.28989651799201965,1.3269357284409216,-0.2160582398162639,-1.10863295963556
1687006257.00793,0.9594630599021912,0.20358069241046906,-0.19489794969558716,0.013406634330749512,0.16963402926921844,-0.23434709012508392,0.28713133931159973,0.8108339309692383,0.17314085364341736,1.370390748533247,-0.2050138264641825,-1.1075405419262139
1687006257.010865,0.966608464717865,0.19307905435562134,-0.16848869621753693,0.009679198265075684,0.060277894139289856,-0.33245742321014404,0.3274412751197815,0.4616089165210724,0.06588923931121826,1.398221064373235,-0.19429928888728604,-1.1324415669033066
1687006257.0132542,0.9684604406356812,0.19546133279800415,-0.15452840924263,0.006728649139404297,0.12077708542346954,-0.3024723529815674,-0.4121127426624298,0.08502155542373657,-0.07245239615440369,1.4125692486761856,-0.19672784021131318,-1.1242660030882003
1687006257.130755,0.9670838117599487,0.20163483917713165,-0.1552169919013977,0.032260000705718994,0.10058076679706573,-0.18264323472976685,0.1466442495584488,-0.13340958952903748,-0.18488359451293945,1.4116535405122403,-0.20302674997538636,-1.1206015711511401
1687006257.1359649,0.9628435969352722,0.21296948194503784,-0.16606052219867706,0.021195590496063232,-0.018725082278251648,-0.050889015197753906,0.012493846006691456,-0.2329847663640976,-0.26882404088974,1.4000076545188342,-0.21461316556958626,-1.1293175537121098
1687006257.218945,0.9589693546295166,0.2227262556552887,-0.17541612684726715,-0.0171968936920166,-0.04111607372760773,0.05264382064342499,0.018795417621731758,-0.14789357781410217,-0.1472454071044922,1.3898750053981261,-0.22461007540157393,-1.128896303052335
1687006257.2336879,0.9567186832427979,0.22751328349113464,-0.1814580261707306,0.011298775672912598,-0.07126326858997345,0.05508464574813843,0.21419040858745575,-0.05405963212251663,-0.09158214181661606,1.3833557394372658,-0.2295232284733748,-1.1372831893547848
1687006257.31105,0.9558305144309998,0.2294500172138214,-0.18368585407733917,-0.023137211799621582,-0.09407401084899902,0.013931706547737122,-0.11578016728162766,-0.05297918990254402,-0.022154871374368668,1.3809368882907669,-0.23151258443525735,-1.1409170675565192
1687006257.31599,0.9557437896728516,0.22987353801727295,-0.18360792100429535,0.007268786430358887,-0.04321274161338806,-0.023713350296020508,-0.18690180778503418,-0.08507121354341507,0.009783887304365635,1.3809987092830345,-0.23194773710051864,-1.1307296000502107
1687006257.381804,0.955937922000885,0.22681042551994324,-0.18638579547405243,0.0056098103523254395,-0.02801889181137085,-0.03408849239349365,0.03709712624549866,-0.0778840035200119,0.048572029918432236,1.3782353327642878,-0.2288015107521981,-1.127158201462365
1687006257.479755,0.9560710191726685,0.22147715091705322,-0.19203124940395355,-0.0037700533866882324,-0.021159738302230835,-0.04556339979171753,0.046861741691827774,-0.0837501510977745,0.06333233416080475,1.372579180988305,-0.22332897377345376,-1.1293355814554589
1687006257.4823709,0.9551207423210144,0.21935762465000153,-0.19906365871429443,-0.0051697492599487305,-0.005200520157814026,-0.015062958002090454,-0.40181824564933777,-0.17696650326251984,0.05237742140889168,1.3653204816929607,-0.22115600297606405,-1.1203176069160496
1687006257.638922,0.95414799451828,0.21706622838974,-0.2061157077550888,-0.00175553560256958,0.0748344361782074,-0.028854429721832275,0.1104864552617073,-0.10640286654233932,0.07599140703678131,1.3580447881287332,-0.2188080251470086,-1.1075802974979092
1687006257.652256,0.9534745812416077,0.21299849450588226,-0.2133486419916153,-0.0017077326774597168,0.0028370916843414307,0.02067585289478302,-0.08455513417720795,-0.15318967401981354,0.038944702595472336,1.3506632705633441,-0.2146428611761125,-1.1143719233531948
1687006257.655339,0.9524664282798767,0.2120494395494461,-0.21872985363006592,-0.005368649959564209,0.05487261712551117,-0.01927688717842102,0.18029163777828217,-0.08460994809865952,0.06696595251560211,1.3450644340113218,-0.2136716156801639,-1.108021503195998
1687006257.724349,0.9520783424377441,0.20539869368076324,-0.22662340104579926,-0.0034853219985961914,-0.021484479308128357,0.017196476459503174,0.12211041897535324,-0.14428885281085968,0.023993447422981262,1.3371146901718982,-0.2068710743491859,-1.1265107703516377
1687006257.727542,0.9502376317977905,0.2075200229883194,-0.23234380781650543,-0.013302385807037354,0.0540308952331543,-0.01909056305885315,-0.26811298727989197,-0.1705913096666336,0.016904115676879883,1.3309901660962473,-0.2090391133987762,-1.1140610327104792
1687006257.8210611,0.9488894939422607,0.2060396373271942,-0.23907357454299927,0.013634800910949707,0.07000714540481567,-0.027100786566734314,0.3750862777233124,-0.10830409824848175,0.0003243396058678627,1.323982345850472,-0.20752602381352472,-1.1172543918185707
1687006257.834014,0.9465681910514832,0.20591238141059875,-0.2482105791568756,-0.01076209545135498,0.0012104511260986328,0.0074726492166519165,-0.1466711014509201,-0.19024357199668884,-0.041936565190553665,1.3143485225437563,-0.2073959776886643,-1.1253753748066282
1687006257.914777,0.9439939260482788,0.20882384479045868,-0.25547584891319275,-0.01062917709350586,0.03156314790248871,-0.0030538439750671387,-0.031311292201280594,-0.1707616150379181,-0.014745423570275307,1.3064946537912645,-0.21037214071581192,-1.1179976068158717
1687006257.919905,0.9414945840835571,0.21032051742076874,-0.2633497714996338,0.01211857795715332,0.025183677673339844,0.017027080059051514,0.1313689649105072,-0.14491324126720428,-0.06042076647281647,1.2980523134277309,-0.2119027918766231,-1.122684250369959
1687006257.9688349,0.9385501742362976,0.2151544839143753,-0.269873708486557,-0.0030187368392944336,-0.02113896608352661,0.02725890278816223,-0.21798843145370483,-0.16539601981639862,-0.054032377898693085,1.290806620192535,-0.21685002283238622,-1.123515896267815
1687006258.0617309,0.936281681060791,0.2210250049829483,-0.2729916274547577,-0.009325623512268066,0.025526508688926697,0.033810049295425415,-0.01439429447054863,-0.11525081843137741,-0.0453169159591198,1.2870913160611475,-0.22286534509382097,-1.1144332611035062
1687006258.0669188,0.9357172846794128,0.21909834444522858,-0.27645811438560486,-0.0005214214324951172,-0.006467089056968689,0.01293879747390747,0.30166247487068176,-0.04064609110355377,-0.03836340084671974,1.2835186130054912,-0.2208902608191699,-1.125037631320795
1687006258.149994,0.9347966909408569,0.2206285297870636,-0.2783487141132355,-0.00521618127822876,-0.022798314690589905,0.023816794157028198,-0.09015630185604095,-0.06911368668079376,0.004790459759533405,1.281392262641309,-0.22245883022607904,-1.1282516059207188
1687006258.29783,0.9346548318862915,0.21961842477321625,-0.2796209752559662,-3.886222839355469e-05,0.01281873881816864,-0.006252467632293701,0.11915931105613708,-0.023305850103497505,0.008092780597507954,1.2801008777614156,-0.22142332802664957,-1.128076184319949
1687006258.303308,0.9348347187042236,0.21861900389194489,-0.2798028290271759,0.004282593727111816,-0.005453705787658691,-0.0008063614368438721,0.025980493053793907,-0.014520879834890366,-0.021465111523866653,1.2799751833468618,-0.22039902247779014,-1.1315979173573942
1687006258.45081,0.934719979763031,0.2185315191745758,-0.28025388717651367,-0.007199406623840332,-0.003504648804664612,0.013926953077316284,0.00268296105787158,-0.002934132469817996,0.015877198427915573,1.2794986504495485,-0.22030935778372193,-1.1331685386662704
1687006258.4648461,0.934726893901825,0.21908648312091827,-0.2797973155975342,-0.013157248497009277,0.008940890431404114,-0.002520829439163208,-0.04565407708287239,-0.007944870740175247,-0.02301187627017498,1.2799489111214577,-0.22087810442894024,-1.1315716424192634
1687006258.467966,0.9346691966056824,0.21878404915332794,-0.28022629022598267,0.0013047456741333008,0.012554466724395752,-0.01704546809196472,0.10730651021003723,-0.0008250420214608312,0.00042047910392284393,1.2795107859637702,-0.2205681514138137,-1.1346276482620785
1687006258.539236,0.9341485500335693,0.21943815052509308,-0.2814486026763916,0.0029088258743286133,0.006788700819015503,-0.012817203998565674,-0.013350533321499825,-0.009037964046001434,-0.00655167642980814,1.2781574719042927,-0.22123854591720202,-1.1367295833553737
1687006258.549614,0.9336301684379578,0.21932676434516907,-0.28324955701828003,-0.017263710498809814,-0.0015227794647216797,-0.026351332664489746,0.09096188843250275,-0.01135757751762867,0.004970490001142025,1.2762367575094258,-0.22112438367830756,-1.1383995367478217
1687006258.552496,0.9332150220870972,0.21812060475349426,-0.2855397164821625,0.00045490264892578125,-0.002727508544921875,-0.0062999725341796875,0.0014401301741600037,-0.031014636158943176,0.012577810324728489,1.273867684076304,-0.21988828599610707,-1.1411308684998138
1687006258.631236,0.9326888918876648,0.21739965677261353,-0.2877996265888214,-0.0017045140266418457,-0.0009994804859161377,-5.751848220825195e-05,-0.023525740951299667,-0.02822830341756344,0.019720938056707382,1.2714960100547537,-0.2191496159933673,-1.1405581608291744
1687006258.634438,0.9324958920478821,0.21787439286708832,-0.2880661189556122,-0.00906461477279663,0.016531169414520264,0.004923999309539795,-0.04718825966119766,-0.007523158565163612,0.0020138490945100784,1.2711767680079278,-0.21963600667832953,-1.1372334897399392
1687006258.722808,0.9324144124984741,0.2174028903245926,-0.28868526220321655,-0.0014452934265136719,0.0033460408449172974,0.010059714317321777,-0.030956093221902847,-0.012492218054831028,0.0012921318411827087,1.2705460755769422,-0.2191529360451015,-1.1371557663986032
1687006258.7348418,0.9321600794792175,0.2190367728471756,-0.28827136754989624,-0.00468522310256958,0.019152939319610596,-0.006467461585998535,-0.08405047655105591,-0.004997549578547478,0.005891145206987858,1.2708741952085645,-0.22082715911099374,-1.1326203820115999
1687006258.835365,0.9319945573806763,0.21905545890331268,-0.288791686296463,0.0005919933319091797,0.0030057132244110107,-0.010402679443359375,-0.05574466288089752,-0.022006094455718994,-0.009014034643769264,1.270314604018483,-0.22084631900703536,-1.1311644938445162
1687006258.8466048,0.9314583539962769,0.2201560139656067,-0.28968358039855957,-0.007477760314941406,0.002042517066001892,-0.006413280963897705,-0.010383505374193192,-0.01725860871374607,0.006851213984191418,1.2692785729521856,-0.22197440267830423,-1.1292364083459854
1687006258.9317021,0.931110680103302,0.21983981132507324,-0.2910381853580475,0.004436075687408447,0.011636048555374146,-0.006737083196640015,-0.014598090201616287,-0.02629072032868862,0.027388714253902435,1.2678467688010149,-0.22165025900666416,-1.128819832871482
1687006258.935246,0.9307257533073425,0.21955960988998413,-0.29247739911079407,0.01039046049118042,0.004515737295150757,-0.00648808479309082,-0.07022932916879654,-0.03486223518848419,0.024498384445905685,1.266321050856633,-0.22136305006165286,-1.1264838669332164
1687006259.0166821,0.9305282831192017,0.21999520063400269,-0.2927783131599426,-0.009996175765991211,0.007025077939033508,-0.0019757747650146484,-0.11296527087688446,-0.0327153317630291,0.0370517261326313,1.2659660846569838,-0.221809546880378,-1.1209049819005392
1687006259.03034,0.9303560256958008,0.21975667774677277,-0.29350391030311584,-0.007840275764465332,0.021042287349700928,-0.018523097038269043,-0.07506156712770462,-0.04053730145096779,0.025813721120357513,1.2652035982953003,-0.22156504609638383,-1.1157311098130411
1687006259.130734,0.9294930100440979,0.22020553052425385,-0.2958921790122986,0.02088528871536255,0.0021303296089172363,-0.019034087657928467,-0.08136027306318283,-0.06707902997732162,0.004912699572741985,1.262602480027259,-0.22202516380967932,-1.1127829089986425
1687006259.134017,0.9285673499107361,0.21955567598342896,-0.299262136220932,-0.016290247440338135,-0.012783810496330261,-0.161309152841568,-0.05236884206533432,-0.1019081175327301,0.07100916653871536,1.2590231572883734,-0.22135900305528167,-1.1098967725065911
1687006259.254725,0.9251010417938232,0.21508321166038513,-0.31293290853500366,0.04157358407974243,0.14528362452983856,-0.5596715211868286,0.22054225206375122,-0.5336021184921265,0.056626226752996445,1.2446103641261945,-0.21677704169577988,-1.112151078280086
1687006259.271048,0.9098998308181763,0.22115446627140045,-0.35095974802970886,0.0912291407585144,0.18814730644226074,-0.46607211232185364,-0.5246074199676514,-1.1801774501800537,-0.21723274886608124,1.202667099560683,-0.22299808391704376,-1.106156493769921
1687006259.351521,0.8804267644882202,0.24583178758621216,-0.4054815173149109,0.13542699813842773,0.26524612307548523,-0.3518580198287964,-0.0800229012966156,-1.447810411453247,-0.2711755931377411,1.13920283564139,-0.24837771578106543,-1.0931239127497427
1687006259.364946,0.8387635946273804,0.2756613492965698,-0.4695596992969513,0.14962434768676758,0.16963589191436768,-0.16018584370613098,-0.44762876629829407,-1.6823278665542603,-0.6933047771453857,1.0604422611920798,-0.2792776437867994,-1.0965142996524042
1687006259.378357,0.7833172082901001,0.3249174952507019,-0.5299458503723145,0.18846917152404785,0.1853211522102356,-0.05835676193237305,-0.665877640247345,-1.7183082103729248,-0.9367131590843201,0.9759890936249479,-0.3309244962660438,-1.091312814209777
1687006259.3812752,0.7170106768608093,0.379815936088562,-0.5844959020614624,0.2020719051361084,0.141210675239563,-0.028846383094787598,-0.5432038307189941,-1.7367966175079346,-1.127305269241333,0.8868649568603517,-0.3895973103352122,-1.0998539655668809
1687006259.436888,0.6388539671897888,0.4437501132488251,-0.6284516453742981,0.1962289810180664,0.11511829495429993,0.08941960334777832,-0.7054808735847473,-1.642478585243225,-1.3712273836135864,0.7936061981957662,-0.4597790440883953,-1.1174304658810474
1687006259.494866,0.5549739003181458,0.5054068565368652,-0.6607328057289124,0.21564066410064697,0.018671512603759766,0.06586885452270508,-0.7045491337776184,-1.5111753940582275,-1.4204909801483154,0.6986228842819633,-0.5298534277034657,-1.1518367129512508
1687006259.6814132,0.466451495885849,0.5736943483352661,-0.6732739210128784,0.18837937712669373,0.030370593070983887,-0.029729008674621582,-1.1408239603042603,-1.4661164283752441,-1.471994400024414,0.6058847366242298,-0.6110092140023805,-1.185785573184355
1687006259.835518,0.3700861632823944,0.6374050974845886,-0.675833523273468,0.19810530543327332,0.1327669620513916,-0.028695285320281982,-0.6326454281806946,-1.4198637008666992,-1.7014366388320923,0.5009984242485541,-0.6911258540595397,-1.2394627707938335
1687006259.852302,0.26310914754867554,0.685457170009613,-0.6789122819900513,0.2225475013256073,0.04217338562011719,0.09942930936813354,-0.5536565780639648,-1.31400728225708,-1.852916955947876,0.3697235274153895,-0.7552313882075913,-1.333244257546009
1687006259.856069,0.158098965883255,0.7208245992660522,-0.6748455762863159,0.24506869912147522,-0.009627699851989746,0.15116393566131592,-0.45859000086784363,-1.055964708328247,-1.7926470041275024,0.2301241118156118,-0.8049912653567491,-1.446403553834338
1687006259.886204,0.062296994030475616,0.7475935220718384,-0.6612282991409302,0.1607254445552826,0.058192551136016846,0.11554348468780518,-0.5003788471221924,-0.890894889831543,-1.750519037246704,0.09393676740993243,-0.8444312955236406,-1.5665054281496569
1687006259.8969312,-0.03571421280503273,0.7655618190765381,-0.642370343208313,0.25061899423599243,0.027590036392211914,0.133428692817688,-0.3858773708343506,-0.7246703505516052,-1.9373304843902588,-0.05554036774968109,-0.8719141136985712,-1.709446750241741
1687006259.948333,-0.1293928027153015,0.7603238821029663,-0.6365257501602173,0.24107185006141663,-0.09003585577011108,0.16811144351959229,-0.12314075231552124,-0.5577837824821472,-1.8955779075622559,-0.20054716420125923,-0.8638115856909216,-1.8574290355364522
1687006259.9519138,-0.21246612071990967,0.7539427280426025,-0.6216336488723755,0.20564542710781097,-0.10552060604095459,0.14769572019577026,-0.2261846512556076,-0.334701269865036,-1.6485947370529175,-0.32933919840248344,-0.8540432230738936,-1.9978335010290875
1687006260.004777,-0.28192445635795593,0.7426825761795044,-0.6074051260948181,0.16499635577201843,-0.059256792068481445,0.08029031753540039,-0.28389686346054077,-0.26456335186958313,-1.6404023170471191,-0.4345549849309973,-0.8370675183132845,-2.11866737707013
1687006260.008393,-0.3460076153278351,0.7199692130088806,-0.6016002297401428,0.13490229845046997,0.000382840633392334,0.06676453351974487,0.11225192993879318,-0.19369104504585266,-1.5453027486801147,-0.5219435436880029,-0.8037579537116895,-2.222668933519477
1687006260.191585,-0.4058038592338562,0.6914465427398682,-0.5976828932762146,0.1194269061088562,-0.04973822832107544,0.061321258544921875,-0.215081587433815,-0.15502166748046875,-1.5573972463607788,-0.5964663703752999,-0.7634895063565222,-2.3173576066366226
1687006260.254218,-0.46232184767723083,0.6605790853500366,-0.5915181040763855,0.10963019728660583,0.023090898990631104,-0.007602989673614502,0.32004332542419434,-0.1417338252067566,-1.4664896726608276,-0.6634111600382286,-0.7215898623251941,-2.4042733219706127
1687006260.269551,-0.5133147239685059,0.6057785153388977,-0.6078982949256897,0.14736324548721313,0.05832970142364502,-0.019802510738372803,0.8236802816390991,-0.2106306105852127,-1.5103974342346191,-0.7012392012851497,-0.650743983663109,-2.451862148606125
1687006260.273211,-0.5670980215072632,0.5481089949607849,-0.6147978901863098,0.14592492580413818,-0.017805039882659912,-0.0064026713371276855,0.2558285593986511,-0.33834171295166016,-1.6076449155807495,-0.7450612872692228,-0.5801016758753279,-2.5036529136005337
1687006260.2865171,-0.624610424041748,0.4878652095794678,-0.6097944974899292,0.22920948266983032,0.006443232297897339,-0.0256577730178833,0.27327030897140503,-0.5372307300567627,-1.9236854314804077,-0.7974000895828803,-0.5096424926078585,-2.5647267640486757
1687006260.311446,-0.6786569952964783,0.4128028154373169,-0.6074689626693726,0.07547706365585327,-0.17043223977088928,0.013673186302185059,0.8859772682189941,-0.39085671305656433,-1.4090248346328735,-0.8406924751732381,-0.42552917934782153,-2.6037014761514206
1687006260.400138,-0.7099162340164185,0.34866878390312195,-0.6119224429130554,0.06616324186325073,-0.17780089378356934,0.09237587451934814,0.8323407173156738,-0.1470942348241806,-0.9981544017791748,-0.8593972841952144,-0.35615036640857767,-2.6175909747179067
1687006260.4594011,-0.7276169657707214,0.2876424491405487,-0.6227642297744751,0.09414839744567871,-0.010527610778808594,0.0823589563369751,0.9885859489440918,-0.0906851515173912,-0.8815923929214478,-0.8628894692820157,-0.29176434888295777,-2.6121300006135155
1687006260.474975,-0.7428674697875977,0.23071259260177612,-0.6284263134002686,0.06729990243911743,0.027176201343536377,0.059761762619018555,0.41142213344573975,-0.15983319282531738,-0.8777260184288025,-0.8686601112520979,-0.23280997185909344,-2.6101137175398965
1687006260.517576,-0.757832944393158,0.19243764877319336,-0.6234235167503357,0.042653560638427734,0.03177496790885925,0.009425163269042969,0.2694394886493683,-0.1382388174533844,-0.9419164657592773,-0.8824022802995702,-0.19364561496700197,-2.6358939912968724
1687006260.611796,-0.7683653831481934,0.1359444111585617,-0.6254068613052368,0.06319576501846313,-0.1646004170179367,0.043955445289611816,1.0194594860076904,-0.14192624390125275,-0.834206223487854,-0.887610232394534,-0.13636665678903837,-2.634741843492488
1687006260.617464,-0.7792770266532898,0.08322960883378983,-0.6211281418800354,0.06849205493927002,-0.29360252618789673,0.0259438157081604,0.3745107054710388,-0.24962007999420166,-0.6289947628974915,-0.8978525252410724,-0.08332599978337178,-2.6303373218895314
1687006260.759907,-0.7862753868103027,0.05820455774664879,-0.6151285171508789,0.023473381996154785,-0.3683241903781891,0.06865030527114868,0.39166340231895447,-0.06925416737794876,-0.19749127328395844,-0.9069216861656629,-0.058237472074869664,-2.635039677504668
1687006260.766356,-0.7883816361427307,0.04259162396192551,-0.6137102246284485,0.03259861469268799,-0.2735639214515686,0.06784230470657349,0.3538932502269745,-0.046776819974184036,0.04878987371921539,-0.9093387646070293,-0.04260451232776491,-2.620049442985316
1687006260.772174,-0.7893515825271606,0.04105445370078087,-0.6125672459602356,0.03823775053024292,-0.06223365291953087,0.047717392444610596,0.279397189617157,-0.0026314640417695045,0.20653609931468964,-0.9108377643639923,-0.04106599671187587,-2.6058359728463705
1687006260.844125,-0.7913209795951843,0.03977852314710617,-0.6101054549217224,0.04154998064041138,0.05909842625260353,0.005521714687347412,0.05357237532734871,-0.15218485891819,0.02331221103668213,-0.9139925398816285,-0.03978902292794887,-2.5933210689018713
1687006260.97117,-0.7944616675376892,0.035846758633852005,-0.6062553524971008,-0.036928653717041016,0.0687522441148758,-0.00276869535446167,0.30294570326805115,0.01198809128254652,0.037431493401527405,-0.9189625063811777,-0.03585443990425539,-2.588738893875778
1687006260.9888,-0.7935295701026917,0.03418322652578354,-0.6075707674026489,-0.018237948417663574,0.009472168982028961,-0.037082552909851074,-0.14784011244773865,-0.01491409633308649,-0.001980893313884735,-0.9173503472349278,-0.03418988683620827,-2.5837455141524557
1687006260.9926581,-0.7954804301261902,0.035147231072187424,-0.6049591302871704,-0.00044846534729003906,0.00037523359060287476,-0.04173886775970459,0.2384231835603714,-0.05924108251929283,0.015147493220865726,-0.9206119772949564,-0.035154470594202784,-2.5825592926674297
1687006261.114677,-0.7978553175926208,0.029505882412195206,-0.6021264791488647,-0.0015068650245666504,-0.019801296293735504,0.029021620750427246,0.06787015497684479,-0.12367186695337296,-0.018832044675946236,-0.9243059092777484,-0.029510164896087397,-2.57439876105209
1687006261.118081,-0.8002941608428955,0.024213438853621483,-0.5991184115409851,-0.010969758033752441,0.021456122398376465,0.022870242595672607,0.17329031229019165,-0.07271281629800797,-0.04878222197294235,-0.9281772763507992,-0.024215805189435533,-2.5682954796152146
1687006261.177767,-0.8022525906562805,0.022045232355594635,-0.596577525138855,-0.03870505094528198,0.10634222626686096,-0.0075789690017700195,-0.18365342915058136,-0.04571608453989029,-0.12549564242362976,-0.931385761737626,-0.022047019112176547,-2.572952369677255
1687006261.181226,-0.8055990934371948,0.02236439846456051,-0.5920387506484985,0.0010947585105895996,0.09219859540462494,-0.004488348960876465,-0.3448847830295563,-0.15316849946975708,-0.25107914209365845,-0.9370262591356733,-0.022366263494641533,-2.5885719220001406
1687006261.184505,-0.8090548515319824,0.013780198991298676,-0.5875715017318726,-0.029583394527435303,0.09045259654521942,-0.06506216526031494,0.3891768753528595,-0.07323998957872391,-0.24745403230190277,-0.9426730093146732,-0.013780634950985117,-2.5971180470331388
1687006261.2705069,-0.8137704133987427,-0.007508676033467054,-0.581138014793396,0.036975979804992676,0.04469434544444084,-0.030586838722229004,-0.046425726264715195,-0.269548237323761,-0.44558364152908325,-0.9506498067813264,0.007508746686109844,-2.598244479849662
1687006261.390324,-0.8208276629447937,-0.021585483103990555,-0.570767879486084,-0.020374059677124023,-0.08127400279045105,0.034955501556396484,0.028271211311221123,-0.1797596514225006,-0.35311147570610046,-0.9631935928941201,0.021587158821261533,-2.615292045170273
1687006261.4061089,-0.8233615756034851,-0.03905661776661873,-0.5661714673042297,0.005399048328399658,-0.13530555367469788,0.061075031757354736,0.2536565363407135,-0.05244801938533783,-0.21175223588943481,-0.9684179671194553,0.03906655271447596,-2.615454608394262
1687006261.515396,-0.8247387409210205,-0.04580847546458244,-0.5636555552482605,0.03859061002731323,-0.34678491950035095,0.0885578989982605,-0.07533947378396988,-0.023862984031438828,0.043682731688022614,-0.9712743343181481,0.045824511061725505,-2.615198103322041
1687006261.521274,-0.823143720626831,-0.02893757075071335,-0.5670951008796692,0.05265122652053833,-0.41843485832214355,0.15278851985931396,-0.2847919762134552,0.16631720960140228,0.48014047741889954,-0.9675330594899079,0.0289416113655199,-2.617618046954328
1687006261.525816,-0.8165507912635803,0.010486694984138012,-0.5771782994270325,0.1142498254776001,-0.3651772439479828,0.22990351915359497,-0.4771019518375397,0.339398056268692,0.8584283590316772,-0.9554883468811542,-0.010486887564263518,-2.61487231257421
1687006261.567836,-0.8004518747329712,0.05909087881445885,-0.5964771509170532,0.12273281812667847,-0.30771759152412415,0.22185862064361572,0.03233359754085541,0.6223525404930115,1.2541810274124146,-0.930390071354663,-0.0591253221018806,-2.5918072244364563
1687006261.65624,-0.7720375657081604,0.11550754308700562,-0.6249927878379822,0.1357765793800354,-0.17332309484481812,0.11992692947387695,-0.2094721645116806,0.7870923280715942,1.503783106803894,-0.8902672531803674,-0.11576594481647944,-2.5523737383729412
1687006261.669353,-0.7352275252342224,0.18527977168560028,-0.6520060300827026,0.10384941101074219,-0.03050987422466278,0.05128276348114014,-0.23831386864185333,0.8237550854682922,1.6150816679000854,-0.8453173312092164,-0.18635655688361855,-2.5134327295168237
1687006261.752424,-0.6911289095878601,0.24452805519104004,-0.6801079511642456,0.08475995063781738,0.07218337059020996,-0.0009375810623168945,0.003521390724927187,0.7677379250526428,1.5355077981948853,-0.7934352475507496,-0.24703293958674857,-2.4593250841947927
1687006261.840261,-0.6465845704078674,0.2938087582588196,-0.7039920687675476,0.06620126962661743,0.10128706693649292,-0.022326231002807617,-0.10451772809028625,0.6672789454460144,1.3568201065063477,-0.7429177993957132,-0.2982090237008774,-2.405576784237004
1687006261.857933,-0.6024673581123352,0.34005850553512573,-0.7220757007598877,0.10147559642791748,0.02982977032661438,0.011290788650512695,-0.2322525829076767,0.6280587315559387,1.2107435464859009,-0.6953408491032894,-0.3469791126545171,-2.36022377966441
1687006261.9654899,-0.5575840473175049,0.3775577247142792,-0.7392902970314026,0.07383471727371216,0.11325645446777344,-0.03849589824676514,0.12714633345603943,0.6500663161277771,1.1768499612808228,-0.6461934380902836,-0.38715739247989156,-2.313979859392498
1687006261.971339,-0.5153489112854004,0.4087877571582794,-0.753198504447937,0.034239351749420166,0.007365137338638306,-0.003225386142730713,-0.23969411849975586,0.5269979238510132,0.9435086250305176,-0.6000525520468404,-0.4211253711449556,-2.270731348599795
1687006262.084567,-0.46942970156669617,0.4383610785007477,-0.7664693593978882,0.04674598574638367,-0.01972097158432007,0.004094481468200684,-0.09635128080844879,0.6867014169692993,1.1545966863632202,-0.5495289028618946,-0.4537744111957614,-2.224109450742528
1687006262.099402,-0.4172573685646057,0.46998634934425354,-0.7778233289718628,0.09358793497085571,0.05734214186668396,-0.03473770618438721,-0.19233760237693787,0.6428245306015015,1.0560133457183838,-0.49237472600225685,-0.48927530887754245,-2.1743783084400774
1687006262.102827,-0.3701866567134857,0.49599242210388184,-0.785463809967041,0.03556141257286072,0.10581418871879578,0.0024590492248535156,0.09552402049303055,0.5952546000480652,0.956183135509491,-0.4404226010840679,-0.5189773837079389,-2.128629788394712
1687006262.2322168,-0.3214794099330902,0.5076755285263062,-0.7993225455284119,0.01963004469871521,0.022216439247131348,0.020819127559661865,-0.07190398871898651,0.6745060086250305,0.9235572814941406,-0.3823927645633598,-0.532484598931603,-2.075824565509686
1687006262.238378,-0.27254626154899597,0.531093955039978,-0.8022828102111816,0.06250900030136108,0.0803866982460022,0.01395273208618164,-0.23549099266529083,0.5892223715782166,0.845816433429718,-0.3274816226677496,-0.5598911497917569,-2.03140357692174
1687006262.380752,-0.22879862785339355,0.544583797454834,-0.8068950772285461,0.02658914029598236,0.027452945709228516,-0.013692021369934082,0.06401822715997696,0.6147410869598389,0.7849685549736023,-0.27630160754970984,-0.5758927884300139,-1.9905027674330136
1687006262.387916,-0.1787322610616684,0.5533691048622131,-0.8135338425636292,0.022192344069480896,0.05631101131439209,-0.040180087089538574,-0.1223064512014389,0.6319529414176941,0.9066534042358398,-0.21626281659657903,-0.5864036816955769,-1.9393166431478852
1687006262.392288,-0.1306275874376297,0.5633459091186523,-0.8158295154571533,0.0185975581407547,0.14296811819076538,-0.027249038219451904,0.04139253869652748,0.5792694091796875,0.7451894283294678,-0.15876863640971137,-0.5984298988673354,-1.890952378804812
1687006262.565613,-0.09152806550264359,0.5656816363334656,-0.8195284008979797,0.020498380064964294,0.09943366050720215,0.014718890190124512,-0.012280475348234177,0.5110139846801758,0.5581417679786682,-0.11122291190494922,-0.6012596515663094,-1.8524114080367622
1687006262.5711188,-0.05331321805715561,0.5651338696479797,-0.8232747912406921,0.00047200173139572144,0.031561076641082764,0.022203683853149414,0.14952939748764038,0.5936874747276306,0.6151903867721558,-0.06466720534121385,-0.6005954957320698,-1.8177424025059143
1687006262.575537,-0.011675242334604263,0.5631016492843628,-0.8263051509857178,0.009661042131483555,0.04576981067657471,-0.0045969486236572266,-0.026973402127623558,0.5649216771125793,0.6043154001235962,-0.014128515653550233,-0.5981342601511878,-1.7797743508010382
1687006262.649747,0.0249775480479002,0.5674198865890503,-0.8230496644973755,0.03901778161525726,0.01877695322036743,-0.004007220268249512,-0.1643245369195938,0.510806679725647,0.4672286808490753,0.030338246148997668,-0.6033691165140431,-1.7478930771391095
1687006262.6537762,0.062217261642217636,0.5706611275672913,-0.8188253045082092,-0.010688360780477524,0.024584174156188965,0.03220421075820923,0.0771038606762886,0.5977712869644165,0.6085109114646912,0.07583783699817108,-0.6073107472119871,-1.715643725591876
1687006262.6573138,0.10633491724729538,0.5619281530380249,-0.8203228712081909,0.021320074796676636,0.025016367435455322,0.018198907375335693,0.3094731271266937,0.6765844225883484,0.5979035496711731,0.1289068992651047,-0.5967149300916905,-1.6790898650344181
1687006262.7074199,0.14923842251300812,0.5447879433631897,-0.8251872062683105,0.0368729829788208,-0.018436014652252197,-0.0015492439270019531,0.21455959975719452,0.6425414085388184,0.49755117297172546,0.17892002072066904,-0.5761362017826825,-1.6499053401879598
1687006262.838393,0.19018122553825378,0.5388911962509155,-0.8206261992454529,0.021137654781341553,-0.026455342769622803,0.03940671682357788,-0.16097688674926758,0.6824249029159546,0.5476393103599548,0.2277311163681577,-0.5691202851743266,-1.6204429754400227
1687006262.854557,0.23243333399295807,0.5416378974914551,-0.807838499546051,0.018619462847709656,-0.021725177764892578,0.0336838960647583,-0.18712212145328522,0.6952417492866516,0.6064429879188538,0.28015534330511743,-0.5723843132325155,-1.5850544853741446
1687006262.8583,0.2795920670032501,0.5241003632545471,-0.804454505443573,0.0344337522983551,0.02411741018295288,-0.005482017993927002,0.32392704486846924,0.7469038963317871,0.6162247657775879,0.3344948655733708,-0.5516584036273356,-1.5525687411387799
1687006262.917624,0.3244342505931854,0.5063042044639587,-0.7989983558654785,0.012922227382659912,-0.011797428131103516,0.002245485782623291,0.30504095554351807,0.7593464255332947,0.650353193283081,0.38571202331980575,-0.5308936805875764,-1.5245653297198616
1687006262.9215899,0.3740488290786743,0.4802470803260803,-0.793379008769989,0.05482989549636841,-0.05950123071670532,0.011182963848114014,0.3383390009403229,0.8550109267234802,0.7537714838981628,0.440558484302003,-0.5009363728653479,-1.4954316948356006
1687006263.011111,0.4243822395801544,0.4539951682090759,-0.7834462523460388,0.04720580577850342,-0.06332439184188843,0.005568444728851318,0.09935031086206436,0.791705846786499,0.7073493599891663,0.4964380767079095,-0.471244128466598,-1.4650824996481482
1687006263.02635,0.47095033526420593,0.43291425704956055,-0.7686293125152588,0.018719404935836792,0.01358845829963684,-0.04301619529724121,0.2555566132068634,0.8107675909996033,0.8044833540916443,0.5497159915125804,-0.4477231733503432,-1.432792822909156
1687006263.09831,0.5201106667518616,0.4003763496875763,-0.754442572593689,0.06387358903884888,0.049605339765548706,-0.02950829267501831,0.2700829803943634,0.8639724850654602,0.8511179685592651,0.6035745908946399,-0.4119275194696174,-1.4022334390424167
1687006263.102971,0.5630643367767334,0.37040501832962036,-0.7387547492980957,0.01826488971710205,0.05438441038131714,-0.0496821403503418,0.2941458821296692,0.696142852306366,0.699741005897522,0.6512510337290198,-0.3794450251696913,-1.3761484871284206
1687006263.2797341,0.6011592149734497,0.33611631393432617,-0.7250058054924011,0.04689675569534302,-0.021998882293701172,0.028167366981506348,0.2983351945877075,0.7357123494148254,0.7322943806648254,0.6922812144027445,-0.3427902561725192,-1.3597864775494575
1687006263.406997,0.6400036215782166,0.30731597542762756,-0.7042388319969177,0.042994916439056396,-0.043384701013565063,0.04647815227508545,-0.15638984739780426,0.7456949949264526,0.7497490048408508,0.7376490653565019,-0.3123712419418005,-1.3348145120382175
1687006263.422138,0.6780254244804382,0.28017571568489075,-0.6795461773872375,0.030409514904022217,0.12395328283309937,-0.04263705015182495,0.37015679478645325,0.7942036390304565,0.7250341176986694,0.7842779698428446,-0.28397716184984,-1.3086807034773886
1687006263.425869,0.7106062173843384,0.2545500099658966,-0.6559291481971741,0.01769566535949707,0.1007508933544159,-0.05014079809188843,-0.020397525280714035,0.6827980279922485,0.524827778339386,0.8253883028691048,-0.2573823528709474,-1.2920028582312921
1687006263.487431,0.7386237978935242,0.2362005114555359,-0.6313827037811279,0.032479047775268555,0.0559137761592865,-0.05323338508605957,0.00026081595569849014,0.6895873546600342,0.47839903831481934,0.8635166467519328,-0.23845384703127342,-1.2751079920916022
1687006263.501769,0.7640236616134644,0.21783453226089478,-0.6073020696640015,0.011397361755371094,0.0628814548254013,-0.058087944984436035,0.04986725002527237,0.6317586898803711,0.41596922278404236,0.8991892077221321,-0.21959516237908572,-1.2630377467208396
1687006263.545168,0.7852648496627808,0.20137497782707214,-0.5854973793029785,-0.007829606533050537,0.07303911447525024,-0.08900213241577148,0.06740796566009521,0.5321813225746155,0.3329283893108368,0.9301139607235697,-0.20276145410107346,-1.254248725591562
1687006263.547886,0.8029038906097412,0.18778902292251587,-0.565756618976593,-0.0022143125534057617,0.08607575297355652,-0.13802456855773926,0.18803438544273376,0.47682806849479675,0.28242528438568115,0.9569643354631884,-0.18891063816328185,-1.2475683815416443
1687006263.550706,0.8163790106773376,0.17377348244190216,-0.5507522225379944,0.0006679892539978027,0.04207737743854523,-0.15188449621200562,0.07787425071001053,0.3235398530960083,0.1949566751718521,0.977302177674434,-0.17466016560460532,-1.248018220891092
1687006263.6072311,0.8240505456924438,0.16973549127578735,-0.5404911041259766,0.012558341026306152,0.022418498992919922,-0.05440336465835571,-0.4054860770702362,0.1646834909915924,0.08294758200645447,0.9902877358409816,-0.1705612559323075,-1.2407212188095087
1687006263.7610931,0.8286335468292236,0.1801794022321701,-0.5300016403198242,-0.046193480491638184,0.05329537391662598,-0.03443622589111328,-0.28041452169418335,0.2044728547334671,0.092509925365448,1.0017604194196315,-0.18116883953047214,-1.2171832143586063
1687006263.777184,0.8351507782936096,0.17631515860557556,-0.5209951996803284,-0.01758497953414917,0.02464313805103302,-0.031723976135253906,0.09925118088722229,0.24476487934589386,0.10215377062559128,1.0130361398733272,-0.17724169601009995,-1.215009204065934
1687006263.852447,0.8411937952041626,0.1706882268190384,-0.5130871534347534,-0.01953864097595215,0.0434536337852478,-0.06174200773239136,0.0870080292224884,0.18329179286956787,0.08006764203310013,1.0230919171796724,-0.17152810870553215,-1.2160186847677086
1687006263.867516,0.8452366590499878,0.16691124439239502,-0.5076568722724915,0.006096839904785156,0.02737891674041748,-0.061892688274383545,0.019149351865053177,0.10799864679574966,0.034899625927209854,1.0299290322730223,-0.16769613747006135,-1.2172635627265493
1687006263.871108,0.8467112183570862,0.16851310431957245,-0.504661500453949,0.004545927047729492,0.013310670852661133,-0.019691526889801025,-0.09210579842329025,0.07534828782081604,-0.015639446675777435,1.0333043950113845,-0.16932100031892733,-1.2152750868937428
1687006263.9070659,0.8473361134529114,0.17448854446411133,-0.5015725493431091,0.0014491081237792969,-0.015614017844200134,0.04603666067123413,-0.21232961118221283,0.07771331071853638,-0.043623942881822586,1.0363239832085425,-0.17538632180119043,-1.2093793385068847
1687006264.0036159,0.8503935933113098,0.17912748456001282,-0.494716078042984,-0.024633824825286865,-0.00656580924987793,0.05916917324066162,0.011288965120911598,0.19082307815551758,-0.021759657189249992,1.0439044037817737,-0.1800995177207955,-1.2049665357710952
1687006264.017365,0.8558785915374756,0.1761559545993805,-0.48625174164772034,-0.028943896293640137,-0.0067986249923706055,0.03312671184539795,0.09143886715173721,0.2236432135105133,0.01529077161103487,1.054139101362776,-0.17707996396076112,-1.2091753754240475
1687006264.054802,0.8615834712982178,0.17682021856307983,-0.4758238196372986,0.0078011155128479,-0.006806790828704834,0.018884122371673584,-0.12116501480340958,0.23726235330104828,-0.0037335194647312164,1.0662145431434145,-0.17775482810221196,-1.207951444668466
1687006264.152715,0.8675153255462646,0.18137337267398834,-0.4631637632846832,0.0014725327491760254,0.011558771133422852,0.0061935484409332275,-0.21358755230903625,0.26551172137260437,0.00680487509816885,1.0804003285602066,-0.18238281068644444,-1.1987615577420903
1687006264.158381,0.8736764788627625,0.18563808500766754,-0.44969743490219116,-0.019245445728302002,-0.01213034987449646,0.0013636350631713867,-0.21099495887756348,0.27501943707466125,0.004515090025961399,1.095443375957395,-0.1867211893668214,-1.1893882080533362
1687006264.208397,0.879679799079895,0.19185611605644226,-0.43514901399612427,-0.0038254261016845703,-0.019157111644744873,-0.020554780960083008,-0.372795432806015,0.2657093107700348,-0.006229966413229704,1.1114238078629994,-0.19305305095102138,-1.1754473080517311
1687006264.3314261,0.8854039907455444,0.19571715593338013,-0.42160937190055847,0.0025048255920410156,0.01380130648612976,-0.045309633016586304,-0.0020711813122034073,0.2654624581336975,0.02934320643544197,1.1263877776604188,-0.19698869822444726,-1.1658087744681906
1687006264.337234,0.8911365270614624,0.19277161359786987,-0.4107489585876465,-0.003517627716064453,0.016762107610702515,-0.014742434024810791,-0.05384476110339165,0.23740337789058685,0.040735676884651184,1.1388926971309978,-0.1939859646535902,-1.167511944479495
1687006264.39051,0.8956036567687988,0.2010549157857895,-0.3968258500099182,0.021327316761016846,0.02863563597202301,0.031072676181793213,-0.6463642120361328,0.21152743697166443,-0.021718379110097885,1.1537102953460074,-0.20243470669148392,-1.1479093024239508
1687006264.4030452,0.9000132083892822,0.21202820539474487,-0.3808150887489319,-0.008152365684509277,0.059196799993515015,0.01727437973022461,-0.07719448953866959,0.30573567748069763,-0.0906742736697197,1.17051773558754,-0.2136498899068371,-1.1278538339768494
1687006264.444789,0.905688464641571,0.21160338819026947,-0.36735865473747253,0.008297622203826904,-0.012949183583259583,-0.02091658115386963,0.110239177942276,0.32361671328544617,-0.03656390309333801,1.1854608706420782,-0.21321520702171945,-1.1344575116752906
1687006264.5088282,0.9111222624778748,0.21049869060516357,-0.35432544350624084,0.009730339050292969,-0.041339725255966187,-0.05213826894760132,-0.03611736744642258,0.27524223923683167,0.022425644099712372,1.199904907501415,-0.21208505168206632,-1.1372271823824456
1687006264.605195,0.9158215522766113,0.2084881216287613,-0.3432251513004303,0.008952498435974121,-0.005118951201438904,-0.10259097814559937,0.05656003952026367,0.20801086723804474,0.04750649631023407,1.21222471021388,-0.2100288610624954,-1.1379065940814208
1687006264.6203198,0.9187645316123962,0.2055593878030777,-0.3370709717273712,0.011838316917419434,-0.00133572518825531,-0.12177613377571106,0.08794485777616501,0.0890173614025116,0.04313225671648979,1.2191686572465679,-0.20703526699265376,-1.1409150809681199
1687006264.6555228,0.9196396470069885,0.20263850688934326,-0.3364526927471161,0.0241316556930542,0.0005628317594528198,-0.1023443341255188,-0.020730286836624146,-0.0029912572354078293,0.02621931955218315,1.220069175641762,-0.20405158431063694,-1.142741168865446
1687006264.78338,0.9186330437660217,0.20273002982139587,-0.3391367197036743,-0.01462620496749878,-0.005052387714385986,-0.03416961431503296,-0.0652797743678093,-0.08812160044908524,-0.01995030604302883,1.2171419141891149,-0.2041450409458743,-1.1423122888007589
1687006264.788723,0.9163967370986938,0.20553657412528992,-0.34347015619277954,0.009994804859161377,-0.013489410281181335,0.0006203651428222656,-0.16626112163066864,-0.09721150249242783,-0.015534784644842148,1.2121965370451318,-0.2070119514769744,-1.136621148417647
1687006264.899661,0.9148291349411011,0.20752374827861786,-0.34644123911857605,-0.0003394484519958496,-0.002308279275894165,0.017049670219421387,0.026270179077982903,-0.06600630283355713,-0.004880010150372982,1.208790117231424,-0.2090429221237411,-1.1330262703863656
1687006264.905736,0.9143915772438049,0.20505139231681824,-0.34905827045440674,-0.017846345901489258,-0.00944894552230835,0.01191529631614685,0.07850395888090134,-0.04171162098646164,0.04955047369003296,1.2061312472631063,-0.20651621221299285,-1.1355627141315325
1687006264.9910588,0.9147234559059143,0.20135335624217987,-0.35033953189849854,0.0025585293769836426,0.008043050765991211,0.002881646156311035,-0.013396672904491425,-0.047637954354286194,0.0718320831656456,1.2050300299722347,-0.20273937543971482,-1.135547882640308
1687006265.0074039,0.9149221181869507,0.1981642246246338,-0.35163673758506775,0.004572391510009766,0.024949833750724792,0.008832693099975586,0.04469572752714157,-0.031659651547670364,0.0510018952190876,1.203866612186221,-0.19948464136884536,-1.1349711317305433
1687006265.083548,0.9150193333625793,0.19709448516368866,-0.35198479890823364,-0.008113324642181396,0.021411418914794922,0.004343748092651367,-0.03246330842375755,-0.013761213980615139,0.049347274005413055,1.2035708232500626,-0.19839337811527574,-1.1327983697578543
1687006265.088684,0.9155097007751465,0.1956639140844345,-0.3515075147151947,-0.002103447914123535,0.02668718993663788,-0.007180929183959961,0.09177981317043304,-0.014470946043729782,0.012996458448469639,1.20420460132253,-0.19693439762431558,-1.133251204097809
1687006265.169203,0.9149624109268188,0.19587968289852142,-0.35280999541282654,-0.0070950984954833984,0.017651855945587158,-0.00879281759262085,0.044416025280952454,-0.02540961280465126,0.004677276127040386,1.202764581207416,-0.19715442735322838,-1.135308301680634
1687006265.1734571,0.9147396087646484,0.19516976177692413,-0.35377970337867737,0.0013521909713745117,0.004934042692184448,-0.00020903348922729492,0.004284053109586239,-0.0027168183587491512,0.026008129119873047,1.2017603321738586,-0.19643053056332602,-1.136449197593893
1687006265.2899032,0.9145370125770569,0.19453902542591095,-0.3546500504016876,-0.0006118416786193848,0.01092064380645752,-0.0011087357997894287,0.06925079971551895,-0.01590452529489994,-0.010800217278301716,1.2008582802813648,-0.1957874718185668,-1.1387473273922473
1687006265.306077,0.9142178893089294,0.19455289840698242,-0.3554639518260956,-0.0044585466384887695,-0.002734631299972534,0.004038721323013306,0.03036898374557495,-0.010078195482492447,0.015785053372383118,1.199967010873291,-0.19580161275028404,-1.139922938828949
1687006265.383497,0.9141484498977661,0.1936763972043991,-0.3561208248138428,0.007955312728881836,0.004947304725646973,-0.006061851978302002,0.0688590481877327,-0.008749144151806831,-0.013524631038308144,1.1993173341402548,-0.19490811737289626,-1.1428331120409843
1687006265.388533,0.913948118686676,0.19467319548130035,-0.35609161853790283,0.0010756850242614746,0.008436620235443115,0.0010652244091033936,0.003628716105595231,-0.002248235512524843,-0.018567591905593872,1.199270939323467,-0.19592425540492842,-1.1430304000359304
1687006265.477107,0.9139100313186646,0.19450172781944275,-0.3562830090522766,-0.010254085063934326,-0.013715565204620361,-0.015207529067993164,0.08726628869771957,0.003159979125484824,-0.014764598570764065,1.1990750368888294,-0.1957494440467904,-1.146897912425288
1687006265.491461,0.9138360023498535,0.19355376064777374,-0.3569883108139038,0.007855832576751709,-0.028270527720451355,-0.007132232189178467,0.01414207648485899,-0.0025339925196021795,0.00041328929364681244,1.1983778115488397,-0.19478312204749615,-1.1506190079137064
1687006265.589373,0.9132419228553772,0.19380083680152893,-0.3583715856075287,0.0013086795806884766,-0.015929117798805237,-0.016399532556533813,0.0134683633223176,-0.026740662753582,-0.01909889280796051,1.196844139798233,-0.19503496873201587,-1.150853757829863
1687006265.605453,0.9127060770988464,0.19276989996433258,-0.36028802394866943,-0.006593465805053711,-0.033590167760849,-0.008944213390350342,-0.019280461594462395,-0.025892045348882675,0.01016924623399973,1.1948265505792302,-0.19398421232276347,-1.1532642865248
1687006265.715421,0.912006139755249,0.19220927357673645,-0.3623538911342621,0.0008050203323364258,0.0007991790771484375,-0.00407072901725769,-0.027165880426764488,-0.04218246787786484,0.013326157815754414,1.1926065755991422,-0.19341289882095222,-1.1513501223765221
1687006265.7204142,0.911259114742279,0.19066758453845978,-0.3650376498699188,-0.03383314609527588,0.05040602385997772,-0.18624719977378845,0.23556534945964813,-0.0620051771402359,0.01468703243881464,1.1897848643006406,-0.1918421691942115,-1.1544466184413338
1687006265.866214,0.9072089791297913,0.18888309597969055,-0.37589213252067566,0.02966529130935669,0.12289978563785553,-0.357796311378479,-0.17316296696662903,-0.41619640588760376,-0.05993793532252312,1.1779901198202136,-0.19002465055644482,-1.159419543870396
1687006265.8726192,0.8924572467803955,0.2064950317144394,-0.4010982811450958,0.05746334791183472,0.2131369560956955,-0.39864540100097656,-0.45014557242393494,-0.8839452266693115,-0.3889898657798767,1.148415365181117,-0.20799141726198225,-1.1449555515387397
1687006265.8777208,0.8652592897415161,0.2337835282087326,-0.44347673654556274,0.07639104127883911,0.19637702405452728,-0.30626392364501953,-0.17514921724796295,-1.1565114259719849,-0.5829188823699951,1.0971700854934368,-0.23596723662084557,-1.144383858166148
1687006265.946797,0.8268328905105591,0.268592894077301,-0.49417105317115784,0.1399485468864441,0.18877404928207397,-0.21946725249290466,-0.3713343143463135,-1.376653790473938,-0.7273423671722412,1.0320937571387396,-0.2719319645457595,-1.147581589334139
1687006265.950337,0.7768539190292358,0.31040412187576294,-0.5478569865226746,0.1895155906677246,0.22630855441093445,-0.17751538753509521,-0.13738493621349335,-1.4984402656555176,-0.9917958378791809,0.9565721111491705,-0.3156181119108511,-1.1591152843981856
1687006265.953753,0.713441014289856,0.3514246344566345,-0.6062198877334595,0.18669015169143677,0.19555717706680298,-0.13450276851654053,-0.07135764509439468,-1.6568726301193237,-1.220872402191162,0.8664690661373989,-0.359092379460795,-1.194719466243074
1687006266.0087008,0.6342525482177734,0.40717536211013794,-0.6572152972221375,0.2549533247947693,0.15157097578048706,-0.09038913249969482,-0.42200833559036255,-1.7181894779205322,-1.4021501541137695,0.7676196815781077,-0.41935932392456815,-1.2311209621246406
1687006266.135244,0.5466954708099365,0.4567814767360687,-0.7017653584480286,0.22970211505889893,0.1330012083053589,-0.08204805850982666,-0.0669829398393631,-1.684559941291809,-1.4481849670410156,0.6618222245868928,-0.4743737807150559,-1.2807679049874197
1687006266.140784,0.4476490318775177,0.5038182139396667,-0.7387675642967224,0.25597941875457764,0.10871535539627075,-0.04884541034698486,-0.26994815468788147,-1.7263247966766357,-1.6114023923873901,0.5447759299540061,-0.5280132849852638,-1.3453269755105737
1687006266.2226582,0.3385191261768341,0.5401273965835571,-0.7704980373382568,0.32336127758026123,0.07835710048675537,-0.002939462661743164,-0.14039084315299988,-1.7670873403549194,-1.7418866157531738,0.41396308508941726,-0.5705884583581289,-1.4290320250304591
1687006266.23848,0.2198481559753418,0.5773326754570007,-0.7863547205924988,0.3235782980918884,0.15400582551956177,0.02309483289718628,-0.2991689145565033,-1.7035446166992188,-1.8634260892868042,0.2726181375300263,-0.6154581306331876,-1.5261266258519193
1687006266.30975,0.09726142138242722,0.6059669256210327,-0.7895215749740601,0.3370341658592224,0.15659105777740479,0.04560983180999756,-0.32487916946411133,-1.6085281372070312,-2.0329482555389404,0.12257276812194186,-0.6509807906671955,-1.6401021573438206
1687006266.323075,-0.02614176832139492,0.6214815974235535,-0.7829924821853638,0.3693729341030121,0.11318331956863403,0.10100090503692627,-0.18034517765045166,-1.3869857788085938,-2.0320215225219727,-0.03337460022243901,-0.6706324249847718,-1.7695612978352657
1687006266.462325,-0.13937535881996155,0.6103577613830566,-0.7797678112983704,0.40467989444732666,0.12825912237167358,0.13978368043899536,0.18490943312644958,-1.20203697681427,-2.0174272060394287,-0.1768717970703503,-0.6565121815402177,-1.8968990656015328
1687006266.477944,-0.24620208144187927,0.5880542397499084,-0.7704392671585083,0.40930330753326416,0.029651999473571777,0.17253893613815308,-0.049384500831365585,-1.060051679611206,-2.0962281227111816,-0.30930436877580225,-0.6286510605745472,-2.0223034110740277
1687006266.522639,-0.3428349196910858,0.5510634779930115,-0.7607845664024353,0.3386387526988983,0.01422882080078125,0.1455959677696228,0.29809263348579407,-0.9782878160476685,-2.050297975540161,-0.42338051047351094,-0.5836381633614719,-2.1348036570744577
1687006266.536171,-0.4354114830493927,0.5011147260665894,-0.7478641867637634,0.2505207359790802,0.037123799324035645,0.1417088508605957,0.33034658432006836,-0.9966282248497009,-2.208195686340332,-0.5272333668874316,-0.5248864047781396,-2.2396915697799082
1687006266.539637,-0.5199189782142639,0.43544715642929077,-0.7348945736885071,0.2283998727798462,-0.04430341720581055,0.2682045102119446,0.355773389339447,-0.7843891978263855,-2.125154733657837,-0.6157246654135369,-0.4505349267729978,-2.3303134502598364
1687006266.5777369,-0.5868893265724182,0.36355775594711304,-0.7234546542167664,0.2529507875442505,-0.048341721296310425,0.20233649015426636,0.3656849265098572,-0.6258683800697327,-2.013690948486328,-0.6815521344868609,-0.372084137526321,-2.4071274582557525
1687006266.637745,-0.6385181546211243,0.28578194975852966,-0.7145790457725525,0.20358163118362427,-0.26834118366241455,0.14969873428344727,0.5237337946891785,-0.5410583019256592,-1.8362035751342773,-0.7292448149965268,-0.2898223211593028,-2.4677727886183765
1687006266.7348561,-0.6761926412582397,0.20798896253108978,-0.7067559361457825,0.16435188055038452,-0.3287928104400635,0.11640870571136475,0.8467278480529785,-0.40174052119255066,-1.4109106063842773,-0.7633016634958811,-0.20951851120980722,-2.5068906465137406
1687006266.850225,-0.7032353281974792,0.13708220422267914,-0.6976163387298584,0.08966416120529175,-0.25631439685821533,0.0833127498626709,0.45973360538482666,-0.48553141951560974,-1.1980265378952026,-0.7894092683399804,-0.13751520887172486,-2.5261123123046523
1687006266.8561049,-0.7287090420722961,0.09044588357210159,-0.6788244843482971,0.13538634777069092,-0.02313937246799469,0.08031374216079712,-0.2078801989555359,-0.5582430362701416,-1.2414506673812866,-0.8208244720332007,-0.09056965428256515,-2.5639298223539715
1687006266.9418979,-0.7502702474594116,0.05182034149765968,-0.6590972542762756,0.0957750678062439,-0.12426907569169998,0.06647640466690063,0.010362984612584114,-0.5008341670036316,-1.112455129623413,-0.8499988882858048,-0.05184356398250903,-2.6099146757849736
1687006266.958081,-0.7677032351493835,0.015571260824799538,-0.640616238117218,0.05179142951965332,-0.292487770318985,0.10268288850784302,-0.0952189713716507,-0.403070330619812,-0.8555005788803101,-0.8753946004945297,-0.015571889684717243,-2.6469585455668097
1687006267.0308728,-0.7738106846809387,-0.01476879883557558,-0.6332447528839111,-0.0021445155143737793,-0.2053850144147873,0.03963208198547363,0.3685486316680908,-0.03529966250061989,-0.42184287309646606,-0.8849685576685198,0.014769336109871209,-2.657053386514635
1687006267.035376,-0.7742323875427246,-0.04021221771836281,-0.6316226124763489,0.039063990116119385,-0.0671028345823288,0.04219090938568115,0.19282206892967224,-0.07820318639278412,-0.3288191854953766,-0.8864922496390086,0.04022306441145839,-2.655419204141104
1687006267.142756,-0.7778254151344299,-0.05151505395770073,-0.626365602016449,0.03328806161880493,0.008317429572343826,-0.00743865966796875,-0.24571220576763153,-0.20001789927482605,-0.4099217653274536,-0.8928454119628096,0.051537868115444405,-2.670952062999121
1687006267.154422,-0.7833302021026611,-0.07076381891965866,-0.6175647974014282,0.011830627918243408,-0.03365207463502884,0.012797951698303223,0.4080509543418884,-0.22790014743804932,-0.4194100797176361,-0.9031787469943965,0.0708230087124342,-2.679965484376274
1687006267.242941,-0.786488950252533,-0.0994633138179779,-0.6095424294471741,0.0010734200477600098,-0.0821162536740303,0.022384285926818848,0.5291999578475952,-0.060847099870443344,-0.22467921674251556,-0.9114755323465299,0.0996280486388871,-2.670103998530459
1687006267.2549438,-0.7869495749473572,-0.11586493998765945,-0.6060409545898438,0.015785634517669678,-0.12487295269966125,0.06670379638671875,0.05158651992678642,-0.06083591282367706,-0.2250366061925888,-0.9145459702675006,0.11612576089133682,-2.66796442040419
1687006267.334979,-0.7867517471313477,-0.1289001852273941,-0.6036608219146729,0.0017786622047424316,-0.0980437695980072,0.03253960609436035,0.27280813455581665,-0.0045420159585773945,-0.14126235246658325,-0.9163258625540077,0.1292598304529117,-2.665166259008188
1687006267.341346,-0.7860150337219238,-0.137475848197937,-0.6027277708053589,-0.021953046321868896,-0.0746670812368393,0.04182994365692139,-0.0867210254073143,-0.002321738749742508,-0.043075598776340485,-0.9166204964568805,0.13791261713411077,-2.6611832698871285
1687006267.346247,-0.7873715758323669,-0.13642634451389313,-0.6011936068534851,0.005923271179199219,-0.014025300741195679,0.006848514080047607,-0.07143060863018036,-0.10277856886386871,-0.12052511423826218,-0.9186826413315767,0.13685312796185026,-2.6710214980537823
1687006267.387003,-0.7893704175949097,-0.1499536633491516,-0.5953218340873718,-0.004040777683258057,-0.015863582491874695,0.0691072940826416,0.28313693404197693,-0.0693921223282814,-0.14992614090442657,-0.9246298369808353,0.15052140435535688,-2.6669120307955914
1687006267.4505858,-0.7887552380561829,-0.15462307631969452,-0.5949426889419556,-0.04487812519073486,-0.0837496966123581,0.027788817882537842,-0.15110120177268982,0.043608203530311584,-0.010169846937060356,-0.9245613325455724,0.1552459351136551,-2.6676347886763923
1687006267.5430079,-0.7885715961456299,-0.1507055163383484,-0.5961900949478149,0.004407227039337158,0.0039464980363845825,0.02276480197906494,-0.0632862001657486,-0.008752873167395592,-0.041386090219020844,-0.9234420629393784,0.15128190368802688,-2.6736673234853177
1687006267.631769,-0.7883554100990295,-0.15756911039352417,-0.5946996212005615,-0.006108641624450684,0.005866244435310364,-0.025982141494750977,0.20038072764873505,0.008616795763373375,-0.012671087868511677,-0.924514049333663,0.15822852567104773,-2.6693638835443654
1687006267.637893,-0.7879427075386047,-0.15746507048606873,-0.5952739119529724,-0.0031186938285827637,0.03154955804347992,-0.021761000156402588,-0.19216474890708923,-0.0021094847470521927,-0.047476738691329956,-0.9237980725601819,0.15812317516541471,-2.670940045828014
1687006267.7211308,-0.7886160016059875,-0.1584988832473755,-0.5941067934036255,0.004649937152862549,0.0034695863723754883,-0.04622828960418701,0.29067349433898926,-0.09697087854146957,-0.07020575553178787,-0.9251522906921837,0.15917012441099368,-2.674250112909096
1687006267.727614,-0.7898221611976624,-0.1663871705532074,-0.5903356075286865,-0.014499008655548096,-0.022776007652282715,-0.002147853374481201,0.12547984719276428,-0.022773616015911102,0.015091034583747387,-0.9289429952411656,0.16716461952977268,-2.66505333716136
1687006267.8106952,-0.7901515364646912,-0.16355812549591064,-0.5906854271888733,0.015737473964691162,-0.08789142966270447,0.02987915277481079,-0.05237703025341034,-0.00705843698233366,0.060726698487997055,-0.9288588530259636,0.16429628153988482,-2.666705870391808
1687006267.827043,-0.7910858392715454,-0.16440753638744354,-0.5891971588134766,0.03377687931060791,-0.056310832500457764,0.010736465454101562,0.19457675516605377,-0.029165469110012054,0.06889727711677551,-0.9306344553248517,0.16515734877909383,-2.6595041042494576
1687006267.8989348,-0.7921880483627319,-0.1659586876630783,-0.5872781276702881,0.004682064056396484,-0.0762287825345993,0.04720860719680786,-0.037804875522851944,0.03447648882865906,0.14829489588737488,-0.9328627814476563,0.16673010103593028,-2.651996055688656
1687006267.9040189,-0.7912076115608215,-0.15873970091342926,-0.5905863046646118,0.02294290065765381,0.018160492181777954,0.026011109352111816,-0.029401205480098724,0.09305977821350098,0.19729119539260864,-0.9295796926720543,0.15941404076535837,-2.6476806673136903
1687006267.9573889,-0.7898032665252686,-0.1560584306716919,-0.5931749939918518,-0.00241774320602417,-0.007424220442771912,0.0004930496215820312,0.20972056686878204,0.09886866062879562,0.17548604309558868,-0.9266290403384888,0.15669892573997424,-2.6381115202709253
1687006268.0547419,-0.7886732816696167,-0.15136711299419403,-0.5958878993988037,-0.0024033188819885254,-0.09936527907848358,0.021241962909698486,-0.024422692134976387,0.094888836145401,0.23888283967971802,-0.9237479938107445,0.15195117205316988,-2.6279181916584777
1687006268.061178,-0.7877550721168518,-0.13732172548770905,-0.6004869937896729,0.001622319221496582,-0.16381047666072845,0.09182000160217285,-0.01351744681596756,0.181093230843544,0.43735918402671814,-0.9194846063967621,0.1377570119899977,-2.6204302908121844
1687006268.201795,-0.7836259603500366,-0.11545702069997787,-0.6104096174240112,0.026378095149993896,-0.17073681950569153,0.1249207854270935,-0.1602780520915985,0.31429216265678406,0.5981099605560303,-0.9090198457827497,0.11571508577974562,-2.60528117116782
1687006268.321881,-0.7765821218490601,-0.07849682122468948,-0.6251066327095032,0.06984084844589233,-0.13234910368919373,0.12231433391571045,-0.35400858521461487,0.34704652428627014,0.7330443263053894,-0.8930468356822554,0.07857766145532785,-2.6008697906223595
1687006268.327437,-0.7646973729133606,-0.04062271490693092,-0.6431078314781189,0.06506669521331787,-0.16170881688594818,0.1411394476890564,-0.19354434311389923,0.5244588255882263,0.8849356174468994,-0.8715525338317966,0.04063389439305423,-2.58197970987193
1687006268.340805,-0.7467994093894958,0.0038617397658526897,-0.6650381684303284,0.07158273458480835,-0.10786564648151398,0.14706331491470337,-0.4018760919570923,0.6318410038948059,1.0004057884216309,-0.8432447697750136,-0.003861749388096368,-2.5605568861504504
1687006268.503563,-0.723683774471283,0.060813866555690765,-0.6874470710754395,0.13551855087280273,-0.07949061691761017,0.14563798904418945,-0.5686253309249878,0.6452085375785828,1.0672577619552612,-0.8110717330566575,-0.06085141231276294,-2.546344943761678
1687006268.509317,-0.6943373680114746,0.11024226993322372,-0.7111555933952332,0.07757711410522461,-0.06971491873264313,0.10515278577804565,-0.15112164616584778,0.7454402446746826,1.0647660493850708,-0.7734326642300562,-0.11046680084661524,-2.5207589649897724
1687006268.524074,-0.6592013835906982,0.1613243669271469,-0.7344575524330139,0.09851717948913574,-0.08280263841152191,0.1704927682876587,-0.616689145565033,0.8162476420402527,1.155064582824707,-0.7314515671993366,-0.16203245694199797,-2.492765315854678
1687006268.653767,-0.6128968000411987,0.2303226739168167,-0.7558497786521912,0.11741340160369873,-0.08551676571369171,0.13129234313964844,-0.7521693110466003,0.9626770615577698,1.3474230766296387,-0.6813346214591063,-0.23240925823239925,-2.4694703743613244
1687006268.661304,-0.5562623143196106,0.30201008915901184,-0.7741847634315491,0.19020402431488037,-0.05089622735977173,0.15765345096588135,-0.8957259654998779,1.0309555530548096,1.4495092630386353,-0.6230434535307753,-0.3068004934060297,-2.436758088183757
1687006268.666236,-0.4902966618537903,0.37754401564598083,-0.785537838935852,0.17457705736160278,-0.04177439212799072,0.18223583698272705,-0.8582940101623535,1.065982460975647,1.5962022542953491,-0.5579908003074372,-0.3871425825172879,-2.3971899576934437
1687006268.740439,-0.40952974557876587,0.4348115622997284,-0.8020126223564148,0.20526033639907837,-0.04491901397705078,0.1281997561454773,-0.3433587849140167,1.2812713384628296,1.7135552167892456,-0.4721134834971295,-0.4498290217342914,-2.3324723633209503
1687006268.8045921,-0.3198758363723755,0.4882611632347107,-0.8119608163833618,0.2544156312942505,0.02686026692390442,0.2522684931755066,-0.8081051707267761,1.3026615381240845,1.6359443664550781,-0.37528411762756103,-0.5100961640189106,-2.2589090499719324
1687006268.81005,-0.22138233482837677,0.5347747802734375,-0.8154788613319397,0.22361008822917938,-0.015533506870269775,0.1055026650428772,-0.42082443833351135,1.395098090171814,1.6842373609542847,-0.265086339593683,-0.564241208449264,-2.180234042634425
1687006268.8548942,-0.11586657166481018,0.5718359351158142,-0.8121444582939148,0.2597874402999878,0.07124572992324829,0.1666976809501648,-0.6891721487045288,1.5191187858581543,1.6255215406417847,-0.1417111385522551,-0.6087420286863776,-2.0878385662576733
1687006268.8583698,0.00032869342248886824,0.5846103429794312,-0.8113141059875488,0.20893028378486633,0.07305872440338135,0.05417299270629883,0.232791006565094,1.7415125370025635,1.8008593320846558,0.00040513705174487875,-0.6243996688067094,-1.9846847030857269
1687006268.8616529,0.12094403058290482,0.5812352895736694,-0.8046975135803223,0.2887086272239685,0.12474310398101807,0.009272098541259766,-0.32777929306030273,1.7129371166229248,1.6643216609954834,0.14918089861254752,-0.6202459199641162,-1.8773209135994153
1687006268.9831061,0.23337186872959137,0.581987202167511,-0.7789919376373291,0.27495938539505005,0.12025278806686401,-0.0306241512298584,-0.4624735414981842,1.5733906030654907,1.575295090675354,0.2910731645802787,-0.621170225626664,-1.7747318181254983
1687006268.989685,0.3378041088581085,0.5775536298751831,-0.7431824207305908,0.2314249575138092,0.1719428300857544,-0.06475520133972168,-0.30760446190834045,1.563582420349121,1.56751549243927,0.42662070677391584,-0.6157287861413604,-1.6748300208552491
1687006269.0989509,0.43751147389411926,0.5487933158874512,-0.7123268246650696,0.21483218669891357,0.23392146825790405,-0.08549416065216064,0.10757022351026535,1.5155683755874634,1.3941242694854736,0.5507956317261226,-0.5809200451809952,-1.5932816738714832
1687006269.10449,0.5220481753349304,0.5258691906929016,-0.671511173248291,0.23503178358078003,0.10402882099151611,-0.005780696868896484,-0.4100969433784485,1.4344103336334229,1.3424065113067627,0.6608220518421329,-0.5537367018397739,-1.5218768287244528
1687006269.1916308,0.6064726114273071,0.4856477379798889,-0.6295531988143921,0.1584351658821106,0.16773360967636108,-0.06704109907150269,0.23374181985855103,1.5122156143188477,1.3160446882247925,0.7667271070089922,-0.5071040198288882,-1.4625907989322504
1687006269.208416,0.6772357821464539,0.45352476835250854,-0.5793676972389221,0.09673565626144409,0.20290833711624146,-0.15346616506576538,-0.3200106620788574,1.3530853986740112,1.128309965133667,0.8631242898022236,-0.47071626747057405,-1.4080178573559472
1687006269.281227,0.7357649207115173,0.4222271144390106,-0.5295037627220154,0.05631875991821289,0.2524249851703644,-0.3021003007888794,0.08064153790473938,1.2037441730499268,1.0339008569717407,0.9469943578287513,-0.4359007727266527,-1.3614653498416447
1687006269.2854738,0.7794051170349121,0.3803856670856476,-0.4978296160697937,0.08236539363861084,0.23725959658622742,-0.2734716534614563,0.3511865437030792,0.8429186940193176,0.6024567484855652,1.002384448147217,-0.390213286564975,-1.3523107213286054
1687006269.371557,0.8060960173606873,0.35265591740608215,-0.4752293527126312,-0.0008898377418518066,0.20433568954467773,-0.32854264974594116,0.3930797278881073,0.6361835598945618,0.5200244784355164,1.0381002759874114,-0.360407854991032,-1.3521813753850647
1687006269.376073,0.8278492093086243,0.32414257526397705,-0.45781785249710083,-0.015013635158538818,0.12472522258758545,-0.2641669809818268,-0.07277398556470871,0.4201739728450775,0.6119182109832764,1.0656368022480802,-0.3301052135865534,-1.3478004326977735
1687006269.523181,0.8442779183387756,0.30691611766815186,-0.4393142759799957,0.07166123390197754,0.09243690967559814,-0.14259496331214905,-0.5231549739837646,0.19415788352489471,0.47179174423217773,1.0910069357808736,-0.3119510566133517,-1.3178442539093265
1687006269.538269,0.8533740043640137,0.2926795482635498,-0.4313831925392151,-0.04058420658111572,0.07395866513252258,-0.09301567077636719,0.4868645966053009,0.12317013740539551,0.392803430557251,1.1027559625190029,-0.29702790332281465,-1.3022058147980653
1687006269.6132932,0.8598101139068604,0.26776179671287537,-0.43477606773376465,0.02461981773376465,0.0046533942222595215,-0.0013049840927124023,0.069097600877285,0.007579362019896507,0.2530412971973419,1.1026268022358297,-0.27106926395896663,-1.3163539138365457
1687006269.62695,0.8630714416503906,0.2615257203578949,-0.4321017265319824,0.015788912773132324,0.08938068151473999,-0.027950823307037354,-0.06870000809431076,0.015575636178255081,0.22129186987876892,1.1066242067891103,-0.26460259407559517,-1.3023009259611134
1687006269.630807,0.8654319047927856,0.2503812909126282,-0.4339778423309326,0.041107892990112305,0.09840413928031921,-0.04917651414871216,0.16451548039913177,-0.04710092768073082,0.12046699225902557,1.1059829126039453,-0.2530740753648076,-1.3050579071528863
1687006269.7313719,0.8640623688697815,0.2470809370279312,-0.43857407569885254,0.029843151569366455,0.08223427832126617,-0.038568317890167236,0.059826143085956573,-0.11292188614606857,0.016435932368040085,1.1011092970866179,-0.2496666346511108,-1.3061982222527642
1687006269.745507,0.8614949584007263,0.24224214255809784,-0.44625672698020935,0.01768583059310913,0.042822569608688354,-0.04396238923072815,0.3719155192375183,-0.11778228729963303,0.009122357703745365,1.0928504889268527,-0.24467616483801322,-1.3172600457652601
1687006269.822552,0.8573728203773499,0.23882529139518738,-0.4559321701526642,0.00604557991027832,-0.046808674931526184,-0.05270436406135559,-0.06828509271144867,-0.24507087469100952,-0.04232006147503853,1.082050531405343,-0.2411559559649161,-1.3270096673509981
1687006269.828568,0.8504223227500916,0.2435011863708496,-0.46635720133781433,-0.009098589420318604,-0.046235546469688416,-0.05422693490982056,0.06797914206981659,-0.28579485416412354,0.024539928883314133,1.0691953839317838,-0.24597406567352104,-1.322239480386406
1687006269.941934,0.8443468809127808,0.2380525767803192,-0.48000967502593994,0.003995954990386963,-0.06089799106121063,0.031187593936920166,-0.010755549184978008,-0.2856341302394867,0.015523797832429409,1.0538620385753417,-0.24036029315438168,-1.3290001104771554
1687006269.957617,0.8381440043449402,0.24113550782203674,-0.48925289511680603,0.005880594253540039,-0.061081767082214355,0.08112603425979614,-0.2316739410161972,-0.2428928017616272,0.06480053812265396,1.0424232226939711,-0.24353571650632605,-1.3200266924254633
1687006270.061974,0.834867537021637,0.23904532194137573,-0.4958360493183136,-0.014005839824676514,-0.026810795068740845,0.08046126365661621,0.07632596045732498,-0.12920671701431274,0.09873746335506439,1.0348669096078327,-0.2413825436404091,-1.3139366947549351
1687006270.079021,0.8339149951934814,0.23442210257053375,-0.4996318817138672,-0.005423903465270996,-0.02133309841156006,0.1073283851146698,-0.03914917632937431,-0.05123481899499893,0.11409884691238403,1.0310093718913222,-0.2366240644166769,-1.312304716352678
1687006270.121253,0.8361464142799377,0.22946114838123322,-0.4982035458087921,-0.01409447193145752,-0.019851133227348328,0.08623147010803223,-0.10762616991996765,0.048771005123853683,0.16675592958927155,1.0334465039345069,-0.23152401911462792,-1.3058871884701502
1687006270.1250381,0.8401067852973938,0.2232452929019928,-0.4943501055240631,-0.00873178243637085,0.04051816463470459,0.006816506385803223,0.1056174710392952,0.08318503946065903,0.14746159315109253,1.038922241641516,-0.22514253316270372,-1.2997504294557336
1687006270.1286268,0.8429477214813232,0.21789103746414185,-0.4918968677520752,-0.008505702018737793,-0.002406388521194458,0.00457686185836792,-0.1521298587322235,0.026625489816069603,0.08100906759500504,1.042564906552079,-0.2196530686646629,-1.2977390963315498
1687006270.1729069,0.8441535830497742,0.22016429901123047,-0.48880714178085327,0.004234969615936279,0.005574256181716919,0.003562331199645996,-0.09852275252342224,0.03345317021012306,0.0791536420583725,1.0459237007625668,-0.22198289789633582,-1.2880948406067978
1687006270.2354732,0.8462331891059875,0.2160271257162094,-0.48705390095710754,-0.0184134840965271,0.007163211703300476,-0.013052940368652344,0.13029325008392334,0.08127395808696747,0.05635484680533409,1.0485449213510663,-0.21774367017486074,-1.288322186672488
1687006270.3332992,0.8483560681343079,0.21389126777648926,-0.4842958450317383,-0.002790391445159912,-8.791685104370117e-06,0.005673348903656006,0.012427400797605515,0.04852120205760002,0.02578229457139969,1.0520759951435774,-0.215556685892872,-1.2914186131352363
1687006270.4504662,0.8484387397766113,0.2144627720117569,-0.48389819264411926,0.012904644012451172,0.022689372301101685,-0.0255165696144104,0.022870253771543503,0.037796519696712494,6.761029362678528e-05,1.052471529282833,-0.21614177366861123,-1.2917276314899102
1687006270.456125,0.8481322526931763,0.21589559316635132,-0.48379820585250854,-0.0012238025665283203,0.005036443471908569,-0.02640998363494873,-0.06363021582365036,-0.014393582008779049,-0.024440128356218338,1.0524049774213566,-0.21760896749928835,-1.2913239380928387
1687006270.541573,0.84650057554245,0.21971844136714935,-0.48493340611457825,0.001811683177947998,-0.02019447088241577,-0.00943613052368164,-0.12830421328544617,-0.0333881750702858,-0.0365508534014225,1.050565491180546,-0.22152585094577446,-1.288326688018989
1687006270.557831,0.8447173237800598,0.22226925194263458,-0.48687663674354553,0.007150232791900635,-0.02099055051803589,-0.019654154777526855,0.028337059542536736,-0.04026632755994797,-0.016789667308330536,1.0479269386214989,-0.22414132528942612,-1.2864569535399408
1687006270.658963,0.8432502746582031,0.22238563001155853,-0.4893604516983032,0.013652801513671875,-0.03462617099285126,0.0012164115905761719,-0.06904788315296173,-0.0766734704375267,-0.004126868210732937,1.0449682856417664,-0.22426069138863972,-1.2857920125271551
1687006270.674767,0.8420644402503967,0.22103329002857208,-0.4920077621936798,0.004782974720001221,-0.0383855402469635,0.008105754852294922,-0.05883818864822388,-0.06719274818897247,0.03559018298983574,1.042010222077312,-0.22287384037989497,-1.283875242905151
1687006270.7211409,0.8415725231170654,0.219198077917099,-0.4936678111553192,0.001033008098602295,0.0031835436820983887,0.020309627056121826,-0.026363935321569443,-0.05228050798177719,0.03577953577041626,1.040286808726569,-0.22099247813470518,-1.2803518627099382
1687006270.7247949,0.8405407667160034,0.21923238039016724,-0.4954070448875427,-0.005091726779937744,0.010000422596931458,0.017394930124282837,-0.1148093119263649,-0.07409060746431351,-0.025918982923030853,1.0382141910343399,-0.2210276374212098,-1.2764906339373203
1687006270.7284021,0.8391551971435547,0.22065439820289612,-0.49712178111076355,-0.004057049751281738,-0.0004700571298599243,0.025396287441253662,0.021076548844575882,-0.039066970348358154,0.0005869269371032715,1.0359782925338406,-0.22248535960590068,-1.275079345247507
1687006270.778064,0.839210033416748,0.22029967606067657,-0.49718669056892395,0.0016407370567321777,0.01161867380142212,0.016382217407226562,0.006118704564869404,-0.009682849049568176,-0.0015441346913576126,1.0359496903153371,-0.22212168889630776,-1.2757121912279596
1687006270.834646,0.8389651775360107,0.22047869861125946,-0.4975202679634094,-0.003729701042175293,0.026698440313339233,-0.010002374649047852,-0.0060351635329425335,-0.02973964810371399,0.021010976284742355,1.0355275252027891,-0.2223052263958478,-1.2748262950193403
1687006270.9329882,0.8388084173202515,0.2201441377401352,-0.4979328215122223,0.00401073694229126,0.016428157687187195,-0.005530953407287598,-0.020831353962421417,-0.022344980388879776,0.019091900438070297,1.0350817776575811,-0.22196223292228504,-1.2742182789350192
1687006271.0488791,0.8375337719917297,0.22169129550457,-0.4993896782398224,-0.0010165572166442871,0.010822147130966187,-0.004241973161697388,-0.07492734491825104,-0.06207241863012314,-0.01428842544555664,1.0331297948631868,-0.22354858171502634,-1.2718929390147502
1687006271.0647202,0.8355282545089722,0.22276943922042847,-0.5022610425949097,-0.0029935836791992188,0.006432846188545227,-0.011304020881652832,0.11332285404205322,-0.06003643199801445,-0.03412631154060364,1.0295464173005155,-0.22465437939200156,-1.27330159404847
1687006271.1692982,0.8335411548614502,0.22341740131378174,-0.5052661895751953,0.0001838207244873047,-0.011396482586860657,0.02043330669403076,-0.051944732666015625,-0.05195360630750656,-0.026222849264740944,1.025853682797392,-0.22531909361161073,-1.2762385668285319
1687006271.1727672,0.8322652578353882,0.2250240296125412,-0.5066543817520142,-0.006246089935302734,0.010480165481567383,0.03235018253326416,-0.008092189207673073,-0.030130065977573395,-0.030517198145389557,1.0239564867213573,-0.22696769555146262,-1.2759390376309747
1687006271.233189,0.8318341970443726,0.22764547169208527,-0.5061909556388855,-0.0035109519958496094,0.01599164307117462,0.005458474159240723,0.006414249539375305,0.007921312004327774,-0.049757204949855804,1.0241328474590983,-0.22965897722844184,-1.2758566611024298
1687006271.238158,0.8320813775062561,0.2294778972864151,-0.5049558281898499,-0.0027968287467956543,-0.008942589163780212,0.004513263702392578,-0.014789506793022156,-0.00523616885766387,-0.02993210032582283,1.0253488968160593,-0.23154123549856434,-1.2763916703786724
1687006271.242323,0.8317838311195374,0.2307717353105545,-0.504856526851654,0.0029786229133605957,0.0036338120698928833,-0.011882424354553223,0.051661353558301926,-0.020037619397044182,-0.05801833048462868,1.0252775341133369,-0.23287075206990676,-1.2781830662374056
1687006271.287619,0.8309291005134583,0.23151253163814545,-0.5059236884117126,0.004626810550689697,-0.011038273572921753,-0.007122635841369629,0.036633867770433426,-0.0007487424882128835,-0.03298195078969002,1.0238839037922771,-0.23363217339832273,-1.2815487527948837
