Timestamp,gravityX,gravityY,gravityZ,accelerationX,accelerationY,accelerationZ,rotationRateX,rotationRateY,rotationRateZ,attitudeRoll,attitudePitch,attitudeYaw
1687003436.1808891,0.9255567789077759,0.3749622404575348,-0.05242002382874489,-0.0011794567108154297,0.04518851637840271,0.0014403462409973145,0.2400769591331482,-0.04459342733025551,0.14787337183952332,1.514220563430688,-0.3843560539008491,-0.4243033751849915
1687003436.2693372,0.9280427098274231,0.3681660294532776,-0.05648288130760193,-0.0004000067710876465,-0.052126020193099976,0.07714325189590454,-0.028846390545368195,0.05135227367281914,0.15122336149215698,1.5100089354894242,-0.37703573686263886,-0.43221034793282437
1687003436.276222,0.9312225580215454,0.36039862036705017,-0.054195549339056015,-0.02662062644958496,-0.011231780052185059,0.07012563943862915,0.28961992263793945,0.15268729627132416,0.17218323051929474,1.512663619115414,-0.3686952120170729,-0.43746308313607435
1687003436.36007,0.9352630972862244,0.3500383794307709,-0.05249466001987457,0.0008633732795715332,-0.032564014196395874,0.0643048956990242,0.6670405268669128,0.26238247752189636,0.21139907836914062,1.5147269298234949,-0.357612063813609,-0.46261673165275985
1687003436.380248,0.9404163360595703,0.3366701900959015,-0.04764694720506668,0.03983867168426514,-0.06390407681465149,0.01949441432952881,0.302815705537796,0.2870023548603058,0.3020094037055969,1.5201738122871111,-0.3433784017792114,-0.48927664720360836
1687003436.417515,0.9461661577224731,0.3215954005718231,-0.0366826131939888,0.007401168346405029,-0.003861665725708008,0.027389947324991226,0.05860908702015877,0.28789249062538147,0.30774104595184326,1.532045996511619,-0.32741390977506635,-0.49618455823378793
1687003436.508857,0.9510141611099243,0.30811911821365356,-0.025189077481627464,-0.016398191452026367,0.04431316256523132,-0.013736188411712646,0.1298917829990387,0.3015012741088867,0.24110184609889984,1.5443159747619668,-0.3132153228402529,-0.5015555403172309
1687003436.5269198,0.9545798897743225,0.29762062430381775,-0.014111334457993507,-0.002614617347717285,0.06552329659461975,-0.03990483283996582,0.13893908262252808,0.2319038063287735,0.1913348287343979,1.5560146336435747,-0.30219936813035736,-0.5082137857153177
1687003436.5669498,0.9569163918495178,0.29029738903045654,-0.006213767919689417,-0.006019175052642822,0.060349613428115845,-0.005703450180590153,0.04214462637901306,0.15008005499839783,0.11029163748025894,1.5643028851454077,-0.2945376103849628,-0.5109849765271886
1687003436.655462,0.958154022693634,0.28625285625457764,-0.00013016979210078716,-0.003320157527923584,0.03915607929229736,0.030296742916107178,0.07475882768630981,0.18270310759544373,0.058269985020160675,1.5706604720240054,-0.29031373210017847,-0.5153685341984569
1687003436.672802,0.9586966633796692,0.2842719852924347,0.009469163604080677,0.028119444847106934,0.027571827173233032,0.014242885634303093,0.06867044419050217,0.22895368933677673,0.0378699004650116,1.5806731274553119,-0.2882470080123222,-0.5194341366461813
1687003436.716522,0.9586339592933655,0.2838180363178253,0.021636061370372772,0.026961684226989746,0.03924104571342468,-0.013838887214660645,0.003682989627122879,0.24978506565093994,-0.002554488368332386,1.5933621750350917,-0.28777355337486055,-0.520075085566477
1687003436.807197,0.9578797817230225,0.28540894389152527,0.03174898400902748,0.001623392105102539,0.04735478758811951,-0.04293369874358177,0.15078169107437134,0.2214321345090866,-0.051503390073776245,1.6039292611259033,-0.28943308122426414,-0.5253956761501728
1687003436.823838,0.9566240310668945,0.288834810256958,0.03800983354449272,0.018381953239440918,0.05137515068054199,-0.05555761232972145,0.017934828996658325,0.1265793889760971,-0.10272156447172165,1.610508741944349,-0.29300955099409404,-0.5283691045403947
1687003436.865504,0.9544411301612854,0.29563796520233154,0.04049576446413994,0.002956092357635498,0.14473065733909607,-0.1336202621459961,0.32874351739883423,0.02492985501885414,-0.1644166260957718,1.6131996656850178,-0.3001232788034508,-0.5351390569364919
1687003436.9596891,0.9503989815711975,0.3094497323036194,0.03134141489863396,-0.04005986452102661,0.21595615148544312,-0.225250244140625,1.138681411743164,-0.06227242201566696,-0.3482682406902313,1.6037614935802393,-0.31461429098271054,-0.5689086378951499
1687003436.977075,0.944216787815094,0.3291957974433899,-0.009201668202877045,0.010891735553741455,0.2304660677909851,-0.294372022151947,3.210866689682007,-0.3196975588798523,-0.37293869256973267,1.5610513431724147,-0.3354517886094643,-0.6704631019893117
1687003437.018553,0.9403572678565979,0.3143354654312134,-0.13008277118206024,-0.032581329345703125,0.5000718832015991,-0.10664214193820953,10.634870529174805,-0.3461410403251648,0.21145766973495483,1.433335364427141,-0.31975656768356775,-1.0092474587397011
1687003437.1085181,0.9478673338890076,0.10574367642402649,-0.3006085753440857,-0.016425251960754395,0.2352140098810196,0.7720745801925659,16.91840362548828,0.07070506364107132,1.5684312582015991,1.2636880251114744,-0.10594173921749263,-1.7168241333772427
1687003437.125914,0.9519535303115845,-0.20534738898277283,-0.2271934151649475,0.0058252811431884766,-0.15241014957427979,1.0458884239196777,14.29109001159668,1.175973892211914,1.1724308729171753,1.3365185599191332,0.20681864111829926,-2.4696967308599587
1687003437.2025518,0.9563974738121033,-0.2919834852218628,-0.0070353783667087555,0.18438005447387695,-0.03731644153594971,0.4243783950805664,8.251809120178223,1.8315486907958984,-0.5045305490493774,1.5634403351155632,0.29630003293700696,-3.0339481692377617
1687003437.290924,0.9616253972053528,-0.19710442423820496,0.19085659086704254,0.18611007928848267,0.5308904051780701,0.3054049015045166,6.9256110191345215,2.362255573272705,-2.0640149116516113,1.7667231005813457,0.19840352467260408,2.877883005985743
1687003437.309698,0.9514340162277222,0.02359531633555889,0.30694693326950073,0.5569125413894653,0.3761391341686249,0.07333245873451233,4.964591026306152,1.1192234754562378,-3.8656165599823,1.88286959602793,-0.02359750701291636,2.6295977995158104
1687003437.378027,0.9089270234107971,0.2925388216972351,0.29710686206817627,0.6426781415939331,0.22683975100517273,-0.23810124397277832,3.976553201675415,-0.10092953592538834,-4.646934986114502,1.8867244934025764,-0.2968807369104923,2.489730305453512
1687003437.3817039,0.8186863660812378,0.5391625165939331,0.19762736558914185,0.5998013019561768,-0.1180351972579956,-0.34487470984458923,2.075655698776245,-1.543005347251892,-4.884527206420898,1.8076605718842127,-0.5694423659350861,2.4013529634771547
1687003437.473367,0.6784316301345825,0.730226457118988,0.08062095195055008,0.4019516110420227,-0.3645496964454651,-0.2779020071029663,0.9007685780525208,-2.000546932220459,-4.763744354248047,1.6890759482817088,-0.8186533772655459,2.3633919302391564
1687003437.491109,0.4957844913005829,0.8684235215187073,0.006173965986818075,0.3052561581134796,-0.4739686846733093,-0.07383155822753906,0.3717534840106964,-2.1426138877868652,-4.309045791625977,1.5832486055253607,-1.0520138455865728,2.362193804906488
1687003437.6519,0.32329216599464417,0.9430510997772217,-0.07833737879991531,0.4552265405654907,-0.5252197980880737,-0.016068875789642334,1.2850327491760254,-2.0675060749053955,-3.075986862182617,1.3330669865283462,-1.2316863780944378,2.1983181604307087
1687003437.6581268,0.19570203125476837,0.9721976518630981,-0.12857826054096222,0.2696757912635803,-0.8309776782989502,0.19564050436019897,-0.011747498996555805,-1.948609471321106,-1.7186142206192017,0.9895087001879221,-1.3344400971564416,1.9509602805148898
1687003438.011822,0.1400991678237915,0.9725822806358337,-0.18562300503253937,0.20778600871562958,-0.3785424828529358,0.2117154598236084,1.772613525390625,-1.047287106513977,-0.3561820685863495,0.6465348677641551,-1.3360883475176915,1.6758168343358584
1687003438.032299,0.11333616077899933,0.9565666913986206,-0.2685791850090027,-0.27568966150283813,0.09194082021713257,0.8322845697402954,0.8044462203979492,1.099772572517395,-0.8812527656555176,0.39931345940496643,-1.2749875436085558,1.4010517118702042
1687003438.035949,0.09646454453468323,0.9368299841880798,-0.33622050285339355,-0.18899381160736084,-0.1382918357849121,-0.24765712022781372,2.13887619972229,1.3486411571502686,-1.4623994827270508,0.27940347072809546,-1.2134546119623815,1.2149071600705628
1687003438.039719,0.05671386420726776,0.9207376837730408,-0.3860381543636322,-0.04974054545164108,0.2083972692489624,0.020056039094924927,0.334515780210495,0.5216456055641174,-0.658410370349884,0.1458691158442458,-1.1699669514051287,1.0124463075058245
1687003438.402628,0.04325978085398674,0.9172763824462891,-0.3958946168422699,-0.048142533749341965,0.007085680961608887,0.14679479598999023,0.09688296914100647,-0.07764418423175812,-0.06529110670089722,0.10883913486289655,-1.1611868090699629,0.9657962587103958
1687003438.409851,0.045066263526678085,0.9205111265182495,-0.38810864090919495,0.0566488653421402,0.03250694274902344,0.008836090564727783,-0.30062171816825867,-0.13332383334636688,0.14128097891807556,0.1155999475402098,-1.1693866236697306,0.9791120520080733
1687003438.414557,0.04784635081887245,0.9215652346611023,-0.3852636218070984,0.025731582194566727,0.025547683238983154,-0.024953722953796387,0.039951447397470474,-0.028095412999391556,0.12387321889400482,0.12355856176549437,-1.1720932428119035,0.9913290057170662
1687003438.4878268,0.05749096721410751,0.9188588857650757,-0.3903754949569702,-0.020808793604373932,0.010187625885009766,-0.01384514570236206,0.20577996969223022,0.08043799549341202,0.24192370474338531,0.14621987255115393,-1.1651787551424333,1.0137620944523291
1687003438.586409,0.0664985179901123,0.9146826267242432,-0.3986647129058838,-0.00189276784658432,-0.01087409257888794,-0.011155903339385986,0.12929683923721313,0.11237528175115585,0.05587047338485718,0.16528144387601812,-1.1547219526848043,1.0294867071463552
1687003438.5926352,0.06711458414793015,0.9139216542243958,-0.4003033936023712,-0.025885306298732758,-0.0024837851524353027,-0.0037341713905334473,0.016050243750214577,0.16494807600975037,-0.10261131078004837,0.1661143253053211,-1.152843153399078,1.0235096944925295
1687003438.597383,0.06556535512208939,0.913227915763855,-0.4021391272544861,0.0003526657819747925,0.014521598815917969,0.02045571804046631,0.011591180227696896,0.11374135315418243,-0.07354743778705597,0.16161939444155685,-1.151137317702774,1.0100264544337318
1687003438.667575,0.06410959362983704,0.9153522253036499,-0.3975173830986023,0.014976739883422852,-0.009056568145751953,-0.0040024518966674805,-0.13312466442584991,0.06333450227975845,-0.050699383020401,0.15989812992383495,-1.1563818369847827,1.003758538179811
1687003438.671077,0.06329429149627686,0.9175387620925903,-0.3925764858722687,0.007384449243545532,0.002123534679412842,0.009489268064498901,-0.0778173953294754,0.0657258853316307,-0.04901067167520523,0.15985229856506883,-1.1618460302741977,0.9999478878612877
1687003438.730618,0.06238461658358574,0.9194403290748596,-0.3882494270801544,0.001748107373714447,-0.0052558183670043945,-0.004954397678375244,-0.08708226680755615,0.0671730488538742,-0.0578014999628067,0.15931997140129986,-1.1666547978490573,0.9956933767496495
1687003438.734015,0.061092574149370193,0.9205664396286011,-0.3857785165309906,-0.0012017861008644104,0.004177093505859375,0.0011959075927734375,-0.016953911632299423,0.07187725603580475,-0.06196322292089462,0.15705753202117648,-1.16952831264458,0.9894051361960832
1687003438.737277,0.05969933792948723,0.9210322499275208,-0.3848835229873657,-0.00577472522854805,-0.010723590850830078,0.002269357442855835,-0.01796351559460163,0.08913880586624146,-0.08385120332241058,0.15388385446569355,-1.1707225765603209,0.981231051249862
1687003438.754394,0.05708952993154526,0.9217790961265564,-0.3834890127182007,0.0012601278722286224,0.00033986568450927734,0.0004323422908782959,-0.027734920382499695,0.047314923256635666,-0.08479449898004532,0.1477834032236804,-1.1726444475404971,0.9708814674818672
1687003438.851522,0.054247159510850906,0.9225704073905945,-0.38199612498283386,0.0007608085870742798,0.013418912887573242,0.00017535686492919922,-0.03622141480445862,0.01250301394611597,-0.060637764632701874,0.1410664727316587,-1.1746902857280461,0.9620119957897194
1687003438.855587,0.05190784111618996,0.9230225086212158,-0.381227970123291,0.00020095333456993103,0.0066648125648498535,0.001543492078781128,0.013355590403079987,-0.014078529551625252,-0.04158870875835419,0.13532738028199043,-1.1758637980027697,0.9558704105169458
1687003438.85906,0.049909558147192,0.9229623675346375,-0.38164061307907104,-0.0038889870047569275,-0.005893886089324951,0.011233389377593994,0.005015768576413393,-0.0785435363650322,-0.013646820560097694,0.13003835643528766,-1.1757074825994756,0.9525892560295913
1687003438.8732162,0.047799453139305115,0.9232752919197083,-0.38115325570106506,-0.010430626571178436,0.0029636025428771973,0.008701413869857788,-0.0034349740017205477,-0.12241991609334946,0.012715278193354607,0.12475614059609115,-1.1765212496113777,0.952856860058211
1687003438.9323912,0.045747917145490646,0.9235329627990723,-0.3807809352874756,-0.016100026667118073,0.0036826729774475098,0.013852715492248535,-0.05261843279004097,-0.15177074074745178,0.0008522272109985352,0.11956925844645795,-1.1771925855840983,0.9550252667138656
1687003438.9464068,0.042782288044691086,0.9265796542167664,-0.3736574351787567,-0.01415674015879631,0.006266415119171143,0.03503426909446716,-0.2909873425960541,-0.35939690470695496,0.12032616138458252,0.11399958821967673,-1.1852142509595942,0.9616832844604958
1687003438.949082,0.04623135179281235,0.9361098408699036,-0.34865614771842957,0.007189702242612839,0.02101302146911621,0.09096559882164001,-0.8588149547576904,-0.8681924939155579,0.5469456315040588,0.13182965958631448,-1.2114015021469011,1.01176605287635
1687003438.964406,0.08036509156227112,0.9493765830993652,-0.303686261177063,0.05534660071134567,0.01983100175857544,0.1437741219997406,-1.199846863746643,-1.2205796241760254,2.4290459156036377,0.2587017958843167,-1.2512454605758245,1.212062945823504
1687003438.966517,0.18618950247764587,0.9607032537460327,-0.2058698832988739,0.3743268847465515,-0.914286196231842,0.34278690814971924,-3.368666648864746,-0.3338204324245453,2.553647756576538,0.7352427998920134,-1.289524753591312,1.7489211125392325
1687003439.029506,0.34392502903938293,0.93548583984375,-0.08112630248069763,0.17528575658798218,-0.3389284014701843,0.08727551251649857,-0.6326159834861755,1.1563856601715088,4.185250759124756,1.339147110568088,-1.2096314849277545,2.362569542854396
1687003439.043158,0.5672711730003357,0.8230197429656982,-0.029008695855736732,0.17650312185287476,-0.9062414169311523,0.16481178998947144,-0.948147714138031,2.334411144256592,5.4432573318481445,1.5197035687984188,-0.9667070474718975,2.465243375938448
1687003439.045269,0.7699570655822754,0.6229622960090637,0.138143852353096,0.6633771657943726,-0.5994181632995605,0.0051970332860946655,-4.316040515899658,1.7117223739624023,5.934625148773193,1.7483250892335473,-0.6725239179233974,2.6307853843387594
1687003439.056552,0.9086513519287109,0.2947538197040558,0.29575809836387634,1.0725650787353516,-0.045944005250930786,0.1821012794971466,-6.926143646240234,-0.4257839322090149,6.305770397186279,1.8854725248370856,-0.29919787236864986,2.8518473715082955
1687003439.082302,0.96417635679245,-0.08671969175338745,0.2506853938102722,1.2842823266983032,0.5636178851127625,0.5007792711257935,-7.6651716232299805,-2.911470651626587,5.1922688484191895,1.8251639496988383,0.0868287566847179,3.1148268790477256
1687003439.3977509,0.9436784386634827,-0.33086350560188293,6.22983934590593e-05,0.9851391315460205,0.8824382424354553,0.6026902198791504,-6.7303032875061035,-4.231449604034424,2.8671982288360596,1.5708623433455453,0.33721845973013836,-2.8362551434717678
1687003439.41659,0.8835160732269287,-0.33988630771636963,-0.32229894399642944,0.1438276171684265,0.2628752589225769,0.7947109341621399,-9.036892890930176,-3.474641799926758,0.19931605458259583,1.221005680963352,0.34679601368952345,-2.423659701313641
1687003439.418322,0.8313063979148865,-0.08767246454954147,-0.548856258392334,-0.13196563720703125,0.06473853439092636,0.9468817114830017,-10.491676330566406,-1.6388534307479858,-1.028648853302002,0.9872607230559931,0.08778517212686239,-1.978490763541761
1687003439.4520612,0.7942802309989929,0.21562960743904114,-0.5679988861083984,-0.06919795274734497,-0.010963454842567444,0.5811367034912109,-7.790472507476807,-0.8497841954231262,-0.9633654952049255,0.9500002698965251,-0.21733656412947921,-1.6324904204801693
1687003439.455676,0.769449770450592,0.4390419125556946,-0.4638849198818207,-0.07448828220367432,-0.22136002779006958,0.3355278968811035,-6.829409599304199,-0.03235473856329918,-0.5956239700317383,1.0282627945747402,-0.45453203232889094,-1.3314570308042364
1687003439.5661922,0.7670543193817139,0.5518383979797363,-0.32726407051086426,0.1168718934059143,-0.054524004459381104,0.09114953875541687,-4.01270866394043,-0.07462643086910248,0.3661425709724426,1.1675285697348152,-0.5845670906604968,-1.0537524192332777
1687003439.584521,0.7851015329360962,0.5686507821083069,-0.2454625815153122,0.05007302761077881,-0.1528639793395996,-0.10992994904518127,-2.359890937805176,-0.05006728693842888,0.8260409235954285,1.2677741237980134,-0.6048647065233037,-0.8692980443989126
1687003439.588068,0.8098878264427185,0.5581457614898682,-0.18042974174022675,-0.04955774545669556,-0.12667304277420044,-0.007543310523033142,-1.9347569942474365,0.13702934980392456,0.8753533363342285,1.3515924674793411,-0.5921493946775966,-0.7217314054533266
1687003439.591665,0.8359304666519165,0.5348324775695801,-0.1231849417090416,0.061789870262145996,-0.0629696249961853,-0.1259606033563614,-1.4775327444076538,0.066320039331913,0.969005823135376,1.4244866764101134,-0.56430944097793,-0.6053369957727195
1687003439.594468,0.8625280857086182,0.4962904751300812,-0.09869590401649475,0.003881096839904785,0.014100760221481323,-0.029386460781097412,-0.7921467423439026,0.0245002880692482,1.0073332786560059,1.4568655427670503,-0.519320646621946,-0.5419895164085853
1687003439.6077871,0.8852562308311462,0.45830482244491577,-0.07923407852649689,0.07044744491577148,0.29641011357307434,-0.09358704090118408,-0.451656699180603,-0.1755145639181137,0.9195820689201355,1.4815300705796188,-0.47608699684049816,-0.488234994969745
1687003439.656306,0.9011890888214111,0.4246402978897095,-0.08682553470134735,-0.10190331935882568,0.267727255821228,0.027300894260406494,0.12700864672660828,-0.014289185404777527,0.5114758014678955,1.4747472655885356,-0.43856455216127144,-0.48787681138992167
1687003439.7536612,0.9082340002059937,0.4095790982246399,-0.08576492965221405,0.04890388250350952,0.3557864725589752,0.0013990476727485657,-0.15930013358592987,-0.10755295306444168,0.18392165005207062,1.4766450873248897,-0.42199265368196603,-0.48105030223147727
1687003439.773213,0.9085648059844971,0.4082602262496948,-0.0885062962770462,-0.019496381282806396,0.22330105304718018,0.02792888879776001,-0.10198332369327545,-0.03063873201608658,-0.12137514352798462,1.473689413025118,-0.4205474136322673,-0.4753317158672994
1687003439.810611,0.9037630558013916,0.41907307505607605,-0.08712124079465866,-0.0306246280670166,0.2521305978298187,0.038994960486888885,-0.017352387309074402,0.018406176939606667,-0.34370943903923035,1.4746949498526214,-0.4324241967198334,-0.47061402589430074
1687003439.852353,0.8945316076278687,0.4397377073764801,-0.08027170598506927,0.024627089500427246,0.05261757969856262,0.06013006716966629,-0.30822083353996277,0.09470866620540619,-0.48754435777664185,1.4813000213307579,-0.4553065932847743,-0.46474220907946984
1687003439.9019508,0.8841792345046997,0.46198543906211853,-0.06925562769174576,0.025778532028198242,-0.045039087533950806,0.040202803909778595,-0.22161224484443665,0.10755429416894913,-0.45587432384490967,1.492628332449413,-0.4802325683937518,-0.4505542161617155
1687003439.946148,0.8751086592674255,0.4801878333091736,-0.060036852955818176,0.022153854370117188,-0.09476608037948608,0.010048985481262207,-0.09990565478801727,0.12045039236545563,-0.34525299072265625,1.5022986286985123,-0.5008688260957991,-0.44503441804257204
1687003439.991562,0.8680574297904968,0.49428415298461914,-0.04646848514676094,-0.002991020679473877,-0.09247452020645142,-0.01885443553328514,-0.17688870429992676,0.25776296854019165,-0.25105777382850647,1.517315792823529,-0.5170111750873256,-0.4332581242877493
1687003440.076867,0.8633677959442139,0.5029106736183167,-0.04094924405217171,0.021580934524536133,-0.15278249979019165,-0.02625054493546486,0.024020018056035042,0.13454224169254303,-0.16470077633857727,1.5234021808837623,-0.5269630378655527,-0.4397226289524476
1687003440.096142,0.861492395401001,0.5068545341491699,-0.030480455607175827,0.0317569375038147,-0.0546146035194397,-0.051947593688964844,-0.20615392923355103,0.03987777978181839,-0.008612647652626038,1.5354300877253546,-0.5315319485443508,-0.42724272393794244
1687003440.1400971,0.8620086908340454,0.5061132311820984,-0.028111984953284264,0.008932352066040039,-0.05622309446334839,-0.038095951080322266,-0.17933502793312073,-0.02357003651559353,0.015846356749534607,1.5381956996159858,-0.5306722004233522,-0.4221953253617882
1687003440.248239,0.8621692657470703,0.5061575770378113,-0.021645622327923775,0.005720078945159912,0.02667933702468872,-0.015982627868652344,-0.26959413290023804,-0.05369957536458969,-0.010804428718984127,1.5456955990061856,-0.5307236499770336,-0.40271959814546504
1687003440.2664452,0.8618741631507874,0.506516695022583,-0.024772416800260544,0.018268048763275146,0.03434634208679199,0.004249271005392075,0.1596619337797165,-0.06384795159101486,-0.021114058792591095,1.5420617396942304,-0.5311401210066139,-0.4040917115198376
1687003440.298634,0.8605549335479736,0.508722722530365,-0.025422353297472,0.0021158456802368164,-0.020655155181884766,0.028901278972625732,-0.30812710523605347,-0.05184215307235718,-0.05803292989730835,1.541263103301848,-0.533700565936868,-0.39908402568695145
1687003440.345953,0.8593631386756897,0.5109284520149231,-0.021138262003660202,-0.027332067489624023,0.013439774513244629,0.03885364532470703,-0.08990861475467682,0.01806742139160633,-0.03425489366054535,1.5462036957326724,-0.5362645172929132,-0.3861136113996062
1687003440.3905091,0.8586339950561523,0.5123847126960754,-0.014472659677267075,-0.01088625192642212,0.01051872968673706,0.015830636024475098,-0.04933834820985794,0.16935428977012634,-0.045774929225444794,1.5539424753950792,-0.5379594302762816,-0.38338401242223513
1687003440.44084,0.8572961688041687,0.5147653222084045,-0.007743552792817354,0.00029355287551879883,-0.0016121864318847656,-0.007622064091265202,-0.03155848756432533,0.07168671488761902,-0.03641844540834427,1.5617640435926228,-0.5407338639232164,-0.3818828938174508
1687003440.5161982,0.8562365770339966,0.5165671110153198,-0.004140879027545452,-0.009495973587036133,0.0195809006690979,-0.022531509399414062,0.07207363843917847,0.07985196262598038,-0.025762073695659637,1.5659602254037508,-0.5428368681759507,-0.3811014007395984
1687003440.55374,0.8554641008377075,0.5178561806678772,-0.002448701998218894,-0.01406407356262207,-0.019809365272521973,-0.014732778072357178,-0.059180065989494324,0.06766307353973389,-0.044706471264362335,1.5679339094038696,-0.544343050647399,-0.38244884752386865
1687003440.591195,0.854322075843811,0.5197433829307556,-0.0005753358127549291,0.001207590103149414,-0.01455545425415039,-0.011067211627960205,0.015616947785019875,0.037381596863269806,-0.027679016813635826,1.570122885555944,-0.5465505809712382,-0.3822199385776852
1687003440.64624,0.8539912700653076,0.5202817916870117,0.0022914616856724024,-0.003344595432281494,-0.01114189624786377,0.008160710334777832,-0.11112722009420395,0.029650576412677765,0.0008897772058844566,1.573479558181291,-0.5471808849140023,-0.3784923976266501
1687003440.691431,0.8541774153709412,0.5199627876281738,0.004392983857542276,0.015588641166687012,-0.008366167545318604,-0.01644754409790039,0.005007978994399309,0.007968582212924957,0.005355631932616234,1.575939222172899,-0.5468073713653838,-0.37599769575697206
1687003440.740859,0.854168176651001,0.5199810266494751,0.004041753243654966,-0.021114706993103027,-0.010306954383850098,-0.008482098579406738,0.06309211999177933,0.053469620645046234,-0.02313965931534767,1.5755280914794472,-0.5468287045977314,-0.37935935738435556
1687003440.79247,0.8536525964736938,0.520834743976593,0.0028871262911707163,-0.005035102367401123,0.029229342937469482,-0.023242473602294922,0.35078421235084534,0.06796920299530029,-0.007398512214422226,1.574178399728692,-0.5478284985677029,-0.3876811521628379
1687003440.83957,0.8543366193771362,0.5194165706634521,-0.01774943433701992,0.015429437160491943,0.0572434663772583,-0.0583156943321228,1.439511775970459,0.002349845366552472,0.06176697462797165,1.550023622393006,-0.5461680861760552,-0.4366937901386389
1687003440.955961,0.856652021408081,0.5100089311599731,-0.07770434767007828,0.005469381809234619,0.04472428560256958,-0.039117030799388885,3.1368770599365234,-0.09900140762329102,0.1530928909778595,1.4803368675784685,-0.5351951400623456,-0.5677374451596089
1687003440.975923,0.8637208938598633,0.4683876931667328,-0.18600770831108093,-0.015073001384735107,0.17785251140594482,-0.05024413764476776,5.976318836212158,0.07441870868206024,0.39816388487815857,1.3586796644448504,-0.48746503128633567,-0.8135083203850996
1687003441.024234,0.8760350346565247,0.33833229541778564,-0.34364765882492065,-0.05770629644393921,0.26411521434783936,0.15129530429840088,9.98741340637207,0.2252391129732132,0.6385146975517273,1.1969661296576537,-0.34514412202258704,-1.2230182049405898
1687003441.040584,0.8901918530464172,0.07969050109386444,-0.44856196641921997,-0.019800126552581787,0.012442097067832947,0.4415733814239502,11.254467964172363,0.2917845845222473,0.8789539337158203,1.1040387105095457,-0.07977509137606799,-1.7223310256939488
1687003441.0906181,0.9004996418952942,-0.1729821115732193,-0.3989707827568054,-0.024996042251586914,-0.1912604123353958,0.39030367136001587,9.231914520263672,0.9487009644508362,0.3676200807094574,1.1537329118062105,0.1738566305653407,-2.1692364807714437
1687003441.1354132,0.924254298210144,-0.32252249121665955,-0.2042873650789261,-0.010466396808624268,0.20419058203697205,0.5366998910903931,10.088178634643555,2.2895431518554688,-0.510995090007782,1.3532643535922746,0.3283931740919286,-2.6358816310228055
1687003441.197885,0.9540712237358093,-0.2906058728694916,0.07277705520391464,0.44477832317352295,0.07345801591873169,0.5355144739151001,8.759174346923828,2.294867992401123,-2.216060161590576,1.6469294163526313,0.29485997915583606,3.1304578765354596
1687003441.2507172,0.9661895632743835,-0.08563027530908585,0.24319763481616974,0.45574647188186646,0.43906956911087036,0.13462510704994202,7.163484573364258,1.5633313655853271,-3.651146411895752,1.8173818552971102,0.08573526836813351,2.7671006515586574
1687003441.307235,0.94512939453125,0.19761085510253906,0.26015374064445496,0.6797788739204407,0.2862757742404938,0.07990345358848572,6.030028343200684,-0.2959130108356476,-4.395989418029785,1.8394017168424956,-0.19892010698344526,2.4946754427874147
1687003441.3495278,0.8782649040222168,0.4541207253932953,0.14974988996982574,0.5396427512168884,-0.23317354917526245,0.0347745418548584,1.9328042268753052,-1.638651967048645,-4.814388751983643,1.7396787307846595,-0.4713850757626598,2.3388562585444035
1687003441.416255,0.7574428915977478,0.6507456302642822,0.053011201322078705,0.3656954765319824,-0.3710368871688843,-0.18649518489837646,0.03935456648468971,-1.9005521535873413,-4.419484615325928,1.6406694523446592,-0.7085660368452162,2.3253055331148453
1687003441.459899,0.603771984577179,0.7971193790435791,0.007756789214909077,0.3230926990509033,-0.4365541338920593,-0.14638304710388184,-0.5919992327690125,-1.6762791872024536,-4.073991298675537,1.5836428365352149,-0.9225094044654074,2.370678954307166
1687003441.553333,0.4468047022819519,0.8942114114761353,-0.02741088904440403,0.388598769903183,-0.5166480541229248,-0.08016365766525269,0.08776217699050903,-1.6962876319885254,-3.2117578983306885,1.5095244153645888,-1.1066664625351432,2.380982489410893
1687003441.577242,0.3194074034690857,0.9459218382835388,-0.05666280910372734,0.3233080804347992,-0.6802816987037659,-0.1581505537033081,-0.0882812887430191,-1.8494585752487183,-1.9728198051452637,1.395223116418382,-1.240424736454939,2.3529288509796245
1687003441.622333,0.25303372740745544,0.9595117568969727,-0.12373736500740051,0.19334688782691956,-0.3132563829421997,-0.02441030740737915,2.117055654525757,-1.726325273513794,-0.587424099445343,1.1159750379057705,-1.2852636836773539,2.1581950572202704
1687003441.642116,0.2268434464931488,0.9445406198501587,-0.23745477199554443,0.0889371782541275,-0.3362796902656555,0.17617537081241608,1.7039308547973633,-1.0684988498687744,-0.07014019042253494,0.7625475880697093,-1.2361929117954664,1.8556577994852288
1687003441.685168,0.19686691462993622,0.9327424168586731,-0.30205103754997253,-0.3237437307834625,0.22323280572891235,0.8793214559555054,0.36748364567756653,0.9065196514129639,-0.9879451394081116,0.5776164070930453,-1.201945860961912,1.6690388903460824
1687003441.7369409,0.18682491779327393,0.9133287668228149,-0.36183813214302063,-0.07944878935813904,-0.38471871614456177,-0.052132874727249146,1.2695101499557495,0.9033496975898743,-0.6016237735748291,0.4766196011283581,-1.1513848508948124,1.500833602772446
1687003441.791048,0.15611208975315094,0.929172694683075,-0.33506277203559875,-0.06089720129966736,0.266429603099823,0.008356750011444092,-1.1352818012237549,0.6118335723876953,-1.0894213914871216,0.43601296381759697,-1.1921683909078524,1.4216745219771203
1687003441.850182,0.11197558045387268,0.9413037300109863,-0.3184472620487213,0.007683873176574707,0.0964617133140564,0.11935049295425415,0.2744346857070923,-0.05892496183514595,-0.7740885019302368,0.3381261240362976,-1.2264718747569219,1.3016633640477444
1687003441.908938,0.09614042937755585,0.9385017156600952,-0.3316192924976349,0.08493565768003464,0.04848235845565796,0.0001372992992401123,-0.10277800261974335,0.43351081013679504,-0.1935228407382965,0.28217628241669107,-1.2182649691485088,1.2242696964467992
1687003441.949915,0.09876903891563416,0.9454572200775146,-0.310411274433136,0.04835624247789383,-0.0254896879196167,0.016984641551971436,-0.5658969879150391,0.0957781970500946,0.1429947167634964,0.3080580933935655,-1.2389953520336223,1.2395107677761061
1687003442.008566,0.1069350466132164,0.9514862298965454,-0.28851085901260376,0.0011735036969184875,0.04764378070831299,-0.012789279222488403,-0.32789695262908936,-0.043884895741939545,0.15427561104297638,0.35494695858235786,-1.2580307195258795,1.2864075832972366
1687003442.053668,0.11229895800352097,0.9549820423126221,-0.2745870351791382,-0.03476904332637787,-0.009715497493743896,0.05139663815498352,-0.3790796995162964,-0.27893736958503723,0.17850318551063538,0.3882185872571962,-1.2695991920043963,1.3313818486594224
1687003442.1745129,0.11542081832885742,0.960104763507843,-0.2547088861465454,-0.014010876417160034,-0.031775474548339844,-0.024984806776046753,-0.5158920884132385,-0.2278822958469391,0.06508607417345047,0.42546870725023384,-1.2873765172980445,1.3853725995696458
1687003442.1810498,0.11399120092391968,0.9648274183273315,-0.2368837594985962,0.00574454665184021,0.025055885314941406,-0.04757070541381836,-0.16869357228279114,-0.14367887377738953,0.014034608379006386,0.448504179484544,-1.3047861799161897,1.418670650805824
1687003442.1987948,0.1134299635887146,0.9657175540924072,-0.23350171744823456,0.004291623830795288,0.0032154321670532227,0.0243341326713562,-0.07652875781059265,-0.04786418750882149,-0.021815534681081772,0.4522052967392006,-1.3081934873462582,1.427038010142764
1687003442.232374,0.1139768436551094,0.9663552045822144,-0.23057955503463745,-0.001321166753768921,-0.005616128444671631,0.0136757493019104,-0.07367924600839615,-0.0489966981112957,0.026560785248875618,0.4590819887104244,-1.3106609842566894,1.436921787714067
1687003442.304862,0.11467932909727097,0.9675924777984619,-0.22497452795505524,0.002203032374382019,0.004285573959350586,-0.00599786639213562,-0.13555379211902618,-0.08242922276258469,0.04203108698129654,0.4714120897281256,-1.3155156286956768,1.4536236235411337
1687003442.346184,0.11654815822839737,0.9682728052139282,-0.2210526019334793,-0.002259775996208191,0.001407921314239502,-0.00500643253326416,-0.015771135687828064,-0.019192330539226532,0.047419995069503784,0.4852027365597961,-1.318223992342745,1.4711968114861291
1687003442.395753,0.11653823405504227,0.9685863256454468,-0.21967992186546326,-0.015616565942764282,0.002833843231201172,0.0035238265991210938,-0.03183498978614807,-0.04387783631682396,-0.009794824756681919,0.4877418705865119,-1.3194817214905055,1.4754496247849833
1687003442.450099,0.11490701138973236,0.9700011014938354,-0.21422865986824036,-0.001824110746383667,-0.008941709995269775,0.003458932042121887,-0.19935980439186096,-0.09874854236841202,-0.0033220117911696434,0.4923228375455167,-1.3252353931617182,1.4843887171491608
1687003442.492299,0.11478111892938614,0.9716194868087769,-0.20683546364307404,0.013804741203784943,0.019179463386535645,-4.330277442932129e-05,-0.1399480104446411,-0.10001860558986664,0.05027011036872864,0.5066274396547458,-1.331983575054641,1.5045648899520248
1687003442.560924,0.11627671867609024,0.9726227521896362,-0.20120777189731598,-0.005940370261669159,0.004565238952636719,-0.018305301666259766,-0.08780179172754288,-0.08224532753229141,0.05896453559398651,0.5240063198760875,-1.3362623422958873,1.5274841459436208
1687003442.603589,0.11739970743656158,0.9729303121566772,-0.1990572214126587,-0.0041336789727211,-0.006682872772216797,0.012136951088905334,-0.1020970344543457,-0.05382421240210533,0.0037361644208431244,0.532869925003251,-1.337589492061788,1.5393945325644163
1687003442.657394,0.11535823345184326,0.9741901159286499,-0.19402599334716797,-0.01208670437335968,0.005393564701080322,-0.00012698769569396973,-0.03978898748755455,-0.03915618732571602,-0.04688519984483719,0.5364028229061911,-1.3431050631959707,1.5454428984460742
1687003442.751538,0.10988215357065201,0.976306140422821,-0.18641884624958038,0.019664980471134186,-0.04912126064300537,0.017061427235603333,-0.4017081558704376,-0.1304863691329956,-0.1889781653881073,0.5326163261776351,-1.3526769107421772,1.5448607756746784
1687003442.778022,0.10348295420408249,0.979684054851532,-0.1717854142189026,-0.0021645575761795044,0.04729336500167847,3.236532211303711e-05,-0.11288290470838547,-0.10959333181381226,-0.020514313131570816,0.5421798626662736,-1.3688798498159507,1.5614191442988796
1687003442.80513,0.10267052054405212,0.9802548289299011,-0.1689944863319397,0.0077268630266189575,-0.002929508686065674,0.013019025325775146,-0.124930240213871,-0.14618650078773499,0.012813283130526543,0.5459435105944935,-1.3717462579088935,1.571118499654742
1687003442.850255,0.10344197601079941,0.9809541702270508,-0.1644030213356018,-0.008791685104370117,-0.0010349154472351074,-0.00481705367565155,-0.07691331952810287,-0.12671560049057007,0.042253464460372925,0.5616120581629561,-1.375314470573789,1.5939390982551684
1687003442.91431,0.104486845433712,0.9812109470367432,-0.16219554841518402,-0.008051268756389618,0.006795525550842285,0.0006659179925918579,-0.035998377948999405,-0.11271562427282333,0.04118207097053528,0.5722891246443458,-1.37664065469087,1.6108293161281115
1687003442.957653,0.1052849143743515,0.9813988208770752,-0.1605340838432312,0.005402363836765289,-9.101629257202148e-05,0.0036278516054153442,-0.05205424129962921,-0.1300625205039978,0.051113538444042206,0.5804707697183025,-1.3776169366007311,1.6249853224031603
1687003442.995099,0.10783117264509201,0.9815472364425659,-0.1579160988330841,0.008456103503704071,-0.005976557731628418,0.04724399745464325,-0.24583283066749573,-0.31096160411834717,0.18337863683700562,0.5991149955463124,-1.3783915396351536,1.6535314535723122
1687003443.0580869,0.12831561267375946,0.9841172099113464,-0.12267068773508072,-0.0034376531839370728,-0.03785884380340576,0.23669952154159546,-1.2385021448135376,-0.7751184701919556,0.9585238695144653,0.8078853182916811,-1.392330579915052,1.8958894932313228
1687003443.101925,0.18168149888515472,0.9708718657493591,-0.1562027633190155,0.14293399453163147,0.32977187633514404,0.17465050518512726,2.6126434803009033,-0.11018894612789154,1.2874866724014282,0.8606624365825907,-1.3288431790354984,1.9707305532034256
1687003443.147462,0.27082401514053345,0.9323753714561462,-0.2394380122423172,-4.151463508605957e-05,-1.048311710357666,0.32195746898651123,0.29949846863746643,1.3463354110717773,2.092017412185669,0.8468303192597724,-1.2009291167536738,1.9352821587690288
1687003443.19473,0.4198784828186035,0.8916501998901367,-0.16929759085178375,0.3194250762462616,-0.9138367176055908,0.0715038925409317,-1.2838479280471802,1.970017671585083,3.5957415103912354,1.1875290847519315,-1.1009772758744971,2.2071825002866237
1687003443.244832,0.616195797920227,0.7846973538398743,-0.06747452169656754,0.26647937297821045,-0.830321192741394,-0.10487359762191772,-2.012157440185547,1.870971918106079,5.035362720489502,1.4617291116610747,-0.9022076948918019,2.4153004748230336
1687003443.293721,0.7966541051864624,0.5942845940589905,0.11030705273151398,0.591285228729248,-0.0789954662322998,-0.020478732883930206,-4.953547477722168,0.4930655062198639,5.3971428871154785,1.708384414880191,-0.636375828895395,2.6809489299658105
1687003443.3547502,0.9227229952812195,0.3201042115688324,0.21474501490592957,0.7414462566375732,0.10940009355545044,0.094901442527771,-6.098264694213867,-1.1667816638946533,4.968833923339844,1.7994556976502252,-0.32583949490888753,2.9151542848148693
1687003443.41113,0.9849151968955994,0.037216849625110626,0.16898706555366516,0.7428526282310486,0.4832909405231476,0.4208412170410156,-6.381106853485107,-2.935011625289917,4.293846607208252,1.740717084718345,-0.037225448146300834,-3.1234439288510134
1687003443.4518719,0.987902045249939,-0.15459482371807098,-0.012240264564752579,0.681912899017334,0.6271900534629822,0.30362194776535034,-6.1322455406188965,-3.2622902393341064,2.044851064682007,1.5584068005541476,0.15521732974999106,-2.802775216042245
1687003443.498213,0.951930820941925,-0.1829705685377121,-0.24566084146499634,0.11545181274414062,0.060885027050971985,0.7325991988182068,-6.857889175415039,-3.179269313812256,0.42947494983673096,1.3182408013536124,0.1840071818501831,-2.4751336623839784
1687003443.5424252,0.9043871164321899,-0.0380367673933506,-0.4250142276287079,0.07020688056945801,0.03182646632194519,0.6440693140029907,-8.05372142791748,-2.803750514984131,-0.8107868432998657,1.1314786653766016,0.03804594600618165,-2.1294012280572527
1687003443.5903978,0.8500235676765442,0.2091711163520813,-0.48343273997306824,-0.11352777481079102,0.0549737811088562,0.43562689423561096,-8.245617866516113,-1.5949424505233765,-1.3647419214248657,1.0536879283893035,-0.21072724604302648,-1.7873997693948462
1687003443.674453,0.8042768836021423,0.4120066463947296,-0.42823976278305054,-0.041047513484954834,0.05691128969192505,0.09495717287063599,-5.494346618652344,-0.9861674904823303,-0.5964892506599426,1.0815245334814128,-0.4246552053308801,-1.4906716417888384
1687003443.693075,0.77996426820755,0.5096911787986755,-0.36313962936401367,0.02679818868637085,-0.11250495910644531,0.007441967725753784,-3.585850477218628,-0.6795158982276917,-0.1741986870765686,1.1350578271337959,-0.5348257950953088,-1.2852322246535302
1687003443.738862,0.7688375115394592,0.5706854462623596,-0.28845614194869995,0.07103663682937622,-0.10681825876235962,-0.004695713520050049,-3.3984458446502686,-0.507523775100708,0.06472175568342209,1.211863665478434,-0.6073403163048252,-1.0935460124401946
1687003443.807483,0.7686951756477356,0.6014748811721802,-0.21756722033023834,0.010021746158599854,-0.03946322202682495,-0.09355948865413666,-2.689730644226074,-0.5350577235221863,0.328305721282959,1.2949759976895268,-0.6453459536211658,-0.9081941855403165
1687003443.860156,0.7744432687759399,0.609577476978302,-0.16927114129066467,-0.022902250289916992,0.08822208642959595,0.014546945691108704,-1.4874521493911743,-0.3182922303676605,0.35245418548583984,1.3556090748493599,-0.6555275070840846,-0.7726645355000427
1687003443.902773,0.7837839722633362,0.5976999998092651,-0.16863422095775604,-0.06549173593521118,0.08355921506881714,-0.07694078981876373,0.8457158207893372,0.07591487467288971,0.25128257274627686,1.3588730213754083,-0.6406291648816622,-0.7587812572146935
1687003443.947304,0.7905434966087341,0.5862473249435425,-0.17707312107086182,0.01920980215072632,-0.053456246852874756,0.03487640619277954,-0.030398014932870865,0.07437543570995331,0.2123921662569046,1.350444291616093,-0.6264188885754561,-0.7814807586974496
1687003443.9900599,0.7974147200584412,0.578890860080719,-0.17033790051937103,0.04303932189941406,0.02863776683807373,0.004657924175262451,-0.44733479619026184,-0.03875591233372688,0.2012026309967041,1.3603465549955773,-0.6173678370890989,-0.7646110591119069
1687003444.069346,0.8005861043930054,0.5762054920196533,-0.16446560621261597,-0.030047893524169922,0.09817194938659668,-0.02089822292327881,-0.25496095418930054,-0.018432531505823135,0.03832077234983444,1.368183660286145,-0.6140783290821262,-0.7474287653233729
1687003444.0966039,0.7989956140518188,0.5821179747581482,-0.15081334114074707,0.006958305835723877,0.11668872833251953,-0.030903637409210205,-0.4500879645347595,-0.02766118384897709,-0.12042652815580368,1.3842375751823377,-0.6213310908118612,-0.7199317114088777
1687003444.154959,0.7942474484443665,0.5908814072608948,-0.14152735471725464,0.013476431369781494,0.04673755168914795,0.004747524857521057,-0.2814091145992279,-0.015474425628781319,-0.16666460037231445,1.3944566446585929,-0.6321509265712801,-0.7013062078039322
1687003444.20113,0.7886139750480652,0.5995377898216248,-0.1365368366241455,-0.02865004539489746,-0.024678170680999756,0.023667573928833008,0.006438962183892727,0.0794527530670166,-0.18554002046585083,1.3993606125050826,-0.6429234866932249,-0.6927151352436356
1687003444.254098,0.7851841449737549,0.6044170260429382,-0.13477973639965057,0.03377014398574829,-0.10035830736160278,0.034804075956344604,-0.042904552072286606,0.06682071089744568,-0.08122559636831284,1.4007993869153785,-0.6490338662668413,-0.69922524738447
1687003444.293847,0.784490168094635,0.6072843670845032,-0.12562228739261627,0.01185077428817749,-0.037475407123565674,0.015468999743461609,-0.17152217030525208,0.07852983474731445,0.006935952231287956,1.4120119830559117,-0.6526380256554861,-0.6872484276312736
1687003444.365574,0.7857800126075745,0.6069907546043396,-0.11879296600818634,-0.012266397476196289,-0.050136566162109375,-0.011013619601726532,-0.2705431878566742,0.096459299325943,0.009383663535118103,1.4207541104539938,-0.6522684995886494,-0.6780882882322569
1687003444.408794,0.7874543070793152,0.6080757975578308,-0.10079438239336014,0.01837754249572754,0.03752356767654419,-0.025716304779052734,-0.46192944049835205,0.009624935686588287,0.08096650242805481,1.4434882940839995,-0.6536345275855445,-0.6465094116296689
1687003444.45245,0.7895082831382751,0.6066310405731201,-0.09314008802175522,0.013500511646270752,0.009854495525360107,-0.04341088980436325,-0.13243809342384338,0.02781379222869873,0.031834378838539124,1.4533668150785466,-0.65181591380463,-0.6324395589170492
1687003444.496274,0.789588451385498,0.6069232821464539,-0.09052072465419769,-0.05049866437911987,0.08953356742858887,-0.05979370325803757,0.203556090593338,0.04069963097572327,-0.03686745464801788,1.4566517385881452,-0.6521835718133672,-0.6276889586863876
1687003444.669848,0.7881016135215759,0.6077168583869934,-0.09785588085651398,0.0001367330551147461,-0.017583250999450684,0.0004895403981208801,-0.055389653891325,-0.10368377715349197,-0.048612527549266815,1.4472620190905983,-0.6531824849971035,-0.6403399027467271
1687003444.689625,0.7846256494522095,0.6125390529632568,-0.09570012986660004,0.012661337852478027,-0.0021874308586120605,-0.005450442433357239,-0.27702298760414124,-0.11819348484277725,-0.09865652024745941,1.4494266484002791,-0.6592687961199833,-0.6278344928818111
1687003444.6932411,0.7818639278411865,0.6163606643676758,-0.09374561905860901,0.005626797676086426,-0.029065191745758057,0.04162156581878662,-0.2719970643520355,-0.12473473697900772,-0.04388861358165741,1.4514658124306807,-0.6641127373265753,-0.6146372553141471
1687003444.97404,0.7795034050941467,0.6212484240531921,-0.0801544338464737,-0.012489914894104004,-0.04219263792037964,0.043334901332855225,-0.7623106241226196,-0.06899890303611755,-0.07322439551353455,1.4683289041867715,-0.6703348517879627,-0.5777871706901322
1687003444.9800339,0.7782068252563477,0.6248043179512024,-0.06335083395242691,0.0004336833953857422,-9.429454803466797e-05,0.03890616446733475,-0.2214844822883606,0.04772278666496277,0.02103552408516407,1.4895692797480808,-0.6748808746943883,-0.5436170606555127
1687003444.996737,0.7794292569160461,0.6231772303581238,-0.06434433162212372,0.006077885627746582,-0.03318089246749878,0.010251879692077637,0.19363021850585938,0.06762605905532837,0.03528503328561783,1.4884299604374978,-0.672798706139755,-0.5502790543967236
1687003445.0113811,0.7808250188827515,0.6215622425079346,-0.06302861124277115,-0.020540595054626465,-0.013285815715789795,0.008859865367412567,-0.07073944807052612,0.08117449283599854,0.05126746743917465,1.4902504364295097,-0.6707353744644188,-0.5520982120134298
1687003445.084651,0.7828643918037415,0.6192206740379333,-0.06073779985308647,-0.0014924407005310059,0.02515798807144165,-0.021140873432159424,0.10942060500383377,0.05969982221722603,0.03652527183294296,1.4933673696034224,-0.6677497955051918,-0.5540434199076482
1687003445.088241,0.7837110757827759,0.6186462640762329,-0.05544261261820793,0.0037035346031188965,0.0018676519393920898,-0.014122255146503448,-0.33923041820526123,0.024660877883434296,0.0156753808259964,1.500170298042565,-0.6670185183868702,-0.5470785655908785
1687003445.113344,0.7835018038749695,0.6198142766952515,-0.04421708360314369,0.002646148204803467,0.019452691078186035,-0.02022087574005127,-0.4044177532196045,-0.009423190727829933,-0.030572807416319847,1.5144209241052782,-0.668506005337223,-0.5249555485610075
1687003445.176554,0.7822100520133972,0.6222680807113647,-0.030488185584545135,-0.001112818717956543,0.0385746955871582,-0.008696435019373894,-0.48817428946495056,-0.07355743646621704,-0.044277966022491455,1.5318390689534853,-0.6716367843710929,-0.49206272239839954
1687003445.180151,0.7811920642852783,0.6235800981521606,-0.029776444658637047,-0.008258223533630371,0.0650489330291748,-0.017708955332636833,0.31458207964897156,-0.002546376083046198,-0.03755694627761841,1.532698092672403,-0.6733139603464269,-0.48782074658898866
1687003445.202131,0.7793223261833191,0.6256921291351318,-0.03414860740303993,0.004643738269805908,-0.026052236557006836,0.018721874803304672,-0.10124854743480682,-0.0020520936232060194,-0.05925025790929794,1.5270060027845866,-0.676018509971365,-0.49658974002153794
1687003445.266537,0.7777284383773804,0.6275690793991089,-0.03599070385098457,0.003506183624267578,0.017786145210266113,0.010950982570648193,0.1331123560667038,-0.012511258944869041,-0.046273209154605865,1.524552624148626,-0.6784269371501205,-0.49947634211274755
1687003445.294794,0.7759312391281128,0.6297647953033447,-0.03642384335398674,-0.0012732148170471191,-0.022419273853302002,0.021439675241708755,-0.12320372462272644,0.0017193419625982642,-0.05826622247695923,1.5238886593592758,-0.6812503831365285,-0.5001237707446516
1687003445.327423,0.7746819853782654,0.6314433217048645,-0.033869385719299316,-0.00014597177505493164,0.020702064037322998,0.008356630802154541,0.07187949120998383,0.007031816057860851,-0.02594876103103161,1.5271037786783443,-0.6834131063377126,-0.49579544969416567
1687003445.386897,0.7738336324691772,0.6325292587280273,-0.03298803046345711,-0.004485487937927246,-0.015692710876464844,0.01571499928832054,-0.17064593732357025,0.006416092626750469,-0.054208628833293915,1.528192765859311,-0.6848144031676218,-0.4940180707881648
1687003445.4482489,0.7723416090011597,0.6344527006149292,-0.030953720211982727,-0.0037564635276794434,0.054863035678863525,0.009347200393676758,0.32082006335258484,0.08741986751556396,-0.048736631870269775,1.5307400048506665,-0.6873002799195056,-0.49384617587534996
1687003445.507066,0.7687689065933228,0.6375596523284912,-0.050118837505578995,-0.031433820724487305,0.03645157814025879,0.05645114183425903,1.191142201423645,0.06267789751291275,-0.2439572513103485,1.5056948238227739,-0.6913264281890439,-0.5405829315790038
1687003445.5989451,0.7547563314437866,0.6469777226448059,-0.10845591872930527,0.013996660709381104,0.18693029880523682,-0.0530126690864563,2.720499277114868,0.09262461215257645,-0.4999549686908722,1.4280766940529008,-0.7036141726385045,-0.6666773343359466
1687003445.6187801,0.7396364808082581,0.6301634907722473,-0.2362876534461975,-0.006085515022277832,0.3636872172355652,-0.09343957901000977,6.427760124206543,0.47851067781448364,-0.47794046998023987,1.2615791361769562,-0.681763720431624,-0.9490405733094264
1687003445.7229118,0.7392927408218384,0.5184150338172913,-0.4297579526901245,-0.032368481159210205,-0.015485405921936035,0.19288048148155212,7.454040050506592,0.6745904088020325,-0.27867504954338074,1.0442331824232225,-0.5449964449114842,-1.3697864056437026
1687003445.728224,0.7577521204948425,0.3061503469944,-0.5762670040130615,0.02777022123336792,0.18051350116729736,0.18211716413497925,10.38180160522461,1.1359429359436035,0.029105169698596,0.9206119046476419,-0.311146556974006,-1.7640903888735184
1687003445.812038,0.801895022392273,-0.029170874506235123,-0.5967523455619812,0.065826416015625,-0.1687050759792328,0.4864312410354614,10.859265327453613,1.6773855686187744,0.229453444480896,0.9310319520048765,0.029175013341542926,-2.19961528955822
1687003445.8302732,0.8555400371551514,-0.29791516065597534,-0.4234355688095093,0.07214844226837158,0.24966689944267273,0.5700876712799072,9.90322494506836,2.333124876022339,-0.37579625844955444,1.111210005890068,0.30250788916653376,-2.6367733603595642
1687003445.897922,0.9118281006813049,-0.3813289999961853,-0.15217703580856323,0.24617666006088257,0.22657433152198792,0.4524393677711487,8.410719871520996,2.357966661453247,-1.953057885169983,1.4054281819179673,0.39123350063156,-3.122610411448891
1687003445.9148312,0.9603592753410339,-0.2696128785610199,0.07084253430366516,0.34730350971221924,0.4995628595352173,0.12843716144561768,6.682920932769775,1.611606240272522,-3.4084157943725586,1.644429663158508,0.2729910158194751,2.75480569083241
1687003446.080409,0.9848863482475281,-0.042448341846466064,0.16791826486587524,0.3945232033729553,0.09818865358829498,0.07194970548152924,1.8260163068771362,0.5930908918380737,-4.618945121765137,1.7396676058428242,0.04246110132096861,2.543614944455574
1687003446.0996652,0.9635913968086243,0.19659481942653656,0.18122276663780212,0.2322702407836914,0.20410089194774628,-0.030084624886512756,-0.559211790561676,-0.14729997515678406,-4.78837251663208,1.7566949946498653,-0.19788375372451944,2.5853974784207376
1687003446.103242,0.8946852087974548,0.41341713070869446,0.16918759047985077,0.10758829116821289,-0.08140122890472412,-0.04818546772003174,0.2178657203912735,-0.19743770360946655,-4.478200912475586,1.7576923031682326,-0.4262037239543125,2.627725128863911
1687003446.118678,0.7850572466850281,0.5964998602867126,0.1669514924287796,0.19560980796813965,-0.1801944375038147,-0.043385982513427734,-0.025481954216957092,-0.2048085331916809,-4.190067291259766,1.7803362854897624,-0.6391331089647101,2.6871298206078307
1687003446.166709,0.6613847017288208,0.7366284132003784,0.14123986661434174,0.24959546327590942,-0.24105358123779297,-0.040699854493141174,0.32943785190582275,-0.3105095326900482,-3.5401108264923096,1.7811878300720032,-0.8280713886170312,2.710260656878752
1687003446.1953502,0.5372549295425415,0.8347437381744385,0.12066428363323212,0.5091928243637085,-0.19967305660247803,-0.2824532985687256,0.3014754056930542,-0.9810581803321838,-2.9496896266937256,1.7917244014336704,-0.9876671841579492,2.7586249313576183
1687003446.226254,0.4219669997692108,0.905139684677124,0.05163368582725525,0.38798484206199646,-0.15074515342712402,-0.3746166229248047,1.05901300907135,-1.2727386951446533,-2.642965078353882,1.6925553061344467,-1.131708155286757,2.7145044136302316
1687003446.286752,0.3173854351043701,0.9481328725814819,-0.017616011202335358,0.4126560688018799,-0.502530574798584,-0.2235950231552124,0.739342987537384,-2.125866651535034,-1.833742380142212,1.5153496939389484,-1.2473097874324803,2.6201123076267896
1687003446.3473291,0.24827367067337036,0.9643298983573914,-0.09180281311273575,0.33888453245162964,-0.21295678615570068,0.257848858833313,1.7113531827926636,-1.333025336265564,-0.807840883731842,1.2166234875779376,-1.3029001280615287,2.395743571299595
1687003446.4973931,0.21400117874145508,0.9580391645431519,-0.19069451093673706,0.11040069162845612,-0.2572488784790039,0.02136760950088501,2.0105814933776855,-0.624741792678833,-0.44602566957473755,0.8429252258478209,-1.280081329235552,2.064416725818343
1687003446.518087,0.18719683587551117,0.9500311017036438,-0.24979592859745026,-0.11010941863059998,0.048381805419921875,0.3620395064353943,1.2491843700408936,0.9334214925765991,0.09062286466360092,0.6431163922674721,-1.2533355369760069,1.828963741827792
1687003446.521663,0.18226014077663422,0.9331822395324707,-0.30976149439811707,-0.09015808999538422,0.0051111578941345215,0.0814441442489624,0.9089913368225098,0.29407382011413574,-0.40302494168281555,0.5318380081637105,-1.2031676048694118,1.6796404475993039
1687003446.552741,0.166352778673172,0.9345871210098267,-0.3144419193267822,0.007994189858436584,0.03358304500579834,-0.023143678903579712,-0.17960314452648163,-0.036035895347595215,-0.32776162028312683,0.48660989269412114,-1.2070966533063374,1.6229249926411244
1687003446.617681,0.16085195541381836,0.9346684217453003,-0.3170512914657593,-0.012261837720870972,0.014260292053222656,0.04198098182678223,0.16921909153461456,-0.05882949009537697,0.060793593525886536,0.4695002278899913,-1.2073252465223192,1.6104867671679453
1687003446.737815,0.16137640178203583,0.9326261878013611,-0.32274726033210754,0.0012822896242141724,0.01756894588470459,-0.013846427202224731,0.003829330438748002,-0.19664087891578674,0.025182334706187248,0.4636544788278113,-1.2016236837630994,1.6101571895594575
1687003446.757567,0.16170506179332733,0.9317466020584106,-0.32511472702026367,0.009880036115646362,-0.017714738845825195,0.02343308925628662,0.0025546750985085964,-0.05958649143576622,0.04609960317611694,0.4615481810660959,-1.1991936506245024,1.6158920500952334
1687003446.8269749,0.1624119132757187,0.933305025100708,-0.3202563226222992,0.014437481760978699,-0.01655709743499756,-0.02065563201904297,-0.20522662997245789,0.031726110726594925,-0.0046187047846615314,0.46933612164944283,-1.2035094953265562,1.6244283874082879
1687003446.831152,0.1634945571422577,0.9351730942726135,-0.3141986131668091,0.014270365238189697,0.020454227924346924,0.00047779083251953125,-0.06010397896170616,0.034156642854213715,0.038466982543468475,0.47979802087894213,-1.2087475341642715,1.6341508929853255
1687003446.951607,0.16669824719429016,0.9353703260421753,-0.31191954016685486,-0.0025136619806289673,-0.01140505075454712,0.009307175874710083,-0.08845825493335724,0.03934874013066292,0.03692847490310669,0.4908084510393201,-1.2093047300115685,1.642819481772019
1687003446.9710999,0.1692570596933365,0.9361673593521118,-0.3081275522708893,-0.004446864128112793,0.0009052753448486328,0.02507692575454712,-0.060594335198402405,-0.0040223002433776855,0.05691869556903839,0.5023120879031879,-1.2115650883703557,1.654763106038322
1687003447.071504,0.17224332690238953,0.9366001486778259,-0.3051430881023407,-0.0033895373344421387,-0.0050359368324279785,-0.009691596031188965,-0.058587443083524704,-0.002690320136025548,0.04844211786985397,0.5138827447186431,-1.2127981791547835,1.6671143148504082
1687003447.0772061,0.17326800525188446,0.9375011324882507,-0.3017776310443878,-0.010410919785499573,-0.011231660842895508,0.0024763941764831543,-0.06441144645214081,-0.011667703278362751,0.01465778797864914,0.5212011969605781,-1.215378297297358,1.675480551621693
1687003447.163888,0.1729971170425415,0.9383278489112854,-0.2993537485599518,-0.001061081886291504,0.009792089462280273,-0.012978464365005493,-0.026810403913259506,-0.028090352192521095,0.004118060693144798,0.5240124679597191,-1.2177617708032948,1.6798094345038364
1687003447.1837878,0.17208348214626312,0.9386937022209167,-0.2987329363822937,0.0007070749998092651,0.002117335796356201,0.00613027811050415,-0.0380362942814827,-0.07837296277284622,0.013254567980766296,0.5226189619563211,-1.2188213787827125,1.6813991747379047
1687003447.199666,0.1730058640241623,0.939540445804596,-0.2955208420753479,0.012159556150436401,-0.0029103755950927734,0.015430420637130737,-0.13215534389019012,-0.13142606616020203,0.10092449933290482,0.5296350972989735,-1.2212858876608201,1.6942889436784143
1687003447.276822,0.17595705389976501,0.9409627318382263,-0.2891849875450134,0.0008160322904586792,-0.0005638003349304199,0.010834068059921265,-0.19225069880485535,-0.11035499721765518,0.0924292802810669,0.5466157622808758,-1.2254631272108387,1.7189537923856646
1687003447.280616,0.1786636859178543,0.9433222413063049,-0.2796827256679535,-0.013624593615531921,-0.009621739387512207,0.021290302276611328,-0.22098401188850403,-0.10402533411979675,0.06907123327255249,0.5684674106894495,-1.2325023657257905,1.7479119859508068
1687003447.400842,0.17818580567836761,0.9470915794372559,-0.26695913076400757,-0.013573959469795227,-0.014718711376190186,0.057989925146102905,-0.5049493312835693,-0.15854650735855103,-0.009338358417153358,0.5885549161670884,-1.2440497848369423,1.776256903046674
1687003447.4211822,0.18430304527282715,0.955886721611023,-0.22871989011764526,0.036827340722084045,-0.0714263916015625,0.07353788614273071,-1.0223255157470703,0.1356985718011856,0.4477223753929138,0.6782689983499818,-1.2726638682805875,1.8736559038486136
1687003447.452794,0.21653679013252258,0.9561673402786255,-0.1971186101436615,0.2360694408416748,-0.08659958839416504,-0.038645029067993164,0.07727911323308945,0.3717441260814667,0.6798989176750183,0.8323066149978124,-1.2736207603042755,2.018201415801147
1687003447.455593,0.27139371633529663,0.9377836585044861,-0.21658040583133698,0.19639495015144348,-0.2667480707168579,-0.027194112539291382,0.5954240560531616,0.719591498374939,1.4065648317337036,0.8972576091002863,-1.2161911845259676,2.064382696799688
1687003447.5161428,0.36697104573249817,0.9055511951446533,-0.21285943686962128,0.2849760055541992,-0.46344321966171265,0.10259932279586792,0.2929503321647644,1.3341033458709717,2.2447407245635986,1.0451794524654925,-1.1326772337758293,2.1617657768735055
1687003447.54532,0.5033556818962097,0.8385481834411621,-0.2084943801164627,0.05445986986160278,-0.44662630558013916,0.10168278217315674,1.3862885236740112,2.5311625003814697,3.1125802993774414,1.1781012567218712,-0.9946129968617232,2.204778313226751
1687003447.5760531,0.6713262796401978,0.7221140265464783,-0.16694986820220947,0.11592036485671997,-0.6781535744667053,-0.004620075225830078,-0.10606061667203903,2.6796233654022217,4.182490825653076,1.3270541710901844,-0.8068534076496897,2.2266294679250764
1687003447.638824,0.8330990076065063,0.5505625605583191,-0.05316939204931259,0.33306920528411865,-0.22483325004577637,-0.037940919399261475,-0.958175539970398,2.304555654525757,4.795111656188965,1.5070615474003686,-0.5830379693353479,2.309001024721371
1687003447.701212,0.9402751922607422,0.3329448103904724,0.07092524319887161,0.4480763077735901,-0.03709220886230469,-0.03885137289762497,-4.696937084197998,0.7269219756126404,4.712950229644775,1.64608405429219,-0.33942485434724656,2.4561479920106253
1687003447.75436,0.9885587692260742,0.0914856493473053,0.11992430686950684,0.7343263030052185,0.3982298672199249,-0.07817637920379639,-7.198990821838379,-1.5628688335418701,4.009793758392334,1.6915186892510161,-0.09161374906185943,2.736653185464881
1687003447.852565,0.994373619556427,-0.10455477237701416,-0.017005832865834236,0.536769449710846,0.32872164249420166,0.27609992027282715,-9.27820873260498,-3.3318307399749756,2.602844476699829,1.5536959387067961,0.10474621237648497,-3.1335029251675772
1687003447.872274,0.9567925930023193,-0.12347482144832611,-0.2632520794868469,0.34040266275405884,0.1617591381072998,0.6288068294525146,-8.745018005371094,-3.8192076683044434,0.8247330188751221,1.3022998006356414,0.1237907427365138,-2.6636453957689663
1687003447.903503,0.895043671131134,0.0007305105100385845,-0.44597795605659485,0.4178377389907837,0.1409015953540802,0.3457123637199402,-6.357005596160889,-3.464752197265625,-0.16965505480766296,1.1085296045449056,-0.0007305105742130886,-2.323321145837932
1687003447.996618,0.812205970287323,0.20991367101669312,-0.5442955493927002,-0.07145291566848755,-0.3762497305870056,0.38612282276153564,-8.40841293334961,-2.464172124862671,-0.7074021697044373,0.9803897209638982,-0.21148666616909262,-2.014629582556357
1687003448.013081,0.742351233959198,0.4536939263343811,-0.49302783608436584,0.11771035194396973,-0.1212354302406311,0.3327189087867737,-7.585227012634277,-2.0938503742218018,-0.5357092022895813,0.984542475242252,-0.47090606452915157,-1.673609061882472
1687003448.05655,0.6928543448448181,0.6159238815307617,-0.37495407462120056,0.04560995101928711,-0.3376951217651367,0.19010907411575317,-6.143129348754883,-1.4449701309204102,-0.11666294932365417,1.074755306659693,-0.6635581707057605,-1.3416316779123856
1687003448.145753,0.6802017092704773,0.687701404094696,-0.25375640392303467,0.018849074840545654,-0.11601567268371582,0.23770412802696228,-3.603325843811035,-1.0501055717468262,0.42660778760910034,1.2137271201505733,-0.7583181110314429,-1.0348318917949575
1687003448.149074,0.688085675239563,0.6971839070320129,-0.20117762684822083,-0.14720755815505981,-0.20870435237884521,-0.03318212926387787,-1.0080478191375732,-0.10318323969841003,0.4334084391593933,1.2863514418761965,-0.7714617233704169,-0.8864903103648677
1687003448.209476,0.7063102126121521,0.6873812079429626,-0.16921190917491913,-0.07375729084014893,-0.0914340615272522,0.03618575632572174,-0.5677738785743713,0.40589866042137146,0.4055216610431671,1.3356564011877265,-0.7578772208392136,-0.8316110969791913
1687003448.300868,0.7202950119972229,0.6814186573028564,-0.12978333234786987,0.10021579265594482,0.17466044425964355,-0.0734790712594986,-1.1284692287445068,0.07327808439731598,0.32321587204933167,1.3925282731239386,-0.7496992458192652,-0.7682793230959346
1687003448.3190231,0.7286155819892883,0.6758321523666382,-0.11122164875268936,-0.023079752922058105,0.4179179072380066,-0.08062715828418732,0.03187780827283859,-0.16571159660816193,0.11467866599559784,1.4193177387604567,-0.7420931362495938,-0.7214680389997556
1687003448.357877,0.7272440195083618,0.6756189465522766,-0.12105721235275269,-0.04220086336135864,0.21074873208999634,0.006433151662349701,0.20419184863567352,-0.016283627599477768,-0.1525690257549286,1.4058485013303241,-0.741803892455044,-0.7335680089350813
1687003448.449255,0.7210745811462402,0.6797963976860046,-0.13389554619789124,-0.0008293986320495605,0.026838064193725586,-0.018600866198539734,0.4000023901462555,0.018094321712851524,-0.21669314801692963,1.3871985369572064,-0.7474849586953939,-0.7613087932767676
1687003448.467081,0.7150529026985168,0.6844540238380432,-0.14220301806926727,0.0006146430969238281,-0.060766398906707764,0.041891708970069885,0.23907573521137238,-0.0033391991164535284,-0.12844318151474,1.374486935437809,-0.7538545913474808,-0.7802023720490227
1687003448.506321,0.712726891040802,0.6852812767028809,-0.1496989130973816,-0.008228719234466553,-0.13750606775283813,0.050882935523986816,0.15276548266410828,0.041958507150411606,-0.004246927797794342,1.3637688411162086,-0.7549898548268175,-0.7960904723271242
1687003448.5962238,0.7159824371337891,0.6806185245513916,-0.15533016622066498,0.005773425102233887,-0.1589205265045166,0.038768231868743896,0.1754205971956253,0.07239417731761932,0.15215572714805603,1.3571600397361285,-0.7486065481861827,-0.8110990616623996
1687003448.6004682,0.7242403626441956,0.6727516055107117,-0.15126512944698334,0.005862057209014893,-0.06897658109664917,-0.011347830295562744,-0.006679503247141838,0.07557092607021332,0.27499908208847046,1.3648958530200588,-0.7379215490461327,-0.8066857358093861
1687003448.655846,0.7338925004005432,0.6623976826667786,-0.15043558180332184,-0.004064738750457764,-0.021254003047943115,-0.01782308518886566,0.014160397462546825,0.03612152487039566,0.2684769928455353,1.3686139086185347,-0.7240147935732487,-0.8050344923655004
1687003448.78145,0.7420205473899841,0.6529553532600403,-0.1518370509147644,-0.004243016242980957,0.08448654413223267,-0.0025666803121566772,0.0643870159983635,-0.0009772417834028602,0.20541149377822876,1.3689562130501662,-0.7114799062870263,-0.8052185382827056
1687003448.80126,0.7472220659255981,0.646720826625824,-0.1530081033706665,0.0056923627853393555,0.1153947114944458,-0.031211331486701965,0.12202861160039902,0.028761744499206543,0.11512421071529388,1.3688191732086945,-0.7032772502041151,-0.8073484071135452
1687003448.867774,0.7492458820343018,0.6432482004165649,-0.15767782926559448,0.007361054420471191,0.08174264430999756,0.006051182746887207,0.12825873494148254,-0.012527771294116974,0.021060558035969734,1.3633744163010126,-0.6987330852339416,-0.8163492408451831
1687003448.884427,0.7484402656555176,0.6435047388076782,-0.1604326218366623,-0.009487748146057129,0.0345500111579895,0.023027196526527405,-0.0603892020881176,-0.002240512054413557,-0.04935262352228165,1.359635835887454,-0.6990682167358402,-0.8201120202981804
1687003448.957612,0.7461410164833069,0.6470924019813538,-0.15666832029819489,-0.00615084171295166,0.02536243200302124,0.008154451847076416,0.014094151556491852,0.05847995728254318,-0.08013662695884705,1.363831465177022,-0.7037645325442513,-0.8162358730589957
1687003448.96124,0.7441177368164062,0.6489648222923279,-0.15853522717952728,0.0091170072555542,-0.02779477834701538,0.003887355327606201,0.1449252814054489,0.0477633997797966,-0.07390590012073517,1.3608835517941453,-0.7062230437212536,-0.8251588426696058
1687003449.0511231,0.7428805232048035,0.6502526998519897,-0.1590586006641388,0.003976047039031982,-0.027892589569091797,-0.0035543292760849,0.04352288320660591,0.02212301641702652,-0.02578124776482582,1.3598704026713024,-0.707917048459336,-0.8298569112063073
1687003449.0681129,0.7429537773132324,0.6497212052345276,-0.16087910532951355,0.009792745113372803,-0.03590583801269531,0.0008448809385299683,0.04435957968235016,-0.0040397439152002335,-0.0056842355988919735,1.3575488005962333,-0.7072175975256769,-0.8346149182009521
1687003449.105946,0.7433409690856934,0.6493245959281921,-0.16069157421588898,0.008612096309661865,-0.022112011909484863,-0.01731748878955841,-0.024880612269043922,-0.010080592706799507,0.012353621423244476,1.3578975502329431,-0.7066960169347816,-0.8338220261075485
1687003449.200241,0.7444125413894653,0.648155927658081,-0.16044892370700836,-0.003766298294067383,-0.007775068283081055,0.0034664273262023926,-0.08419007062911987,-0.016673114150762558,0.014854062348604202,1.3585063422479913,-0.7051602969314149,-0.8309001913645884
1687003449.217092,0.7451872825622559,0.6474911570549011,-0.15953359007835388,-0.00335085391998291,0.026184380054473877,-0.02727985382080078,-0.01043795607984066,-0.050841204822063446,0.03631461411714554,1.3598946902568276,-0.7042876919643336,-0.8254771349099246
1687003449.256909,0.7454402446746826,0.6467298269271851,-0.16142956912517548,-0.0001399517059326172,0.015043914318084717,0.005774602293968201,-0.01001264899969101,-0.031933560967445374,0.003926580771803856,1.357533370440396,-0.7032890456460694,-0.8255555643506154
1687003449.3499498,0.7449939846992493,0.6467820405960083,-0.1632688194513321,0.005433082580566406,0.013770878314971924,-0.0007479637861251831,0.008944664150476456,-0.04063277691602707,0.001085253432393074,1.3550525894155132,-0.7033575428580491,-0.8260026318221493
1687003449.366478,0.7444364428520203,0.6465857625007629,-0.1665569394826889,-0.004751443862915039,0.01775139570236206,0.008033260703086853,0.050821006298065186,-0.0520702563226223,-0.01334881316870451,1.3506856872991833,-0.7031002242868339,-0.8297347848211258
1687003449.407058,0.7429735660552979,0.6480966806411743,-0.16721464693546295,-0.004936575889587402,0.027684450149536133,0.007683947682380676,-0.05471973121166229,-0.029667342081665993,-0.042767420411109924,1.3494234635947095,-0.7050825372727073,-0.8280302374712443
1687003449.499086,0.7410652041435242,0.6500429511070251,-0.16812613606452942,0.006523787975311279,0.0051389336585998535,0.014027595520019531,0.025020502507686615,-0.006403565406799316,-0.05888114124536514,1.3477018441871729,-0.7076409621557466,-0.8305375058449652
1687003449.515592,0.7389270663261414,0.6524462699890137,-0.168227881193161,0.003077208995819092,0.006336688995361328,0.006545662879943848,-0.01612633466720581,-0.03311973065137863,-0.04465693235397339,1.3469466997707764,-0.710807944577481,-0.8297519134482939
1687003449.553944,0.7375804781913757,0.6540217995643616,-0.16801932454109192,-0.007371187210083008,-0.011764109134674072,0.010838508605957031,-0.010953010991215706,0.005616212263703346,-0.04521406441926956,1.346820354215879,-0.7128887941574009,-0.828979356716837
