Timestamp,gravityX,gravityY,gravityZ,accelerationX,accelerationY,accelerationZ,rotationRateX,rotationRateY,rotationRateZ,attitudeRoll,attitudePitch,attitudeYaw
1687093937.964552,0.9094800353050232,0.37296202778816223,0.18369951844215393,-0.0008038878440856934,-0.049857139587402344,0.012574315071105957,-0.043949708342552185,0.03457517549395561,0.0013035396113991737,1.7700979081682882,-0.3821993386846674,-2.96220187977991
1687093937.968507,0.9088695645332336,0.37245893478393555,0.1876978576183319,-0.0009868741035461426,0.021065235137939453,0.0003819465637207031,-0.22619201242923737,-0.03629140928387642,-0.038851603865623474,1.774451200541539,-0.3816572042755456,-2.948645075659116
1687093938.054987,0.909086287021637,0.37301793694496155,0.18552489578723907,-0.005964517593383789,0.027555763721466064,-0.009606391191482544,0.358704537153244,0.044338323175907135,0.0493972972035408,1.7721103564229066,-0.38225959753851096,-2.9549769712288194
1687093938.068265,0.9089104533195496,0.3734607696533203,0.18549686670303345,0.01297992467880249,-0.045793503522872925,0.024998202919960022,-0.27113234996795654,-0.03148626536130905,-0.0305249635130167,1.7721186520971022,-0.38273694107961687,-2.9593394690547217
1687093938.203578,0.908886730670929,0.3729396462440491,0.1866573840379715,-0.003659069538116455,0.054459065198898315,-0.009762167930603027,0.1313503384590149,-0.012076216749846935,0.0035128984600305557,1.773349245331791,-0.3821752164894398,-2.9505901125351235
1687093938.206816,0.909257173538208,0.3733406066894531,0.18403346836566925,0.002791166305541992,-0.036243438720703125,0.008257865905761719,0.03715666010975838,0.05613386258482933,-0.005498706363141537,1.7704983135214538,-0.38260740948672817,-2.9629488207296846
1687093938.2181292,0.908445417881012,0.3733987510204315,0.1878838837146759,-0.002073347568511963,0.0039358437061309814,-0.0031151920557022095,-0.2361181527376175,-0.01932067982852459,-0.04033977538347244,1.774740057404413,-0.3826700623912569,-2.952110258642355
1687093938.2927299,0.9084315299987793,0.3739885985851288,0.18677464127540588,-0.002074718475341797,0.027103930711746216,-0.015525221824645996,0.34638822078704834,0.04480251297354698,0.04656742513179779,1.7735718416351578,-0.38330600474207915,-2.9564712913153635
1687093938.3005571,0.9081724882125854,0.3746662139892578,0.1866767853498459,0.011825740337371826,-0.04355049133300781,0.017348527908325195,-0.2520332634449005,-0.018381251022219658,-0.038435615599155426,1.7735247210394967,-0.3840367446084413,-2.9616797107495207
1687093938.350268,0.9078869819641113,0.3747556209564209,0.18788161873817444,-0.002354145050048828,0.0519106388092041,-0.01805126667022705,0.09853147715330124,-0.02842043526470661,-0.0013132821768522263,1.7748596481161776,-0.3841331846771039,-2.951780303219814
1687093938.44085,0.9084186553955078,0.37519770860671997,0.18439775705337524,0.004667341709136963,-0.03361442685127258,0.0023698806762695312,0.09403472393751144,0.023780183866620064,0.013603081926703453,1.771062962393631,-0.38461004224326784,-2.9646428539165472
1687093938.453387,0.9082063436508179,0.3746163249015808,0.18661251664161682,-0.005084216594696045,-0.008557945489883423,0.0014368444681167603,-0.2950937747955322,-0.04808135703206062,-0.0444042943418026,1.7734494724907957,-0.38398293854402155,-2.954230277079136
1687093938.503137,0.9084700345993042,0.37455424666404724,0.1854495406150818,-0.009757816791534424,0.027347028255462646,-0.009805560111999512,0.29646366834640503,0.035667870193719864,0.05174274370074272,1.7721636268637029,-0.38391597396027344,-2.9551752985525206
1687093938.5896192,0.9085682034492493,0.3745554983615875,0.18496444821357727,0.0033426880836486816,-0.04336351156234741,0.02376052737236023,-0.14288181066513062,0.006854997016489506,-0.007920319214463234,1.7716298362910814,-0.3839173241705174,-2.9618832027455193
1687093938.601567,0.908459484577179,0.3738449215888977,0.18692651391029358,0.004275500774383545,0.04261323809623718,-0.013571381568908691,0.008514896035194397,-0.021030696108937263,0.017026841640472412,1.773726162163028,-0.38315108889998845,-2.9524554213930743
1687093938.685472,0.9090983271598816,0.37346935272216797,0.1845555454492569,0.005376040935516357,-0.016749441623687744,-0.0014653503894805908,0.1412041038274765,0.04290114715695381,0.03481782227754593,1.7710839071751672,-0.3827461978163958,-2.9632746999448627
1687093938.8034902,0.9091630578041077,0.3726382851600647,0.18591190874576569,-0.003325045108795166,-0.008273690938949585,-0.000685468316078186,-0.23560228943824768,-0.043670229613780975,-0.01594974845647812,1.7725024489309433,-0.3818504585560447,-2.9565439537508325
1687093938.807879,0.9093032479286194,0.37263771891593933,0.18522648513317108,-0.01214742660522461,0.027813971042633057,-0.017791748046875,0.2646295130252838,0.04733797535300255,0.03952150046825409,1.7717485316150838,-0.3818498433459606,-2.9573315621084464
1687093938.8962522,0.9089984893798828,0.3729279637336731,0.18613497912883759,0.013303577899932861,-0.04318559169769287,0.020163848996162415,-0.1939520686864853,-0.0021400959230959415,-0.016045888885855675,1.772773508732511,-0.3821626209881557,-2.9615354769555315
1687093938.899382,0.9090017676353455,0.37241414189338684,0.18714658915996552,0.0012308955192565918,0.042426615953445435,-0.01331840455532074,0.07151056826114655,-0.025295883417129517,0.01557515375316143,1.7738406660759258,-0.38160891453187473,-2.9535964519525315
1687093938.902781,0.9095823764801025,0.37198320031166077,0.18517066538333893,0.00768435001373291,-0.037525832653045654,-0.004338756203651428,-0.007232042029500008,0.024833330884575844,0.007966767996549606,1.7716295760587766,-0.3811446369161994,-2.9626281373196126
1687093938.9820309,0.9094961881637573,0.3711894154548645,0.18717727065086365,0.0038797855377197266,0.022029608488082886,-0.010541543364524841,-0.19254477322101593,-0.06547073274850845,-0.01879134215414524,1.7737656648660798,-0.38028963531272064,-2.951029512143077
1687093939.072896,0.9103668928146362,0.37089022994041443,0.1835012137889862,-0.006375133991241455,0.01993316411972046,-0.012419700622558594,0.26739034056663513,0.013250445015728474,0.04868330433964729,1.7696995204161132,-0.379967433457148,-2.956849810313408
1687093939.087038,0.9104246497154236,0.37051907181739807,0.18396373093128204,0.001577913761138916,-0.023473143577575684,0.013637661933898926,-0.25945889949798584,-0.05118034407496452,-0.022951200604438782,1.7701753813468666,-0.37956779410744057,-2.9548436602710932
1687093939.189759,0.9107722043991089,0.37026599049568176,0.18274888396263123,-0.007131457328796387,0.028552979230880737,-0.019708752632141113,0.16412532329559326,-0.02207185886800289,0.03321326896548271,1.7688193797794112,-0.379295360936702,-2.9508236108702657
1687093939.199922,0.9114149212837219,0.3694315254688263,0.18122737109661102,0.008415460586547852,-0.052277565002441406,0.01878488063812256,-0.11840224266052246,-0.012285541743040085,0.02328287437558174,1.7670779831619545,-0.3783971932804296,-2.956956812271512
1687093939.285357,0.9119668006896973,0.3680557906627655,0.181249737739563,0.003438413143157959,0.021623164415359497,0.007577762007713318,-0.0542626678943634,-0.0764022096991539,0.017454812303185463,1.7669858155937257,-0.37691715053993635,-2.9484287141151624
1687093939.289208,0.9130951762199402,0.3665347695350647,0.17863322794437408,-0.005136072635650635,-0.00819733738899231,0.007096782326698303,0.08538983762264252,0.023894432932138443,0.028217710554599762,1.7639911155755232,-0.3752818564767148,-2.954298181597073
1687093939.375486,0.9128757119178772,0.3657098114490509,0.1814224272966385,0.001400291919708252,-0.006090700626373291,0.0012252181768417358,-0.19059687852859497,-0.01933106780052185,-0.010950729250907898,1.766977428943896,-0.3743953386645015,-2.94775820660884
1687093939.4675,0.9130136370658875,0.36545902490615845,0.1812349110841751,-0.0071755051612854,0.03117796778678894,-0.0008148998022079468,0.20522788166999817,0.019064657390117645,0.04818902164697647,1.7667509501260865,-0.37412589921833855,-2.947729807443224
1687093939.471108,0.9129735827445984,0.3653377294540405,0.1816806048154831,0.009267747402191162,-0.02027544379234314,0.026357784867286682,-0.1466999351978302,-0.00346302124671638,-0.016692504286766052,1.7672289548244586,-0.37399558913930114,-2.952113574550948
1687093939.474581,0.9125626683235168,0.365718275308609,0.1829744279384613,-0.0002396106719970703,0.03648817539215088,-0.0018831491470336914,0.031998250633478165,-0.0006652373122051358,-0.017812630161643028,1.7686785232055608,-0.3744044155463456,-2.9447216817229735
1687093939.552563,0.9126147031784058,0.3660808205604553,0.18198657035827637,0.0012341141700744629,-0.022727549076080322,-0.007578626275062561,0.07613122463226318,0.057962387800216675,0.004295334219932556,1.7676266928027895,-0.374793974425672,-2.9536832922670815
1687093939.555665,0.9122850894927979,0.365679532289505,0.18442995846271515,-0.0007860660552978516,-0.004915982484817505,0.0002319812774658203,-0.1647457629442215,-0.03907454386353493,-0.01589755155146122,1.7702704748962894,-0.3743628067102958,-2.946193049622195
1687093939.647044,0.9128256440162659,0.365522563457489,0.1820521354675293,0.0021525025367736816,0.014650225639343262,-0.021087154746055603,0.27625250816345215,0.021945400163531303,0.06075461581349373,1.767651468336276,-0.3741941610206556,-2.95120328189451
1687093939.659491,0.9128662347793579,0.36534732580184937,0.1822003722190857,0.009787142276763916,-0.022787481546401978,0.026417866349220276,-0.15499787032604218,-0.016054846346378326,-0.013950514607131481,1.767799098001496,-0.374005901799932,-2.95499247572917
1687093939.704026,0.9131190776824951,0.3648582100868225,0.1819121539592743,0.0024845004081726074,0.03389972448348999,-0.008877530694007874,0.0208305511623621,-0.03352518379688263,0.009274646639823914,1.7674423735047378,-0.3734805121006661,-2.9480537195221173
1687093939.8299289,0.9135728478431702,0.364385187625885,0.18057730793952942,-0.001448214054107666,-0.018880397081375122,-0.0022172927856445312,0.08152079582214355,0.05124589800834656,0.008658923208713531,1.7659414058012066,-0.37297250635527146,-2.955994053940039
1687093939.84347,0.9134745597839355,0.3640070855617523,0.1818334460258484,-0.005439162254333496,0.005454033613204956,-0.0026188939809799194,-0.13958261907100677,-0.04522804170846939,-0.00637781573459506,1.7672849315215697,-0.3725665254676534,-2.9491201515221186
1687093939.946291,0.9142206907272339,0.3635089099407196,0.17905841767787933,-0.0033472776412963867,0.013276368379592896,-0.009167075157165527,0.21908552944660187,0.010053852573037148,0.051226887851953506,1.7642070750264958,-0.37203172855640054,-2.953749319682452
1687093939.958693,0.9140875935554504,0.36338117718696594,0.17999422550201416,0.007390618324279785,-0.01801377534866333,0.010664328932762146,-0.21504974365234375,-0.03727571293711662,-0.03697460889816284,1.7652202705161293,-0.3718946149324782,-2.953146516193591
1687093940.034521,0.9144830703735352,0.3631333112716675,0.17847920954227448,-0.009133398532867432,0.05506432056427002,-0.004376426339149475,0.22801557183265686,-0.04214103892445564,0.037557948380708694,1.763542895581575,-0.3716285676054785,-2.9490846061019904
1687093940.038838,0.9157432913780212,0.36269068717956543,0.17282907664775848,0.008741021156311035,-0.01242518424987793,0.0525585412979126,0.18499058485031128,0.015650352463126183,0.061324264854192734,1.7573331282051359,-0.37115357509136815,-2.968188937961464
1687093940.125095,0.916140615940094,0.36285844445228577,0.1703532189130783,-0.0011625885963439941,0.13999494910240173,0.13253378868103027,0.32621216773986816,0.010517110116779804,0.02605336159467697,1.7546431881005646,-0.37133359054401427,-2.9745622816637405
1687093940.137857,0.9156022071838379,0.3682568669319153,0.16143013536930084,0.02362203598022461,0.3439318537712097,0.40358757972717285,0.901527464389801,0.17259934544563293,-0.10237571597099304,1.7453131044624537,-0.37713343960538886,-3.0140259376095115
1687093940.214653,0.9048267006874084,0.3869479298591614,0.1776510775089264,-0.10320627689361572,0.42297327518463135,0.428305983543396,-0.02672511525452137,0.7870277762413025,-0.7447291016578674,1.7646674311263482,-0.39731939138437705,-3.0220818283332136
1687093940.22759,0.8780925273895264,0.43197470903396606,0.2057957649230957,0.02254241704940796,0.7206284999847412,0.8698267936706543,1.1829040050506592,1.4237140417099,-1.0654586553573608,1.8010081711878285,-0.44668116812480624,-3.067550462657064
1687093940.305354,0.8216211795806885,0.49998217821121216,0.27378183603286743,0.22937369346618652,0.7817713618278503,0.7584753036499023,0.4431862533092499,2.1542601585388184,-1.9936907291412354,1.8924462194495701,-0.5235781904567202,-3.0683486867880307
1687093940.318097,0.7130522131919861,0.6131649613380432,0.33997800946235657,0.5590271353721619,0.7988070249557495,0.691302478313446,1.314479112625122,3.0037403106689453,-2.958646535873413,2.015706244208915,-0.660060888694621,-3.0738629288078867
1687093940.363727,0.5395653247833252,0.7353731989860535,0.4099951684474945,0.9422920942306519,0.3497557044029236,0.8135613799095154,0.9798311591148376,3.5848844051361084,-3.4609193801879883,2.2205792783809555,-0.8262172144349632,-3.0169378234474467
1687093940.37327,0.30656442046165466,0.8474406003952026,0.433431476354599,1.1240538358688354,0.47093409299850464,0.7378026247024536,1.8503286838531494,4.365293979644775,-3.938704252243042,2.525986695196082,-1.01114562462649,-2.8885288316691784
1687093940.4528499,0.023949503898620605,0.9101440906524658,0.41359931230545044,1.2601996660232544,0.48531806468963623,0.3479211926460266,0.7581538558006287,4.1044697761535645,-4.76081657409668,3.0837521575927975,-1.1436317613403382,-2.504634345046388
1687093940.5479388,-0.27071690559387207,0.9060724377632141,0.3251855969429016,1.5123093128204346,0.5723670721054077,0.19239261746406555,2.1475448608398438,3.571913957595825,-4.7409515380859375,-2.4473465804187216,-1.1339074169845982,-1.8943056848237183
1687093940.5518599,-0.5052523612976074,0.8500699400901794,0.14866402745246887,1.45192289352417,0.061734139919281006,-0.010648265480995178,3.3968617916107178,2.3213517665863037,-4.169373512268066,-1.8569577806075857,-1.0161180872195879,-1.394653735000988
1687093940.664816,-0.6522022485733032,0.7512744069099426,-0.10108812153339386,1.2801473140716553,-0.1626056432723999,0.15411239862442017,6.784207820892334,0.7700582146644592,-2.857285976409912,-1.4170248653152149,-0.8499908755005001,-0.942401734730323
1687093940.6795769,-0.7371999621391296,0.5965575575828552,-0.3172625005245209,1.1264517307281494,-0.6814574003219604,0.6904314756393433,4.80285120010376,-0.6491789221763611,-2.072340965270996,-1.1643931884273404,-0.6392049582287074,-0.5772370763625118
1687093940.757123,-0.7914757132530212,0.44470706582069397,-0.41928741335868835,0.7523826956748962,-0.21410098671913147,0.42420071363449097,5.698304653167725,-0.4264206886291504,-1.5342711210250854,-1.0836298388105148,-0.46084717233773353,-0.37127303983730753
1687093940.772624,-0.835328996181488,0.22373269498348236,-0.5021646022796631,0.6395739912986755,-0.38764262199401855,0.9569680690765381,6.510152816772461,-0.9704744219779968,-1.472815752029419,-1.0295258750031775,-0.22564257849740477,-0.11086252949264183
1687093940.8458729,-0.8639847040176392,0.016596993431448936,-0.5032443404197693,0.33047646284103394,-0.24378511309623718,0.48967933654785156,5.1082072257995605,-0.5023903846740723,-1.693800687789917,-1.0433669831351509,-0.01659775533132803,0.09914460522212204
1687093940.8602629,-0.8770484328269958,-0.1605806201696396,-0.4527691900730133,0.23714059591293335,-0.5921812057495117,0.5757855772972107,3.3107709884643555,-0.9250926375389099,-1.4557678699493408,-1.0942397500421595,0.16127888192039835,0.252060600585411
1687093940.901747,-0.8778451681137085,-0.276244580745697,-0.39125052094459534,0.2721932530403137,-0.20257622003555298,0.25997912883758545,2.9349095821380615,-0.6426369547843933,-1.1446453332901,-1.1515288380930673,0.2798844444206538,0.3517837442507338
1687093941.026123,-0.8729021549224854,-0.3582060933113098,-0.3312556743621826,-0.03447699546813965,-0.3905732035636902,0.4827754497528076,1.9022029638290405,0.04132296144962311,-0.4346306324005127,-1.2080970189102032,0.366345790401526,0.4729443850817478
1687093941.04187,-0.868110179901123,-0.3835607171058655,-0.31506526470184326,0.27153724431991577,-0.586883008480072,-0.10185062885284424,0.1940607875585556,-0.02376922406256199,0.11939476430416107,-1.2226472592654876,0.3936488441456774,0.5446923577030999
1687093941.11163,-0.8690250515937805,-0.3835505247116089,-0.3125450909137726,-0.05057638883590698,-0.4128972291946411,0.14656001329421997,0.2809886336326599,0.21838589012622833,0.31742873787879944,-1.2255503906558887,0.3936378054913527,0.5662286170524695
1687093941.126264,-0.8687078356742859,-0.3803120255470276,-0.31734758615493774,-0.09091740846633911,0.297090619802475,-0.12045755982398987,0.41653093695640564,0.3359898626804352,-0.044744111597537994,-1.2205480118980174,0.39013365124824534,0.5811745551605416
1687093941.205354,-0.8628872632980347,-0.377074658870697,-0.33651217818260193,-0.06942480802536011,0.11904844641685486,-0.02826443314552307,-1.0444061756134033,0.15890657901763916,-0.14247998595237732,-1.1989541947957336,0.3866357726743252,0.556025805896206
1687093941.210559,-0.8635972738265991,-0.37370747327804565,-0.3384409546852112,-0.06143617630004883,0.09270161390304565,-0.0011281073093414307,0.8279517889022827,-0.017620917409658432,0.15284433960914612,-1.1972949817850151,0.3830028851669098,0.5499168567517579
1687093941.298747,-0.8626036643981934,-0.37903112173080444,-0.3350379467010498,0.01871633529663086,-0.020382970571517944,-0.023192644119262695,0.6828438639640808,0.25961121916770935,0.14454218745231628,-1.200327075421848,0.388749069290693,0.5832115116352921
1687093941.3024259,-0.8627309203147888,-0.38843002915382385,-0.3237554430961609,-0.02293497323989868,0.04051437973976135,0.013712108135223389,0.860426127910614,0.223512202501297,0.07089006900787354,-1.2117905693551914,0.39892722727191116,0.6360497951351738
1687093941.355983,-0.8587523698806763,-0.38930925726890564,-0.33314061164855957,0.04007256031036377,-0.02733197808265686,0.04334571957588196,-0.8145396709442139,0.13922742009162903,-0.07592786848545074,-1.2007333700602878,0.39988156186005486,0.6348694314833252
1687093941.4497662,-0.8568447828292847,-0.3794735074043274,-0.3490227460861206,0.010821223258972168,-0.06249731779098511,-0.05467900633811951,-0.2154819816350937,0.14616522192955017,0.10385733842849731,-1.1839828103239471,0.38922717582786276,0.6051710127377938
1687093941.453621,-0.8571879863739014,-0.3648475706577301,-0.3634762465953827,-0.028721988201141357,-0.197454035282135,0.1266140639781952,-0.7153524160385132,0.3018357753753662,0.32121551036834717,-1.1697447731354977,0.3734690877455619,0.5974358295203355
1687093941.503636,-0.8605499267578125,-0.3324620723724365,-0.38590532541275024,0.0260162353515625,-0.11690929532051086,-0.021260201930999756,-0.4881591796875,0.20688395202159882,0.5213368535041809,-1.1492401751935617,0.33891294581373305,0.5685609335539394
1687093941.5917711,-0.8646285533905029,-0.2967302203178406,-0.40542393922805786,0.055622875690460205,-0.20163705945014954,0.16123756766319275,-0.8122549057006836,0.3974077105522156,0.6543188691139221,-1.1323371829713968,0.3012668332731815,0.5627888381697609
1687093941.609967,-0.8683342933654785,-0.23658457398414612,-0.43591663241386414,0.11505365371704102,-0.18715202808380127,-0.04983168840408325,-1.1822253465652466,0.15659882128238678,1.0172762870788574,-1.1055382241416087,0.23884911757163596,0.5199513409123017
1687093941.745143,-0.8741324543952942,-0.1668776273727417,-0.45611855387687683,0.14830249547958374,-0.2606583833694458,0.1315184235572815,-0.910394549369812,0.35261663794517517,1.2012250423431396,-1.089864591218887,0.16766202969024302,0.5056092620165739
1687093941.760535,-0.8746653199195862,-0.07536251842975616,-0.4788331091403961,0.13325601816177368,-0.26309269666671753,0.033032357692718506,-1.6017142534255981,0.25172919034957886,1.6280882358551025,-1.0699151291198334,0.0754340410004496,0.47507751466183556
1687093941.835043,-0.8710557818412781,0.03492618724703789,-0.48994097113609314,0.20534521341323853,-0.19868351519107819,0.014950096607208252,-0.9797478318214417,0.1952318251132965,1.9107791185379028,-1.0584312011366583,-0.03493329199105475,0.4631635561773728
1687093941.8392282,-0.857946515083313,0.15669386088848114,-0.4892594516277313,0.245123028755188,-0.32692092657089233,0.11308455467224121,-2.538088083267212,0.04646485671401024,1.9823368787765503,-1.0525255405219271,-0.15734226376654573,0.4390028464591049
1687093941.843091,-0.8361232876777649,0.3011501729488373,-0.4584827423095703,0.2330959439277649,-0.14554107189178467,0.04481697082519531,-1.414836049079895,-0.1331975907087326,2.255237340927124,-1.0692258207886396,-0.3058986067163009,0.393132742217697
1687093941.8940501,-0.7971134781837463,0.4158055782318115,-0.4378538727760315,0.2894229292869568,-0.32788437604904175,0.20747661590576172,-0.9497432708740234,-0.12144424766302109,2.4217400550842285,-1.0684912348228461,-0.42882840536077693,0.4086697774305576
1687093941.9538999,-0.7365984320640564,0.5446697473526001,-0.40094617009162903,0.4170640707015991,-0.21565967798233032,0.23534250259399414,-1.5123291015625,-0.049233172088861465,2.7220001220703125,-1.0723234637285148,-0.5759952933046371,0.41186973063331855
1687093942.1371531,-0.654430627822876,0.6699782609939575,-0.35049909353256226,0.32891494035720825,-0.36542809009552,0.16470810770988464,-2.216242551803589,-0.057087767869234085,2.7344279289245605,-1.0790925464307484,-0.7341794781950176,0.40885688957357985
1687093942.142568,-0.5526947975158691,0.8033493161201477,-0.22171688079833984,0.6289887428283691,-0.2809341549873352,0.26642513275146484,-3.8353607654571533,-0.3394238352775574,2.949408531188965,-1.1892937180106518,-0.9328983265998522,0.2671350218643555
1687093942.197855,-0.4268103241920471,0.8987508416175842,-0.10039788484573364,0.4852209687232971,-0.0952383279800415,0.04644281417131424,-1.335540771484375,-0.6241090893745422,3.048189163208008,-1.3397679751376412,-1.1169121396348118,0.12365697132032394
1687093942.209776,-0.2846772074699402,0.9584823250770569,-0.01644250378012657,0.6033265590667725,-0.28050392866134644,0.22496908903121948,-1.9869885444641113,-0.4427866041660309,3.104158878326416,-1.5131020121235446,-1.2816313425060408,-0.028331601377841943
1687093942.212854,-0.1318683624267578,0.9905330538749695,0.03814448043704033,0.5288410186767578,0.22444802522659302,0.28410589694976807,-0.25107279419898987,-0.5675655603408813,2.933748245239258,-1.852372685147763,-1.433087144100931,-0.3401855881593746
1687093942.254953,0.007717462722212076,0.9958836436271667,0.09031111001968384,0.737979531288147,-0.1097448468208313,0.22492027282714844,-1.1209142208099365,-0.23937368392944336,3.0717575550079346,3.056345567647038,-1.4800311438940614,-1.7106561266709261
1687093942.345604,0.17577145993709564,0.980349600315094,0.08955010771751404,0.5741064548492432,-0.1277952790260315,0.2909125089645386,0.3867800533771515,-0.022551894187927246,3.546773910522461,2.041990392203329,-1.3722259029471655,-2.7177518257316073
1687093942.362999,0.34646618366241455,0.933274507522583,0.09465740621089935,0.36683645844459534,0.3005359172821045,0.24543046951293945,-0.7178269624710083,-0.2788617014884949,3.482997417449951,1.8374959830427142,-1.20342453244317,-2.914886966473974
1687093942.433908,0.48657163977622986,0.858396053314209,0.16249443590641022,0.8679052591323853,0.19362115859985352,0.014568567276000977,-0.8693355321884155,-0.03217243030667305,3.163877248764038,1.8931088658316446,-1.0321348068689993,-2.8634491571916274
1687093942.437801,0.6188377141952515,0.7699133157730103,0.15579944849014282,0.32235485315322876,0.38777101039886475,0.45362138748168945,-0.5499812364578247,0.195341557264328,2.966423273086548,1.8174320907844803,-0.878705276567702,-2.941353256159584
1687093942.491809,0.7232328057289124,0.662858247756958,0.1937863528728485,0.48222672939300537,1.0271899700164795,-0.03137184679508209,0.5039940476417542,-0.38045385479927063,2.8456649780273438,1.8325914648454886,-0.7246297393704945,-2.9332259156777036
1687093942.6199322,0.8005942702293396,0.5716509819030762,0.17962254583835602,0.17863869667053223,0.2010083794593811,0.2782479524612427,0.2090224176645279,0.9831370711326599,2.3130054473876953,1.7915029818007968,-0.6085166177602471,-3.026196746941646
1687093942.624696,0.8512287735939026,0.4864172637462616,0.19699719548225403,-0.002077162265777588,1.035128116607666,-0.05032968521118164,1.2575870752334595,0.2497202306985855,1.8666094541549683,1.7982194534812326,-0.5079845247778936,-3.0685876368457907
1687093942.7953238,0.879524290561676,0.42968910932540894,0.20446032285690308,0.10515570640563965,0.3207533359527588,0.15122206509113312,0.3667965531349182,1.0775119066238403,1.3879417181015015,1.7992064516286135,-0.44414844076020965,-3.1411879163602308
1687093942.813479,0.8956151604652405,0.3811529278755188,0.22933848202228546,0.1447443962097168,0.5217248797416687,-0.32787978649139404,2.1077816486358643,0.8947246670722961,1.2029715776443481,1.8214779567574133,-0.39104303077810915,3.0636058699386135
1687093942.8536649,0.9020897746086121,0.35787245631217957,0.24116723239421844,-0.08550035953521729,0.11913257837295532,-0.005067944526672363,0.396815687417984,0.8817057013511658,0.7407488226890564,1.8320298834341178,-0.36598844341944864,2.9832145756207153
1687093942.856923,0.9038807153701782,0.33615249395370483,0.26457712054252625,0.073566734790802,0.24336105585098267,-0.20871475338935852,1.9811675548553467,0.6447394490242004,0.6717532277107239,1.8555539319794887,-0.3428286559917585,2.9210699639521893
1687093942.860193,0.9074398279190063,0.33584797382354736,0.2525051534175873,-0.0197141170501709,-0.08072108030319214,0.007153570652008057,0.7161014676094055,0.24347633123397827,0.4184168875217438,1.8421917604484592,-0.3425053483491251,2.8208126787089483
1687093942.9433398,0.9099665284156799,0.3215993642807007,0.26179182529449463,-0.06054013967514038,0.05132550001144409,-0.06205424666404724,-0.0789060965180397,0.15381182730197906,0.17586283385753632,1.850925241416988,-0.32741809473723826,2.813365429606683
1687093942.959549,0.909259557723999,0.32229846715927124,0.26338326930999756,0.016063928604125977,0.06866219639778137,0.021925538778305054,0.21823850274085999,0.1702994555234909,0.07508482038974762,1.8527473617726784,-0.3281565285660124,2.7927917935945663
1687093943.066328,0.9086515307426453,0.3183704614639282,0.270171195268631,0.051843345165252686,-0.01806226372718811,-0.01124483346939087,-0.04983796179294586,-0.01977994292974472,0.02935594692826271,1.8598036508101554,-0.32400999452155277,2.7963445893596277
1687093943.253344,0.910740852355957,0.3184358477592468,0.26296359300613403,0.005396842956542969,0.07453903555870056,-0.09238553047180176,0.5819782614707947,0.003182098502293229,0.14384044706821442,1.85188732236293,-0.32407897050346374,2.776252186476918
1687093943.258704,0.9117401242256165,0.3162693977355957,0.26211366057395935,-0.03381049633026123,-0.06469777226448059,0.039247363805770874,-0.02282271906733513,0.012320202775299549,0.03049524873495102,1.8507343864523236,-0.3217944520458072,2.768370059886033
1687093943.263057,0.9110127687454224,0.31942108273506165,0.2608183026313782,0.05587571859359741,0.014120787382125854,-0.1015164852142334,0.1663043349981308,-0.02213231287896633,-0.05236847698688507,1.8496327032982258,-0.3251184999866205,2.7665363290722613
1687093943.30146,0.9103149175643921,0.32072994112968445,0.2616472840309143,0.008981466293334961,-0.09804311394691467,0.059184104204177856,-0.35807621479034424,0.020160283893346786,-0.042824506759643555,1.8506768856512847,-0.32650002948760426,2.7671806991419343
1687093943.3047729,0.9094329476356506,0.3192315995693207,0.266501784324646,-0.011010587215423584,0.02602905035018921,-0.01770719885826111,-0.2679332196712494,-0.06539789587259293,-0.09377583861351013,1.8558571937675863,-0.32491856314689366,2.791544862091048
1687093943.307588,0.910116970539093,0.319485604763031,0.26384836435317993,-0.015997767448425293,-0.0010194480419158936,0.007758110761642456,-0.14338302612304688,-0.05645766109228134,0.02549276500940323,1.8529670488802539,-0.3251865974200998,2.7933517320274306
1687093943.398839,0.9100610613822937,0.31661728024482727,0.26747366786003113,-0.001446068286895752,-0.016782104969024658,0.0004400908946990967,-0.625051736831665,-0.16120803356170654,-0.1810806393623352,1.8566542284559797,-0.3221611569956053,2.8193588905973
1687093943.413872,0.9098221659660339,0.3200864791870117,0.26413702964782715,0.040434181690216064,0.13087177276611328,-0.10977914929389954,-0.07499157637357712,-0.18138788640499115,-0.11213620007038116,1.8533463406983037,-0.3258207609403861,2.838549444646993
1687093943.454325,0.9097755551338196,0.32088786363601685,0.263323575258255,0.00035005807876586914,-0.042186081409454346,0.013882845640182495,-0.7645838260650635,-0.24800018966197968,-0.23779772222042084,1.8525352177334178,-0.32666677201299404,2.8625942337822172
1687093943.5465631,0.9087287187576294,0.32671719789505005,0.2597463130950928,0.03266233205795288,0.16740819811820984,-0.08013510704040527,-0.34877797961235046,-0.38052600622177124,-0.33387473225593567,1.8492074403084522,-0.33282805539364785,2.9017762615326794
1687093943.5644178,0.9087421894073486,0.33893635869026184,0.24353569746017456,0.06447851657867432,0.11667582392692566,-0.08919301629066467,-1.2176032066345215,-0.8649395108222961,-0.6277289986610413,1.8326357169639458,-0.3457861127884617,2.93953476565857
1687093943.6641169,0.9044910073280334,0.3631647229194641,0.2236240655183792,0.029484272003173828,0.4173223674297333,-0.21628451347351074,-1.2338659763336182,-1.0515931844711304,-1.0769853591918945,1.8131732702589725,-0.37166227528010437,3.0215654629963002
1687093943.6824222,0.8906167149543762,0.40709051489830017,0.20268088579177856,0.06473618745803833,0.3082873821258545,-0.1264631450176239,-1.7601076364517212,-0.970844566822052,-1.4269335269927979,1.794559033675979,-0.41926640980104196,3.107032954023573
1687093943.7870631,0.8644200563430786,0.460326611995697,0.2021811157464981,0.09450322389602661,0.2255101203918457,-0.010851174592971802,-1.6286256313323975,-0.8668541312217712,-1.7900022268295288,1.8005582173077022,-0.47836307772032277,-3.0564420414226
1687093943.791335,0.82828289270401,0.5215598940849304,0.20475058257579803,0.05445331335067749,-0.06263655424118042,0.09336042404174805,-1.2096035480499268,-0.6099020838737488,-1.7240355014801025,1.8131368830676415,-0.5486781867316438,-2.9483530632585118
1687093943.877877,0.7932949066162109,0.5730631947517395,0.20562568306922913,0.17218971252441406,-0.0356181263923645,0.01701533794403076,-0.4689626395702362,-0.4027201533317566,-1.3762530088424683,1.8244191953960922,-0.6102388353619267,-2.882717026955257
1687093943.897449,0.7538089752197266,0.6273674368858337,0.19540263712406158,0.11554527282714844,0.26987987756729126,0.2538008689880371,-0.1570802628993988,-0.5490142703056335,-1.5581588745117188,1.8244339695541834,-0.6781679586549335,-2.8412846423750127
1687093943.994128,0.7000214457511902,0.683427631855011,0.20711462199687958,0.08919358253479004,0.31423765420913696,0.3482900559902191,-1.2490360736846924,0.038647282868623734,-2.03830885887146,1.8584588874765684,-0.7524476554052616,-2.7690707414882096
1687093944.0130439,0.6291853189468384,0.7449618577957153,0.22171561419963837,0.09920823574066162,0.9189938306808472,0.4496406316757202,0.010260597802698612,0.4590088725090027,-2.248138904571533,1.9095944812772592,-0.8404777070920895,-2.6983262440183062
1687093944.084433,0.5077891945838928,0.8168256282806396,0.2737632393836975,0.47638750076293945,0.7537311315536499,0.39304593205451965,-0.78757244348526,1.2103378772735596,-3.2433667182922363,2.065254003067739,-0.9558867828372759,-2.5652306108393463
1687093944.087853,0.34146013855934143,0.8866546750068665,0.31184715032577515,0.559235692024231,0.586535632610321,0.26434004306793213,-0.040235601365566254,1.5580757856369019,-3.6718642711639404,2.3108976603126843,-1.0900600208463904,-2.354915379284839
1687093944.1755261,0.14119616150856018,0.9323825836181641,0.33275529742240906,0.8285914063453674,0.3965204954147339,0.3646017909049988,-0.05361006036400795,1.7920193672180176,-3.9251718521118164,2.74029448174989,-1.2009491043851974,-1.9760595483881989
1687093944.193409,-0.07428091019392014,0.9475753307342529,0.3107789158821106,1.066193699836731,0.28487712144851685,-4.887580871582031e-05,1.89071524143219,1.999001383781433,-3.7225711345672607,-2.906978980621837,-1.2455603208949084,-1.4030544497964834
1687093944.26137,-0.27402856945991516,0.9458956122398376,0.17375290393829346,1.0358388423919678,-0.17941606044769287,0.43517959117889404,2.0575101375579834,1.5639845132827759,-3.7479145526885986,-2.135890299780023,-1.2403438489645984,-0.6893927650410603
1687093944.278473,-0.44704195857048035,0.8881877064704895,0.10618923604488373,1.0139060020446777,-0.2160380482673645,0.07146883010864258,0.8759239315986633,1.1172486543655396,-3.3164870738983154,-1.8040116336010963,-1.093385759761587,-0.4007031658138411
1687093944.321779,-0.5814800262451172,0.8135389685630798,-0.005925011355429888,0.8341808915138245,-0.2802444100379944,0.4328048825263977,2.5742685794830322,0.6736829876899719,-3.081003189086914,-1.5606071447913146,-0.9502122420869724,-0.16447390256596156
1687093944.4159489,-0.6911142468452454,0.7140607237815857,-0.11170574277639389,0.6567057371139526,-0.43534374237060547,0.3525504469871521,1.9171570539474487,0.9849511981010437,-2.778850793838501,-1.4105508213151012,-0.7952815438759094,-0.02278455453977041
1687093944.4200392,-0.7776018977165222,0.5810351371765137,-0.2402784377336502,0.5555863976478577,-0.17159593105316162,0.2568646967411041,3.9817137718200684,0.6840723752975464,-2.967888832092285,-1.271103877675125,-0.6199999378032058,0.12694551674730542
1687093944.423308,-0.840173602104187,0.41805481910705566,-0.34545406699180603,0.4719332456588745,-0.42835450172424316,0.24256408214569092,1.917580485343933,0.7107900977134705,-2.8076815605163574,-1.1806980139279286,-0.4313029814354802,0.23823635472628457
1687093944.537365,-0.8791337013244629,0.24935494363307953,-0.4061354100704193,0.47119003534317017,-0.1551472246646881,0.0434340238571167,2.803814172744751,0.3587169051170349,-3.011141300201416,-1.1380309635724584,-0.25201410580425165,0.281491548388888
1687093944.543435,-0.8958394527435303,0.07241500169038773,-0.4384378492832184,0.4136006832122803,-0.49822676181793213,-0.02501729130744934,1.7974203824996948,0.1712784320116043,-2.658876895904541,-1.1156519792139363,-0.07247843768573718,0.32909923245137773
1687093944.658303,-0.8998925089836121,-0.08880738168954849,-0.42697399854660034,0.2717186212539673,-0.4615161120891571,0.19836682081222534,3.591677188873291,-0.32625171542167664,-1.9277808666229248,-1.1277787122532112,0.08892453406372386,0.397119506558998
1687093944.678915,-0.8914344906806946,-0.2197592556476593,-0.39629602432250977,0.1524970531463623,-0.6118600368499756,0.13151025772094727,2.29931640625,-0.1687808632850647,-1.1306747198104858,-1.1524755832958768,0.22156767934879057,0.502279771725604
1687093944.7424622,-0.8830856084823608,-0.29580754041671753,-0.36422181129455566,0.12447977066040039,-0.29289180040359497,0.11930301785469055,0.7047927975654602,-0.15531127154827118,-0.9920422434806824,-1.1796101246534096,0.3003007846423574,0.5691040455061996
1687093944.7597651,-0.8726032376289368,-0.3220405578613281,-0.3672240674495697,0.03130990266799927,-0.14142990112304688,0.05881345272064209,-0.6371187567710876,-0.24510839581489563,-0.44073086977005005,-1.1724567246134585,0.3278840780468122,0.5118795723672643
1687093944.83221,-0.8698112964630127,-0.3381577730178833,-0.3592740297317505,0.045760273933410645,-0.3736495077610016,0.0973568856716156,0.410602867603302,0.19908103346824646,0.08801260590553284,-1.179092307312503,0.3449586728166296,0.5433922314890043
1687093944.848248,-0.8627610802650452,-0.32586342096328735,-0.3865959644317627,0.08532577753067017,-0.040667980909347534,-0.038040876388549805,-1.3383164405822754,0.09696944057941437,-0.26238349080085754,-1.1495305936574556,0.33192485654889675,0.48992707370703437
1687093944.892555,-0.8601357340812683,-0.3367004096508026,-0.3831442594528198,-0.04347449541091919,0.0031890571117401123,-0.054050564765930176,1.7345057725906372,0.2649443447589874,0.11456485092639923,-1.1517357213238022,0.3434104998768795,0.5080753502994635
1687093945.016062,-0.8570012450218201,-0.35002562403678894,-0.37819430232048035,0.049597740173339844,-0.16880375146865845,-0.023249149322509766,0.010826519690454006,0.18572966754436493,0.16232171654701233,-1.15520118834803,0.3575984447904894,0.5641962255571051
1687093945.0364242,-0.8582367897033691,-0.33645305037498474,-0.387594074010849,0.08165591955184937,-0.01945820450782776,-0.09993952512741089,-0.48558616638183594,-0.08672555536031723,0.09997817873954773,-1.146598767680536,0.34314781616997225,0.5434858994926509
1687093945.100421,-0.8622430562973022,-0.32528215646743774,-0.3882375955581665,-0.06990104913711548,-0.09317490458488464,0.184425950050354,-0.008286986500024796,0.15929725766181946,0.31346091628074646,-1.1477223224317628,0.33131009981195625,0.5449489022022487
1687093945.1171532,-0.865425705909729,-0.30412447452545166,-0.39817914366722107,0.027168869972229004,0.04231414198875427,-0.029585719108581543,-0.3636922836303711,0.13165272772312164,0.33845627307891846,-1.139578122901302,0.3090192357824005,0.5383019003929878
1687093945.192905,-0.8662258982658386,-0.28529009222984314,-0.4101979732513428,-0.006408989429473877,-0.08505600690841675,0.09043478965759277,-0.1455375850200653,0.23324458301067352,0.2735883295536041,-1.1285348426923982,0.28930908233160907,0.5300673734116358
1687093945.2096648,-0.865059494972229,-0.2676829397678375,-0.4242851734161377,0.07019871473312378,-0.07411390542984009,-0.016800612211227417,0.2825591564178467,0.29351806640625,0.5696558952331543,-1.114802255345076,0.27098741473348037,0.5398436356320699
1687093945.257986,-0.8673155903816223,-0.2475082278251648,-0.4318605065345764,0.10298752784729004,-0.3243606686592102,0.059866487979888916,0.01183219626545906,0.25166913866996765,0.5760464072227478,-1.1088078771452277,0.2501076139537005,0.5664943268544256
1687093945.3822598,-0.8693091869354248,-0.1847711056470871,-0.45843347907066345,0.1292884349822998,-0.5312933921813965,0.12568509578704834,-1.9191988706588745,0.3127288818359375,1.4008148908615112,-1.0855059008230223,0.18583895018025393,0.5436048859167805
1687093945.402667,-0.8751276135444641,-0.06582515686750412,-0.4793940484523773,0.2664850354194641,-0.3906109929084778,0.048882633447647095,-1.582372784614563,0.0636860579252243,1.8638629913330078,-1.0696444803213265,0.06587278855847988,0.49880066372595144
1687093945.4671922,-0.8712038397789001,0.053851183503866196,-0.48795899748802185,0.26721519231796265,-0.3808775544166565,0.21789366006851196,-1.4199588298797607,0.2668456733226776,2.185176134109497,-1.0602338548822658,-0.05387724700869035,0.49461119298728046
1687093945.470825,-0.852971076965332,0.19545578956604004,-0.48398086428642273,0.38513660430908203,-0.25833725929260254,0.16339370608329773,-1.45687735080719,0.1228317990899086,2.357628107070923,-1.0546879035893761,-0.19672217517952204,0.4721594480627794
1687093945.617879,-0.8160512447357178,0.33103418350219727,-0.4737898111343384,0.4036977291107178,-0.40975427627563477,0.3513838052749634,-2.0261332988739014,0.20587635040283203,2.659414529800415,-1.0447724257108806,-0.3373993398638851,0.4845521738923884
1687093945.623286,-0.7549912333488464,0.5155375003814697,-0.4052274525165558,0.5375077724456787,-0.3357890248298645,0.27935776114463806,-3.6067073345184326,-0.059364769607782364,2.8571932315826416,-1.078197234566768,-0.5416348476100217,0.3911222634049421
1687093945.677566,-0.6683021187782288,0.6684900522232056,-0.3263334333896637,0.6595588326454163,-0.29892218112945557,0.3393033742904663,-2.8645453453063965,-0.10216935724020004,2.848315954208374,-1.1165506434425354,-0.7321766956005961,0.33084352817649254
1687093945.694365,-0.5622545480728149,0.8159874677658081,-0.13429194688796997,0.48663198947906494,-0.3507927656173706,0.26826411485671997,-5.611064434051514,-0.48346757888793945,3.0982866287231445,-1.3363432870962157,-0.9544353435893457,0.06927698721255975
1687093945.6971369,-0.42041319608688354,0.9059411883354187,0.05023065209388733,0.8973877429962158,-0.25707656145095825,0.31475961208343506,-2.406115770339966,-0.8481220006942749,3.380362033843994,-1.6897118552484331,-1.1335974351459377,-0.30447868444314946
1687093945.731697,-0.2579253017902374,0.9546800851821899,0.14852754771709442,0.6714842319488525,-0.07609432935714722,0.31334078311920166,-1.3162176609039307,-0.5896582007408142,3.4802308082580566,-2.0932728784922667,-1.2685831186924004,-0.6900085184795716
1687093945.825006,-0.0734783187508583,0.9782878756523132,0.19378875195980072,0.9605327844619751,0.10508626699447632,0.23931673169136047,-0.1847723424434662,-0.6148014664649963,3.855964183807373,-2.7791736476865045,-1.362032537323068,-1.3706283261222196
1687093945.946676,0.12750393152236938,0.9784825444221497,0.1622176468372345,0.8929886221885681,-0.017346739768981934,0.5247025489807129,0.8024398684501648,0.48855626583099365,4.216826915740967,2.4754434808087153,-1.362974068677686,-2.411924946853184
1687093945.966171,0.3347029983997345,0.9343119263648987,0.12262015044689178,0.5890642404556274,0.9309532642364502,-0.009705036878585815,0.7112492322921753,-0.13434314727783203,4.135253429412842,1.9219664569802732,-1.2063237571124994,-2.9895830389211633
1687093946.034626,0.5016087293624878,0.8517963290214539,0.1511012613773346,0.8864374756813049,-0.030629396438598633,0.4944218397140503,-1.7216918468475342,0.04771973937749863,3.884533166885376,1.8633842329215182,-1.0194047867354545,-3.0634150962162057
1687093946.0382152,0.6534912586212158,0.7383074760437012,0.16688761115074158,0.31060487031936646,1.2764477729797363,-0.051271796226501465,0.7809759378433228,-0.07020702958106995,3.3927299976348877,1.8208306733876276,-0.830557506095823,-3.093733465076031
1687093946.041822,0.7554439902305603,0.6334090828895569,0.16762353479862213,0.45505112409591675,0.5683579444885254,0.25002479553222656,-0.47324222326278687,0.04735834524035454,2.764312505722046,1.789146218563292,-0.6859508873055273,3.121606192636045
1687093946.0939422,0.8223026394844055,0.5405986905097961,0.17768441140651703,-0.015936553478240967,0.8832905888557434,0.05888785421848297,1.709999918937683,1.2363463640213013,2.3653182983398438,1.783606003835128,-0.5711485681139165,3.0714199375012643
1687093946.1873379,0.8601273894309998,0.46984434127807617,0.19856266677379608,0.16733837127685547,0.19057127833366394,-0.04695132374763489,0.9308940172195435,1.114151954650879,1.7836440801620483,1.7976743539402031,-0.4891144259663581,2.9696128229092302
1687093946.1918979,0.8786525726318359,0.4124819338321686,0.2404751479625702,0.13350868225097656,0.3319638669490814,0.04918240010738373,0.7062312960624695,1.072577953338623,1.442452311515808,1.8379407677453536,-0.4251768998621408,2.932778993832764
1687093946.2438931,0.890930712223053,0.37319186329841614,0.25878602266311646,-0.08767759799957275,0.29805752635002136,-0.20377805829048157,0.42004624009132385,0.7829523682594299,0.9156002402305603,1.8534845185161035,-0.3824470568090428,2.8654518396431383
1687093946.341158,0.8971020579338074,0.3350098133087158,0.2880561053752899,0.10565978288650513,0.49317625164985657,-0.2175757884979248,0.1646602898836136,0.5264135003089905,0.7380281686782837,1.8814933723443314,-0.34161564183321286,2.858539373311257
1687093946.346538,0.9009535312652588,0.3201560378074646,0.2928875982761383,0.02966487407684326,0.2826424539089203,-0.19086727499961853,0.40636178851127625,0.18865396082401276,0.1147235780954361,1.8851062342366331,-0.3258941951999399,2.8124647364973994
1687093946.392612,0.9005495309829712,0.32229751348495483,0.29177841544151306,-0.07845187187194824,-0.02569720149040222,0.09811410307884216,0.5492427349090576,0.04259781166911125,0.02200855314731598,1.8841238547195767,-0.32815551612886384,2.789432089097529
1687093946.492796,0.901308536529541,0.3265467882156372,0.28462323546409607,-0.03212195634841919,-0.12336072325706482,-0.02346906065940857,0.3068101108074188,0.11962123215198517,0.21491862833499908,1.876674673770469,-0.3326477815038501,2.7509238580370656
1687093946.512426,0.9021212458610535,0.32086876034736633,0.28847962617874146,-0.004904448986053467,0.04157325625419617,0.06618043780326843,0.06892897188663483,0.014856996014714241,-0.04281119257211685,1.8802989821062122,-0.32664660174079113,2.7496811603292852
1687093946.5443301,0.9012457728385925,0.3272671699523926,0.283993661403656,0.07681208848953247,0.10704374313354492,-0.14786997437477112,0.47339221835136414,-0.008151782676577568,0.003748321905732155,1.8760593482332975,-0.33341001673594,2.7354901102163223
1687093946.6679611,0.9001254439353943,0.33242353796958923,0.2815478444099426,-0.0030305981636047363,-0.06681373715400696,0.046317845582962036,0.1783684492111206,0.024540383368730545,-0.05226141959428787,1.8739429382490786,-0.3388720744976988,2.7216054871302706
1687093946.6890988,0.8996227979660034,0.33697599172592163,0.2777164876461029,0.021901488304138184,-0.023865550756454468,-0.08641701936721802,0.11504799127578735,-0.05583634600043297,-0.0068758269771933556,1.8702185248903167,-0.3437031829240692,2.7166346869236215
1687093946.750153,0.9002447724342346,0.336527556180954,0.27624034881591797,-0.009711265563964844,-0.03389999270439148,0.07738208770751953,0.07244980335235596,0.11181336641311646,0.052183229476213455,1.8685258600811088,-0.3432269366739086,2.7081592148229605
1687093946.753778,0.8997121453285217,0.3370779752731323,0.27730226516723633,-0.0045858025550842285,0.010090023279190063,-0.0003857612609863281,-0.03405893221497536,-0.02936559170484543,-0.0620645135641098,1.8697701095917312,-0.3438114919740916,2.7078163732893623
1687093946.8747401,0.8997227549552917,0.33808353543281555,0.2760410010814667,0.004406332969665527,0.039159536361694336,-0.03891944885253906,0.09421695023775101,0.004700899124145508,0.04356497526168823,1.8684860666492336,-0.3448797620102248,2.708357273398691
1687093946.880952,0.8995879888534546,0.33715614676475525,0.27760952711105347,0.005654871463775635,-0.009763598442077637,0.03295263648033142,0.05030488595366478,0.015410534106194973,-0.0032826904207468033,1.8701208611365607,-0.3438945380611395,2.7051697701486876
1687093946.967545,0.900073230266571,0.33808237314224243,0.2748969793319702,0.02689814567565918,0.01387682557106018,-0.0586494505405426,0.06282247602939606,-0.07822633534669876,0.028538357466459274,1.8672147018810905,-0.34487852978388117,2.7034949874439054
1687093946.9886189,0.9006381630897522,0.33724531531333923,0.2740742266178131,-0.0015139579772949219,-0.04679426550865173,0.025471091270446777,-0.09815569221973419,0.01644464023411274,0.002087574452161789,1.8662035812115263,-0.34398926512022004,2.7002005378059586
1687093947.05084,0.9012131094932556,0.33677366375923157,0.2727609872817993,0.008409082889556885,0.03792116045951843,-0.031153321266174316,-0.13671906292438507,-0.11901598423719406,-0.06534552574157715,1.8646915214268334,-0.343488287860201,2.708758705680906
1687093947.068635,0.9017335176467896,0.3392208218574524,0.26796603202819824,0.031036198139190674,0.020489871501922607,-0.08818700909614563,-0.40821516513824463,-0.23750615119934082,-0.213894784450531,1.8596526057124085,-0.3460884717266932,2.717580158079512
1687093947.141856,0.9031190872192383,0.3457447290420532,0.2546306848526001,0.08368217945098877,0.33157771825790405,-0.1552501618862152,-0.5543187260627747,-0.7894359230995178,-0.5175843834877014,1.845608519215485,-0.35303234055405525,2.750683972786922
1687093947.145436,0.9021503329277039,0.37339088320732117,0.21611176431179047,0.03533458709716797,0.7599557042121887,-0.4091354310512543,-0.5033413171768188,-1.1319286823272705,-1.0180115699768066,1.805917509023819,-0.3826615922330198,2.7779253614811394
1687093947.236092,0.8859192132949829,0.430563747882843,0.1725175380706787,0.18953555822372437,1.0349056720733643,-0.2357041835784912,-1.2516080141067505,-1.6990176439285278,-2.022587299346924,1.763122187917748,-0.44511730295763147,2.846901639210405
1687093947.2405329,0.8410395979881287,0.527891218662262,0.11825104802846909,0.41517072916030884,1.1629046201705933,-0.20530247688293457,-0.3722023367881775,-1.45968759059906,-2.913973093032837,1.7104817198290718,-0.5561157246963627,2.908899909524212
1687093947.325539,0.7497342824935913,0.656509518623352,0.08302765339612961,0.6036897301673889,0.7330320477485657,0.24331210553646088,-1.345003366470337,-1.287886381149292,-3.842803955078125,1.6810896903799213,-0.7161820158415407,2.9785781061097896
1687093947.42027,0.6015456914901733,0.7940372824668884,0.08745095133781433,0.8462234735488892,0.8506618142127991,0.2932710647583008,-0.12778203189373016,-0.39913418889045715,-4.341166019439697,1.7151620466795456,-0.9174221471298754,3.0884172647174952
1687093947.426137,0.40432146191596985,0.9100483655929565,0.09130294620990753,1.0191099643707275,0.49382132291793823,0.39632225036621094,-0.30481046438217163,0.0447404608130455,-4.8675103187561035,1.79288892667746,-1.1434007126944037,-3.0996665514849706
1687093947.505063,0.16398310661315918,0.9824385046958923,0.08901767432689667,1.2213470935821533,0.6067491173744202,0.3234884738922119,0.9431374669075012,0.41738221049308777,-5.01750373840332,2.0681309059841975,-1.3831097973524558,-2.8212617369474775
1687093947.510159,-0.08348428457975388,0.9964209198951721,0.01325099729001522,1.412448525428772,-0.030600666999816895,0.5949643850326538,1.4647104740142822,0.4792134761810303,-4.9638895988464355,-1.728207640224985,-1.4861652914486194,-0.3557245600920251
1687093947.591691,-0.3253369927406311,0.944955587387085,-0.0348556824028492,1.3518719673156738,0.01743149757385254,0.4247177839279175,1.2840441465377808,0.5927320718765259,-4.7304534912109375,-1.4640662767072046,-1.2374588228175698,-0.11157801592622356
1687093947.595897,-0.5242071747779846,0.8384467363357544,-0.1490429937839508,1.350455403327942,-0.25606459379196167,0.5985669493675232,2.7656171321868896,0.4095895290374756,-4.266564846038818,-1.293785454265613,-0.9944267882027447,0.04210757621154409
1687093947.6814342,-0.674888014793396,0.6931472420692444,-0.25312691926956177,1.1498329639434814,-0.4048171043395996,0.5189045667648315,3.086416006088257,0.07442152500152588,-3.617976427078247,-1.2119685999241634,-0.7658463010073677,0.13862610244771406
1687093947.6986132,-0.7837339639663696,0.49685242772102356,-0.3726913332939148,0.9948697686195374,-0.49499085545539856,0.6132004261016846,4.777139186859131,-0.2550186812877655,-3.455209970474243,-1.1269132084441897,-0.5199680748328902,0.284638926995115
1687093947.7435021,-0.8515598177909851,0.2819584012031555,-0.4419790208339691,0.5210544466972351,-0.5902469754219055,0.5033193230628967,3.276766777038574,-0.10300225764513016,-3.046480894088745,-1.0920465053452844,-0.2858347050935655,0.40759236332506577
1687093947.827653,-0.8782687187194824,0.07208215445280075,-0.47270333766937256,0.5251650214195251,-0.35531580448150635,0.41298043727874756,3.5450286865234375,-0.15235330164432526,-2.8626842498779297,-1.0770408598436325,-0.07214472442235527,0.4881663227785153
1687093947.847604,-0.880179762840271,-0.11158228665590286,-0.4613383412361145,0.478659987449646,-0.48372411727905273,0.11577257513999939,2.5051639080047607,-0.4817436933517456,-2.428995370864868,-1.0880229114119355,0.11181513461103061,0.5437635761960996
1687093947.892631,-0.8735755085945129,-0.2650347650051117,-0.40819427371025085,0.25564026832580566,-0.6408489942550659,0.30638766288757324,2.835327386856079,-0.5739627480506897,-1.6618272066116333,-1.1336751115351051,0.26823998464461835,0.6339512437330487
1687093947.9836159,-0.8632969260215759,-0.349721759557724,-0.36388641595840454,0.12965428829193115,-0.5726109743118286,0.19248443841934204,1.2602466344833374,-0.3617302477359772,-0.6955605149269104,-1.1718872985512467,0.35727410300434265,0.6807542541097079
1687093948.00219,-0.8577626943588257,-0.4000285565853119,-0.3228316307067871,0.05905669927597046,-0.4390369951725006,0.344666987657547,1.2970890998840332,0.10384279489517212,-0.34614551067352295,-1.2108296957669797,0.41154800813855696,0.772678078919859
1687093948.042162,-0.8454406261444092,-0.4260580837726593,-0.32203227281570435,0.13177180290222168,-0.032743215560913086,-0.19102925062179565,0.5633334517478943,-0.060600340366363525,-0.5171279311180115,-1.206859069220596,0.4401310977146302,0.7727321186752127
1687093948.135222,-0.8408147096633911,-0.46254029870033264,-0.2812241017818451,-0.09930974245071411,-0.19200068712234497,0.23949137330055237,1.2938157320022583,-0.016667107120156288,-0.14334417879581451,-1.2480265328644833,0.48085828813080483,0.8491130897297768
1687093948.1542392,-0.838799238204956,-0.4636699855327606,-0.28535234928131104,0.028465986251831055,-0.206648588180542,0.022672325372695923,-0.24430277943611145,0.13790635764598846,0.15432079136371613,-1.2428862013819204,0.48213290082167487,0.8543304133507083
1687093948.1878219,-0.8412744402885437,-0.4640563428401947,-0.2773251533508301,0.01633840799331665,-0.0025727450847625732,0.03410002589225769,1.0086822509765625,0.2326296716928482,0.13777697086334229,-1.252365469544118,0.4825689958277172,0.8900358813583739
1687093948.281337,-0.8396852016448975,-0.4624756872653961,-0.28468412160873413,0.08294081687927246,-0.04138478636741638,0.01863187551498413,-0.5360558032989502,0.09707343578338623,0.03950152546167374,-1.243921536827575,0.48078542550376946,0.8921205434076379
1687093948.300056,-0.8404919505119324,-0.4420340657234192,-0.3133358061313629,0.0850139856338501,-0.3591133952140808,0.21558797359466553,-1.6083227396011353,0.20658966898918152,0.31775739789009094,-1.213955398016446,0.45786503279669793,0.8413212801323536
1687093948.339563,-0.8456615209579468,-0.38380831480026245,-0.37087446451187134,0.1312602162361145,-0.5365103483200073,0.3413029909133911,-1.6783556938171387,0.6943061947822571,1.0574983358383179,-1.1574953652061961,0.3939169549400757,0.763299681994895
1687093948.435915,-0.8532822132110596,-0.29681798815727234,-0.42872902750968933,0.35300755500793457,-0.49219876527786255,0.3076810836791992,-0.7361739873886108,1.0403025150299072,1.937680959701538,-1.1051930728513315,0.30135875139593515,0.7449336754653186
1687093948.4397779,-0.8547595143318176,-0.1695355325937271,-0.4905547797679901,0.40697503089904785,-0.5377093553543091,0.4784088134765625,-3.1355488300323486,0.9398820400238037,2.154794931411743,-1.0497818178531544,0.17035835773746005,0.7170054904105823
1687093948.494443,-0.8451271057128906,0.029011471197009087,-0.5337774753570557,0.5166359543800354,-0.26877284049987793,0.41106629371643066,-3.7923977375030518,0.4671775996685028,2.657766580581665,-1.0074691066806802,-0.029015543249750867,0.6168363472272066
1687093948.586732,-0.8039275407791138,0.24255982041358948,-0.5430150032043457,0.574984610080719,-0.417929083108902,0.6249699592590332,-3.4893887042999268,0.941730797290802,3.327404260635376,-0.9767357320488925,-0.2450035986049414,0.560469923327794
1687093948.591837,-0.7127879858016968,0.48441290855407715,-0.5072251558303833,0.724735677242279,-0.29492929577827454,0.3385545611381531,-3.605797052383423,0.7583922743797302,3.8570516109466553,-0.9523226483019349,-0.5056919472307705,0.49771485369956925
1687093948.708033,-0.5802789926528931,0.6873483061790466,-0.43683934211730957,0.8380762338638306,-0.2815713882446289,0.6186478137969971,-3.9076924324035645,0.8555248975753784,3.7683355808258057,-0.9254997469287058,-0.7578319242557969,0.4767369262445996
1687093948.801196,-0.4269309937953949,0.8773636221885681,-0.219004288315773,0.9222923517227173,-0.19062668085098267,0.4769236445426941,-6.873227119445801,-0.07256273180246353,3.55484938621521,-1.0968238497998906,-1.0703398306891636,0.24817494377077945
1687093948.822793,-0.2579648494720459,0.9654661417007446,0.03645512834191322,0.9032742977142334,0.35257261991500854,0.3371715545654297,-2.75343918800354,-0.7348891496658325,3.784343719482422,-1.7111849009965545,-1.3072266898373652,-0.3822466189309709
1687093948.826373,-0.06687740236520767,0.9964948296546936,0.0502530001103878,0.8697490692138672,0.06566941738128662,0.488092303276062,0.6256977319717407,-0.4283205568790436,3.9044835567474365,-2.215205462988583,-1.4870443958535133,-0.8633060159473012
1687093948.883471,0.12813225388526917,0.9906910061836243,0.045972298830747604,0.7917895913124084,0.31170767545700073,0.287996768951416,0.2517651617527008,0.4062850773334503,3.98225998878479,1.9152784213427116,-1.4342423892713871,-3.0203488485650025
1687093948.8997278,0.3132137060165405,0.9463735818862915,0.07920843362808228,0.7314945459365845,0.23068928718566895,0.408905029296875,-1.9497140645980835,0.18320699036121368,3.6357169151306152,1.8184925858811067,-1.2418201529543564,-3.133863812222673
1687093948.943976,0.4782634377479553,0.8633489608764648,0.16091251373291016,0.7992329597473145,0.48287296295166016,0.18895626068115234,-0.6141234636306763,0.07566574960947037,3.696723699569702,1.8953507279203607,-1.0418691856507305,-3.0605930262109875
1687093949.03411,0.6247766613960266,0.763547420501709,0.16324646770954132,0.6266576647758484,0.42413562536239624,0.25377631187438965,-0.25355640053749084,0.5620854496955872,3.5166964530944824,1.8263701854060705,-0.8687888933193366,3.122740240831905
1687093949.052627,0.7432461380958557,0.642339289188385,0.1870444416999817,0.31652259826660156,1.0671486854553223,-0.17450165748596191,0.7891151905059814,0.012216338887810707,3.316068649291992,1.8173356130937242,-0.6975465938931714,3.0886306853456453
1687093949.091964,0.8243523240089417,0.5425723195075989,0.16142742335796356,0.2870216369628906,0.6128385066986084,0.12713158130645752,1.559815526008606,1.3141411542892456,2.531393051147461,1.7641726718356352,-0.5734963338541536,2.9376802839419707
1687093949.183598,0.8693066835403442,0.4569401443004608,0.18844561278820038,0.11703675985336304,0.8270258903503418,-0.0763087272644043,0.5429517030715942,0.8154535293579102,1.7093322277069092,1.7842702759460445,-0.47455217074259276,2.879760500421808
1687093949.202874,0.8942253589630127,0.39810582995414734,0.204629048705101,0.12329185009002686,0.4721487760543823,-0.05608472228050232,1.6623589992523193,1.3343888521194458,1.479812502861023,1.7957568954168426,-0.409451059886718,2.767618971372454
1687093949.274126,0.9015377163887024,0.3581857681274414,0.2427603006362915,-0.05432409048080444,0.3795613944530487,-0.1990744173526764,0.3382830023765564,1.109418272972107,0.6959549784660339,1.8338309873700058,-0.36632401338260767,2.711403905686876
1687093949.363822,0.9008960127830505,0.34013426303863525,0.2696201801300049,0.05924797058105469,0.44605955481529236,-0.34490707516670227,0.4356170892715454,0.5779837369918823,0.579306960105896,1.86159245906607,-0.3470596593663426,2.669121952449392
1687093949.383347,0.8999987840652466,0.3420616388320923,0.2701779901981354,-0.04366028308868408,0.06751477718353271,-0.09486973285675049,0.6806250810623169,-0.023411164060235023,-0.05319858342409134,1.8624349249172378,-0.34911002388169177,2.6337992619844117
1687093949.456011,0.902675449848175,0.3477783799171448,0.2534312605857849,-0.01990872621536255,0.06401056051254272,-0.0004404783248901367,0.8331981897354126,-0.07577956467866898,0.2621750831604004,1.8445056187817068,-0.35520053735296186,2.5997200778121647
1687093949.4597812,0.905168354511261,0.3458733856678009,0.24706704914569855,-0.023179709911346436,-0.14895868301391602,0.1928286850452423,0.5139174461364746,0.22570039331912994,0.11124202609062195,1.8372570488372637,-0.35316947584114455,2.5603402991710404
1687093949.463365,0.9020719528198242,0.3528026342391968,0.2485887110233307,0.03287971019744873,0.042888253927230835,-0.09645858407020569,0.5610839128494263,0.1828545182943344,-0.05435892194509506,1.8396972610764952,-0.36056465075794586,2.5361815428569994
1687093949.5107,0.9003086686134338,0.3593008816242218,0.24565687775611877,-0.0015354752540588379,-0.10011506080627441,-0.06453502178192139,0.2787124812602997,0.15666912496089935,0.03031308576464653,1.8371705156809905,-0.3675186269296155,2.5065692859771884
1687093949.5758,0.8997339606285095,0.3587070107460022,0.2486122101545334,0.0480504035949707,-0.0027347207069396973,-0.052567258477211,-0.11360256373882294,-0.033521853387355804,-0.024364806711673737,1.8403869632404766,-0.36688233670551706,2.50518748333172
1687093949.665401,0.9001577496528625,0.3597482740879059,0.24555541574954987,0.0050852298736572266,0.045372575521469116,0.029392719268798828,0.20981326699256897,0.033948663622140884,0.013272849842905998,1.837108193763562,-0.36799808945127066,2.501818622708177
1687093949.750474,0.9000821113586426,0.3625922203063965,0.24161839485168457,0.006000220775604248,0.0510583221912384,-0.015528887510299683,0.18507608771324158,-0.038976673036813736,-0.09199045598506927,1.8330539664089114,-0.3710479092849779,2.49204651611511
1687093949.769028,0.8981927037239075,0.37218618392944336,0.23393844068050385,0.010590195655822754,0.15560007095336914,-0.05559375882148743,0.91622394323349,0.01458468846976757,-0.07277601957321167,1.8255901857701695,-0.3813633114255664,2.474291334126646
1687093949.838134,0.8989806771278381,0.3930191695690155,0.19331233203411102,-0.006539881229400635,0.2573104202747345,-0.11208975315093994,4.246642112731934,0.2882557809352875,0.334977388381958,1.7826059529749059,-0.4039126734174506,2.341673725422485
1687093949.84169,0.9066994786262512,0.4091797173023224,0.10231269150972366,-0.002570509910583496,0.061553895473480225,0.06088005751371384,6.393078804016113,0.522967517375946,0.862109363079071,1.6831618112381255,-0.42155488108631556,2.0444742617184195
1687093949.936349,0.9263695478439331,0.37658703327178955,-0.004639678634703159,-0.002465188503265381,-0.06857317686080933,0.16182047128677368,6.894560813903809,0.7071791291236877,1.1576679944992065,1.5657879155054384,-0.3861093250788704,1.6703931870012618
1687093949.9408631,0.9470977187156677,0.31047528982162476,-0.0813087597489357,-0.01460254192352295,-0.11746692657470703,0.1553139090538025,5.421993255615234,0.6061652898788452,1.0274235010147095,1.485155866648013,-0.31569300284987784,1.338649943195584
1687093949.993221,0.96247398853302,0.24638500809669495,-0.11374643445014954,-0.06766808032989502,-0.10572952032089233,0.16968518495559692,2.766437292098999,0.47830480337142944,0.7894763946533203,1.453160657227507,-0.24894849045078937,1.1289470847678063
