Timestamp,gravityX,gravityY,gravityZ,accelerationX,accelerationY,accelerationZ,rotationRateX,rotationRateY,rotationRateZ,attitudeRoll,attitudePitch,attitudeYaw
1687007322.562372,0.0308921430259943,0.25199615955352783,-0.9672350287437439,-0.005684597417712212,0.011675655841827393,-0.012348711490631104,0.013358840718865395,-0.0011254465207457542,0.0030524814501404762,0.03192775807334841,-0.2547424234152282,1.3988773581589264
1687007322.658268,0.030604448169469833,0.25234362483024597,-0.9671536087989807,-0.003916798159480095,0.010565221309661865,0.0005856156349182129,-0.0033765295520424843,-0.00867963582277298,0.009722900576889515,0.03163327842800384,-0.2551014910639561,1.3990415302044668
1687007322.676381,0.03020392917096615,0.2525845766067505,-0.9671033024787903,-0.0008002147078514099,-0.00040268898010253906,0.008256256580352783,-0.011477531865239143,-0.012973850592970848,0.005351056344807148,0.031221188794828242,-0.2553505305688733,1.3994898590765594
1687007322.714678,0.02985468879342079,0.25272467732429504,-0.9670774936676025,-0.0002983883023262024,-8.672475814819336e-06,-0.00026869773864746094,0.008242509327828884,-0.014052696526050568,0.009552725590765476,0.0308612391268689,-0.2554953194460767,1.3998283558442934
1687007322.803296,0.029669994488358498,0.25228920578956604,-0.9671968817710876,0.00356367789208889,-0.010452747344970703,0.0048403143882751465,-0.03010161593556404,-0.01443259697407484,0.0014154361560940742,0.030666653828120026,-0.25504527216586076,1.4003112783451128
1687007322.818277,0.029093243181705475,0.25299233198165894,-0.9670307636260986,-0.0008644573390483856,0.0010816752910614014,-0.006953001022338867,-0.0013782931491732597,-0.005358541384339333,-0.005420365370810032,0.030076056510705634,-0.25577196945276126,1.4003537140259812
1687007322.8641381,0.028721937909722328,0.25344932079315186,-0.9669221639633179,-0.00786314345896244,0.002333700656890869,-0.010876297950744629,-0.008024144917726517,-0.0012478189310058951,-0.002532433718442917,0.029695766299839218,-0.25624435094020315,1.4001385834662978
1687007322.957799,0.028465136885643005,0.25342464447021484,-0.9669362306594849,-0.0004957467317581177,-0.007849782705307007,0.0035115480422973633,-0.007307754829525948,-0.012522843666374683,0.00319682527333498,0.029429985257008406,-0.2562188502137015,1.4001323235805794
1687007322.974352,0.02791508287191391,0.25377339124679565,-0.9668607711791992,-0.0022192541509866714,-0.0032241344451904297,0.006060600280761719,-0.020680218935012817,-0.004941224120557308,0.003691374324262142,0.028863854449528985,-0.25657937026586397,1.4001817398334595
1687007323.012209,0.02766367420554161,0.2544320523738861,-0.9666948914527893,1.5795230865478516e-05,0.003243058919906616,0.008336126804351807,0.004011345561593771,-0.01358651090413332,0.0038559576496481895,0.028608950448893566,-0.2572603875950504,1.4003867540041641
1687007323.106117,0.027067814022302628,0.25414741039276123,-0.9667866230010986,0.00312935933470726,-0.0059938132762908936,0.010838806629180908,-0.02906225435435772,-0.02364380657672882,0.008946056477725506,0.027990399396896667,-0.2569660643944852,1.4006087324374803
1687007323.121721,0.026470528915524483,0.2551700174808502,-0.9665337800979614,-0.003200843930244446,0.008227139711380005,-0.0030707120895385742,0.010377698577940464,-0.0007581966347061098,0.0014087781310081482,0.02738022597674052,-0.2580235240481563,1.4006781451625365
1687007323.196624,0.026838896796107292,0.25460776686668396,-0.966671884059906,-0.0009294450283050537,-0.004516243934631348,-0.011874258518218994,0.0011393928434699774,0.002684604609385133,-0.004352171905338764,0.02775709584867559,-0.2574420662975991,1.4007647462331747
1687007323.200893,0.026544637978076935,0.25512009859085083,-0.9665449261665344,-0.002069508656859398,0.0052863359451293945,-0.008506953716278076,0.0037947639357298613,0.0037348223850131035,0.005935619585216045,0.02745652665776611,-0.25797190845253987,1.4007081323736048
1687007323.292532,0.026724515482783318,0.2543499171733856,-0.9667429327964783,-0.00015893392264842987,0.0046832263469696045,0.0024637579917907715,0.018462523818016052,0.0017017651116475463,-0.004566023126244545,0.027636829992066448,-0.25717544305013257,1.400617834828101
1687007323.379931,0.026433169841766357,0.2545279860496521,-0.9667040705680847,-0.0006763041019439697,0.007541626691818237,0.0018298029899597168,0.009262633509933949,-0.002566483337432146,-7.513444870710373e-05,0.02733678921510888,-0.25735959573921974,1.400544192572706
1687007323.3861918,0.02636888436973095,0.25418195128440857,-0.966796875,0.0034925956279039383,0.0021961629390716553,0.0078582763671875,0.0029655888210982084,-0.0009241116931661963,0.0002550967037677765,0.027267721419746094,-0.25700177769640764,1.400390430656461
1687007323.467173,0.02633470669388771,0.25426211953163147,-0.9667767286300659,0.0011921748518943787,-0.008580416440963745,0.004160761833190918,-0.018100280314683914,-0.00910880509763956,0.003899899311363697,0.027232964977344634,-0.25708465777122114,1.400554638747568
1687007323.473238,0.02597188390791416,0.25450342893600464,-0.9667230844497681,-3.191269934177399e-05,-0.004045754671096802,-0.010892271995544434,-0.008489532396197319,-0.0064292652532458305,-0.0073860445991158485,0.026859437455350382,-0.25733418780022166,1.400404331720169
1687007323.55807,0.025905966758728027,0.2544792890548706,-0.9667311906814575,-0.022487971931695938,0.01760011911392212,0.0043135881423950195,0.012977875769138336,0.0030597110744565725,0.007882124744355679,0.02679107541848291,-0.2573092266547046,1.4002681160033958
1687007323.5749412,0.026253188028931618,0.25398197770118713,-0.966852605342865,0.013175547122955322,-0.002059459686279297,0.0029243826866149902,0.007319990545511246,-0.0023523648269474506,-0.005098655354231596,0.027146578331973877,-0.2567950302173974,1.4004544061474318
1687007323.644199,0.0256576556712389,0.2540278434753418,-0.9668565392494202,-0.011985747143626213,0.00930824875831604,0.004072666168212891,0.010359522886574268,0.003789284033700824,0.0004401868209242821,0.026530962811798505,-0.2568424563003138,1.4002003913793213
1687007323.648361,0.02742425538599491,0.252552330493927,-0.9671944975852966,0.013026822358369827,0.004390358924865723,0.01442044973373413,0.047933731228113174,0.038379620760679245,-0.019058680161833763,0.028346840421285914,-0.2553171925180276,1.4003785448274633
1687007323.7037358,0.02917034924030304,0.24919980764389038,-0.9680126905441284,0.0020949356257915497,-0.02262212336063385,0.002558588981628418,-0.0014037932269275188,0.01325202826410532,-0.0030426951125264168,0.030125147391269126,-0.2518539056769942,1.3995859481005444
1687007323.771716,0.03409569710493088,0.2460663765668869,-0.9686530828475952,0.02506265416741371,0.030621185898780823,0.020838141441345215,0.09318409860134125,0.04597055912017822,0.0289250910282135,0.03518455447202989,-0.24861974687050525,1.3992269505096904
1687007323.8574538,0.03425675630569458,0.24360541999340057,-0.9692692756652832,-0.022553235292434692,-0.011961817741394043,-0.004165172576904297,0.016478268429636955,0.031371377408504486,-0.02572030946612358,0.035328164131198395,-0.24608153159510798,1.3991229835374925
1687007323.875109,0.035427115857601166,0.239315003156662,-0.9702954292297363,0.0058784522116184235,0.005573242902755737,-0.005092144012451172,0.12047770619392395,0.008265125565230846,-0.0042387209832668304,0.036495468195458305,-0.24166029872978106,1.3989354211764171
1687007323.9431438,0.035739876329898834,0.2361351102590561,-0.9710627198219299,-0.021182961761951447,0.01810675859451294,-0.005530297756195068,0.0977703258395195,0.018169822171330452,0.015263075940310955,0.03678830558816547,-0.23838655189150929,1.398805959533874
1687007323.957,0.03750081732869148,0.23050755262374878,-0.9723476767539978,0.017278261482715607,0.0001595020294189453,0.010784506797790527,0.07466793805360794,0.012272518128156662,-0.00608722073957324,0.03854818928073902,-0.23259924744769211,1.3993100080968155
1687007324.002085,0.03729526326060295,0.22847169637680054,-0.972835898399353,0.0002413913607597351,-0.018816009163856506,-0.0005222558975219727,0.01929629221558571,0.01014731451869011,0.002920389175415039,0.03831787625569604,-0.2305075748755179,1.3988502565691276
1687007324.099431,0.03951946645975113,0.22483780980110168,-0.9735944867134094,0.01100241020321846,-0.014907464385032654,0.007880926132202148,0.07720593363046646,0.021421274170279503,0.0010814759880304337,0.04056902880491973,-0.22677658069938464,1.3993232484061389
1687007324.104924,0.040287215262651443,0.22037217020988464,-0.9745835065841675,0.011501140892505646,-0.016118094325065613,-0.0019332170486450195,0.0634862557053566,0.008484169840812683,-0.0018203044310212135,0.04131435697773274,-0.22219601051494298,1.3990175094599522
1687007324.150645,0.04078754037618637,0.2200738936662674,-0.9746301174163818,0.005599208176136017,-0.00602366030216217,-0.005350351333618164,-0.013965724036097527,0.0030607765074819326,-0.012173608876764774,0.04182484435475531,-0.22189022278294876,1.3987379391658057
1687007324.279897,0.04197365790605545,0.21723008155822754,-0.9752175807952881,0.005008179694414139,0.009256064891815186,0.016202688217163086,0.08238917589187622,0.04249686747789383,0.024064820259809494,0.04301375569797164,-0.2189758847143849,1.3990069302414132
1687007324.2857718,0.04278288409113884,0.21550914645195007,-0.975564181804657,-0.005475122481584549,0.0004179030656814575,-0.007391750812530518,0.007141025736927986,-0.005900494754314423,-0.003259209915995598,0.04382642539175666,-0.21721319900756664,1.3996619469107983
1687007324.368813,0.04372982308268547,0.21484901010990143,-0.9756677746772766,-0.0021038204431533813,0.014673635363578796,0.011937916278839111,0.02523687109351158,0.02344873920083046,0.002377370372414589,0.044790427857783956,-0.21653722946092493,1.399417356717257
1687007324.385306,0.04267636314034462,0.21577614545822144,-0.9755098223686218,-0.016690615564584732,0.006178125739097595,-0.007064640522003174,-0.022327249869704247,-0.01869538426399231,-0.007489641662687063,0.04371987716371296,-0.21748663560667286,1.3992018546856972
1687007324.456218,0.04315010830760002,0.2150706946849823,-0.9756447672843933,0.0006579011678695679,-0.004392683506011963,-0.0050376057624816895,0.011859215795993805,0.006741264835000038,0.009773501195013523,0.04419847162034122,-0.2167642160671158,1.3991223238450792
1687007324.4702048,0.04293455928564072,0.2141900211572647,-0.9758479595184326,-0.0011864863336086273,-0.007662370800971985,-0.012952089309692383,0.0226456169039011,-0.0022632821928709745,-0.015141702257096767,0.043968823859262825,-0.21586252837152717,1.3991413232707879
1687007324.5139189,0.04331652820110321,0.21341261267662048,-0.9760013818740845,-0.004543915390968323,-0.002856642007827759,0.0033451318740844727,-0.016659244894981384,-0.001401882735081017,-0.005940746981650591,0.0443525192520716,-0.21506671518959405,1.3989458989773553
1687007324.636104,0.043471433222293854,0.21285784244537354,-0.9761156439781189,-0.010298795998096466,0.0036490559577941895,0.0073656439781188965,0.055357757955789566,0.022802922874689102,0.008146575652062893,0.04450571641945458,-0.2144988967486861,1.3989166094475223
1687007324.652803,0.04458875581622124,0.2121707648038864,-0.9762148261070251,0.006863906979560852,-0.006665453314781189,0.0055117011070251465,-0.045937974005937576,0.004239091649651527,0.002883637323975563,0.04564342355142214,-0.2137957635506993,1.3992888020660126
1687007324.7282948,0.04379153251647949,0.2142041027545929,-0.9758067727088928,-0.010756228119134903,-0.004151672124862671,0.004706919193267822,-0.02294383943080902,-0.01397373341023922,0.008403037674725056,0.044847165509317444,-0.21587694737789923,1.399048172298351
1687007324.73319,0.044692039489746094,0.21304652094841003,-0.9760193824768066,-0.002638787031173706,-0.0023379623889923096,0.0003418922424316406,-8.29668715596199e-06,0.011813920922577381,0.009411844424903393,0.04575815213729069,-0.2146920091621712,1.3998901320185622
1687007324.8159509,0.044293113052845,0.2143278419971466,-0.9757570028305054,-0.0026060715317726135,0.003613382577896118,-0.007717728614807129,0.011516200378537178,0.001996577251702547,-0.016465026885271072,0.04536244987079753,-0.21600362785254004,1.3994563152317534
1687007324.820555,0.045130036771297455,0.21308429539203644,-0.9759909510612488,-0.004312749952077866,0.011082515120506287,-0.007300674915313721,0.02086835727095604,0.00973505713045597,0.009261108003556728,0.04620730731674286,-0.21473067241193397,1.3999139924755475
1687007324.904783,0.045018479228019714,0.21356090903282166,-0.9758919477462769,0.0036570876836776733,-0.0011586397886276245,0.010834574699401855,-0.03333016484975815,-0.0034718248061835766,-0.010896090418100357,0.046097918041760104,-0.21521851832569686,1.399916942823098
1687007324.917097,0.04504429176449776,0.21385006606578827,-0.9758273959159851,-0.0030368156731128693,-0.008665204048156738,-0.0012233257293701172,-0.027753908187150955,-0.0017306499648839235,0.003948901779949665,0.04612735529598622,-0.21551451762291687,1.3998747661187332
1687007324.998252,0.045021723955869675,0.21574975550174713,-0.9754102230072021,-0.011376067996025085,-0.003866255283355713,-0.0011827945709228516,-0.03319614380598068,0.007733558304607868,8.971523493528366e-05,0.04612397093772025,-0.21745959856553315,1.3998430951235428
1687007325.002361,0.04625853896141052,0.21488939225673676,-0.9755422472953796,-0.0034728683531284332,-0.005844041705131531,0.0023519396781921387,-0.000975755974650383,0.008294153958559036,0.009299458004534245,0.0473827898628214,-0.21657857587207013,1.4002094528003333
1687007325.054558,0.046483658254146576,0.21538636088371277,-0.9754219651222229,0.002375006675720215,0.007040947675704956,-0.0010337233543395996,0.00405169278383255,0.006222880445420742,0.016357898712158203,0.04761889780412767,-0.21708746264545417,1.4007326953035384
1687007325.144143,0.047397077083587646,0.21514317393302917,-0.9754316806793213,-0.016971029341220856,-0.01946452260017395,-0.001146078109741211,-0.028919439762830734,0.009542777203023434,-0.005716508720070124,0.048552686339215986,-0.2168384286960298,1.4003267088556957
1687007325.161847,0.045757655054330826,0.21938636898994446,-0.9745644330978394,-0.030437801033258438,0.02367083728313446,0.0036019086837768555,-0.00452435202896595,0.02038983255624771,-0.01687648519873619,0.046917446147197575,-0.221185466094179,1.3994389183032012
1687007325.2054682,0.04646584764122963,0.21985504031181335,-0.9744253158569336,-0.005175534635782242,0.03290674090385437,-0.0037240982055664062,0.013235803693532944,0.04261723905801773,-0.007831858471035957,0.04764929239375838,-0.22166586980537803,1.3991899706003288
1687007325.291862,0.04761567339301109,0.2218550592660904,-0.9739163517951965,0.0065072812139987946,-0.011695817112922668,0.010262787342071533,-0.07750508934259415,-0.0029075010679662228,-0.0092270877212286,0.04885202795632272,-0.22371652746311269,1.3985054256970892
1687007325.309287,0.0467439703643322,0.2245130091905594,-0.9733493328094482,-0.01276262104511261,0.0065355002880096436,0.009772062301635742,-0.0696820467710495,-0.035427093505859375,-0.011554691009223461,0.047986971574434836,-0.2264432643749589,1.3980885480486949
1687007325.3536,0.04634062200784683,0.22779472172260284,-0.97260582447052,-0.0004116371273994446,0.0032538026571273804,0.00045311450958251953,-0.0009388718754053116,0.07558957487344742,-0.004109025001525879,0.04760983644672305,-0.2298122525576688,1.3981199714075918
1687007325.4477038,0.047440655529499054,0.22743873298168182,-0.9726361036300659,-0.012986283749341965,0.030846714973449707,-0.020253300666809082,0.025377552956342697,0.030073752626776695,-0.013403723016381264,0.04873671451269893,-0.22944668079790376,1.397256089582464
1687007325.453915,0.047610361129045486,0.22822436690330505,-0.9724437594413757,-0.0019407793879508972,-0.005095168948173523,0.009904086589813232,-0.012162631377577782,0.019491681829094887,0.0005893241614103317,0.048920438271025914,-0.2302535279336183,1.39729953165447
1687007325.5056272,0.047615353018045425,0.22836966812610626,-0.9724094271659851,-0.0007250644266605377,0.010720238089561462,-0.006563961505889893,0.010234154760837555,-0.005564670078456402,-0.01169956661760807,0.04892728587013871,-0.2304027640902989,1.397289665231826
1687007325.596459,0.04541909694671631,0.2288554608821869,-0.9724002480506897,0.004873901605606079,0.015330880880355835,0.0021396279335021973,0.02223835326731205,-0.050332143902778625,-0.01332436129450798,0.046674307246475304,-0.23090177462484912,1.3968411097155722
1687007325.6030478,0.042889416217803955,0.22829404473304749,-0.9726470708847046,0.005664080381393433,-0.01093265414237976,-0.0006042718887329102,-0.004122613929212093,-0.06512267142534256,-0.010227371007204056,0.044067010890894855,-0.23032509966023454,1.3963760068535052
1687007325.6568332,0.04101282358169556,0.2280869483947754,-0.9727765917778015,0.001818627119064331,-0.010603487491607666,-0.0019548535346984863,-0.030026117339730263,-0.052515532821416855,-0.011122725903987885,0.04213562313734621,-0.23011238035470458,1.3961273454132654
1687007325.748009,0.039127714931964874,0.22947238385677338,-0.9725283980369568,0.003291744738817215,-0.0018418282270431519,-0.010961592197418213,-0.03716491907835007,-0.032386165112257004,0.0018647117540240288,0.040211292432365264,-0.23153555991886132,1.3960971248590204
1687007325.753592,0.03716889023780823,0.23083561658859253,-0.9722825884819031,-0.004316695034503937,0.0073082298040390015,-0.003669559955596924,-0.01955316960811615,-0.03928028792142868,-0.003287173807621002,0.038209879239339314,-0.23293640418489125,1.3960839811067176
1687007325.83852,0.0356198213994503,0.23171639442443848,-0.9721310138702393,-0.002782881259918213,0.0016514509916305542,0.006295442581176758,-0.02100592479109764,-0.028045479208230972,0.008636864833533764,0.03662458392258677,-0.23384173228328048,1.3963478606125712
1687007325.929936,0.034583449363708496,0.232558012008667,-0.9719674587249756,0.003624584525823593,-0.007109463214874268,0.007520437240600586,-0.02354245074093342,-0.01809723861515522,-0.005227286368608475,0.03556586630970233,-0.23470698700442338,1.3963498192861743
1687007325.935812,0.033633388578891754,0.2332981377840042,-0.9718234539031982,-0.0029021576046943665,0.01415356993675232,-0.006768524646759033,0.0026049967855215073,-0.012152532115578651,0.010864597745239735,0.03459472934529809,-0.23546804176722833,1.3965118208183425
1687007326.0186892,0.03332846611738205,0.23283818364143372,-0.9719442129135132,-0.007144350558519363,0.0006517469882965088,0.004582762718200684,-0.0032611479982733727,-0.007525821216404438,-0.0018562572076916695,0.03427708097097319,-0.2349950607653439,1.3968399970811876
1687007326.0256228,0.03251277282834053,0.2333085536956787,-0.9718590378761292,-0.0004082508385181427,-0.0037553906440734863,-0.00670236349105835,-0.013467047363519669,-0.02020326629281044,-0.0008359998464584351,0.03344173549013552,-0.23547875325075052,1.3965442268130788
1687007326.108533,0.03217509761452675,0.23336750268936157,-0.9718561172485352,-0.003931049257516861,0.004791617393493652,-0.012564659118652344,0.004288846626877785,-0.0050532096065580845,0.003602157346904278,0.03309476340203081,-0.23553937195114077,1.3966444224463563
1687007326.123136,0.03167963773012161,0.23319493234157562,-0.9719138741493225,-0.004580006003379822,0.008458435535430908,0.01047283411026001,0.008414216339588165,-0.0015343751292675734,0.007236308418214321,0.0325835717915737,-0.23536190842687732,1.3966360731385832
1687007326.195858,0.03169296681880951,0.23290568590164185,-0.9719827771186829,0.0011592358350753784,0.005146637558937073,0.007184803485870361,0.0162978395819664,-0.006824478507041931,-0.00039498042315244675,0.03259496107763996,-0.2350644655139681,1.3967535104707647
1687007326.201359,0.0315767340362072,0.23294836282730103,-0.9719763398170471,0.00657026469707489,-0.0017625242471694946,0.01329714059829712,-0.02802767977118492,0.0010419670725241303,0.005344930104911327,0.0324757214972494,-0.2351083594402593,1.396843875678968
1687007326.255846,0.031532563269138336,0.23321855068206787,-0.9719129800796509,-0.006935372948646545,-0.00012536346912384033,0.002125382423400879,-0.0011125095188617706,0.0009949622908607125,-0.0037692058831453323,0.03243243859884981,-0.2353861991218085,1.396842213351569
1687007326.351454,0.031693462282419205,0.23358267545700073,-0.9718202948570251,0.003264453262090683,-0.0004742145538330078,-0.0068174004554748535,-0.02083541452884674,0.003774103941395879,-0.006474977359175682,0.03260091643357886,-0.2357606661397359,1.3967285988068214
1687007326.3565001,0.031599629670381546,0.23410938680171967,-0.9716966152191162,-0.003279291093349457,0.001608327031135559,-0.010175943374633789,0.001471355790272355,0.00134423584677279,-0.0002072276547551155,0.032508600896752456,-0.23630238918715854,1.396717629311216
1687007326.411089,0.03153536841273308,0.23412546515464783,-0.971694827079773,-0.004801936447620392,0.0011039674282073975,0.005935490131378174,-0.01092938706278801,-0.007062298245728016,-0.0014458633959293365,0.032442596417785866,-0.23631893173876573,1.3966512791460879
1687007326.492972,0.03110586665570736,0.23467691242694855,-0.9715756177902222,-0.0007561054080724716,0.007220610976219177,0.011599421501159668,-0.01855415105819702,-0.005959483794867992,0.0027344999834895134,0.03200496640916251,-0.23688618228297187,1.3965962102761058
1687007326.5067859,0.03107050433754921,0.23529820144176483,-0.9714264869689941,0.00532173365354538,0.0016859769821166992,-0.0025725364685058594,-0.0019605932757258415,-0.0030229489784687757,0.0030258502811193466,0.031973511308819404,-0.2375253752389316,1.3969499080457657
1687007326.555649,0.03047897107899189,0.23574528098106384,-0.9713367819786072,0.0018544308841228485,0.002398580312728882,0.004646718502044678,-0.024691805243492126,-0.010387521237134933,0.006523645482957363,0.03136808314283276,-0.23798539447858982,1.3969541838340171
1687007326.6482038,0.030521420761942863,0.2361316680908203,-0.9712415933609009,-0.003559112548828125,-0.004365995526313782,-0.0008043050765991211,-0.004895064048469067,-0.002840655390173197,-1.6012229025363922e-05,0.03141481841505871,-0.23838300573955112,1.3971336627909832
1687007326.654206,0.030397292226552963,0.23583558201789856,-0.9713174700737,0.0012036822736263275,-0.013637185096740723,-0.009212315082550049,-0.01943705603480339,-0.010652638971805573,-0.0019995346665382385,0.03128470051396977,-0.2380783192328205,1.396904920281267
1687007326.739077,0.03113655373454094,0.23641228675842285,-0.9711537957191467,-0.013436328619718552,-0.0012744218111038208,-0.010077834129333496,0.01202413160353899,0.17478153109550476,-0.012768559157848358,0.03205042345901289,-0.23867180161208704,1.3967650508758538
1687007326.831198,0.03948402404785156,0.23587806522846222,-0.9709802269935608,0.03693201392889023,0.008857578039169312,0.000704348087310791,0.014446143060922623,-0.06310160458087921,0.001233009621500969,0.04064169768979912,-0.23812202953043432,1.3963067153764297
1687007326.836551,0.037799984216690063,0.22918683290481567,-0.9726482033729553,0.024013400077819824,-0.027206316590309143,0.026984751224517822,0.06027781218290329,-0.08048351854085922,0.03179730847477913,0.038843407025761306,-0.23124220150121322,1.3974133373274649
1687007326.913142,0.03659764677286148,0.22926576435565948,-0.972675621509552,0.00586758553981781,-0.012087494134902954,-0.004375159740447998,0.015986116603016853,-0.004717119038105011,0.019686851650476456,0.03760800566519038,-0.23132328479588735,1.3976085063068031
1687007326.917146,0.03718247637152672,0.2260504961013794,-0.9734057188034058,-0.0012480057775974274,-0.01332777738571167,-0.0010968446731567383,0.026585962623357773,-0.0038072499446570873,0.016551513224840164,0.03817977160389696,-0.22802130498272447,1.3984634006045067
1687007327.007962,0.03728257492184639,0.22405555844306946,-0.9738630056381226,0.003061693161725998,0.008610397577285767,-0.012068390846252441,0.029784485697746277,0.00994544755667448,0.002119842916727066,0.03826449845584055,-0.22597384381565921,1.3986384826927218
1687007327.0224261,0.03797060251235962,0.2215864211320877,-0.9744011759757996,-0.00479796901345253,0.007386907935142517,-0.01099616289138794,0.08547484874725342,0.02341931127011776,-0.002381964586675167,0.038948434455988376,-0.22344102950849412,1.3986242952671486
1687007327.096899,0.03885800391435623,0.2188137173652649,-0.9749926328659058,-0.008966010063886642,-0.021914362907409668,-0.0025006532669067383,0.022668519988656044,0.016069918870925903,-0.007568471133708954,0.03983358401287513,-0.2205985561118522,1.398225447391086
1687007327.103096,0.03974208980798721,0.2166863977909088,-0.9754319787025452,-0.011696413159370422,0.005115285515785217,0.007719576358795166,0.03839994594454765,0.017038242891430855,0.005759052000939846,0.04072054549720904,-0.21841894267968404,1.398075205735889
1687007327.1537418,0.04007315635681152,0.2163914442062378,-0.9754838943481445,0.008999139070510864,-0.002371743321418762,0.004338264465332031,0.004037444945424795,0.010087394155561924,-0.01295897550880909,0.04105719684683526,-0.21811682236225535,1.3977225463986673
1687007327.245549,0.04084566980600357,0.2159256637096405,-0.9755551218986511,0.008653871715068817,-0.015059053897857666,0.008498847484588623,-0.0056276326067745686,0.023873114958405495,0.0003001047298312187,0.041844715525040384,-0.21763976267174534,1.3975855362654814
1687007327.262782,0.04130571708083153,0.21570755541324615,-0.9755839705467224,-0.00617995485663414,-0.00577719509601593,-0.010683119297027588,0.0020204330794513226,-0.00022982567315921187,-0.0141898887231946,0.04231420459656721,-0.21741638223692983,1.3975128790428457
1687007327.305866,0.04321688413619995,0.21334540843963623,-0.9760205149650574,0.012172546237707138,-0.010952889919281006,0.004661262035369873,0.07059650123119354,0.02856946550309658,0.0053462618961930275,0.04424975901443285,-0.2149979256199185,1.3978323492597247
1687007327.393832,0.04353946074843407,0.21168862283229828,-0.9763668775558472,0.0030456483364105225,-0.009936973452568054,0.00030791759490966797,0.0005740702617913485,-0.00657533947378397,-0.0034517571330070496,0.04456381712515066,-0.21330240941075576,1.3979024567367935
1687007327.410351,0.04361424222588539,0.21211133897304535,-0.9762717485427856,0.016017131507396698,-0.02265828847885132,0.00123518705368042,-0.031144175678491592,0.00618200097233057,-0.012953382916748524,0.04464459767985393,-0.21373494979539445,1.3976907012860225
1687007327.456121,0.04348047822713852,0.21246497333049774,-0.9762008190155029,-0.01631980761885643,0.03042435646057129,-0.00489354133605957,0.002453529741615057,0.0015072212554514408,0.0020498009398579597,0.04451108680247855,-0.2140968421485784,1.3973341488036546
1687007327.5485148,0.04450426995754242,0.21194662153720856,-0.976267397403717,0.00977126881480217,-0.015932291746139526,0.01858001947402954,-0.015469078905880451,0.00231455871835351,0.002365386113524437,0.04555461214790202,-0.21356641029611714,1.3974704490300396
1687007327.554312,0.04396854341030121,0.21169334650039673,-0.9763466119766235,-0.01284058392047882,-0.002205491065979004,-0.013674139976501465,0.0023846204858273268,-0.0014956260565668344,-0.009824700653553009,0.04500333980468535,-0.21330724724273675,1.3969380564371225
1687007327.6368508,0.044550664722919464,0.2117995023727417,-0.9762971997261047,0.005727071315050125,0.0017319321632385254,-0.005056560039520264,0.0007102908566594124,0.00570156704634428,-0.0005065668374300003,0.045600643687824405,-0.21341587285462954,1.3971181512528437
1687007327.6413,0.04421590268611908,0.21176740527153015,-0.9763193726539612,-0.0012166127562522888,-0.010885506868362427,0.00022989511489868164,-0.028367633000016212,-0.013487441465258598,-0.0020671794191002846,0.0452574351752254,-0.21338302745228938,1.3968784368786429
1687007327.693318,0.04427482560276985,0.21269600093364716,-0.976114809513092,-0.010552875697612762,0.001552581787109375,0.0021463632583618164,-0.017649076879024506,-0.0030158916488289833,0.010820656083524227,0.04532714652690992,-0.21433327011756242,1.3969698122516137
1687007327.755406,0.04460944980382919,0.2112841159105301,-0.9764061570167542,0.007407784461975098,-0.01085999608039856,0.0006066560745239258,0.024351971223950386,-0.005421658046543598,0.0024820324033498764,0.04565564263312873,-0.21288854666382923,1.3969440649988476
1687007327.847697,0.044793322682380676,0.21108806133270264,-0.9764401316642761,-0.0051204487681388855,-0.00027270615100860596,-0.0019381046295166016,0.00429131044074893,0.009561551734805107,0.004401904530823231,0.04584197091563952,-0.21268797277800933,1.3971965870726646
1687007327.853763,0.04493943229317665,0.21013207733631134,-0.9766396284103394,0.003949761390686035,0.007397159934043884,0.0047005414962768555,0.01719319447875023,-0.007786678150296211,0.0021829595789313316,0.045981909110032665,-0.21171004752991907,1.3977325861520367
1687007327.9062572,0.04455992951989174,0.21146930754184723,-0.9763683676719666,0.00754886120557785,-0.006284445524215698,-0.0022388100624084473,-0.11069625616073608,-0.04643034562468529,-0.01892925053834915,0.045606794117089226,-0.21307801972355903,1.3975225433034928
1687007327.996058,0.04390142485499382,0.21349561214447021,-0.9759570956230164,0.02839474380016327,-0.035334065556526184,-0.007960140705108643,-0.041950952261686325,-0.01529732532799244,-0.02643030881881714,0.04495263983897506,-0.2151516788699096,1.3970381207252374
1687007328.003209,0.04348365217447281,0.21559102833271027,-0.9755150675773621,-0.011836893856525421,-0.015060096979141235,-0.0041144490242004395,-0.04547771066427231,0.026508044451475143,-0.004131129011511803,0.04454558046253224,-0.21729705329844776,1.3961890100587369
1687007328.055481,0.044760048389434814,0.2155366986989975,-0.9754693508148193,0.007135123014450073,0.03647740185260773,-0.007486581802368164,0.05596775561571121,0.03403959795832634,-0.008555704727768898,0.04585349123561887,-0.2172414180428093,1.396008611995931
1687007328.146961,0.04511253908276558,0.21573327481746674,-0.9754096865653992,-0.0012740157544612885,-0.008580029010772705,0.01859205961227417,-0.0638476014137268,-0.02042071521282196,-0.015617076307535172,0.04621690344505284,-0.2174427263065788,1.395201043652886
1687007328.154376,0.04463384300470352,0.2173510044813156,-0.9750725030899048,0.009855318814516068,0.025004267692565918,-0.002100348472595215,0.030035823583602905,0.006125808693468571,0.00027800071984529495,0.045742965753679386,-0.2190997769838112,1.3951182494409564
1687007328.204514,0.044007059186697006,0.21731755137443542,-0.9751084446907043,-0.003693312406539917,-0.0052967369556427,0.008723556995391846,-0.06267766654491425,-0.04991256073117256,-0.010141351260244846,0.04509982216377255,-0.21906549813018708,1.3944521245530368
1687007328.2967129,0.044250331819057465,0.21930500864982605,-0.9746523499488831,0.021087825298309326,-0.009237319231033325,-0.023043572902679443,-0.020606648176908493,-0.016548212617635727,-0.012412494979798794,0.04536998858369897,-0.22110207855165873,1.3947388409186119
1687007328.313159,0.04369889572262764,0.22024527192115784,-0.9744651913642883,0.0016350001096725464,-0.0017089694738388062,-0.0005866885185241699,-0.019568150863051414,-0.02114083245396614,-0.006385228596627712,0.04481395316473528,-0.22206591458952432,1.3942798309175914
1687007328.351869,0.042455244809389114,0.2210749387741089,-0.9743322730064392,0.0035958029329776764,-0.01509663462638855,-0.012575626373291016,-0.060907866805791855,-0.0517466776072979,-0.025969848036766052,0.043546136710992264,-0.22291654404587835,1.3942397872110257
1687007328.4810529,0.039792388677597046,0.22210092842578888,-0.9742113351821899,0.010973632335662842,-0.005609288811683655,0.009871125221252441,-0.03175417333841324,-0.07788840681314468,0.0002713426947593689,0.04082305149657347,-0.22396869107618034,1.3940189944693822
1687007328.4863749,0.03746476396918297,0.22255952656269073,-0.9741989970207214,-0.0009351968765258789,0.00732932984828949,-0.0054152607917785645,0.011364798992872238,-0.03139839693903923,0.000758701004087925,0.038438051808878076,-0.22443906294244295,1.3940694525416022
1687007328.5679579,0.03632909059524536,0.22335684299468994,-0.974059522151947,-0.00011995434761047363,0.006287857890129089,-0.0009313821792602539,-0.021992359310388565,-0.030778946354985237,0.00029824022203683853,0.03727930320101484,-0.22525697121021784,1.3943570012285051
1687007328.57356,0.034345515072345734,0.22431088984012604,-0.973912239074707,-0.008344512432813644,-0.003928273916244507,-0.012034416198730469,-0.020022684708237648,-0.0310394037514925,0.0004037013277411461,0.035250905678293,-0.22623584747020448,1.394464946077539
1687007328.658303,0.033132608979940414,0.22498390078544617,-0.9737989902496338,-0.006368666887283325,-0.008446484804153442,-0.014360189437866211,-0.010649356059730053,-0.0250460933893919,0.008279201574623585,0.03401095466945358,-0.22692651600333957,1.3945977562735643
1687007328.67143,0.032421957701444626,0.2249632626771927,-0.9738276600837708,-0.0031555667519569397,-0.0035888254642486572,0.009990990161895752,-0.00016435794532299042,-0.01307198777794838,0.0027062706649303436,0.03328102813665521,-0.22690533760302575,1.3947942009254273
1687007328.748349,0.03208233788609505,0.2247619479894638,-0.9738854169845581,0.0005409829318523407,0.0047149211168289185,0.0057457685470581055,0.019893838092684746,0.004006997216492891,0.009433149360120296,0.03293071266687464,-0.226698730527337,1.3948342561865714
1687007328.7544699,0.03205910325050354,0.22467616200447083,-0.9739059805870056,0.002532597631216049,-0.004705518484115601,0.010710179805755615,-0.010088561102747917,-0.0039673056453466415,0.005135073326528072,0.032906185992035965,-0.22661069602482733,1.3950100191229982
1687007328.803773,0.031404778361320496,0.2255091369152069,-0.9737347364425659,-0.004167810082435608,0.004791691899299622,0.001231074333190918,-0.0146371740847826,-0.01572023518383503,0.0073787858709692955,0.032240705759355344,-0.22746560460633128,1.395105546638976
1687007328.8972058,0.03119789808988571,0.2253766655921936,-0.9737720489501953,0.0012575723230838776,-0.0001722574234008789,-0.0019817352294921875,0.004523404873907566,-0.00495320837944746,0.006933772005140781,0.03202723897985354,-0.22732963702308073,1.3955189083467183
1687007328.912303,0.030768606811761856,0.2252703607082367,-0.9738103151321411,-0.004050441086292267,-0.007405444979667664,-0.015310168266296387,0.013365034013986588,0.004378641489893198,-0.0029209889471530914,0.03158559010566123,-0.22722052460868125,1.3955093297903771
1687007328.954801,0.030793581157922745,0.22540894150733948,-0.9737774729728699,0.0013261977583169937,0.004022151231765747,-0.003441154956817627,0.0008762057404965162,0.005460018292069435,0.0019121160730719566,0.03161227736785155,-0.22736276428963,1.3954966954458712
1687007329.043853,0.030844001099467278,0.2254858911037445,-0.9737580418586731,-6.699562072753906e-05,-0.00296705961227417,0.004123091697692871,0.000981467543169856,-0.0016017529414966702,-0.0012439964339137077,0.03166463290298025,-0.2274417465967238,1.395392087288171
1687007329.059029,0.030757403001189232,0.22498835623264313,-0.973875880241394,0.002308422699570656,-0.006802991032600403,0.004744410514831543,0.003902489086613059,-0.0006902860477566719,0.008950051851570606,0.03157197335841655,-0.2269310863382216,1.3953940577843764
1687007329.101445,0.031044770032167435,0.22507710754871368,-0.9738462567329407,0.002997618168592453,-0.012552767992019653,0.008315861225128174,-0.009175562299787998,-0.011287936009466648,0.0016580503433942795,0.031867720423013675,-0.22702217258881832,1.3955126050271494
1687007329.1991181,0.03076457977294922,0.22429834306240082,-0.9740347862243652,-0.0031461436301469803,0.0006008893251419067,-0.0027413368225097656,0.007601553574204445,-0.002538386732339859,-0.00438279751688242,0.03157418620455124,-0.22622297139468228,1.3953427204007982
1687007329.2057471,0.030641328543424606,0.2247370183467865,-0.9739375710487366,-0.006959656253457069,0.0012455880641937256,-0.005646169185638428,-0.00735482620075345,-0.002467147074639797,-0.0020306939259171486,0.03145091231358404,-0.22667313868929362,1.3952949689499494
1687007329.253022,0.03039250150322914,0.2247750461101532,-0.9739365577697754,0.0018188320100307465,0.0017568618059158325,-0.01225423812866211,0.0032752477563917637,-0.0023458402138203382,0.0030431607738137245,0.0311957077965659,-0.22671217317526646,1.3955072407127018
1687007329.347588,0.03041909821331501,0.22515016794204712,-0.9738491177558899,-0.006798464804887772,0.0031365156173706055,0.007052242755889893,-0.0030313837341964245,0.008686570450663567,0.006949218921363354,0.03122579396301806,-0.22709715415488585,1.3955988802635337
1687007329.361687,0.030432986095547676,0.22525744140148163,-0.9738238453865051,0.006020290777087212,0.006233587861061096,0.009559929370880127,0.011535242199897766,0.00254012830555439,0.00100051611661911,0.031240849821425103,-0.22720726153042461,1.3957539130962349
1687007329.407047,0.030466904863715172,0.2254866063594818,-0.9737697839736938,0.0007831249386072159,0.007774427533149719,-0.0014499425888061523,-0.004618628416210413,0.0018209416884928942,0.0011840080842375755,0.031277382845159137,-0.22744247476865503,1.395720773931946
1687007329.497087,0.030576523393392563,0.22579003870487213,-0.9736959934234619,-0.0017831623554229736,0.0020693838596343994,0.0069907307624816895,-0.013576369732618332,-0.006331926211714745,0.004023470915853977,0.031392219082329066,-0.2277539366093753,1.395765363673494
1687007329.510386,0.030170027166604996,0.22594791650772095,-0.973672091960907,-0.00038484111428260803,0.0011027902364730835,-0.009161770343780518,0.0015425288584083319,0.0013249278999865055,-0.0019270973280072212,0.030975909237990797,-0.22791600597495962,1.3957223048434577
1687007329.554175,0.030117394402623177,0.22593627870082855,-0.9736763834953308,-0.0032466426491737366,-0.0077204108238220215,-0.008592844009399414,-0.003177125472575426,-0.0033196250442415476,0.0012178299948573112,0.030921767050962293,-0.22790405591023483,1.3956111446614248
1687007329.645228,0.03003879263997078,0.22649624943733215,-0.9735487103462219,-0.003930974751710892,0.0042013078927993774,0.008720219135284424,0.0033114671241492033,0.0009428974008187652,0.004678607918322086,0.030845159674930327,-0.22847893752631904,1.3957665480024888
1687007329.658852,0.030217422172427177,0.22668758034706116,-0.9734986424446106,0.003474010154604912,0.0043151527643203735,0.004550278186798096,-0.0006396654061973095,-0.0010213169734925032,-0.0008815396577119827,0.03103006151537092,-0.22867538128499126,1.395726511673131
1687007329.702416,0.030001217499375343,0.2269374281167984,-0.9734471440315247,0.0006079431623220444,0.01073339581489563,0.008420288562774658,-0.0031794551759958267,0.00010666484013199806,-0.0005390578880906105,0.030809812443364202,-0.22893191341079774,1.3956386282033661
1687007329.7987971,0.030119076371192932,0.22709022462368011,-0.9734078645706177,-0.0008679516613483429,-0.0035184919834136963,-0.0026663541793823242,-0.011623007245361805,0.0037658482324332,0.002401338890194893,0.03093201820955658,-0.22908879373825355,1.3957178981772675
1687007329.805064,0.03072238154709339,0.2273770272731781,-0.9733220338821411,-0.010763853788375854,-0.008443981409072876,-0.004979968070983887,0.013914909213781357,0.08333271741867065,-0.01772416941821575,0.031553979277415996,-0.22938330294247963,1.3956329957600226
1687007329.857059,0.045095160603523254,0.21846267580986023,-0.9748027920722961,0.09476692974567413,0.048474520444869995,-0.020741641521453857,0.22602057456970215,-0.02987360581755638,0.0006633596494793892,0.046227844137619725,-0.22023881412170443,1.395636816818276
1687007329.949263,0.04387814179062843,0.21316345036029816,-0.9760307669639587,-0.012933291494846344,0.06479059159755707,0.00503772497177124,0.2825472950935364,0.022414233535528183,0.03366098925471306,0.044925448339053,-0.2148116966786182,1.3957160275166378
1687007329.9547138,0.04349932074546814,0.20435744524002075,-0.9779293537139893,-0.02352553978562355,0.021838784217834473,0.009148836135864258,0.12311989068984985,0.016177242621779442,0.016319550573825836,0.044451744343576745,-0.20580726229768964,1.3959764037045996
1687007330.003779,0.04414612054824829,0.19994594156742096,-0.9788119196891785,-0.009523902088403702,-0.012766435742378235,0.009726226329803467,0.03449122607707977,-0.005706216674298048,0.02259502187371254,0.045071196649443125,-0.20130274201617207,1.396608107151415
1687007330.098351,0.04390981048345566,0.19861502945423126,-0.9790934324264526,0.012990240007638931,0.014412850141525269,-0.009950697422027588,0.0353444367647171,-0.0006617901963181794,0.008199573494493961,0.04481738298902454,-0.19994459301134035,1.397170045718507
1687007330.104516,0.043694838881492615,0.1976027488708496,-0.9793078899383545,0.002524062991142273,-0.004212915897369385,0.017760038375854492,-0.02224302664399147,-0.010676740668714046,0.009158843196928501,0.04458850868074558,-0.19891184360549774,1.3973315100270596
1687007330.154405,0.043772049248218536,0.19836512207984924,-0.9791502952575684,0.002858836203813553,-0.01852509379386902,-0.02895212173461914,0.019144292920827866,0.0077245039865374565,-0.015595771372318268,0.044674372694837164,-0.1996896166922047,1.3968579731552704
1687007330.247458,0.04447351396083832,0.19774171710014343,-0.9792447686195374,0.00418679416179657,-0.011920243501663208,0.0008664727210998535,-0.026046089828014374,0.005781994201242924,-0.005700530018657446,0.045384949443674216,-0.19905360938878996,1.3963648387385392
1687007330.260714,0.044738318771123886,0.19752798974514008,-0.9792758226394653,-0.0018305741250514984,0.011441066861152649,-0.004855036735534668,0.03313274681568146,0.008391492068767548,0.00476382952183485,0.045653359242073734,-0.19883558963896708,1.3964545255528424
1687007330.3034902,0.04540812596678734,0.1954536736011505,-0.9796611666679382,0.0059834979474544525,-0.030155286192893982,0.0011455416679382324,-0.01763329654932022,-0.004829637240618467,0.0050876690074801445,0.04631770013796144,-0.19672002462706376,1.396649858366107
1687007330.369514,0.046000584959983826,0.1938645839691162,-0.9799492359161377,-0.0009566135704517365,-0.018144458532333374,0.010115861892700195,-0.010777453891932964,-0.005544562824070454,0.017468173056840897,0.04690737255644244,-0.19509994639235365,1.3972996472175032
1687007330.4573112,0.046519115567207336,0.19312401115894318,-0.980070948600769,0.0001575462520122528,-0.01987577974796295,0.002348780632019043,-0.025338154286146164,-0.005232173949480057,-0.0006184196099638939,0.04742945127727338,-0.1943451012499167,1.3978974694098398
1687007330.470227,0.04640297219157219,0.19363634288311005,-0.9799753427505493,-0.0028848834335803986,0.0015845149755477905,-0.0011952519416809082,0.003888107603415847,-0.005954023916274309,0.004896719940006733,0.04731581986269516,-0.19486730124464904,1.3980653430661187
1687007330.545783,0.0465683676302433,0.19263286888599396,-0.9801652431488037,0.017015032470226288,-0.01854543387889862,-0.006284892559051514,0.00023924419656395912,0.004880380816757679,0.0030024144798517227,0.04747502911470251,-0.19384457220123857,1.3983705328617233
1687007330.5592852,0.046998899430036545,0.19296540319919586,-0.9800792932510376,-0.0006426647305488586,-0.002306893467903137,-0.0031818151473999023,-0.02799958363175392,0.0026864688843488693,-0.008367951959371567,0.04791746992785598,-0.19418345601340067,1.3985661819585273
1687007330.637844,0.04678301140666008,0.19369766116142273,-0.979945182800293,0.0019535869359970093,0.007794588804244995,0.004923820495605469,-0.005415778141468763,7.111160084605217e-05,-0.005329817999154329,0.04770421870058695,-0.19492978983876125,1.3981690272683902
1687007330.643595,0.0466279536485672,0.19422155618667603,-0.9798488616943359,-0.005597040057182312,-0.006370663642883301,0.0065059661865234375,-0.020968573167920113,-0.005688640289008617,0.008935137651860714,0.04755101007679111,-0.19546383753827457,1.3981329595719496
1687007330.6968699,0.04695602506399155,0.19445006549358368,-0.9797878861427307,0.011576719582080841,0.005119577050209045,0.0007839798927307129,-0.010441295802593231,0.004375046119093895,-0.007546633016318083,0.047888043276214536,-0.19569678275211266,1.3985704302178754
1687007330.7887301,0.04722115024924278,0.19419656693935394,-0.9798254370689392,-0.007365167140960693,-0.0012187212705612183,-0.013964235782623291,0.004030054435133934,-0.002205091994255781,0.014134160242974758,0.04815617381148985,-0.1954383562260652,1.3988011205340185
1687007330.7946382,0.04768434911966324,0.19414108991622925,-0.9798139929771423,0.01037537306547165,-0.0037725120782852173,-0.005522310733795166,-0.012500252574682236,0.0096660815179348,0.001534213311970234,0.04862836851123373,-0.19538180665667662,1.3997938131504613
1687007330.8458328,0.04795318469405174,0.19331811368465424,-0.9799636006355286,-0.0023751556873321533,0.012553393840789795,-0.0014054179191589355,0.021158641204237938,0.008779781870543957,0.004849581979215145,0.048894638319235594,-0.19454293183082483,1.3998427349299176
1687007330.911422,0.04817303270101547,0.19421273469924927,-0.9797759056091309,-0.002976473420858383,0.012192830443382263,0.005212306976318359,0.02921457029879093,0.013113543391227722,0.011769006960093975,0.049127836520138704,-0.19545484359215876,1.4003425358556796
1687007331.027251,0.0486476831138134,0.19384531676769257,-0.9798251986503601,-0.003924146294593811,0.005602255463600159,0.0030795931816101074,-0.014872131869196892,0.0030594447162002325,0.013837219215929508,0.04960861265422999,-0.1950803094442916,1.4008029824393606
1687007331.039742,0.04862065240740776,0.19566471874713898,-0.9794648289680481,-0.00510256364941597,0.022963136434555054,0.006884872913360596,-0.01027318462729454,0.0032702337484806776,0.012008958496153355,0.04959930670760706,-0.19693523044583025,1.401382124721527
1687007331.117316,0.048599906265735626,0.19606822729110718,-0.9793851375579834,0.008467990905046463,-0.01499222218990326,-0.0043947696685791016,-0.029649347066879272,-0.004917787853628397,-0.01615476794540882,0.049582202287072025,-0.19734669675098868,1.4015443258328864
1687007331.122293,0.0489492192864418,0.19634434580802917,-0.9793124198913574,-0.006392437964677811,0.00498005747795105,-0.014751851558685303,0.019797898828983307,0.01409811433404684,0.016295049339532852,0.04994168881994645,-0.19762829247322303,1.401540765959913
1687007331.2050462,0.04954000189900398,0.19535693526268005,-0.9794802069664001,0.002767156809568405,-0.005827575922012329,-0.012875139713287354,-0.005220168735831976,-0.004883166868239641,-0.005400391761213541,0.05053478593566361,-0.19662137923784542,1.4020976321531629
1687007331.209031,0.048952993005514145,0.19671228528022766,-0.9792383909225464,0.0006228424608707428,-0.00762544572353363,0.006505846977233887,-0.0310677457600832,-0.0053601390682160854,-0.013851933181285858,0.04994930199039033,-0.19800355935856723,1.4013966568695064
1687007331.296092,0.048474088311195374,0.19881048798561096,-0.9788384437561035,-0.0028655417263507843,0.01917649805545807,-0.0028510093688964844,-0.0345686711370945,0.005534719675779343,-0.026953088119626045,0.04948162821793662,-0.20014403577361622,1.4009622617163935
1687007331.307338,0.04603306204080582,0.20391333103179932,-0.9779061079025269,-0.04652131348848343,-0.029627501964569092,-0.00736922025680542,-0.1069907397031784,-0.038408100605010986,-0.008978348225355148,0.04703836796429144,-0.20535358536752896,1.3994561668066998
1687007331.353998,0.04615505784749985,0.20565061271190643,-0.9775364398956299,0.00403112918138504,-0.012108191847801208,0.002591371536254883,-0.08796198666095734,0.021368009969592094,-0.03298861160874367,0.04718064963908819,-0.20712847754085323,1.398878404696702
1687007331.444343,0.04401826485991478,0.21070075035095215,-0.976559042930603,0.002963569015264511,-0.003852665424346924,0.008221030235290527,-0.0981251448392868,-0.07107963413000107,-0.01716756820678711,0.04504437358520542,-0.21229174664475967,1.3977714235548684
1687007331.4583058,0.04115065932273865,0.2136560082435608,-0.976041853427887,0.007143434137105942,-0.037233948707580566,0.008359968662261963,-0.2165803611278534,-0.1910248100757599,0.010645953007042408,0.04213579764102489,-0.21531585970400796,1.3980681839976503
1687007331.5370178,0.036143958568573,0.21893946826457977,-0.9750687479972839,0.009495101869106293,0.026147127151489258,0.003083944320678711,-0.012094452977180481,-0.052259739488363266,-0.0023457463830709457,0.03705114921259511,-0.22072744038393746,1.3974911094034574
1687007331.541172,0.03438226133584976,0.2202562838792801,-0.9748358726501465,-0.011066805571317673,-2.625584602355957e-05,0.006619930267333984,-0.0612817108631134,-0.03813939169049263,0.013168497942388058,0.03525518139021562,-0.22207719986432004,1.3973699989668549
1687007331.595187,0.0334070585668087,0.223091259598732,-0.9742249250411987,0.0010778307914733887,0.00043468177318573,0.006482064723968506,-0.038533784449100494,-0.028979714959859848,0.007259477861225605,0.03427747840147205,-0.2249845004070983,1.3981270698136878
1687007331.658587,0.03223012387752533,0.2250690460205078,-0.9738095998764038,0.0011866502463817596,-0.010835707187652588,0.011514067649841309,-0.10717349499464035,-0.03973289206624031,0.0065034059807658195,0.03308486965934251,-0.22701390518709663,1.3985924085606978
1687007331.779842,0.03082270175218582,0.22916032373905182,-0.9729005694389343,0.0019989851862192154,-0.005313962697982788,-0.004531681537628174,-0.0870596393942833,-0.038292787969112396,0.0051004523411393166,0.031670653324918356,-0.23121496452766405,1.3991253278670037
1687007331.792829,0.029947560280561447,0.23056791722774506,-0.9725952744483948,0.00017331726849079132,-0.0011978596448898315,-0.010787904262542725,-0.03175763785839081,-0.002481794450432062,0.004212819971144199,0.030781664676778328,-0.23266128061315058,1.3993857389180369
1687007331.868118,0.029736381024122238,0.2317925989627838,-0.9723106026649475,-0.0164612028747797,-0.0016596019268035889,-9.953975677490234e-06,-0.022776326164603233,-0.0035282836761325598,0.0008473843336105347,0.030573680645941494,-0.23392005916056688,1.3994571969092813
1687007331.873362,0.029543103650212288,0.232589453458786,-0.9721261858940125,0.01536354050040245,0.004196375608444214,0.0017740130424499512,0.02125071920454502,-0.002493778709322214,0.005577956326305866,0.03038084342641052,-0.23473931352946384,1.3998710630592648
1687007331.958441,0.02879612147808075,0.23304134607315063,-0.9720403552055359,0.0046664271503686905,-0.003152519464492798,0.007898569107055664,-0.04134474694728851,-0.026077669113874435,-0.010112589225172997,0.0296157460018777,-0.23520397703894244,1.3997806800587484
1687007331.969225,0.028858980163931847,0.23321843147277832,-0.9719960689544678,0.003062436357140541,-0.007602065801620483,0.008754491806030273,-0.006306006573140621,-0.010016276501119137,0.004418949596583843,0.02968171066988654,-0.23538607547196,1.399583117468489
1687007332.047188,0.02825825661420822,0.23384065926074982,-0.9718642234802246,0.005784129723906517,-0.004546910524368286,0.00880575180053711,-0.02702460065484047,-0.018341317772865295,-0.004284527152776718,0.029068153859926327,-0.2360259969412586,1.3996115837928356
1687007332.0587459,0.028034290298819542,0.23353588581085205,-0.9719439744949341,-0.008808191865682602,0.012237370014190674,-0.001414179801940918,0.011260803788900375,-0.00020612351363524795,0.0077598849311470985,0.02883553130343753,-0.23571254516815987,1.3998536417973497
1687007332.137641,0.028277598321437836,0.23366685211658478,-0.9719054102897644,0.006237806752324104,-0.010430857539176941,-0.01036381721496582,-0.008943933993577957,0.006817431189119816,-0.003948702476918697,0.029086803772621024,-0.23584724071048993,1.399974201314465
1687007332.143465,0.02786855585873127,0.2342626452445984,-0.9717738032341003,-0.013510007411241531,0.029821157455444336,0.008501708507537842,0.026405001059174538,0.008606810122728348,0.006093812175095081,0.02867016832903698,-0.23646003632192944,1.3998555577676728
1687007332.1922588,0.028469307348132133,0.23404045403003693,-0.9718099236488342,0.004413409158587456,-0.009858384728431702,0.010719835758209229,-0.027649642899632454,-0.009898299351334572,0.01529476698487997,0.029286763063069873,-0.2362314895139836,1.4001691781008043
