Timestamp,gravityX,gravityY,gravityZ,accelerationX,accelerationY,accelerationZ,rotationRateX,rotationRateY,rotationRateZ,attitudeRoll,attitudePitch,attitudeYaw
1687017276.891048,0.13836601376533508,-0.06976232677698135,-0.9879210591316223,-0.002349257469177246,0.00988682359457016,0.009298622608184814,0.02572128176689148,0.004447750747203827,-0.002405933104455471,0.13915259080002015,0.069819035173994,0.6672439725709817
1687017276.896716,0.13844875991344452,-0.0699152871966362,-0.9878986477851868,-0.0017758756875991821,-0.006790660321712494,-0.0004894137382507324,-0.022176600992679596,0.0027297453489154577,-0.007489108946174383,0.1392378551843755,0.06997236942821908,0.6670386566804706
1687017276.985176,0.13849134743213654,-0.06835612654685974,-0.988001823425293,0.008847415447235107,0.007076814770698547,0.004405021667480469,-0.025719070807099342,-0.010478867217898369,0.0017416737973690033,0.13926578685512833,0.06840947001511966,0.6668798176888093
1687017276.997616,0.13881328701972961,-0.06738214939832687,-0.9880235195159912,0.008861169219017029,0.0007927864789962769,-0.0007612109184265137,-0.03815709799528122,0.002487797290086746,-0.0127507159486413,0.13958230965042032,0.06743324149260277,0.6666724710836607
1687017277.03917,0.13902541995048523,-0.06555328518152237,-0.9881167411804199,0.0014163851737976074,-0.0052627623081207275,-0.013561725616455078,-0.025887448340654373,0.015313182026147842,-0.01169823482632637,0.13977983870863944,0.06560032815783935,0.6665522948373166
1687017277.136973,0.13905870914459229,-0.06484152376651764,-0.9881590008735657,-0.010717138648033142,0.0013344436883926392,-0.0003815889358520508,-0.018077196553349495,0.008818264119327068,-0.004216616973280907,0.13980696028951858,0.06488704651705814,0.6662157558209256
1687017277.142225,0.13935843110084534,-0.06324676424264908,-0.9882201552391052,0.00567626953125,0.014296554028987885,0.006942689418792725,-7.223058491945267e-05,-0.0024527660571038723,0.0005291365087032318,0.14009582249193295,0.06328900344601374,0.6663328406729726
1687017277.186583,0.13889223337173462,-0.061645425856113434,-0.9883869886398315,-0.014640003442764282,-0.011688325554132462,0.009505093097686768,-0.07370337843894958,0.004683040548115969,-0.01317549031227827,0.13960997499139874,0.06168453768446847,0.6664983370500281
1687017277.280088,0.13981962203979492,-0.060225144028663635,-0.9883437752723694,-0.004657357931137085,0.00204337015748024,0.004548609256744385,-0.003491263370960951,-0.0031644958071410656,-0.0073852455243468285,0.14053603814459967,0.06026161042516023,0.6663486504602448
1687017277.294708,0.13898427784442902,-0.06111045181751251,-0.9884072542190552,0.006798088550567627,0.0007008947432041168,-0.008449435234069824,0.01207904051989317,0.003174892859533429,-0.003838181495666504,0.13969847127916324,0.06114855091248119,0.6660722730413902
1687017277.34005,0.13911381363868713,-0.05826409161090851,-0.9885609149932861,6.149709224700928e-05,-0.004907302558422089,-0.010111570358276367,-0.0700083076953888,0.008111195638775826,-0.011661749333143234,0.1398055313455684,0.05829710764552669,0.6658667810739209
1687017277.433819,0.13926425576210022,-0.05699121952056885,-0.9886139035224915,-0.0017673969268798828,0.011550534516572952,-0.005053699016571045,-0.005512868985533714,0.002890999661758542,0.004530002363026142,0.13994734299615283,0.05702211452285508,0.6658252300877394
1687017277.447442,0.1394791156053543,-0.05544304847717285,-0.9886716604232788,-0.006804034113883972,-0.010688554495573044,0.008096098899841309,-0.07614143192768097,0.006499716080725193,-0.02216898649930954,0.14015236502524722,0.055471493745570706,0.6656884134758122
1687017277.487077,0.13968662917613983,-0.05360439047217369,-0.988743782043457,0.0053785741329193115,0.021591439843177795,0.006001412868499756,0.0026452590245753527,-0.005803022533655167,-0.002153731882572174,0.14034805451608087,0.053630094252862325,0.6653697675242553
1687017277.5842628,0.13943977653980255,-0.05375383794307709,-0.9887704849243164,0.004267409443855286,0.006955120712518692,-0.004576683044433594,-0.0055273836478590965,-0.007455647457391024,0.00040103867650032043,0.14009952364257366,0.053779758791436316,0.6655351379447857
1687017277.5982862,0.13976818323135376,-0.054189156740903854,-0.9887003302574158,0.003984764218330383,0.010167542845010757,-0.006950855255126953,0.04325393587350845,0.004125508479773998,0.006501008756458759,0.1404349990461182,0.0542157138308264,0.6653064760425954
1687017277.6420379,0.13977009057998657,-0.054656561464071274,-0.9886743426322937,0.006653159856796265,-0.005966618657112122,-0.012454807758331299,0.01161758229136467,0.001975271850824356,-0.003918875008821487,0.1404405415709761,0.05468381136041563,0.6650907863010278
1687017277.7330709,0.13975279033184052,-0.05535066872835159,-0.988638162612915,-0.008283153176307678,0.006797190755605698,-0.005761861801147461,0.03504561260342598,0.008265525102615356,0.0011666975915431976,0.14042844638920704,0.05537896908891305,0.664852397675045
1687017277.746211,0.14026696979999542,-0.0563776008784771,-0.9885073304176331,0.008414581418037415,0.015484035015106201,0.006192266941070557,0.02603740245103836,-0.005894103087484837,0.006415520794689655,0.14095673450770652,0.056407510035272515,0.6646504014257971
1687017277.828196,0.14046438038349152,-0.05652877688407898,-0.9884706735610962,-0.006049796938896179,-0.007893837988376617,0.014608979225158691,-0.023029211908578873,0.02492612786591053,0.0028804410248994827,0.1411576596693206,0.056558928335582646,0.6647530756927115
1687017277.839531,0.14244109392166138,-0.0584024153649807,-0.988078773021698,-0.00634804368019104,0.0454171746969223,0.021617591381072998,0.18231076002120972,0.07086698710918427,0.012331734411418438,0.14317327574644903,0.0584356665381894,0.6654740211089413
1687017277.877861,0.14401863515377045,-0.06544066220521927,-0.9874088168144226,0.01926557719707489,-0.05411195755004883,0.03994482755661011,0.0365845188498497,-0.0022489011753350496,0.11830770969390869,0.14483384323444295,0.06548746210312427,0.6674987233263749
1687017278.0049028,0.13994745910167694,-0.07006888836622238,-0.9876766204833984,-0.003091484308242798,-0.04385323077440262,-0.03269386291503906,0.06630246341228485,-0.13117119669914246,0.058666739612817764,0.14075660185946876,0.07012635417107359,0.6731601100129446
1687017278.010243,0.13221333920955658,-0.08134763687849045,-0.987877607345581,0.028812557458877563,-0.008999660611152649,-0.01595228910446167,0.3328320384025574,-0.1794859915971756,0.11917109787464142,0.13304513748723076,0.08143762234053845,0.6772501269119131
1687017278.093748,0.12026424705982208,-0.08954998105764389,-0.9886947274208069,-0.0027258917689323425,0.0002708062529563904,-0.03294217586517334,0.03427023068070412,-0.2869030237197876,-0.004380401223897934,0.12104475172831933,0.08967010422758198,0.6795786207500064
1687017278.107431,0.10877688229084015,-0.0782177671790123,-0.9909841418266296,-0.018582262098789215,-0.1032092422246933,-0.004026234149932861,-0.6414887309074402,-0.2626611888408661,-0.03652581945061684,0.10932883023502862,0.07829774664738207,0.6828174581175932
1687017278.1830812,0.08982134610414505,-0.06355001777410507,-0.9939283132553101,0.07585849612951279,0.12611104547977448,-0.09470993280410767,0.09925049543380737,-0.6641329526901245,0.3566182851791382,0.09012523362497002,0.06359286820644755,0.6917900228284619
1687017278.1945481,0.056722793728113174,-0.09697014093399048,-0.9936696290969849,0.02776503562927246,0.24784903228282928,0.012361645698547363,1.1663559675216675,-0.5944565534591675,-0.22664622962474823,0.05702227462285228,0.09712275670553752,0.6929482403687877
1687017278.238792,0.0273611880838871,-0.1331656575202942,-0.9907160401344299,-0.027880074456334114,-0.2087380290031433,0.01787668466567993,0.13312144577503204,-0.5868316888809204,-0.07359275966882706,0.02761056999522983,0.133562405861778,0.6835814249904394
1687017278.332756,0.003498941659927368,-0.1289035528898239,-0.9916509389877319,-0.003682132810354233,-0.0003688931465148926,0.06104797124862671,-0.22334565222263336,-0.29906630516052246,-0.0187406986951828,0.0035283857636069457,0.12926322940088794,0.6796814229121443
1687017278.346003,-0.0085177943110466,-0.13215796649456024,-0.9911920428276062,-0.011333975940942764,0.04391638934612274,-0.0302312970161438,0.2925843894481659,-0.21224567294120789,-0.1475364863872528,-0.008593273549769218,0.13254573105525008,0.6746086031749624
1687017278.427707,-0.015019523911178112,-0.14467529952526093,-0.9893651604652405,-0.028498627245426178,-0.037423089146614075,0.040268540382385254,0.11190124601125717,-0.05779818072915077,-0.056979965418577194,-0.01517980498537166,0.14518481550739695,0.6688469856555666
1687017278.43932,-0.015645019710063934,-0.14387093484401703,-0.9894728064537048,0.008107094094157219,-0.017383962869644165,-0.027586519718170166,-0.07001037150621414,-0.03541510924696922,0.021005116403102875,-0.015810153610487734,0.14437193617731642,0.6680342601889223
1687017278.4801989,-0.017852794378995895,-0.14158502221107483,-0.9897651076316833,0.00053398497402668,0.006941467523574829,0.01906198263168335,-0.039210978895425797,-0.016024233773350716,-0.01723228394985199,-0.018035449324172708,0.14206238632466178,0.6682961408964602
1687017278.544129,-0.019051702693104744,-0.1452319324016571,-0.9892141819000244,0.0022669490426778793,0.02380247414112091,-0.011899709701538086,0.07697208970785141,-0.04059961810708046,-0.022253673523664474,-0.01925704983464834,0.1457473824493349,0.6673132476716667
1687017278.632853,-0.02065851166844368,-0.14646098017692566,-0.9890007376670837,-0.013185566291213036,-0.021370455622673035,0.01153796911239624,0.0014144792221486568,-0.015139798633754253,-0.018467724323272705,-0.020885229885432368,0.14698971074315254,0.6664413455165625
1687017278.645684,-0.021169429644942284,-0.14367201924324036,-0.9893988966941833,-0.009210901334881783,-0.00923629105091095,-0.006755828857421875,-0.030924620106816292,-0.007435673847794533,-0.0016983319073915482,-0.021392988810317443,0.14417093852711338,0.6662708910840578
1687017278.720889,-0.02160937897861004,-0.14543046057224274,-0.9891324639320374,-0.003994952887296677,0.002852320671081543,-0.0016207098960876465,0.033805109560489655,0.003406055038794875,-0.00868673250079155,-0.02184332468626171,0.14594804734898925,0.6660334484932336
1687017278.7263331,-0.021216945722699165,-0.14492930471897125,-0.9892144799232483,-0.006554130464792252,-0.008635133504867554,0.006502747535705566,-0.01237943023443222,0.0038380196783691645,-0.0016956683248281479,-0.0214449887870428,0.14544152652915357,0.6660014110572325
1687017278.7806668,-0.01884111948311329,-0.1455748826265335,-0.9891678094863892,-0.007938137277960777,0.020300209522247314,0.02462923526763916,0.059831652790308,0.10204341262578964,-0.03986302763223648,-0.01904514259214222,0.14609401505872271,0.6644584118294132
1687017278.870724,-0.012491339817643166,-0.14329764246940613,-0.9896007776260376,-0.00044819433242082596,-0.014508754014968872,-0.004432976245880127,-0.1518702208995819,0.1650886982679367,0.005716974847018719,-0.012621934510260082,0.1437926510243981,0.6636801585277388
1687017278.8773541,-0.006933212745934725,-0.14142276346683502,-0.9899250268936157,-0.007181250490248203,0.024189472198486328,0.012446999549865723,0.10432680696249008,0.2058156132698059,-0.0037135453894734383,-0.007003660975677447,0.1418984697512929,0.6637417982877503
1687017278.930667,0.012066959403455257,-0.1468535214662552,-0.9890846610069275,0.1043117418885231,-0.090115487575531,0.11808246374130249,-0.10170391947031021,0.4123481512069702,-0.06242133304476738,0.012199522623679942,0.14738654721590727,0.6634879408471704
1687017279.0204759,0.028528591617941856,-0.14243441820144653,-0.9893929958343506,0.03392554819583893,0.016457855701446533,-0.032457590103149414,0.021426668390631676,0.32452696561813354,0.009723966009914875,0.028826451104442527,0.1429204788821522,0.6615326662925711
1687017279.0267549,0.05438385158777237,-0.1465052217245102,-0.9877138137817383,0.005079563707113266,0.07939706742763519,-0.04788494110107422,0.017720215022563934,0.6206329464912415,-0.0524216964840889,0.0550047921030568,0.14703444692901652,0.6623676609662523
1687017279.0823178,0.07868167757987976,-0.1338917762041092,-0.9878674745559692,0.046074092388153076,-0.0006602257490158081,-0.05035579204559326,-0.27001890540122986,0.342428982257843,0.048274554312229156,0.0794802219734201,0.13429509166882875,0.6622123371974277
1687017279.1705709,0.10176026821136475,-0.12835630774497986,-0.9864935278892517,-0.0004725158214569092,0.02282652258872986,-0.11270385980606079,0.01381455734372139,0.4390077292919159,0.0002244710922241211,0.10278994972294829,0.12871140525204722,0.664252241448223
1687017279.177341,0.12233061343431473,-0.12173163890838623,-0.9849957227706909,-0.012009657919406891,-0.017748959362506866,-0.04425531625747681,-0.060407742857933044,0.2765575647354126,-0.24880345165729523,0.1235613652220479,0.12203430888299287,0.666090392631803
1687017279.234953,0.1318552941083908,-0.13217081129550934,-0.9824179410934448,0.004848092794418335,-0.04061971604824066,-0.0020943284034729004,0.17925691604614258,0.0928545743227005,-0.1372460424900055,0.13341776366343605,0.13255868080381375,0.6604623124088499
1687017279.321867,0.13553690910339355,-0.1196460947394371,-0.9835215210914612,-0.11772999167442322,-0.155942901968956,0.03512674570083618,-0.47717800736427307,0.3409302830696106,-0.15228889882564545,0.13694521470334195,0.11993340537956636,0.6568368980897504
1687017279.328243,0.13953754305839539,-0.10757800191640854,-0.9843557476997375,0.04066866636276245,0.12315721064805984,-0.003803431987762451,0.03439014032483101,-0.08807845413684845,-0.07463166117668152,0.14081697996969997,0.10778658753251767,0.6536927587661049
1687017279.38059,0.13677522540092468,-0.10731133073568344,-0.9847724437713623,0.017658889293670654,-0.058841630816459656,0.03944474458694458,-0.10066921263933182,-0.044760674238204956,-0.08649124950170517,0.13800728550541783,0.10751836307915669,0.6513503758979178
1687017279.443533,0.13468493521213531,-0.10162186622619629,-0.9856637120246887,-0.004893779754638672,0.012022249400615692,0.02139979600906372,-0.05140572413802147,-0.04539969936013222,-0.046153947710990906,0.13580285897094987,0.10179759484565479,0.6489343539004818
1687017279.533187,0.13319754600524902,-0.09831269830465317,-0.986201286315918,-0.0022619813680648804,-0.02523772418498993,0.011759817600250244,-0.16196486353874207,-0.04457678273320198,-0.033280760049819946,0.13424884110833415,0.0984717614197072,0.6479537348019421
1687017279.546807,0.13187243044376373,-0.09048178791999817,-0.987128496170044,0.002038612961769104,0.015316985547542572,0.004935503005981445,-0.0730336531996727,-0.026489393785595894,-0.012923022732138634,0.13280562473517868,0.09060570962479914,0.6479054837500596
1687017279.623008,0.13147695362567902,-0.09323682636022568,-0.9869248867034912,0.002708747982978821,-0.010492436587810516,-0.005445718765258789,-0.0010870283003896475,-0.008734364062547684,0.007487443275749683,0.1324390087777369,0.0933724411655867,0.6478455928469172
1687017279.628751,0.13044148683547974,-0.08992908895015717,-0.9873691201210022,-0.006082445383071899,-0.004629634320735931,0.017581522464752197,-0.06926441937685013,-0.006864159367978573,0.003839445300400257,0.13134952637872407,0.09005074444165229,0.6479757175605491
1687017279.677134,0.13076481223106384,-0.085516057908535,-0.9877183437347412,-0.002301141619682312,0.00739104300737381,0.009401082992553711,-0.11178424954414368,-0.002776606474071741,-0.0139531334862113,0.1316253358364433,0.08562062892997052,0.6482374184110088
1687017279.775003,0.13092760741710663,-0.08461184799671173,-0.987774670124054,0.0058978646993637085,0.055711694061756134,-0.048220813274383545,0.1175721138715744,-0.0002431413740850985,0.00945951510220766,0.1317798902791462,0.08471313563969311,0.6481624298172991
1687017279.780134,0.13116498291492462,-0.09059362858533859,-0.9872125387191772,0.004226163029670715,-0.03246850520372391,0.009017348289489746,0.020784515887498856,-0.005940841045230627,0.009018228389322758,0.13209034457065535,0.09071800905775569,0.6480575258251646
1687017279.828156,0.1307319849729538,-0.08770652115345001,-0.9875305891036987,0.010259151458740234,0.011733002960681915,-0.01964104175567627,0.0282332431524992,-0.0014334411825984716,8.545350283384323e-05,0.1316173971088452,0.08781936140326914,0.6480312390273059
1687017279.92443,0.1310422718524933,-0.0893300250172615,-0.987343966960907,0.004074200987815857,-0.011439025402069092,-0.005621731281280518,-0.00880873017013073,0.0007459566695615649,0.005229615606367588,0.13195084312811636,0.08944925874354345,0.6480238975321352
1687017279.9299068,0.1308138519525528,-0.08873876929283142,-0.9874275326728821,0.0040890127420425415,0.006219223141670227,-0.01968306303024292,0.026220358908176422,0.004737236071377993,0.005923368968069553,0.1317124637546339,0.08885564696404145,0.6480157210617529
1687017279.9803839,0.13105878233909607,-0.08939458429813385,-0.9873359203338623,-0.005799472332000732,-0.0011816024780273438,0.012726545333862305,-0.014460224658250809,0.00282508647069335,-0.00044904276728630066,0.13196833224198506,0.08951407619693692,0.6480899051401461
1687017280.0455232,0.13060487806797028,-0.08890918642282486,-0.9874398708343506,-0.006962999701499939,0.009777091443538666,0.012006521224975586,0.004741299897432327,-0.0010127949062734842,0.01137699093669653,0.13150285115842775,0.08902673768884282,0.6486614638728583
1687017280.135431,0.13088510930538177,-0.08822624385356903,-0.9874640107154846,-0.0012160241603851318,-0.005676358938217163,-0.0009393095970153809,-0.043807726353406906,0.008159131743013859,0.013974637724459171,0.13177857405297355,0.08834110174979959,0.6494706909113297
1687017280.148258,0.13164035975933075,-0.08710306882858276,-0.9874633550643921,0.0017671436071395874,-0.0032289698719978333,0.01349484920501709,-0.026486126706004143,0.028396759182214737,0.012118681333959103,0.13253021884108718,0.08721358769490416,0.6503119326255354
1687017280.190953,0.13386167585849762,-0.08364245295524597,-0.9874638915061951,0.014682546257972717,-0.012854136526584625,0.009100854396820068,-0.11848422884941101,0.056381791830062866,0.016730476170778275,0.13473973088581226,0.08374028775787323,0.6516488268724832
1687017280.287797,0.13562248647212982,-0.07948403805494308,-0.987567126750946,-0.003038957715034485,0.017472311854362488,-0.030377209186553955,-0.02032330632209778,0.03754818066954613,0.0010023796930909157,0.13647621406276053,0.07956797289648297,0.6527822303196037
1687017280.2929358,0.1367194652557373,-0.08085355162620544,-0.9873046875,-0.008667811751365662,0.0026369988918304443,0.0153961181640625,0.008981717750430107,0.017005087807774544,0.015008476562798023,0.1376023891175369,0.08094190790526955,0.6535348662198647
1687017280.342124,0.1369314342737198,-0.078761525452137,-0.9874444007873535,-0.008437290787696838,-0.011585764586925507,0.0026116371154785156,-0.04081859439611435,0.034941211342811584,9.63723286986351e-05,0.13779378204513817,0.07884318678272566,0.6543750586613973
1687017280.432547,0.13802075386047363,-0.07784964144229889,-0.9873650074005127,0.003000885248184204,0.0025169923901557922,0.01370173692703247,-0.03804444521665573,0.014980686828494072,0.010423845611512661,0.13888698322395873,0.0779284888479308,0.6546564097135633
1687017280.445311,0.13904987275600433,-0.07580667734146118,-0.9873796105384827,0.010470911860466003,-0.0018758252263069153,0.023665010929107666,-0.047700271010398865,0.022039392963051796,0.07143207639455795,0.13990711755467897,0.07587947506642861,0.6564568998934416
1687017280.559025,0.13666081428527832,-0.0816611722111702,-0.9872463345527649,0.06593002378940582,0.0513572096824646,0.09733849763870239,0.18395566940307617,-0.2902248799800873,0.34214267134666443,0.1375521165886912,0.08175220332053361,0.6626473215391359
1687017280.5640879,0.12375430017709732,-0.0929911881685257,-0.987946093082428,0.05375111103057861,0.2090495228767395,-0.06956428289413452,0.4982614815235138,-0.3621261417865753,0.09852574020624161,0.124615140044068,0.09312573627516582,0.6682969006551616
1687017280.645156,0.10085057467222214,-0.10416457802057266,-0.9894336462020874,-0.0198875293135643,-0.21265366673469543,0.0038379430770874023,-0.21584273874759674,-0.4944768249988556,-0.16539405286312103,0.1015767834879518,0.10435386908914523,0.6665057984120945
1687017280.658597,0.08597388863563538,-0.09835313260555267,-0.9914308786392212,-0.019445650279521942,0.08289597183465958,0.04570639133453369,0.11386492848396301,-0.21971438825130463,0.05094223842024803,0.08650058486764531,0.09851239518654081,0.6715392056970978
1687017280.704072,0.07733270525932312,-0.11608229577541351,-0.9902244806289673,0.018934905529022217,-0.029059305787086487,-0.04369574785232544,0.41061079502105713,-0.2742057144641876,0.06087369844317436,0.07793794272694297,0.11634459262516471,0.6701195051660458
1687017280.7144,0.06132151558995247,-0.12810799479484558,-0.9898626208305359,-0.0028041452169418335,0.03042122721672058,0.03847712278366089,0.1510826051235199,-0.29014700651168823,0.016986139118671417,0.06187045379974462,0.1284610226450982,0.6732206606782319
1687017280.755858,0.04911651462316513,-0.13121649622917175,-0.9901362657546997,0.0005812756717205048,-0.07843928039073944,-0.011862635612487793,-0.09500553458929062,-0.30346187949180603,-0.015936389565467834,0.04956518496698989,0.13159598620009152,0.6716851056393469
1687017280.822161,0.03253043442964554,-0.13116554915905,-0.9908266067504883,0.000764157623052597,0.07801918685436249,0.009793281555175781,0.19509340822696686,-0.270586758852005,-0.034845899790525436,0.03281982293730293,0.1315445977970347,0.6717960866052706
1687017280.887392,0.02322542853653431,-0.143014058470726,-0.9894481301307678,-0.0037247780710458755,-0.03523911535739899,-0.025841176509857178,0.19842208921909332,-0.20419733226299286,-0.04162417724728584,0.02346880418041107,0.1435061189054015,0.6673429636773553
1687017280.973589,0.012848054058849812,-0.14800409972667694,-0.988903284072876,-0.004089592956006527,-0.002737492322921753,0.029705286026000977,0.0469307005405426,-0.17282262444496155,-0.07566150277853012,0.012991494027454966,0.14854983934432683,0.6654942353467727
1687017280.9796839,0.007460900116711855,-0.1466372311115265,-0.9891622066497803,0.0008550570346415043,-0.04156467318534851,0.0028951168060302734,-0.12757505476474762,-0.1135108470916748,-0.01627035066485405,0.007542502830710094,0.14716789236298616,0.6625372905459932
1687017281.029488,0.0027772807516157627,-0.14312903583049774,-0.9897001385688782,-0.005722311325371265,0.03048865497112274,0.029861271381378174,-0.014583995565772057,-0.08958140760660172,-0.054395366460084915,0.0028061767730276185,0.14362229119723915,0.6602852806904145
1687017281.123723,1.8824143808160443e-06,-0.14899013936519623,-0.9888386726379395,-0.005357800517231226,0.013324230909347534,0.008324146270751953,0.10960213094949722,-0.03135565295815468,-0.04359225183725357,1.903661769135933e-06,0.1495469386250931,0.6585761298039067
1687017281.129842,-0.0002455083595123142,-0.1488628089427948,-0.9888578057289124,-0.014265686273574829,-0.0305042564868927,-0.004840254783630371,-0.024917926639318466,0.0284177977591753,0.004122273065149784,-0.00024827466687414606,0.14941816699298927,0.6573376284619677
1687017281.181773,-2.0275354472687468e-05,-0.14334377646446228,-0.9896729588508606,0.001759692095220089,0.005144909024238586,-0.018582046031951904,-0.1258445382118225,0.027544014155864716,0.00044897571206092834,-2.0486924590430595e-05,0.14383925828202412,0.6572633980282422
1687017281.271163,0.0019412788096815348,-0.14270402491092682,-0.9897634983062744,-0.008563678711652756,0.022434234619140625,-0.007840871810913086,0.024993574246764183,0.0576087087392807,-0.005602525547146797,0.001961353662574331,0.1431928705981519,0.6574634573974404
1687017281.2773309,0.00496406527236104,-0.1454010009765625,-0.9893603324890137,0.003901207819581032,0.00946044921875,0.014812052249908447,0.04435015842318535,0.09532665461301804,-0.04135013744235039,0.005017406919928617,0.1459182678871497,0.6563899711373231
1687017281.332457,0.015590621158480644,-0.14252279698848724,-0.9896687269210815,-0.01751331239938736,-0.00939372181892395,0.010954737663269043,-0.041891247034072876,0.35034510493278503,0.008264021016657352,0.01575207070621707,0.14300976902791024,0.6561023154203646
1687017281.42345,0.0326693020761013,-0.14067402482032776,-0.9895167946815491,-0.004394855350255966,-0.009960740804672241,0.05236780643463135,-0.09407296031713486,0.4210429787635803,0.013765580020844936,0.03300342158539463,0.14114217614233232,0.657239331203251
1687017281.4294271,0.060166265815496445,-0.13258512318134308,-0.9893438220024109,-0.04383945092558861,-0.012266576290130615,-0.02542668581008911,-0.08168946206569672,0.6527079939842224,0.19273985922336578,0.060739509507526934,0.13297667822553694,0.6584075219699254
1687017281.483121,0.08035668730735779,-0.11987420916557312,-0.9895316958427429,0.0012014582753181458,-0.046568676829338074,0.00332564115524292,-0.44174182415008545,0.436569482088089,0.13205014169216156,0.08102897964832606,0.1201631738115863,0.6630707151240988
1687017281.570293,0.10445287078619003,-0.10444933921098709,-0.9890297651290894,0.07094680517911911,0.0684691071510315,-0.08459383249282837,-0.25910234451293945,0.32412323355674744,0.03005879744887352,0.10522140304102934,0.1046401925296336,0.6649595571230332
1687017281.584746,0.1164642721414566,-0.0981864482164383,-0.9883296489715576,0.024679437279701233,0.1443442702293396,-0.03480267524719238,0.30603039264678955,0.11496081203222275,-0.07335413992404938,0.11729855283816376,0.09834490210694292,0.6642843348774912
1687017281.633257,0.12134455144405365,-0.12861818075180054,-0.9842422604560852,-0.000815466046333313,-0.06062133610248566,0.006932079792022705,0.48413723707199097,0.09305524080991745,0.013529890216886997,0.12266826926238454,0.12897545494267407,0.6589781356669582
1687017281.694499,0.12983278930187225,-0.12231600284576416,-0.9839625358581543,-0.024303093552589417,-0.08256376534700394,0.005431652069091797,-0.4309408664703369,0.23145706951618195,-0.10881412774324417,0.13119105209000928,0.12262307546780835,0.659467892376301
1687017281.812916,0.13896586000919342,-0.11170842498540878,-0.9839764833450317,0.022136330604553223,0.056013837456703186,-0.01689326763153076,-0.05297559127211571,0.07960335910320282,-0.05485369637608528,0.14030096340179105,0.11194207033213596,0.6549853031276984
1687017281.824981,0.1418554037809372,-0.0946667268872261,-0.9853503108024597,0.001348242163658142,-0.04598879814147949,-0.021409332752227783,-0.4948648512363434,0.08695288002490997,-0.06292813271284103,0.14298203178313243,0.09480870004462773,0.6552665711532207
1687017281.906826,0.14195606112480164,-0.08443747460842133,-0.9862650632858276,0.1265375018119812,0.05601033568382263,-0.04971516132354736,0.048609085381031036,-0.10099811851978302,-0.008987403474748135,0.14295120062621675,0.08453813171641616,0.6523550067048544
1687017281.912462,0.1397155076265335,-0.0830753743648529,-0.9867005944252014,0.012384012341499329,0.0032108575105667114,0.012686312198638916,-0.08159931004047394,-0.09430039674043655,-0.028029005974531174,0.14066354562874459,0.08317122718342737,0.6489908371831277
1687017281.9935951,0.1369180828332901,-0.08003626018762589,-0.9873437285423279,-0.017212972044944763,-0.009532846510410309,0.01218503713607788,-0.07636826485395432,-0.06602761894464493,-0.03604725003242493,0.13779438046502446,0.08012195470564955,0.6473816781615631
1687017281.99949,0.13469403982162476,-0.07473895698785782,-0.9880645871162415,0.010294884443283081,-0.036818064749240875,0.005429089069366455,-0.19829703867435455,-0.04327236860990524,-0.04846157506108284,0.13548593936074632,0.07480871392483877,0.6467562047977109
1687017282.0813599,0.1336776167154312,-0.06791836768388748,-0.9886947870254517,-0.0012924522161483765,0.006242334842681885,0.01967012882232666,-0.1487315446138382,-0.02913644164800644,-0.010064385831356049,0.13439118836784147,0.06797069570924333,0.6460105653438496
1687017282.0931292,0.13394135236740112,-0.06454870104789734,-0.9888848066329956,-0.002715855836868286,0.013508036732673645,-0.0017310380935668945,-0.058005835860967636,-0.003322022035717964,-0.01675238274037838,0.1346275756818202,0.0645936079280151,0.6460193725649819
1687017282.170845,0.13327176868915558,-0.061340849846601486,-0.9891794323921204,-0.008821174502372742,-0.003386944532394409,-0.007250010967254639,-0.08137713372707367,0.0007056097383610904,0.0018380796536803246,0.13392318588816068,0.0613793829275176,0.6465345114685763
1687017282.181747,0.13405638933181763,-0.059378720819950104,-0.9891931414604187,-0.00139656662940979,0.02017887681722641,0.015178859233856201,0.021546244621276855,-0.0025427809450775385,0.0003182142972946167,0.1347003071849863,0.059413667889018223,0.6462799896674485
1687017282.23042,0.1335957944393158,-0.06048253923654556,-0.989188551902771,0.003412783145904541,-0.02530238777399063,0.022223830223083496,-0.04906107857823372,0.003996876999735832,-0.0005712816491723061,0.1342436705168298,0.060519474526823144,0.6465247739007043
1687017282.324974,0.13386170566082,-0.055414389818906784,-0.9894495010375977,-0.0018122345209121704,0.01581782102584839,-0.011054039001464844,-0.014737393707036972,0.012059996835887432,-0.012113688513636589,0.13447261663397972,0.055442790659057065,0.6465403143434357
1687017282.331429,0.13422898948192596,-0.06020553037524223,-0.9891197681427002,0.00026185810565948486,-0.002462327480316162,-0.0030982494354248047,0.07003721594810486,0.001329455291852355,0.008258162997663021,0.13488154185634998,0.06024196023789632,0.6463446478640212
1687017282.3763928,0.13364246487617493,-0.06072893738746643,-0.9891671538352966,0.00043642520904541016,-0.016480550169944763,0.005478799343109131,0.010684875771403313,-0.0021647452376782894,-0.0027404259890317917,0.1342928803627214,0.06076632630124099,0.6462923533736438
1687017282.47129,0.1335700899362564,-0.05998261272907257,-0.9892224669456482,-0.005121693015098572,0.014709774404764175,-0.018284857273101807,0.022713109850883484,0.0008120030397549272,0.016201838850975037,0.13421360737712296,0.060018640654477116,0.6463681627900495
1687017282.48552,0.1339154839515686,-0.06067045032978058,-0.9891338348388672,-0.0032087862491607666,0.0014815963804721832,0.009855270385742188,-0.011439267545938492,0.009049426764249802,0.0065665217116475105,0.13456841006799072,0.060707733087920726,0.6469318637681265
1687017282.5318599,0.13348722457885742,-0.060373712331056595,-0.9892098903656006,-0.005771249532699585,-0.0179954431951046,0.014631032943725586,-0.03197237476706505,-0.006098367273807526,0.00043699145317077637,0.134133018505366,0.06041044840969468,0.6473765695405413
1687017282.6225739,0.13371694087982178,-0.05961138382554054,-0.9892250895500183,0.0005297958850860596,0.01635270193219185,0.0029274821281433105,0.027109922841191292,0.0011482271365821362,-0.0004402538761496544,0.13435903972284605,0.05964674469051538,0.6474901575147887
1687017282.628762,0.13333389163017273,-0.0609942264854908,-0.9891924858093262,-0.0002773404121398926,-0.0038708969950675964,0.004161357879638672,-0.0147821344435215,-0.010961698368191719,-0.003277053125202656,0.13398311249633643,0.06103211061689867,0.6474043919275526
1687017282.6808782,0.133387953042984,-0.0586479976773262,-0.989327073097229,0.003269672393798828,0.010277625173330307,-0.0009225606918334961,0.0029748249799013138,0.006261096801608801,-0.005423827562481165,0.13401876834261936,0.05868167189663227,0.6473313981373077
1687017282.773489,0.133520245552063,-0.05887516215443611,-0.9892957210540771,-0.002844080328941345,-0.012337617576122284,-0.017128169536590576,-0.02213299088180065,0.011938024312257767,-0.009963185526430607,0.13415429874531962,0.05890922659477325,0.64731659206181
1687017282.779448,0.13339532911777496,-0.05792810767889023,-0.9893684983253479,-0.0038635432720184326,-0.0024509355425834656,-0.0076712965965271,-0.01884625107049942,0.006735805422067642,0.0038799261674284935,0.13402054736716915,0.05796055318422693,0.6473649547071021
1687017282.831404,0.1337716281414032,-0.05683508887887001,-0.9893810749053955,-0.011289417743682861,0.008510489016771317,0.0012981891632080078,-0.007554181851446629,0.021196505054831505,-0.0066004120744764805,0.1343923957480312,0.05686573021973522,0.6474505549331003
1687017282.92276,0.13372361660003662,-0.05595221370458603,-0.9894378781318665,-0.008983105421066284,-0.008699286729097366,0.010601818561553955,-0.04594431445002556,-0.0040252297185361385,-0.0055599152110517025,0.13433712062181077,0.055981450461334396,0.6475989956248022
1687017282.9289532,0.13404330611228943,-0.05596456676721573,-0.989393949508667,0.002888977527618408,0.005518998950719833,0.004332304000854492,0.01358585711568594,0.0031043188646435738,0.003750762902200222,0.13466032320227403,0.055993822987819686,0.6475199260830794
1687017282.979732,0.13397330045700073,-0.05596281215548515,-0.9894035458564758,0.0065447986125946045,0.004098173230886459,0.0008018016815185547,-0.009739371947944164,-0.0006783019052818418,0.004208293743431568,0.1345895531449966,0.055992062736825304,0.6475967571495826
1687017283.0724258,0.1360005885362625,-0.054932210594415665,-0.9891846776008606,-0.0025778263807296753,0.02333124727010727,0.018161118030548096,0.03983989730477333,0.16247759759426117,0.002942759543657303,0.13663095380826862,0.0549598761219759,0.6477450419642206
1687017283.0784888,0.14115731418132782,-0.058517422527074814,-0.9882562160491943,0.029435858130455017,-0.01957707107067108,0.038106679916381836,0.0036863554269075394,0.04443924129009247,0.08742329478263855,0.14187509701491363,0.05855087037613571,0.6476690587411528
1687017283.1323252,0.14049486815929413,-0.055028386414051056,-0.9885510206222534,0.010429710149765015,-0.01964813843369484,-0.10539734363555908,0.1385795921087265,0.19712652266025543,-0.10585455596446991,0.14117656626820524,0.05505619515153972,0.6524284317169802
1687017283.225192,0.13677632808685303,-0.06420386582612991,-0.9885191321372986,-0.0037197768688201904,0.0059610530734062195,0.022363126277923584,0.34391897916793823,-0.10519645363092422,0.026424914598464966,0.13749189207853496,0.06424805659214317,0.6514178916911574
1687017283.231482,0.12970243394374847,-0.08279434591531754,-0.9880902767181396,0.013363882899284363,0.011520527303218842,0.02317023277282715,0.41469860076904297,-0.22755059599876404,0.10643213242292404,0.13051953300965224,0.08288922642089541,0.6529380005769659
1687017283.278112,0.1150338426232338,-0.09773974120616913,-0.9885414242744446,-0.005842030048370361,-0.052971333265304565,-0.04244917631149292,-0.017992641776800156,-0.37840721011161804,0.03265005350112915,0.11584621533187309,0.09789602967547004,0.6549022199103581
1687017283.365124,0.09820246696472168,-0.08725124597549438,-0.9913341999053955,0.10873714089393616,0.006074480712413788,-0.03735232353210449,-0.1176600456237793,-0.46140289306640625,0.21111780405044556,0.09873877187542697,0.08736233101718321,0.6562548236008836
1687017283.3769999,0.07780978828668594,-0.09526516497135162,-0.9924062490463257,-0.003911562263965607,0.16891932487487793,0.007253110408782959,0.5150918960571289,-0.2986319363117218,0.011669405736029148,0.0782451030549241,0.09540984923119536,0.6617482111474302
1687017283.4312758,0.05795701965689659,-0.12623333930969238,-0.9903060793876648,0.039729662239551544,-0.06990315020084381,-0.049931347370147705,0.5568998456001282,-0.5635359287261963,0.008781206794083118,0.0584576690884586,0.12657101495706752,0.6586015132728689
1687017283.52344,0.03401848301291466,-0.14475667476654053,-0.988882303237915,-0.04122071713209152,-0.031802788376808167,0.06378769874572754,0.21470558643341064,-0.21500630676746368,-0.23672975599765778,0.03438738265133959,0.14526704863034462,0.65471194933511
1687017283.5296211,0.02287665568292141,-0.14247280359268188,-0.989534318447113,0.021312715485692024,-0.040846288204193115,-0.011243879795074463,-0.13879889249801636,-0.24305859208106995,-0.036705318838357925,0.02311449069990422,0.1429592639684807,0.6512598657360975
1687017283.582597,0.010652660392224789,-0.14020194113254547,-0.9900656342506409,0.04380587488412857,0.017963767051696777,0.00941377878189087,0.08030829578638077,-0.23471835255622864,-0.015473532490432262,0.010759134499012871,0.14066536297424795,0.6486961100117966
1687017283.646028,0.001766055473126471,-0.14533531665802002,-0.9893808960914612,-0.004924710374325514,0.022868260741233826,0.006074011325836182,0.1284676343202591,-0.1255645751953125,-0.06474387645721436,0.001785008822056601,0.14585187781594994,0.6470971154671509
1687017283.734164,-0.002278848784044385,-0.14802779257297516,-0.9889805912971497,0.012059647589921951,-0.01858292520046234,-0.020128905773162842,0.02835015580058098,-0.10141436755657196,-0.02908707782626152,-0.002304236049234996,0.1485737957830768,0.6442118714398753
1687017283.748122,-0.007007518317550421,-0.14674274623394012,-0.9891498684883118,-0.021572276949882507,-0.0024576932191848755,0.010771572589874268,-0.022893723100423813,-0.05964002013206482,-0.04142656922340393,-0.0070842664255951,0.1472745609626981,0.6428994532162754
1687017283.822844,-0.006941158324480057,-0.14773888885974884,-0.9890020489692688,-0.009156949818134308,-0.0035062432289123535,-0.0226556658744812,0.009604564867913723,-0.01542622223496437,-0.016230668872594833,-0.007018230735246919,0.14828167718364751,0.6411161034541725
1687017283.828516,-0.00820073951035738,-0.14724436402320862,-0.9890661239624023,-0.004982936196029186,0.010769754648208618,0.01045900583267212,-0.013989577069878578,0.008488964289426804,-0.00913973618298769,-0.008291206326800344,0.14778168132206965,0.6410529174763583
1687017283.876682,-0.008589072152972221,-0.1482560634613037,-0.9889116883277893,-0.000688355416059494,0.003923177719116211,0.023030400276184082,0.030674630776047707,0.013713154941797256,-0.0034815846011042595,-0.00868515957778141,0.14880461401428474,0.6405089656108005
1687017283.972781,-0.007682762574404478,-0.14875786006450653,-0.9888437986373901,-0.00981915183365345,-0.01255805790424347,0.021085619926452637,-0.026429135352373123,0.0828956887125969,0.003776860423386097,-0.007769283693942017,0.1493120433280021,0.6407602828395269
1687017283.978798,-0.0013294147793203592,-0.1427454799413681,-0.9897585511207581,-0.01676759496331215,-0.00830128788948059,-0.00012487173080444336,-0.12778165936470032,0.1751413345336914,0.029921643435955048,-0.0013431700453603625,0.1432347505219592,0.6416375002558691
1687017284.030529,0.007345534861087799,-0.14108656346797943,-0.9899700284004211,-0.015493812039494514,0.011981934309005737,0.020365536212921143,-0.039624232798814774,0.32572710514068604,0.036836277693510056,0.007419820970215988,0.14155886864480358,0.643274516075993
1687017284.120661,0.023886902257800102,-0.134159117937088,-0.9906718730926514,0.0016562249511480331,-0.011852249503135681,-0.08354687690734863,-0.08516914397478104,0.2839834988117218,0.046571727842092514,0.024107148896444632,0.13456485841751953,0.644996376453457
1687017284.134932,0.03905196115374565,-0.13904337584972382,-0.9895159602165222,-0.018651053309440613,0.024373576045036316,0.04664492607116699,0.25084441900253296,0.38913577795028687,0.028662502765655518,0.039445251217354795,0.13949533815507104,0.6472020549250646
1687017284.1766849,0.06123095378279686,-0.1368786245584488,-0.9886935949325562,-0.027493856847286224,-0.1405109167098999,-0.03916895389556885,-0.3238086700439453,0.40022584795951843,-0.043797846883535385,0.061852176722778734,0.1373096822516825,0.6471704441237158
1687017284.268122,0.07574814558029175,-0.12917460501194,-0.9887245297431946,-0.019672192633152008,0.016869932413101196,0.06880265474319458,-0.08072786033153534,0.3200649619102478,0.005476490594446659,0.07646262182595227,0.1295365712626937,0.6487197517373945
1687017284.2790608,0.09946510940790176,-0.1332799792289734,-0.9860746264457703,-0.03156358748674393,0.02698725461959839,-0.045251667499542236,-0.24654246866703033,0.36813515424728394,0.17751510441303253,0.10052973017722631,0.13367776105551168,0.6507395493463587
1687017284.392757,0.11796769499778748,-0.1106126680970192,-0.98683762550354,0.06379491090774536,0.1104753240942955,-0.08976149559020996,-0.277724027633667,0.2136935144662857,0.019020263105630875,0.11897655780406576,0.11083947683469163,0.6521162976055158
1687017284.397805,0.12813320755958557,-0.12045957893133163,-0.9844142198562622,-0.0029654502868652344,0.18706417083740234,-0.08724105358123779,0.7476755380630493,0.16149741411209106,-0.07477280497550964,0.12943418971015003,0.12075281796561999,0.6469870851260191
1687017284.483643,0.13475677371025085,-0.13442862033843994,-0.9817176461219788,-0.06839640438556671,-0.23574961721897125,0.02895885705947876,-0.776187539100647,0.10151810944080353,-0.10990682244300842,0.13641382241298727,0.13483682388934376,0.643267174465075
1687017284.4977221,0.14151623845100403,-0.09890545904636383,-0.9849826693534851,0.1784757375717163,0.32291972637176514,-0.021044552326202393,0.055734507739543915,-0.15959511697292328,-0.04334484413266182,0.14269731737546,0.0990674237319418,0.6393583170300798
1687017284.541451,0.13692836463451385,-0.09807540476322174,-0.9857138991355896,-0.011806398630142212,-0.047432415187358856,0.0472220778465271,-0.19051380455493927,-0.03963342308998108,-0.04069686308503151,0.13802957616471762,0.09823331577451996,0.6379781772923894
1687017284.632175,0.13607531785964966,-0.09009753912687302,-0.9865930676460266,-0.004147917032241821,0.04168139398097992,0.014684498310089111,-0.014592117629945278,-0.025556353852152824,-0.055532537400722504,0.1370597241883582,0.09021988254907168,0.6358589790615882
1687017284.646704,0.13438083231449127,-0.09168166667222977,-0.9866794347763062,0.014026045799255371,-0.05873948335647583,-0.007674813270568848,-0.05146557837724686,-0.018522413447499275,-0.047596316784620285,0.1353621836777984,0.09181059328964568,0.6349781556110299
1687017284.723763,0.1331084966659546,-0.08532384783029556,-0.9874218702316284,-0.012518376111984253,-0.01826808601617813,0.008036494255065918,-0.15994125604629517,-0.023080281913280487,-0.03511514514684677,0.1339963110760215,0.08542771340194331,0.6337323493042695
1687017284.7292972,0.13258951902389526,-0.08037245273590088,-0.9879070520401001,-0.010397225618362427,0.035954102873802185,-0.010673940181732178,-0.014958369545638561,-0.01623355969786644,0.005408314056694508,0.1334152884313813,0.08045923440676085,0.6339632712960245
1687017284.782237,0.1325227916240692,-0.08077496290206909,-0.9878831505775452,-0.006820976734161377,-0.013249710202217102,0.004210054874420166,-0.03232031315565109,0.0028354728128761053,-0.01573478803038597,0.13335212302312,0.08086305764777971,0.6340094418246203
1687017284.873338,0.132393941283226,-0.07833227515220642,-0.9880971312522888,-0.010155871510505676,-0.008383430540561676,0.009825646877288818,-0.025687646120786667,-0.0006941476603969932,-0.028327278792858124,0.13319548338652099,0.07841260295299354,0.6332379368616038
1687017284.878313,0.1319582760334015,-0.07844701409339905,-0.9881463050842285,0.014556512236595154,0.005174301564693451,-0.011472225189208984,0.011602534912526608,-0.006803838536143303,-0.006364189554005861,0.13275580042588217,0.07852769471457624,0.6328033582150158
1687017284.928625,0.1316559910774231,-0.0778357982635498,-0.9882349371910095,-0.003024488687515259,-0.006652124226093292,-0.0030522942543029785,-0.022191446274518967,0.007625035010278225,-0.026769328862428665,0.13244348457473307,0.07791461030923802,0.6321613997650184
