Timestamp,gravityX,gravityY,gravityZ,accelerationX,accelerationY,accelerationZ,rotationRateX,rotationRateY,rotationRateZ,attitudeRoll,attitudePitch,attitudeYaw
1687020095.298867,0.162593275308609,-0.1729557067155838,-0.9714163541793823,0.010517686605453491,-0.017550259828567505,0.0005607008934020996,-0.003758419305086136,0.021542107686400414,0.026044528931379318,0.16584025636600708,0.1738298159779536,-1.6366995983147652
1687020095.317387,0.16279633343219757,-0.173123300075531,-0.9713525176048279,-0.006332695484161377,-0.014315664768218994,0.01216977834701538,-0.03098098561167717,-0.01699862629175186,0.018075020983815193,0.1660542958159919,0.17399997452684093,-1.6355357612765968
1687020095.388947,0.16264180839061737,-0.1721503585577011,-0.9715512990951538,0.008043020963668823,0.016739606857299805,-0.0006624460220336914,-0.006879244465380907,-0.017580794170498848,0.0107079166918993,0.16586623502738174,0.17301220903585646,-1.6342358838139148
1687020095.393007,0.1617068350315094,-0.17220281064510345,-0.9716980457305908,-0.00028409063816070557,-0.014351144433021545,0.00718998908996582,-0.06291448324918747,-0.016690367832779884,-0.029806485399603844,0.16490551248113736,0.1730654502875182,-1.6343652814514156
1687020095.4817572,0.1621592789888382,-0.171414315700531,-0.9717620611190796,-0.009495064616203308,-0.011752188205718994,-0.00013124942779541016,-0.00966670922935009,0.0021264643874019384,-0.016397468745708466,0.16534784845723804,0.17226505603805686,-1.635627147587548
1687020095.497674,0.16261595487594604,-0.17295049130916595,-0.9714134931564331,0.006695583462715149,-0.0035174041986465454,0.0027397871017456055,0.027141505852341652,-0.009447899647057056,0.005303831771016121,0.1658634405745832,0.17382451877353516,-1.6360065035620655
1687020095.569452,0.16102272272109985,-0.17343854904174805,-0.9715918898582458,0.00413842499256134,-0.002937793731689453,-0.01020437479019165,0.02057967707514763,-0.02096620574593544,0.014602258801460266,0.16423799124308147,0.17432006055913193,-1.6355058073096185
1687020095.574405,0.16154736280441284,-0.17400206625461578,-0.9714040160179138,-0.008562728762626648,-0.006265267729759216,-0.012360632419586182,0.005855591967701912,0.002863494213670492,0.00794755108654499,0.16479478332640732,0.1748922919452194,-1.6352763765379421
1687020095.62763,0.16158553957939148,-0.17549008131027222,-0.9711299538612366,0.005299851298332214,-0.029298126697540283,0.017119944095611572,-0.01747889257967472,-0.016371985897421837,-0.0032172193750739098,0.16487870553381198,0.17640354663377344,-1.6353828712026137
1687020095.721496,0.15916475653648376,-0.17474398016929626,-0.9716641306877136,0.0002590864896774292,0.0008243024349212646,0.003265082836151123,0.001316700130701065,-0.035578303039073944,0.0033285655081272125,0.16236438751480706,0.175645737225043,-1.6349322066211753
1687020095.7373672,0.158143550157547,-0.17731399834156036,-0.971365213394165,-0.005784526467323303,0.0006935149431228638,0.006368875503540039,0.015241436660289764,-0.03805956989526749,0.006753390654921532,0.16138948893791047,0.17825653226441662,-1.6352240851225963
1687020095.7735171,0.15712125599384308,-0.17620263993740082,-0.9717332720756531,-4.725158214569092e-05,0.009622454643249512,0.002601802349090576,-0.0023681828752160072,-0.021392710506916046,-0.00463188998401165,0.1603043449872291,0.17712739685137516,-1.6350199900830646
1687020095.845267,0.15639503300189972,-0.17750799655914307,-0.971612811088562,-0.0038681626319885254,-0.013150572776794434,0.00011622905731201172,-0.003919740207493305,-0.013936924748122692,-0.005759472493082285,0.15959540247181256,0.178453658728851,-1.6354042606922308
1687020095.929898,0.15481162071228027,-0.1753813922405243,-0.9722524285316467,0.01431681215763092,-0.005923554301261902,-0.0034098029136657715,-0.039157357066869736,-0.06658415496349335,0.003767186775803566,0.1579042605035403,0.17629314759096007,-1.6352811208079518
1687020095.9452581,0.15116968750953674,-0.1731007993221283,-0.973233699798584,0.00016699731349945068,0.0010579675436019897,0.0008673667907714844,-0.07097414135932922,-0.07001670449972153,0.004705950617790222,0.1540958341606421,0.17397713714119947,-1.6344536562014904
1687020096.0542932,0.15106655657291412,-0.17405681312084198,-0.9730792045593262,-0.01483607292175293,-0.00357075035572052,-0.004246234893798828,0.022764135152101517,-0.003372830105945468,-0.016704797744750977,0.1540164283194925,0.17494787229630523,-1.6349418562002938
1687020096.070619,0.15089856088161469,-0.17284418642520905,-0.9733213782310486,0.008281141519546509,0.017830148339271545,0.009545743465423584,-0.022050008177757263,-0.003523698076605797,-0.02960115484893322,0.15381015373765863,0.17371659267194017,-1.6360210260058405
1687020096.139844,0.14959104359149933,-0.17303045094013214,-0.9734901189804077,-0.002206370234489441,0.006496027112007141,0.00013196468353271484,0.010761933401226997,0.013946505263447762,0.003038546070456505,0.15247203746699162,0.17390570040420925,-1.6363909460860626
1687020096.144537,0.1511353999376297,-0.17383462190628052,-0.9731082320213318,-0.002713143825531006,0.0020969510078430176,-0.004201948642730713,0.04215966910123825,0.021353021264076233,0.004199419170618057,0.15408098723789493,0.17472224553924703,-1.6364401142518457
1687020096.231225,0.15224160254001617,-0.17403043806552887,-0.9729007482528687,0.0047866106033325195,-0.00431428849697113,-0.006988167762756348,0.02968316152691841,0.02842717617750168,0.006904125213623047,0.1552233568053978,0.17492108913122684,-1.6366769281454188
1687020096.245974,0.15281027555465698,-0.17496702075004578,-0.9726436138153076,-0.0030299872159957886,-0.0036371052265167236,-0.002362489700317383,0.010876982472836971,0.021844109520316124,0.0023610377684235573,0.15583437692558944,0.17587227126781885,-1.636308439585912
1687020096.320444,0.15238329768180847,-0.17492975294589996,-0.97271728515625,0.003424212336540222,-0.01214301586151123,0.005523681640625,-0.02766827866435051,-0.017867617309093475,-0.006084378343075514,0.1553943467206116,0.17583441430315697,-1.636246787814571
1687020096.335431,0.15101183950901031,-0.17410047352313995,-0.9730798602104187,-0.004313841462135315,-0.0023521631956100464,0.0022242069244384766,-0.022268719971179962,-0.02553485706448555,0.0034172479063272476,0.15396141175727818,0.17499221291064956,-1.6359823789953902
1687020096.3738089,0.14968232810497284,-0.17386972904205322,-0.9733265042304993,-0.0004818737506866455,0.008205056190490723,0.008879482746124268,-0.017282284796237946,-0.042141664773225784,-0.011046113446354866,0.15258890062923705,0.17475789363646907,-1.6360573603301762
1687020096.471514,0.14896230399608612,-0.17251823842525482,-0.973677396774292,-0.007055535912513733,-0.001645594835281372,-0.008363008499145508,-0.019693909212946892,-0.0030680312775075436,-0.015003837645053864,0.1518122519769502,0.17338566380251694,-1.6366882219846979
1687020096.48717,0.14985600113868713,-0.1720089167356491,-0.9736303687095642,0.00332699716091156,-0.009875848889350891,-0.0019860267639160156,-0.015737516805529594,-0.0013457649620249867,-0.02858063206076622,0.15271625511286377,0.17286861474473142,-1.63807118342015
1687020096.592928,0.1486627757549286,-0.17043261229991913,-0.9740903973579407,0.010776326060295105,0.0031962841749191284,-0.006363093852996826,-0.0391911081969738,-0.03732972964644432,-0.0188334621489048,0.1514483921037888,0.17126868929665287,-1.6387842949112208
1687020096.599135,0.14769336581230164,-0.16929244995117188,-0.9744366407394409,0.001415535807609558,0.002803802490234375,-0.001851201057434082,-0.01729806326329708,-0.007921509444713593,-0.008642876520752907,0.15042304498879236,0.1701117123938645,-1.6392770455990757
1687020096.680731,0.14776840806007385,-0.17031165957450867,-0.9742476344108582,-0.002870917320251465,-0.004462495446205139,0.005070388317108154,0.029706064611673355,0.0069748819805681705,0.005700642243027687,0.15052707634439375,0.17114594271713077,-1.639583480457876
1687020096.695071,0.14884233474731445,-0.17045824229717255,-0.9740585088729858,-0.009621113538742065,0.00786060094833374,-0.0009323358535766602,0.051327336579561234,0.044004540890455246,-0.007599184289574623,0.15163341420497253,0.17129470365122185,-1.6395503354174612
1687020096.770735,0.15123865008354187,-0.17137953639030457,-0.9735275506973267,-0.00418969988822937,-0.009055644273757935,0.0023362040519714355,-0.0032108735758811235,0.053797513246536255,-0.009628512896597385,0.15411922251459872,0.17222974644712236,-1.6401684396388279
1687020096.787404,0.1525741070508957,-0.17275124788284302,-0.9730766415596008,0.008741840720176697,-0.015420138835906982,-0.0003578066825866699,0.019635386765003204,0.029569007456302643,0.004299819469451904,0.1555292590175986,0.17362222893990237,-1.6406227515051233
1687020096.827217,0.15295343101024628,-0.17330864071846008,-0.9729179739952087,-0.001708298921585083,0.013961106538772583,-0.01296764612197876,0.04781010001897812,0.019517570734024048,0.00746418721973896,0.15593472621487312,0.17418815839378926,-1.6404350820385547
1687020096.9204779,0.15360988676548004,-0.17466872930526733,-0.9725712537765503,0.010940909385681152,-0.000792086124420166,-0.002556920051574707,-0.011629925109446049,-0.001420732936821878,-0.00673951581120491,0.15664802634230846,0.17556930946500904,-1.6406436697813211
1687020096.926352,0.15351322293281555,-0.17464599013328552,-0.9725906252861023,-0.0004065185785293579,0.0045410096645355225,0.004054248332977295,0.038863010704517365,0.01901489868760109,-0.01335187815129757,0.15654799340800207,0.17554621851361124,-1.641070248125564
1687020096.9801989,0.1549619734287262,-0.17549212276935577,-0.9722084403038025,-0.006875425577163696,0.0038765370845794678,0.0021462440490722656,0.01801944710314274,0.02604205161333084,-0.029467731714248657,0.15806210095359877,0.17640562800334628,-1.6423498434118673
1687020097.072731,0.1560823619365692,-0.17562012374401093,-0.97200608253479,-0.00618000328540802,0.007025778293609619,0.00026535987854003906,0.006753410212695599,0.019732089713215828,-0.034864094108343124,0.15921835288168903,0.1765356535673586,-1.643902415612151
1687020097.078759,0.15792353451251984,-0.1754576414823532,-0.9717380404472351,-0.007517635822296143,0.022595107555389404,-0.0019405484199523926,0.03335898742079735,0.029601098969578743,-0.04132838547229767,0.16110805586953236,0.17637060859896217,-1.6459157001778282
1687020097.12956,0.15836739540100098,-0.17559555172920227,-0.9716408848762512,0.016025319695472717,0.0015385597944259644,-0.00954502820968628,0.0038588871248066425,-0.0006718520889990032,-0.047145526856184006,0.16156891313665567,0.17651069284901233,-1.6481285020328613
1687020097.2217488,0.15778382122516632,-0.17613323032855988,-0.9716385006904602,0.004264533519744873,0.0052347928285598755,-0.001948535442352295,0.045930176973342896,0.003297323128208518,-0.04079175740480423,0.16098417473448343,0.17705687984864726,-1.6506582877377354
1687020097.22768,0.15979720652103424,-0.17578203976154327,-0.9713730216026306,-0.004020214080810547,0.017121151089668274,0.0017837882041931152,0.013591941446065903,0.020570851862430573,-0.0368388295173645,0.16304619961004685,0.17670012094313697,-1.6528878715258883
1687020097.27789,0.16038471460342407,-0.17668500542640686,-0.9711123108863831,0.0010990649461746216,-0.030529364943504333,0.010403692722320557,-0.028929220512509346,-0.00022990049910731614,-0.030223270878195763,0.16367816647265757,0.1776174401514226,-1.654450985764677
1687020097.369252,0.1610591858625412,-0.17560099065303802,-0.9711973071098328,-0.0009944736957550049,0.004946708679199219,0.008093118667602539,0.05383463576436043,0.028385233134031296,-0.021040424704551697,0.16434005321784315,0.17651620850796132,-1.655650756711084
1687020097.385212,0.16231732070446014,-0.17832040786743164,-0.9704921245574951,0.022680267691612244,0.013281330466270447,0.008669614791870117,0.027187112718820572,-0.02270365133881569,-0.03640154004096985,0.16571870903983002,0.1792792340390807,-1.6566873297587803
1687020097.427793,0.1614965945482254,-0.17915700376033783,-0.9704749584197998,-0.009793698787689209,0.02415822446346283,-0.006575822830200195,0.07378024607896805,-0.004587098490446806,0.030725833028554916,0.16489880005330312,0.18012952029246296,-1.6574677005514469
1687020097.523063,0.16219620406627655,-0.18244394659996033,-0.9697456359863281,-0.008341819047927856,-0.04038015007972717,-0.002498626708984375,0.004245245363563299,-0.02549957111477852,0.014584681019186974,0.1657224564613901,0.1834715391088228,-1.6579262444956238
1687020097.5284328,0.1613650619983673,-0.18091413378715515,-0.970170795917511,-0.0005831867456436157,0.02915021777153015,-0.007124125957489014,0.029131153598427773,-0.004897090140730143,0.007194675505161285,0.1648176282796405,0.18191584699258484,-1.657036991761549
1687020097.580085,0.16068601608276367,-0.1837005615234375,-0.9697598218917847,-0.010753124952316284,-0.0054779052734375,-0.001385807991027832,0.023169666528701782,-0.0008538791444152594,-0.016585754230618477,0.16420478494048338,0.18474976361607845,-1.6572799915046774
1687020097.6711621,0.1615534871816635,-0.18366903066635132,-0.9696216583251953,-0.003914922475814819,0.009154260158538818,0.0054492950439453125,0.05848458409309387,0.021533850580453873,-0.021703284233808517,0.16509838151132677,0.18471768966733684,-1.6581778546672938
1687020097.686768,0.16158559918403625,-0.1873016655445099,-0.9689211249351501,-0.00022388994693756104,-0.0007018446922302246,0.004626750946044922,0.04226712882518768,0.009330980479717255,-0.027816571295261383,0.16524782378407585,0.1884144775269229,-1.6599185999392934
1687020097.7252378,0.1619120091199875,-0.18884827196598053,-0.968566358089447,0.006392434239387512,0.004720479249954224,-0.002701282501220703,0.0752405896782875,0.004037016071379185,-0.014630994759500027,0.165635126478618,0.18998918418939167,-1.6615408111864711
1687020097.818375,0.16232842206954956,-0.1921565979719162,-0.9678457379341125,-0.0030571669340133667,0.005389019846916199,-0.009525477886199951,0.05525190383195877,0.008864661678671837,-0.012363312765955925,0.16617471658919566,0.1933592312981826,-1.6627906065014473
1687020097.834787,0.1633678823709488,-0.19318559765815735,-0.967465877532959,-0.0007702261209487915,0.0011842697858810425,0.0029121041297912598,0.028132203966379166,0.020434366539120674,-0.015710374340415,0.16728356858209714,0.19440787107508592,-1.6638246114709032
1687020097.877761,0.16354364156723022,-0.1961614340543747,-0.9668372273445129,-0.005828768014907837,-0.013097599148750305,0.0014441609382629395,0.01432790607213974,0.018002765253186226,-0.017012126743793488,0.16756705724891918,0.197441754927517,-1.664795045853516
1687020097.97079,0.16442710161209106,-0.19487476348876953,-0.9669475555419922,-0.00807027518749237,0.014714241027832031,0.0054607391357421875,0.019719209522008896,0.013015197589993477,0.004552818834781647,0.16843640862795817,0.1961297675505118,-1.6654578014070767
1687020097.985811,0.16504554450511932,-0.19711768627166748,-0.9663873910903931,0.00373193621635437,-0.01870262622833252,0.009447693824768066,-0.03127366676926613,0.011765643022954464,-0.005851884372532368,0.16915409452793878,0.1984170499932153,-1.6655186685545647
1687020098.029773,0.16491860151290894,-0.196428582072258,-0.9665493965148926,0.008085563778877258,2.1904706954956055e-06,-0.0016512870788574219,0.04025457799434662,-0.003730226308107376,-0.0003665713593363762,0.16899865934056665,0.197714205266596,-1.6658489868144062
1687020098.118376,0.1654304414987564,-0.19717788696289062,-0.9663093090057373,-0.00016248226165771484,0.005344375967979431,-0.0014641284942626953,-0.004955976270139217,0.0010084693785756826,-0.0069610909558832645,0.1695544999473054,0.19847845268072764,-1.6661146620886118
1687020098.134697,0.16517141461372375,-0.19769233465194702,-0.9662485122680664,-0.001139417290687561,-0.019028231501579285,-0.005705833435058594,-0.0357477106153965,-0.010683873668313026,-0.0010326281189918518,0.16930451440369884,0.19900324059142405,-1.666201424529763
1687020098.174592,0.16571971774101257,-0.19662582874298096,-0.9663721919059753,0.0013945400714874268,-0.015166148543357849,0.011355161666870117,0.0037940391339361668,0.0007007411331869662,0.006398923695087433,0.16983447968365128,0.19791537573195297,-1.6661525974357048
1687020098.2689428,0.16552770137786865,-0.19797201454639435,-0.966130256652832,-0.008789390325546265,-0.007136628031730652,0.0036058425903320312,0.022752350196242332,0.0080671776086092,-0.0032435841858386993,0.16968311900547198,0.19928855958179387,-1.6663025878965234
1687020098.285236,0.16608461737632751,-0.1988043189048767,-0.9658637046813965,0.0033489763736724854,-0.002275988459587097,0.00979381799697876,0.0017649766523391008,0.00652267737314105,-0.006490776780992746,0.17028915038123804,0.200137740115026,-1.6667055394848154
1687020098.328053,0.1659497767686844,-0.19846397638320923,-0.9659568667411804,-0.0009259432554244995,0.009544909000396729,0.0038597583770751953,-0.006978181190788746,-0.0014814529567956924,-2.6485882699489594e-05,0.17013744381283033,0.1997904793208656,-1.6665723926550167
1687020098.420854,0.16633222997188568,-0.19819723069667816,-0.9659458994865417,-0.0009727030992507935,-0.005614414811134338,-0.004680931568145752,-0.014318453148007393,0.0014790499117225409,0.007558463141322136,0.17052390442165327,0.19951831890075974,-1.6664336988293573
1687020098.4359741,0.16583356261253357,-0.1983700394630432,-0.9659961462020874,-0.0028391480445861816,-0.015039384365081787,-0.011771798133850098,-0.02800077572464943,-0.0029113043565303087,-0.0023362450301647186,0.17001380437685254,0.1996946295105948,-1.6661557025970812
1687020098.4768739,0.1657104641199112,-0.19734346866607666,-0.9662275314331055,-0.002944931387901306,0.00032198429107666016,0.008723258972167969,-0.031883131712675095,0.0003020659205503762,0.009139049798250198,0.16985011532779262,0.19864736070310232,-1.6654629471126856
1687020098.569233,0.1657712608575821,-0.19617176055908203,-0.9664556384086609,-0.019973531365394592,-0.013163551688194275,0.002359628677368164,-0.07899904251098633,0.01842554286122322,-0.019291792064905167,0.16987190015151782,0.19745228643815724,-1.6649113991762166
1687020098.5833058,0.1680118292570114,-0.1933145672082901,-0.9666444659233093,-0.02384677529335022,0.0022287517786026,-0.002837955951690674,-0.0412701740860939,0.07585155218839645,-0.0034816712141036987,0.1720901461693329,0.1945393244668575,-1.6648955078995908
1687020098.6264691,0.1682017594575882,-0.19276610016822815,-0.9667209386825562,0.057079017162323,-0.03341493010520935,-0.0025631189346313477,-0.06935953348875046,-0.01116177812218666,0.030710387974977493,0.17226749574201417,0.1939803430890988,-1.6633131768363152
1687020098.718518,0.16701984405517578,-0.18797796964645386,-0.9678680896759033,-0.0030641406774520874,0.0024310946464538574,-0.00468134880065918,-0.06395930796861649,-0.007991284132003784,0.015430767089128494,0.1708817364045241,0.18910301087487869,-1.6625804659840602
1687020098.734725,0.16937656700611115,-0.18731169402599335,-0.9675876498222351,0.002956211566925049,0.0017648190259933472,-0.007158994674682617,-0.04115745797753334,-0.015518175438046455,-0.0026726024225354195,0.1732945224154628,0.1884246826807157,-1.6624815650647222
1687020098.808844,0.16912762820720673,-0.1858045607805252,-0.9679217338562012,0.008423656225204468,0.0021803081035614014,-0.005146443843841553,-0.019680393859744072,-0.010406505316495895,0.006154444068670273,0.17298633871179878,0.18689062429248682,-1.6617146428649416
1687020098.81481,0.16839823126792908,-0.18350337445735931,-0.9684877395629883,-0.008913367986679077,0.006821870803833008,-0.00046056509017944336,-0.023701900616288185,-9.288088767789304e-05,0.0036734435707330704,0.17215631439036452,0.18454916263780752,-1.661583571569992
1687020098.869492,0.16879761219024658,-0.1828824281692505,-0.9685356616973877,-0.005482777953147888,-0.005655169486999512,0.007598161697387695,-0.020783808082342148,-0.006654510274529457,0.008944105356931686,0.1725481889869823,0.18391753219379336,-1.6613128894420044
1687020098.966061,0.16820396482944489,-0.18118631839752197,-0.9689576625823975,0.0022825151681900024,0.012012109160423279,-0.002310037612915039,-0.008496316149830818,0.0032097049988806248,0.004076113924384117,0.1718798414199904,0.18219259652857578,-1.6605562214889107
1687020098.9794521,0.16822537779808044,-0.18128231167793274,-0.9689359664916992,0.0016202181577682495,0.00911739468574524,0.0023984909057617188,-0.0029368342366069555,-0.004121444653719664,-0.0021956302225589752,0.1719050720751179,0.182290206107296,-1.660495585954891
1687020099.01633,0.16797535121440887,-0.18036606907844543,-0.9691503047943115,0.0058069974184036255,-0.0019611865282058716,-0.012981593608856201,0.004552573896944523,-0.012142486870288849,0.01107543334364891,0.17161735042280815,0.18135860510028765,-1.6602326485769363
1687020099.140065,0.1676783263683319,-0.18050427734851837,-0.9691760540008545,-0.00042672455310821533,-0.006034418940544128,-0.004014253616333008,-0.0019358182325959206,-0.0009713245672173798,0.004771199077367783,0.17131532697728138,0.18149912307149382,-1.6597626203909475
1687020099.146062,0.1675744205713272,-0.18032415211200714,-0.9692275524139404,-0.005373463034629822,0.0005756169557571411,0.00488734245300293,0.0005957824178040028,0.004222904797643423,0.002500588074326515,0.1712023090322332,0.18131599700320442,-1.6596436824144654
1687020099.23242,0.16747964918613434,-0.18062171339988708,-0.9691885113716125,-0.0046378374099731445,0.005725473165512085,0.002834141254425049,0.019757159054279327,-0.002174407709389925,0.0008286554366350174,0.17111412342874663,0.18161852316069246,-1.6594719900882695
1687020099.24787,0.1673140525817871,-0.18080803751945496,-0.9691823720932007,-0.0051588863134384155,-0.0006494969129562378,0.0030416250228881836,-0.007853694260120392,0.002203030278906226,0.00812305323779583,0.17094927718241343,0.18180796125229998,-1.6594037796839642
1687020099.321836,0.16759544610977173,-0.18116909265518188,-0.969066321849823,0.0019449740648269653,-0.007902562618255615,0.001323401927947998,0.014934041537344456,0.004115446470677853,-0.00017402507364749908,0.17125131037817423,0.18217509018987735,-1.6593560713850781
1687020099.334145,0.16740401089191437,-0.18083922564983368,-0.9691610336303711,-0.00035077333450317383,0.004234001040458679,-0.009400367736816406,-0.005880759097635746,-0.002190785948187113,-0.0069030337035655975,0.1710431011839711,0.18183968548357787,-1.6595215863008983
1687020099.411509,0.16758134961128235,-0.18075326085090637,-0.9691464304924011,0.008779749274253845,-0.006151646375656128,-0.007095634937286377,-0.0014698316808789968,-0.008253073319792747,-0.0004933374002575874,0.17122331561250229,0.18175227498205948,-1.6596695529135417
1687020099.416339,0.16711965203285217,-0.18033839762210846,-0.9693034291267395,0.001566275954246521,0.00998927652835846,-0.000590980052947998,0.004693321883678436,0.0009426893084309995,0.006314767524600029,0.1707335888670587,0.18133047728037266,-1.6594446799953035
1687020099.4704208,0.16708119213581085,-0.18058310449123383,-0.9692644476890564,-0.003232315182685852,0.0005751699209213257,0.005977153778076172,0.00039451406337320805,-0.0006052730605006218,-0.002730659209191799,0.1707017816225647,0.18157926325347074,-1.659575147079353
1687020099.562529,0.16697745025157928,-0.18087168037891388,-0.9692285656929016,-0.005829364061355591,-0.0016844719648361206,0.007161915302276611,0.01136467419564724,0.005476454738527536,0.0022489186376333237,0.17060403786109873,0.1818726749554567,-1.6597933276798533
1687020099.568369,0.16856054961681366,-0.18261685967445374,-0.9686270952224731,-0.016872897744178772,0.044387489557266235,-0.0017555952072143555,0.14291711151599884,0.0760321170091629,0.008719334378838539,0.17229468750123703,0.18364741309193733,-1.6601755419675734
1687020099.618472,0.16794069111347198,-0.18749253451824188,-0.9678029417991638,0.02084106206893921,-0.07253248989582062,0.04196065664291382,-0.009773701429367065,-0.05730104446411133,-0.020775172859430313,0.17181683294766403,0.18860879080321336,-1.660597612863794
1687020099.6817288,0.1676338016986847,-0.1914568841457367,-0.9670796990394592,-0.019730359315872192,0.03734312951564789,-0.008246779441833496,0.20530997216701508,-0.0007131310412660241,0.022954463958740234,0.1716347438250023,0.1926462679620734,-1.662106075489856
1687020099.7701259,0.16761571168899536,-0.19964812695980072,-0.9654250741004944,-0.029783055186271667,-0.03986908495426178,-0.013609349727630615,0.0528048612177372,-0.0027163608465343714,-0.013781712390482426,0.17190496419111265,0.20099880396648487,-1.6631439565259696
1687020099.785911,0.16727295517921448,-0.2052505910396576,-0.96430903673172,0.019281014800071716,-0.029139667749404907,0.01434260606765747,0.12426406145095825,-0.016679713502526283,-0.0159993264824152,0.17175497010437335,0.2067197354573012,-1.6635785849468623
1687020099.827636,0.1665716916322708,-0.20839282870292664,-0.9637563824653625,-0.02634340524673462,-0.01662851870059967,-0.004093348979949951,0.03191728517413139,0.012123305350542068,-0.022374402731657028,0.1711450988044604,0.20993142553709224,-1.6653726769986366
1687020099.920604,0.1678621619939804,-0.20890942215919495,-0.963420569896698,0.00265483558177948,0.025208860635757446,0.00027054548263549805,0.0371561236679554,0.01125751156359911,0.013262420892715454,0.17250388396555652,0.21045964014143145,-1.6658753272479225
1687020099.935962,0.16561894118785858,-0.21140098571777344,-0.9632652997970581,0.005783051252365112,-0.010812759399414062,0.0042198896408081055,-0.01224771048873663,0.0018404407892376184,0.0024068448692560196,0.1702701320275128,0.21300812423072396,-1.6652914975855986
1687020100.013634,0.1658046990633011,-0.20852519571781158,-0.9638599753379822,0.013028323650360107,-0.008271679282188416,-0.006202280521392822,-0.055459897965192795,-0.006734937429428101,-0.007813036441802979,0.1703542754778678,0.2100667589517144,-1.6652021768790468
1687020100.019034,0.16617722809314728,-0.20941700041294098,-0.9636024236679077,-3.9517879486083984e-05,-0.003382071852684021,-0.008809685707092285,0.004675545729696751,0.009926463477313519,-0.009639698080718517,0.17077439922225993,0.21097870551351178,-1.6658376913581399
1687020100.069463,0.1665377914905548,-0.20901410281658173,-0.9636276364326477,-0.004001155495643616,0.001036807894706726,0.0039414167404174805,-0.022623654454946518,0.006341982167214155,-0.010406422428786755,0.1711333551704996,0.21056668809146561,-1.666064875028219
1687020100.1638799,0.166360542178154,-0.20748430490493774,-0.9639888405799866,-0.0015656054019927979,-0.002980172634124756,0.0018611550331115723,-0.026672057807445526,0.0035648378543555737,-0.014748972840607166,0.1708919320815606,0.20900258937167202,-1.6663604505631635
1687020100.1690788,0.16669879853725433,-0.20679141581058502,-0.9640792608261108,-0.00017961859703063965,0.011768832802772522,0.00019681453704833984,0.006827912293374538,-0.001849501859396696,-0.003662765957415104,0.17121690563119007,0.20829434015489826,-1.6668351675126534
1687020100.218162,0.16719380021095276,-0.20673415064811707,-0.9640058279037476,1.2025237083435059e-05,-0.010917216539382935,0.004472136497497559,-0.04487549513578415,0.002424871549010277,-0.013862140476703644,0.17172823117121194,0.20823582123112605,-1.6668088641032697
1687020100.282975,0.1675412654876709,-0.20626814663410187,-0.9640453457832336,0.0032351166009902954,-0.015533596277236938,-0.0019122958183288574,-0.008376739919185638,0.0011281785555183887,-0.008607722818851471,0.17207121271724338,0.20775955503807605,-1.6671095594247
1687020100.401816,0.167453333735466,-0.2060549259185791,-0.9641062021255493,0.004253849387168884,0.0030977725982666016,-0.014333128929138184,0.0031240542884916067,-0.005973540246486664,0.001937861554324627,0.17197201890365849,0.20754164322655366,-1.6672164278770831
1687020100.4161801,0.16748352348804474,-0.20739692449569702,-0.9638131260871887,-0.001361072063446045,-0.01750236749649048,0.007285416126251221,-0.0034506910014897585,0.0013628029264509678,0.0009208004921674728,0.17205369176252383,0.20891328074806084,-1.6672888530826553
1687020100.49066,0.16755498945713043,-0.2066999077796936,-0.9639504551887512,-0.0007916688919067383,-0.0018114447593688965,0.006003677845001221,-0.0030026810709387064,0.0049017444252967834,-0.002605224959552288,0.17210162823914765,0.20820081152479555,-1.6670963875590519
1687020100.496776,0.16777335107326508,-0.20757891237735748,-0.9637235403060913,-0.004687383770942688,-0.002641424536705017,0.0013364553451538086,0.01650630496442318,0.004295875318348408,0.003425236791372299,0.17236127298858733,0.20909930737031704,-1.6670273666870628
1687020100.583122,0.16780735552310944,-0.20807193219661713,-0.9636113047599792,0.0015499591827392578,-0.0012328624725341797,0.0064733028411865234,-0.005848934408277273,0.009271458722651005,0.009955573827028275,0.1724152050399734,0.20960333487809138,-1.666778947945852
1687020100.596397,0.16817200183868408,-0.20708994567394257,-0.9637592434883118,0.005656123161315918,0.021588847041130066,-0.006577610969543457,0.015290572308003902,-0.003779095131903887,-0.00965221505612135,0.17275646309762913,0.20859948149144955,-1.6664981507809524
1687020100.671083,0.1682780385017395,-0.20840571820735931,-0.9634571075439453,-0.0009654015302658081,-0.014540448784828186,-0.0057811737060546875,-0.023615414276719093,0.004796016961336136,0.0040556080639362335,0.1729163842764976,0.20994459514756295,-1.6667130308808331
1687020100.685028,0.16828885674476624,-0.20732195675373077,-0.9636889696121216,0.0047000497579574585,0.005387142300605774,-0.006037592887878418,0.02692745439708233,-0.0015368468593806028,0.011818988248705864,0.1728864877107174,0.20883664309703537,-1.6664525571686286
1687020100.724279,0.16823293268680573,-0.20837482810020447,-0.9634716510772705,-0.0026903003454208374,0.009644359350204468,0.004395723342895508,0.0008676911238580942,0.006093242671340704,0.003937629982829094,0.17286838226585977,0.20991302395369169,-1.6661738402746373
1687020100.823936,0.1685991734266281,-0.2067902684211731,-0.9637489914894104,-0.005909949541091919,-0.0005766749382019043,0.0034828782081604004,-0.02482808381319046,0.006662360392510891,0.0021714214235544205,0.17318838698301764,0.20829317808447093,-1.6659604841275741
1687020100.837381,0.16824938356876373,-0.20785552263259888,-0.9635809659957886,-0.003408655524253845,-0.008346274495124817,0.004413485527038574,0.008651245385408401,-0.0016276605892926455,0.010069558396935463,0.1728657268027962,0.20938208643079956,-1.665481846965065
1687020100.9144158,0.16826529800891876,-0.2039034366607666,-0.9644222259521484,-0.004553735256195068,-0.0246732234954834,-0.008462905883789062,-0.15602025389671326,-0.004891630727797747,-0.05347692593932152,0.17273394605371195,0.20534347625723204,-1.6655871675374048
1687020100.922152,0.16998974978923798,-0.2002003937959671,-0.964895486831665,-0.022879749536514282,0.007359817624092102,-0.00048232078552246094,-0.04552297666668892,0.060814011842012405,-0.04189537465572357,0.17438480413547194,0.2015624530281602,-1.6675697524951998
1687020100.9698958,0.17001764476299286,-0.19817663729190826,-0.9653082489967346,-0.020664602518081665,-0.038136228919029236,0.00987917184829712,-0.1271427422761917,-0.021927740424871445,0.002505115233361721,0.1743397735488672,0.1994973143845621,-1.6672056482554007
1687020101.064903,0.16837078332901,-0.19360490143299103,-0.9665238857269287,0.002314046025276184,0.004121258854866028,1.6689300537109375e-06,-0.04471617192029953,-0.010995728895068169,-0.007294784765690565,0.17247166810692452,0.19483525244337432,-1.6664203692589166
1687020101.078339,0.16997814178466797,-0.19166599214076996,-0.9666289687156677,-0.005763038992881775,0.014236792922019958,0.009094178676605225,-0.03126028552651405,0.0016449650283902884,-0.007948856800794601,0.17406671453699918,0.19285933217612067,-1.6668525722406582
1687020101.114774,0.1696121245622635,-0.1895413100719452,-0.967112123966217,-0.0003616213798522949,0.0018581897020339966,-0.000890195369720459,-0.033484555780887604,-0.004250208381563425,-0.007247646804898977,0.17361435743717896,0.19069496074297865,-1.6665621386716953
1687020101.185061,0.169373020529747,-0.1885303258895874,-0.9673516154289246,-0.0036625564098358154,-0.008292779326438904,0.00801628828048706,-0.02393159829080105,0.005083505064249039,-0.0017466219142079353,0.1733324228689987,0.1896654274840401,-1.666764568227993
1687020101.271336,0.16978518664836884,-0.18721763789653778,-0.9675342440605164,0.0014794766902923584,0.0031966418027877808,0.004246890544891357,-0.003985586576163769,0.00036678073229268193,-0.0031650206074118614,0.1737136479603333,0.18832893551411933,-1.666897541332695
1687020101.2856112,0.16974574327468872,-0.18729400634765625,-0.967526376247406,0.0038687586784362793,0.003288283944129944,-0.008639335632324219,-0.009581088088452816,-0.004812135826796293,0.011484496295452118,0.1736754837582941,0.18840667952920756,-1.6668720025440162
1687020101.330401,0.16962656378746033,-0.186566561460495,-0.9676878452301025,6.64442777633667e-05,-0.011019483208656311,-0.001931905746459961,-0.005012368783354759,-0.003773635718971491,0.0020997822284698486,0.17352760253472044,0.18766618641739818,-1.666591031869596
1687020101.423687,0.16956977546215057,-0.18609629571437836,-0.9677883386611938,-0.00529363751411438,0.013382062315940857,-0.0020755529403686523,0.020147645846009254,0.005327850580215454,-0.001256866380572319,0.1734530120539983,0.1871875266588523,-1.6663577517838177
1687020101.429093,0.16966833174228668,-0.18601161241531372,-0.9677873253822327,-0.005560040473937988,-0.00985020399093628,0.004118502140045166,-0.03243167698383331,0.0036444664001464844,-0.0005489978939294815,0.17355198807023856,0.18710133761642872,-1.6665200533643143
1687020101.513473,0.16957402229309082,-0.18486931920051575,-0.9680227041244507,-0.0012238025665283203,0.016717463731765747,0.002980649471282959,0.03664306551218033,-0.0027997177094221115,-0.0036603687331080437,0.17341611022598133,0.18593888170609954,-1.6666206598358542
1687020101.519803,0.16943958401679993,-0.1864555925130844,-0.9677419662475586,-0.0019896328449249268,-0.025092244148254395,-0.002396523952484131,-0.04165973141789436,-0.0028684271965175867,-0.002040102146565914,0.17333063051356667,0.1875532219854745,-1.666683726372073
1687020101.566659,0.16963575780391693,-0.18482786417007446,-0.9680198431015015,0.0060692280530929565,0.0019512772560119629,-0.006543755531311035,0.017629893496632576,-0.00292555196210742,0.0020326701924204826,0.17347848577659217,0.18589670289139343,-1.666771979216644
1687020101.658031,0.16939307749271393,-0.18548384308815002,-0.9679368138313293,0.005625247955322266,0.009275346994400024,-0.012989640235900879,0.0010132328607141972,-0.00043176807230338454,-0.0018145320937037468,0.17324981008545398,0.18656422704737174,-1.666805377016469
1687020101.665001,0.16920992732048035,-0.18464523553848267,-0.9681292176246643,0.00022368133068084717,0.006239473819732666,0.005986273288726807,-0.01488776970654726,-0.0010649346513673663,-0.0026438403874635696,0.17303250242886992,0.1857108797523774,-1.6668178576862744
1687020101.718838,0.169138103723526,-0.18419651687145233,-0.968227207660675,9.714066982269287e-05,0.0042648762464523315,0.002559483051300049,0.007109674625098705,-0.000434564397437498,-0.0030212104320526123,0.17294335151282655,0.1852543224867825,-1.6669444555659942
1687020101.782847,0.16903173923492432,-0.1842360943555832,-0.9682382345199585,-0.004450440406799316,0.008851587772369385,0.0022959113121032715,0.008878879249095917,0.0019355156691744924,0.004603153094649315,0.17283481781196944,0.18529459824198288,-1.6672018048799464
1687020101.870651,0.1704419106245041,-0.18700255453586578,-0.9674603939056396,-0.015565186738967896,0.025457754731178284,0.011832952499389648,0.11240088194608688,0.0851752758026123,-0.0004904083907604218,0.17438509853640802,0.18810997996630624,-1.6675397834148857
1687020101.884179,0.17279164493083954,-0.19089184701442719,-0.9662832617759705,0.010893672704696655,-0.08005847036838531,0.010777890682220459,-0.03925376385450363,0.012739960104227066,0.0335778146982193,0.17695061359840786,0.19207062276411602,-1.6683121029705263
1687020101.9280438,0.17345669865608215,-0.18955670297145844,-0.9664269089698792,0.00800083577632904,0.02912580966949463,-0.004733920097351074,0.10038875043392181,0.02308434434235096,0.009123602882027626,0.1775916171953868,0.1907106500496547,-1.668039985820982
1687020102.024662,0.1725449562072754,-0.19746917486190796,-0.9650047421455383,0.023103252053260803,-0.06336456537246704,0.00663071870803833,0.04510699212551117,-0.06377705186605453,0.019624978303909302,0.17693247038353738,0.19877559129422367,-1.6676346408601592
1687020102.0302172,0.17013095319271088,-0.20232093334197998,-0.964428186416626,0.0015762150287628174,-0.010966435074806213,0.010799646377563477,0.171335369348526,-0.04348696023225784,0.03206726908683777,0.17460960232877976,0.2037272881905915,-1.6676070283944602
1687020102.079735,0.16933049261569977,-0.21059474349021912,-0.9627964496612549,-0.035419344902038574,-0.00348605215549469,-0.013292968273162842,0.16280746459960938,-0.0022970461286604404,-0.022945916280150414,0.1740931888665076,0.2121833080164448,-1.6689013133676722
1687020102.1714811,0.16979922354221344,-0.21586748957633972,-0.9615453481674194,-0.006835341453552246,-0.006437808275222778,0.010770201683044434,0.07958727329969406,0.004739291965961456,0.009647980332374573,0.17478792929855644,0.21758017964090048,-1.6706760295919594
1687020102.184801,0.16738301515579224,-0.21700997650623322,-0.9617118239402771,-0.0023134201765060425,0.003997281193733215,-0.0029640793800354004,0.07141342759132385,0.01417473889887333,-0.004777831025421619,0.172320791301142,0.2187504071809091,-1.670795070654462
1687020102.263067,0.16764995455741882,-0.22057117521762848,-0.9608547687530518,-0.0005661994218826294,-0.006845816969871521,-0.009405851364135742,0.004612828139215708,0.007495530415326357,0.019509397447109222,0.1727410923562959,0.22240003288825705,-1.6706238738474264
1687020102.268609,0.16759158670902252,-0.2204955667257309,-0.960882306098938,0.0034899860620498657,-0.020394951105117798,0.009664654731750488,-0.012188921682536602,0.018376141786575317,0.008774995803833008,0.17267728126717047,0.22232250947598986,-1.670057568298074
1687020102.315599,0.16759227216243744,-0.22042863070964813,-0.9608975052833557,0.0004985630512237549,0.006622493267059326,0.0013791322708129883,-0.01145189255475998,-0.00018342831754125655,-0.0005742982029914856,0.1726752906604481,0.22225388823847556,-1.6696911248984447
1687020102.379575,0.1687123328447342,-0.22130921483039856,-0.9604990482330322,-0.006557166576385498,-0.00899168848991394,0.011783838272094727,-0.00018419092521071434,0.03241606056690216,-2.0094215869903564e-05,0.17387697278395728,0.22315677257221986,-1.669869310743058
1687020102.470773,0.16916689276695251,-0.2204653024673462,-0.9606131315231323,-0.002220466732978821,0.006918549537658691,-0.004627346992492676,-0.003358945483341813,0.0028429878875613213,-0.0016020117327570915,0.17431572663001768,0.2222914825147583,-1.6698000609884336
1687020102.484556,0.1699068397283554,-0.22110843658447266,-0.9603347182273865,0.01541118323802948,-0.009650230407714844,0.005668580532073975,-0.010182496160268784,0.001610210514627397,0.004309939220547676,0.17511246614051054,0.22295088762207918,-1.6695814372649198
1687020102.529835,0.169590562582016,-0.22093898057937622,-0.9604296088218689,0.0027879923582077026,-0.003212645649909973,-0.012013018131256104,-0.005022888071835041,-0.003512646071612835,0.012136969715356827,0.17477618949457988,0.2227771327594961,-1.6693041079306121
1687020102.619244,0.17056405544281006,-0.2209620475769043,-0.9602518677711487,0.0011736303567886353,0.003982082009315491,-0.007811486721038818,0.005324224941432476,0.01137562282383442,0.009120672941207886,0.175790834566113,0.22280079280177859,-1.6689816615547681
1687020102.63346,0.17057159543037415,-0.2221827208995819,-0.9599688649177551,-0.0024197250604629517,-0.01306203007698059,0.005684196949005127,-0.009582418948411942,0.006000032182782888,0.0005167992785573006,0.1758492198144242,0.22405258150192273,-1.6687917975887334
1687020102.680151,0.17092737555503845,-0.22179892659187317,-0.9599943161010742,0.005082771182060242,0.001004248857498169,0.005084037780761719,0.005513508804142475,-0.00292701693251729,0.004040960222482681,0.17620389182441198,0.22365895851053075,-1.6685639897183562
1687020102.7728271,0.17096620798110962,-0.2224828004837036,-0.9598291516304016,-0.0076208412647247314,0.0025883913040161133,-0.0016881823539733887,0.0017763617215678096,0.008870653808116913,0.0023708920925855637,0.17627279357310863,0.22436036014430694,-1.6681859168133757
1687020102.7857962,0.17169423401355743,-0.22199900448322296,-0.9598112106323242,-0.0006889700889587402,-0.0014201849699020386,0.014224052429199219,-0.02340562455356121,0.009602357633411884,0.020611148327589035,0.1770111183700389,0.22386416241073,-1.6679466894619521
1687020102.860244,0.17145127058029175,-0.22226816415786743,-0.9597923159599304,0.004223167896270752,-0.0054692476987838745,-0.008499860763549805,0.004058557562530041,0.00546846492215991,0.005884665995836258,0.17676921935756298,0.22414021582672936,-1.6673978481790233
1687020102.86516,0.17178568243980408,-0.22201712429523468,-0.9597906470298767,0.007428810000419617,-0.01264779269695282,-0.000872194766998291,-0.04899973422288895,-0.00847504660487175,0.006701990962028503,0.17710715133537128,0.22388274293619911,-1.6671563721922331
1687020102.982125,0.1713680773973465,-0.22161224484443665,-0.9599588513374329,-0.006405293941497803,-0.0053622424602508545,-0.0027181506156921387,0.003771868534386158,0.001149616902694106,0.010214433073997498,0.176655204594486,0.22346751818123617,-1.6667935832575675
1687020102.988287,0.17176872491836548,-0.22096295654773712,-0.9600369334220886,-0.002411395311355591,-0.004867136478424072,0.007690131664276123,-0.02931983768939972,0.012671117670834064,0.001471010036766529,0.1770455385113921,0.2228017152035832,-1.6664233515640958
1687020103.071206,0.1715104728937149,-0.21968871355056763,-0.9603754878044128,-0.009294271469116211,-0.00029724836349487305,-0.0013096928596496582,-0.03737257048487663,0.003914377186447382,-0.0023367777466773987,0.17672384450712095,0.22149537641763054,-1.6658863808700655
1687020103.083864,0.17195095121860504,-0.2175378054380417,-0.9607862234115601,-0.0011593103408813477,-0.011862829327583313,-0.006132721900939941,-0.10031545162200928,0.008664391934871674,-0.02165135368704796,0.17709411587736734,0.2192911529123486,-1.665528688155802
1687020103.128026,0.17277108132839203,-0.21347035467624664,-0.9615511298179626,-0.02714116871356964,0.018615618348121643,-0.0031400322914123535,-0.04959075525403023,0.05057535693049431,-0.03506596386432648,0.17778253128960306,0.21512582170349834,-1.666555292275097
1687020103.22089,0.17493724822998047,-0.214250385761261,-0.9609858393669128,0.022557273507118225,-0.01038949191570282,-0.0004094243049621582,0.014996958896517754,0.03522929176688194,0.03045259416103363,0.18006760076799722,0.21592433668490552,-1.6673331856056457
1687020103.231839,0.17261572182178497,-0.2093980610370636,-0.9624740481376648,0.04268580675125122,-0.008558467030525208,0.004679858684539795,-0.050916142761707306,-0.029975544661283493,0.037648722529411316,0.17745925074966495,0.21095933841668832,-1.6662187656237548
1687020103.312794,0.17249368131160736,-0.20557017624378204,-0.9633207321166992,-0.003731459379196167,0.018588975071907043,-0.006360054016113281,-0.03870042413473129,-0.019472170621156693,-0.004785820841789246,0.17718376565046984,0.20704628508395648,-1.6658333026974155
1687020103.318787,0.17403985559940338,-0.20523500442504883,-0.9631140828132629,-0.008710861206054688,-0.008159160614013672,0.01162177324295044,-0.055399175733327866,0.0031062415800988674,0.006565902382135391,0.1787760580092341,0.20670381307859095,-1.6660115691891904
1687020103.3640509,0.17360177636146545,-0.20211277902126312,-0.963853120803833,0.00518546998500824,0.005716919898986816,-0.004576444625854492,-0.0026537401136010885,-0.0032639065757393837,0.006759248673915863,0.1782016806306717,0.20351474600045624,-1.6652417600413136
1687020103.4310799,0.17299464344978333,-0.2015978991985321,-0.9640700817108154,-0.0029354244470596313,0.0046221911907196045,0.0004775524139404297,-0.030395954847335815,0.0041755009442567825,0.006421294063329697,0.17755237844985525,0.20298904175596233,-1.6647739808542534
