Timestamp,gravityX,gravityY,gravityZ,accelerationX,accelerationY,accelerationZ,rotationRateX,rotationRateY,rotationRateZ,attitudeRoll,attitudePitch,attitudeYaw
1687001984.768371,0.13869288563728333,-0.06720362603664398,-0.9880526065826416,-0.005620941519737244,-0.001018419861793518,0.010315179824829102,-0.017895415425300598,0.008452299982309341,-0.0006609652191400528,0.13945875379995332,0.0672543169793732,0.6825926033528689
1687001984.854459,0.1382584273815155,-0.06608173251152039,-0.988189160823822,-0.007688924670219421,-8.037686347961426e-05,-0.0005803704261779785,-0.011937988921999931,0.004165543243288994,-0.0051886048167943954,0.13900854266708879,0.06612992485823282,0.6825981200626715
1687001984.860211,0.13828596472740173,-0.06595833599567413,-0.9881935715675354,0.002217009663581848,-0.0026756972074508667,-0.0106315016746521,0.002619914710521698,-0.004769362509250641,-0.006125771440565586,0.13903526494228782,0.06600625810094736,0.6823780181285751
1687001984.923182,0.13798503577709198,-0.0657573714852333,-0.9882490038871765,0.010757669806480408,-0.00112190842628479,-0.008607685565948486,-0.0080614248290658,-0.022020921111106873,-0.00043752603232860565,0.138728898386467,0.06580485510030437,0.6823195937429299
1687001985.008267,0.13795234262943268,-0.06561561673879623,-0.9882630109786987,0.0051446110010147095,0.003405526280403137,-0.0005980730056762695,0.007381913252174854,-0.005207984708249569,-6.8927183747291565e-06,0.13869451085758686,0.06566279070889046,0.6823004403294234
1687001985.021421,0.1380026936531067,-0.06555680185556412,-0.9882598519325256,0.005719855427742004,0.0014241114258766174,0.01369631290435791,-0.004991466179490089,-0.010936311446130276,-0.003188304603099823,0.1387449204846363,0.06560384938464549,0.6823183976966726
1687001985.067869,0.13774393498897552,-0.0658644437789917,-0.9882755279541016,-0.012255609035491943,0.0079115629196167,0.0062198638916015625,0.01657121628522873,0.007427250035107136,0.0019707707688212395,0.1384859131560287,0.06591216015317206,0.6823190140993467
1687001985.156354,0.1378801017999649,-0.06624286621809006,-0.9882312417030334,-0.0030839145183563232,-0.0034440308809280396,0.0023761391639709473,-0.0032044185791164637,0.010408791713416576,0.003888247534632683,0.13862720949165733,0.0662914085437942,0.682385627060891
1687001985.166512,0.1375998854637146,-0.06590282171964645,-0.9882929921150208,-0.004451647400856018,0.00044260919094085693,-0.010821938514709473,-0.002252737758681178,-0.00048273836728185415,-0.0004124920815229416,0.138340508353177,0.06595061733002804,0.6825281887723595
1687001985.219708,0.13801191747188568,-0.0664437860250473,-0.9881993532180786,0.0079384446144104,-0.0017935261130332947,-0.015203356742858887,0.007769136689603329,-0.007671675644814968,0.0065087974071502686,0.13876245368459691,0.06649277024190638,0.6824494035173594
1687001985.311418,0.13789509236812592,-0.06650232523679733,-0.9882116913795471,0.014677569270133972,0.0031020566821098328,-0.008065104484558105,0.007184838876128197,-0.014410538598895073,0.008180730044841766,0.1386447851973836,0.06655143790009166,0.6826507616367566
1687001985.323348,0.1378818154335022,-0.06672265380620956,-0.9881986975669861,0.0006832778453826904,0.002498410642147064,0.012933194637298584,0.008775745518505573,-0.0066896346397697926,-0.0028649969026446342,0.13863341414709024,0.06677226224791287,0.6827213921447262
1687001985.369268,0.1378583312034607,-0.06722026318311691,-0.9881682395935059,-0.0034588873386383057,0.004674486815929413,0.007455408573150635,0.014023903757333755,9.66325169429183e-05,0.008657701313495636,0.1386143106943473,0.06727098669115988,0.682861842581681
1687001985.459754,0.13779492676258087,-0.06728766113519669,-0.9881725311279297,-0.010078832507133484,0.003475397825241089,0.009641647338867188,0.003476653713732958,0.017282145097851753,0.0042437780648469925,0.13855079038994667,0.06733854194552999,0.6831610047901406
1687001985.471885,0.13807325065135956,-0.06766615808010101,-0.9881078004837036,-0.0044519901275634766,-0.00195968896150589,-0.0029810070991516113,0.001686543575488031,0.011483777314424515,0.005809983238577843,0.13883602354637317,0.06771790561911002,0.6833780024956265
1687001985.516712,0.1380453109741211,-0.06766223162412643,-0.9881119728088379,0.0045938640832901,-0.0017652586102485657,-0.016755521297454834,0.0013469238765537739,-0.006778983399271965,0.00663423165678978,0.13880771417311993,0.0677139638625134,0.6836164502846322
1687001985.613661,0.1382148414850235,-0.06815777719020844,-0.9880542159080505,0.00970388948917389,-0.001346006989479065,-0.013212203979492188,0.004561958368867636,-0.009155189618468285,0.008641723543405533,0.13898401362821977,0.06821065642210214,0.6838449095682825
1687001985.624268,0.13807551562786102,-0.06839258968830109,-0.9880574941635132,0.010758742690086365,0.0029629021883010864,0.0024007558822631836,0.01148924045264721,-0.012818100862205029,0.005643537268042564,0.1388452650920704,0.06844602250162357,0.6840825399836381
1687001985.73249,0.13793112337589264,-0.06860696524381638,-0.9880627989768982,-0.00012895464897155762,0.004459008574485779,0.016383111476898193,0.006841890513896942,-0.001374231418594718,0.0020916787907481194,0.13870118197219658,0.06866089906722991,0.6843321932796993
1687001985.7368522,0.13790348172187805,-0.06871843338012695,-0.9880589246749878,-0.008371591567993164,0.006233684718608856,0.006750941276550293,-0.001445533474907279,0.016040045768022537,0.005873899906873703,0.13867428797388448,0.06877262900741277,0.6846063290851859
1687001985.8207831,0.13794811069965363,-0.06890787929296494,-0.988039493560791,-0.008461996912956238,0.0006247907876968384,0.0006890296936035156,0.004698312375694513,0.011482711881399155,0.004980143159627914,0.13872128444454654,0.0689625252540329,0.6849203942136344
1687001985.8272738,0.13782411813735962,-0.06936769187450409,-0.9880245923995972,-0.0021734535694122314,-0.005934432148933411,-0.005536139011383057,-0.0012847455218434334,-0.0014120484702289104,0.00519266352057457,0.1386002414056521,0.06942344107238872,0.6851325412747047
1687001985.9097,0.1374434530735016,-0.06930534541606903,-0.9880819916725159,0.006248593330383301,-0.007202222943305969,-0.015030741691589355,-0.01820087805390358,-0.023395642638206482,0.00880524143576622,0.13821436374844942,0.0693609481599645,0.6854042728785656
1687001985.920601,0.13605180382728577,-0.06799615174531937,-0.9883655309677124,0.006480589509010315,-0.01177680492401123,0.0015796422958374023,-0.051945194602012634,-0.04386270046234131,0.006783636286854744,0.13679363525997135,0.06804865497836379,0.6859011062808944
1687001985.967723,0.13537068665027618,-0.06634853035211563,-0.9885709881782532,0.0017143189907073975,0.015887707471847534,0.007644534111022949,0.009588807821273804,-0.0005987189942970872,-0.01241136435419321,0.13608931761809068,0.06639730652180051,0.6858829903202066
1687001986.059794,0.13611017167568207,-0.06835438311100006,-0.9883328080177307,-0.0009935647249221802,0.006800420582294464,0.018941938877105713,0.04087335988879204,0.02293883077800274,0.0004658186808228493,0.1368560827637782,0.06840772481540676,0.6853297857201669
1687001986.0705628,0.13625571131706238,-0.06859682500362396,-0.9882959127426147,-0.010492756962776184,0.004631981253623962,0.0051569342613220215,0.014706538058817387,0.01744353212416172,0.014770189300179482,0.13700564138574772,0.06865073538814835,0.68563215869259
1687001986.119769,0.13654373586177826,-0.0698201060295105,-0.9881705045700073,-0.008217275142669678,-0.002170860767364502,-0.007618069648742676,0.02611079253256321,0.00802006945014,0.013220762833952904,0.13730882660975077,0.0698769613578351,0.6861639707867928
1687001986.212493,0.1365802139043808,-0.07123521715402603,-0.9880644679069519,0.004273712635040283,-0.004021137952804565,-0.006640732288360596,0.025421766564249992,-0.00198049983009696,0.017752131447196007,0.1373596115529321,0.07129560102522212,0.686793222362484
1687001986.224248,0.13595543801784515,-0.07310088723897934,-0.9880143404006958,0.00610390305519104,-0.00490204244852066,-0.003120243549346924,0.04467748478055,-0.01919730380177498,0.023459019139409065,0.13674594358678263,0.07316614884234766,0.6874877574139254
1687001986.265199,0.13565856218338013,-0.07470746338367462,-0.9879350066184998,0.0012585967779159546,-0.009368464350700378,0.005162179470062256,0.003028377192094922,-0.00631359638646245,0.011656954884529114,0.136461862431308,0.07477713321858462,0.6880859629848765
1687001986.357184,0.13554242253303528,-0.0741613581776619,-0.9879920482635498,-0.0033249855041503906,0.011157818138599396,0.00373917818069458,-0.004279935732483864,-0.003082249779254198,-0.00840330682694912,0.136338698124158,0.07422950980478846,0.688344239434931
1687001986.3653278,0.13537731766700745,-0.07395751774311066,-0.9880300164222717,-0.0032209157943725586,-0.00317566841840744,0.0020986199378967285,-0.010847624391317368,0.00624880101531744,0.00024237949401140213,0.1361695052752268,0.0740251043632053,0.6883883387244705
1687001986.419255,0.13537123799324036,-0.07403106242418289,-0.9880253076553345,-0.0028638839721679688,0.0007125735282897949,-0.0005000829696655273,0.006394346244633198,0.004903105087578297,-0.0001019677147269249,0.13616410201150073,0.07409885137920973,0.6883305779396883
1687001986.511734,0.13496746122837067,-0.07455771416425705,-0.9880409836769104,1.1831521987915039e-05,-0.0033689215779304504,-0.0122794508934021,0.005502254236489534,-0.013194805011153221,-0.0028788456693291664,0.13576081444429242,0.07462696648826811,0.6883815843006316
1687001986.522955,0.13459651172161102,-0.07471297681331635,-0.988079845905304,0.009721159934997559,-0.0010774359107017517,-0.011080920696258545,0.01899782381951809,-0.028273088857531548,0.007678724825382233,0.13538697082127824,0.0747826595346235,0.6884567450135737
1687001986.566309,0.133757084608078,-0.07538079470396042,-0.9881430864334106,0.005220010876655579,0.004152759909629822,0.008757710456848145,0.01341590378433466,-0.01376139186322689,0.004664026200771332,0.1345442829178922,0.07545236409316396,0.6887950736562919
1687001986.658174,0.13322937488555908,-0.0767344981431961,-0.9881101846694946,-0.0012865960597991943,0.008039422333240509,0.009991288185119629,0.03570270165801048,-0.009776238352060318,0.005936751142144203,0.1340242341562544,0.07680999982490157,0.6888925075986007
1687001986.670455,0.1327778548002243,-0.07888737320899963,-0.9880014061927795,-0.00034680962562561035,0.005797781050205231,0.004633545875549316,0.06171898543834686,-0.0056518008932471275,-0.0027579376474022865,0.13358994543979943,0.0789694276057086,0.6889483506307135
1687001986.715959,0.13188691437244415,-0.07984495162963867,-0.9880438446998596,0.0015664845705032349,0.007335186004638672,-0.0017175078392028809,0.008433262817561626,-0.013645012862980366,-0.00302052590996027,0.13269844871819125,0.07993003772012829,0.6887812534560949
1687001986.811599,0.1305055469274521,-0.08156425505876541,-0.9880868196487427,-0.0013856291770935059,-0.0021302029490470886,-0.0012167692184448242,0.032360367476940155,-0.0394410565495491,0.0014178985729813576,0.13131892966769343,0.08165496751942843,0.688122431674558
1687001986.824014,0.12807637453079224,-0.08602259308099747,-0.9880266189575195,0.014562830328941345,-0.00946691632270813,0.0008134841918945312,0.1225728839635849,-0.10257328301668167,-0.005314306356012821,0.12890962267806153,0.08612903885642169,0.6874100507940433
1687001986.902214,0.12443076819181442,-0.09282243251800537,-0.9878770112991333,0.001164369285106659,0.004184126853942871,0.0029221773147583008,0.1760101467370987,-0.058986131101846695,0.0243969839066267,0.12529790064013524,0.09295624848401898,0.686756886780422
1687001986.907199,0.12021178007125854,-0.10386151075363159,-0.9873003363609314,0.00414738804101944,0.04275006055831909,0.010722577571868896,0.31996405124664307,-0.11949355155229568,0.04303964227437973,0.12116167492220055,0.10404915159366064,0.6868755764872937
1687001987.020071,0.1139560341835022,-0.11937466263771057,-0.9862878322601318,-0.0016207844018936157,0.014058500528335571,0.013585805892944336,0.3399165868759155,-0.15086638927459717,0.03402990102767944,0.11503028178030156,0.11966001680752192,0.6868658545244292
1687001987.026246,0.10430014878511429,-0.13975679874420166,-0.9846773743629456,0.004388250410556793,-0.00762784481048584,0.004529058933258057,0.45755600929260254,-0.22998011112213135,0.05535835772752762,0.1055296734288368,0.14021579579783933,0.6869913953868824
1687001987.113404,0.0898062214255333,-0.16310159862041473,-0.9825134873390198,0.00255526602268219,0.009674474596977234,-0.014175355434417725,0.503685474395752,-0.3224662244319916,0.01392357051372528,0.09115128244701123,0.1638335351256389,0.6865371120952292
1687001987.125839,0.07355956733226776,-0.18986739218235016,-0.9790502190589905,0.0018799230456352234,0.009096533060073853,0.001007676124572754,0.5216879844665527,-0.29568108916282654,-0.008671753108501434,0.07499269448431889,0.1910270779848238,0.6843837641332167
1687001987.2009711,0.06046614423394203,-0.21344316005706787,-0.975082516670227,0.011463835835456848,-0.03126204013824463,-0.01287829875946045,0.43165117502212524,-0.32764142751693726,0.025461183860898018,0.06193200663950625,0.21509798302514513,0.6825159534535958
1687001987.2070708,0.04398347809910774,-0.23166486620903015,-0.9718008041381836,0.0027389749884605408,0.020101770758628845,0.002959311008453369,0.30687588453292847,-0.3171497583389282,0.009471829980611801,0.045228901317547025,0.23378875392756931,0.682918559925236
1687001987.2554011,0.03221467509865761,-0.24457339942455292,-0.9690954685211182,0.021679416298866272,0.01994878053665161,0.026773691177368164,0.3083287477493286,-0.23760807514190674,-0.006156131159514189,0.03322976673646931,0.24707970867358234,0.6806008523899749
1687001987.348165,0.02525341510772705,-0.25982004404067993,-0.9653267860412598,0.03703301399946213,-0.02684679627418518,0.008524417877197266,0.3142925798892975,-0.23119238018989563,0.04908422380685806,0.02615451830596628,0.2628358453815611,0.6792366538759864
1687001987.360777,0.008673160336911678,-0.27420008182525635,-0.961633563041687,-0.012319962494075298,-0.007645010948181152,-0.010168194770812988,0.25809022784233093,-0.34641391038894653,0.06833487749099731,0.009018950733201858,0.2777578000896283,0.6834998953557867
1687001987.408462,-0.011495794169604778,-0.28391367197036743,-0.9587809443473816,0.000219603069126606,0.01502332091331482,-0.0010579228401184082,0.2202708125114441,-0.39687150716781616,0.12367883324623108,-0.011989436696495959,0.28787329768114284,0.6881811290602201
1687001987.499836,-0.03451584279537201,-0.29617881774902344,-0.9545086622238159,0.009689845144748688,-0.018915146589279175,-0.004826664924621582,0.23268873989582062,-0.6106934547424316,0.21628811955451965,-0.03614510057791272,0.3006894800180735,0.6952173176940846
1687001987.506013,-0.06678035855293274,-0.3044891953468323,-0.950171947479248,0.005653701722621918,-0.04203787446022034,0.009879589080810547,-0.012154437601566315,-0.66654372215271,0.2673987150192261,-0.07016701282024372,0.30940212453549226,0.7075454800438133
1687001987.557887,-0.09502092003822327,-0.3064658045768738,-0.947127103805542,0.016224592924118042,-0.0007393956184387207,-0.019349336624145508,0.11870470643043518,-0.49946272373199463,0.2853124737739563,-0.09999083787838281,0.3114779479619289,0.722743573024266
1687001987.6515489,-0.12295804917812347,-0.30739572644233704,-0.9436043500900269,0.0037717148661613464,-0.009269893169403076,0.010086894035339355,-0.00787147507071495,-0.5007774829864502,0.21425053477287292,-0.12957668163103875,0.31245504593020845,0.7359902762765503
1687001987.657779,-0.14392244815826416,-0.305207222700119,-0.9413473606109619,-0.0019057393074035645,0.029511451721191406,0.009828805923461914,0.0674566999077797,-0.24837535619735718,0.14312656223773956,-0.15171499078954623,0.3101560390945746,0.7447537345200157
1687001987.705206,-0.15677247941493988,-0.3069711923599243,-0.938717782497406,-0.01249319314956665,-0.007130980491638184,0.00016492605209350586,-0.018899425864219666,-0.23295286297798157,0.09154139459133148,-0.1654798375038215,0.31200892884464204,0.7510907127841323
1687001987.802136,-0.16589270532131195,-0.30447399616241455,-0.9379633069038391,9.077787399291992e-05,-0.011993259191513062,-0.0021154284477233887,-0.06073868274688721,-0.09962716698646545,0.043617814779281616,-0.1750544934904224,0.30938615674944475,0.7543001124714594
1687001987.807816,-0.1698494851589203,-0.3014184236526489,-0.9382420182228088,-0.0041616857051849365,0.010753780603408813,-0.003332078456878662,-0.06628691405057907,-0.04527590796351433,-0.012098709121346474,-0.17908994521470772,0.30617990638363407,0.7542764255570531
1687001987.860321,-0.1690719723701477,-0.2990439832210541,-0.9391418099403381,-0.016917333006858826,0.016420692205429077,0.005807459354400635,-0.025711923837661743,0.061963990330696106,-0.015500631183385849,-0.1781202186996402,0.3036906246283844,0.7533253339927889
1687001987.949539,-0.16764836013317108,-0.2956867516040802,-0.940459132194519,0.0008393526077270508,-0.011945664882659912,0.002837061882019043,-0.10843290388584137,0.002814121777191758,-0.010710136964917183,-0.1764092196259098,0.30017433571000257,0.7522544256200953
1687001987.9557881,-0.16696417331695557,-0.29152488708496094,-0.9418790936470032,-0.00820663571357727,0.010793745517730713,0.007324039936065674,-0.07187242805957794,0.07609646022319794,-0.01821385882794857,-0.17544455602193781,0.2958205839956964,0.7512809155389206
1687001988.008367,-0.16207219660282135,-0.2900235056877136,-0.943196177482605,-0.0035771578550338745,0.01217624545097351,-0.021281421184539795,-0.01974005252122879,0.0851830318570137,-0.02591066062450409,-0.1701710972340783,0.294251390583969,0.7500307386494589
1687001988.098404,-0.1579449474811554,-0.2889902889728546,-0.9442129135131836,-0.0012041479349136353,-0.012859046459197998,-0.0020761489868164062,-0.03650018945336342,0.0959647074341774,-0.02295774780213833,-0.16574229749734098,0.29317195683303254,0.7479829058603008
1687001988.110968,-0.1495528370141983,-0.286442369222641,-0.9463533759117126,-0.02133028209209442,0.002522110939025879,0.014666974544525146,-0.08231674134731293,0.3026772737503052,-0.05509970337152481,-0.15673447397409798,0.2905115427828279,0.7459017350342433
1687001988.1553268,-0.12816771864891052,-0.28264379501342773,-0.9506237506866455,-0.022817939519882202,0.028417110443115234,-0.004301786422729492,-0.10498324781656265,0.5464423894882202,-0.11003592610359192,-0.1340167192332376,0.2865491688058,0.7420703387395448
1687001988.250565,-0.0953718051314354,-0.27360019087791443,-0.9571035504341125,-0.01546797901391983,-0.021016478538513184,0.0077626705169677734,-0.2899540364742279,0.7647331953048706,-0.13593196868896484,-0.0993184227962937,0.2771340665365085,0.73448395652935
1687001988.256511,-0.05922121927142143,-0.264662504196167,-0.962520956993103,-0.01952933520078659,0.06817507743835449,0.011959433555603027,-0.06012462452054024,0.7024989724159241,-0.11446822434663773,-0.0614497357335816,0.26785393230898197,0.7295362020908008
1687001988.3082662,-0.026230772957205772,-0.2566487789154053,-0.9661487340927124,0.006180780008435249,-0.05119729042053223,0.0468066930770874,-0.33885857462882996,0.5141991972923279,-0.1274615228176117,-0.027143162287182315,0.2595532351626518,0.7184938472647635
1687001988.3706288,-0.0007770741358399391,-0.24349960684776306,-0.9699006676673889,-0.020615698769688606,-0.02667251229286194,-0.006677091121673584,-0.25104930996894836,0.515183687210083,-0.18434292078018188,-0.0008011892095204848,0.24597242951227102,0.7113483773593162
1687001988.462981,0.025502247735857964,-0.23111653327941895,-0.9725918173789978,-0.024785034358501434,0.05257345736026764,-0.011401712894439697,-0.11185752600431442,0.6212902665138245,-0.15604576468467712,0.02621490967627391,0.23322512875687873,0.7024672136305391
1687001988.474928,0.06345701217651367,-0.23179462552070618,-0.9706927537918091,-0.006877385079860687,-0.056779563426971436,-0.0016582608222961426,-0.13040918111801147,0.7289034128189087,-0.24466350674629211,0.06528002055092624,0.23392214938623998,0.6922527783044875
1687001988.548732,0.08950503170490265,-0.2051803171634674,-0.9746229648590088,0.042834483087062836,0.0308334082365036,0.014143228530883789,-0.555950939655304,0.2618125081062317,-0.08501020073890686,0.09157867339137096,0.20664794402305894,0.6859767344666406
1687001988.561202,0.10227940231561661,-0.18847674131393433,-0.9767371416091919,0.007751762866973877,-0.025207340717315674,-0.020119547843933105,-0.29838693141937256,0.13371607661247253,-0.09401967376470566,0.10433513333091303,0.18961085523743018,0.6833707912562076
1687001988.606188,0.11255455762147903,-0.1765044629573822,-0.9778433442115784,-0.01303669810295105,0.07160031795501709,-0.0029305219650268555,-0.0840882807970047,0.29085415601730347,-0.06082949787378311,0.1146005500345335,0.1774340205641047,0.6803605690701519
1687001988.6933398,0.12519796192646027,-0.17229068279266357,-0.9770575165748596,0.02948041260242462,-0.07664120197296143,-0.0014733672142028809,-0.20855164527893066,0.1239386796951294,-0.03495848551392555,0.12744328058899354,0.17315465077309425,0.6777898198062042
1687001988.704345,0.1306294947862625,-0.15824732184410095,-0.9787204265594482,-0.01083269715309143,0.05225977301597595,-0.023751437664031982,-0.24749234318733215,0.12962573766708374,-0.017869245260953903,0.1326854864751777,0.15891534886958844,0.678137015740737
1687001988.761704,0.1373957395553589,-0.14891743659973145,-0.9792578816413879,0.010385662317276001,-0.050408124923706055,-0.00040215253829956055,-0.24047310650348663,0.10666302591562271,-0.004300440661609173,0.1393960320556466,0.149473413049204,0.6790653116907981
1687001988.8495321,0.14057223498821259,-0.13756640255451202,-0.9804666638374329,0.005469664931297302,0.041542842984199524,0.007764697074890137,-0.16945290565490723,0.061095673590898514,0.016953714191913605,0.1424023489769695,0.1380040402396678,0.6810211417821022
1687001988.8629751,0.14169922471046448,-0.1336638480424881,-0.9808441996574402,0.010919228196144104,-0.007388398051261902,0.026818931102752686,-0.09053106606006622,-0.009682095609605312,-0.02375642955303192,0.14347397379120774,0.13406508614479015,0.6812860506033783
1687001988.909474,0.14183492958545685,-0.1252651959657669,-0.981932520866394,0.02306683361530304,-0.0647830218076706,0.007674098014831543,-0.23803436756134033,-0.010036028921604156,-0.02531970664858818,0.14345250049254155,0.12559513248862145,0.6810026272582358
1687001989.037519,0.14000767469406128,-0.11948131769895554,-0.9829151034355164,-0.006691589951515198,0.017033815383911133,-0.007731258869171143,-0.05368057265877724,-0.031166749075055122,0.003967875614762306,0.141489471980726,0.1197674448088205,0.6810114353068444
1687001989.041446,0.13954612612724304,-0.11804607510566711,-0.9831541180610657,0.00040753185749053955,-0.011150091886520386,-0.004455745220184326,-0.060238808393478394,-0.029393482953310013,0.010575177147984505,0.1409953766504127,0.11832197096917853,0.6808030833124379
1687001989.0917401,0.13800786435604095,-0.11477551609277725,-0.9837583303451538,0.004356682300567627,-0.0002452284097671509,-0.02544271945953369,-0.035310156643390656,-0.029932240024209023,0.0020155124366283417,0.13937677935027076,0.1150290224807908,0.6815089387803194
1687001989.1008701,0.13776665925979614,-0.11363371461629868,-0.9839246273040771,0.00038646161556243896,0.009187296032905579,0.007133305072784424,-0.013195931911468506,-0.0069504911080002785,-0.00014031678438186646,0.13911309583010098,0.11387969501493951,0.6817859610927213
1687001989.149895,0.13798126578330994,-0.11300184577703476,-0.9839673638343811,0.002323344349861145,-0.0026597827672958374,0.011555254459381104,-0.03374295309185982,0.00348097737878561,-0.004962236154824495,0.13932104019447408,0.11324372972941034,0.6818381543989745
1687001989.209341,0.13822244107723236,-0.11090104281902313,-0.984172523021698,-0.003655150532722473,0.009292766451835632,-0.001285851001739502,-0.013119632378220558,0.014968124218285084,-0.010557804256677628,0.13953269945950886,0.11112963996474984,0.6820282894010303
1687001989.301564,0.13839347660541534,-0.1110849678516388,-0.9841277003288269,-0.0026054829359054565,0.00024513155221939087,0.0023772716522216797,0.0009533087722957134,0.004345572553575039,-0.0073614781722426414,0.13970939121929857,0.1113147117251729,0.6817261760369565
1687001989.307442,0.13831061124801636,-0.1109469011425972,-0.9841549396514893,-0.0024005472660064697,-0.007919065654277802,-0.007254302501678467,-0.013198795728385448,0.005174215417355299,0.00038938596844673157,0.13962300258156013,0.11117578101904765,0.681305821269733
1687001989.3587499,0.138159841299057,-0.11023100465536118,-0.9842565655708313,0.005318582057952881,0.005479410290718079,-0.0218164324760437,0.011784318834543228,-0.011155222542583942,-0.002737165428698063,0.13945856630086031,0.11045546437681043,0.6812767076745129
1687001989.448389,0.13818351924419403,-0.11109068989753723,-0.9841565489768982,0.007156491279602051,-0.0060968101024627686,-0.0034074783325195312,0.0021302259992808104,-0.005255255848169327,0.0007025739178061485,0.13949613846921988,0.1113204622670646,0.6810459577133233
1687001989.461647,0.13804017007350922,-0.11000199615955353,-0.9842989444732666,0.0022186487913131714,-0.001997515559196472,0.004425346851348877,-0.017515115439891815,-0.00846090354025364,-0.0023483438417315483,0.13933339620647603,0.11022505996301867,0.6811215265053221
1687001989.572723,0.1380804032087326,-0.10986025631427765,-0.9843091368675232,0.0020258426666259766,-0.001071140170097351,0.0031843185424804688,-0.0037096866872161627,-0.004305040463805199,0.001896202564239502,0.13937205116551987,0.11008245525451343,0.6809887890445405
1687001989.578712,0.13793028891086578,-0.10920623689889908,-0.9844029545783997,-0.002493247389793396,0.006575621664524078,0.006741881370544434,-0.0188871081918478,0.012376867234706879,-0.00529246823862195,0.13920939865682438,0.10942447576744012,0.6811294975629654
1687001989.661977,0.13802790641784668,-0.10859167575836182,-0.98445725440979,-0.003674238920211792,-0.004277586936950684,-0.0020233988761901855,-0.01618160307407379,0.0007822632323950529,0.0026634586974978447,0.13929906181223592,0.10880623706678814,0.6811223060525551
1687001989.675437,0.1379513293504715,-0.10820107161998749,-0.9845110177993774,0.002948358654975891,-0.0017232447862625122,-0.013505339622497559,-0.0041406527161598206,-0.0061986809596419334,0.007883520796895027,0.139215274600524,0.10841331793859235,0.6811881645723258
1687001989.750566,0.13767343759536743,-0.10792648047208786,-0.9845800399780273,0.002844780683517456,-0.000655055046081543,-0.003090798854827881,-0.008843595162034035,-0.009159449487924576,-0.00595293240621686,0.13892881636892276,0.10813710914092173,0.6811158639909795
1687001989.7569652,0.1373913437128067,-0.10705889016389847,-0.984714150428772,0.00814703106880188,0.004153609275817871,0.003513038158416748,-0.010362795554101467,-0.015994984656572342,-0.0020250361412763596,0.13862913659996753,0.10726446017800317,0.6810800126914455
1687001989.806055,0.1372271329164505,-0.10675125569105148,-0.9847704768180847,-0.003499075770378113,0.004196934401988983,0.013884246349334717,-0.008110759779810905,-0.0016055268933996558,-0.006093280855566263,0.13845775504442606,0.10695505864069975,0.680941368448629
1687001989.8969312,0.1371038258075714,-0.10668274760246277,-0.984795093536377,-0.0028722137212753296,0.0028161704540252686,0.0002675056457519531,-0.004838867112994194,0.007911944761872292,0.0006343964487314224,0.13833150996397248,0.10688615570370782,0.6808367571063875
1687001989.91098,0.13689595460891724,-0.10605279356241226,-0.9848920106887817,-0.005792409181594849,-0.0003009587526321411,0.005384624004364014,-0.009998342022299767,0.005789672024548054,-0.006825650110840797,0.13811100824892816,0.10625260733841851,0.6807501138660965
1687001989.960494,0.13663463294506073,-0.10565730184316635,-0.9849708080291748,-8.368492126464844e-05,-0.0030005350708961487,-0.011229753494262695,-0.018505943939089775,-0.00804651528596878,0.005919972434639931,0.13783980970805168,0.10585487853385127,0.6806992295497506
1687001990.0452762,0.1360360085964203,-0.10489634424448013,-0.985135018825531,0.0019187480211257935,0.0006330385804176331,-0.009768545627593994,-0.011845311149954796,-0.010305008850991726,0.0057687051594257355,0.13722088510602345,0.10508966959109574,0.6810355892628241
1687001990.057719,0.135907381772995,-0.10488918423652649,-0.9851534962654114,0.0026576966047286987,-0.0011441409587860107,0.005157828330993652,0.00011135032400488853,-0.0064825741574168205,0.0016868775710463524,0.13709022360108555,0.10508246795206136,0.6811517186670711
1687001990.109469,0.13569709658622742,-0.10464959591627121,-0.9852079749107361,0.0028985291719436646,0.0004931017756462097,0.007577359676361084,-0.0070887720212340355,-0.012061895802617073,0.0025561340153217316,0.13687326934426933,0.10484155637237655,0.6813362347541787
1687001990.202908,0.13560742139816284,-0.10392120480537415,-0.985297441482544,-0.00593818724155426,0.0044949352741241455,0.005164384841918945,-0.013551399111747742,0.007582245394587517,-0.0009057093411684036,0.13677167528360862,0.10410917150832641,0.681457251680466
1687001990.209187,0.13562679290771484,-0.1039835512638092,-0.9852882027626038,-0.004736855626106262,-9.665638208389282e-05,0.0013862252235412598,0.00035349815152585506,0.007832849398255348,0.002661062404513359,0.1367922455098066,0.10417185480249448,0.6815070072954553
1687001990.259276,0.13558803498744965,-0.10395718365907669,-0.9852963089942932,-0.0008986741304397583,-0.0010538026690483093,-0.008676469326019287,-0.006512929685413837,-0.0009947309736162424,0.006568452343344688,0.1367525336713179,0.10414534906790611,0.6817675132633584
1687001990.346801,0.1349010318517685,-0.10398538410663605,-0.9853876233100891,0.009035170078277588,-0.0011781901121139526,-0.005747020244598389,-0.00436442531645298,-0.039655573666095734,0.017779028043150902,0.13605571021461044,0.1041737036533009,0.6823119422408579
1687001990.36009,0.13319739699363708,-0.1043434888124466,-0.9855815172195435,0.004421666264533997,0.005130842328071594,0.005799412727355957,0.008114349097013474,-0.041533101350069046,0.03289433568716049,0.13433211122028382,0.10453376232016877,0.6834085035194712
1687001990.407823,0.13115575909614563,-0.10437430441379547,-0.9858520030975342,0.0034268051385879517,-0.005992516875267029,0.01325678825378418,-0.008607706055045128,-0.043137259781360626,0.01837637647986412,0.13226132386647946,0.10456475192873817,0.6848045985062434
1687001990.468077,0.12777279317378998,-0.10361611098051071,-0.9863761067390442,0.01034979522228241,-0.01773703843355179,0.01710730791091919,-0.06619337201118469,-0.11887143552303314,0.05084669589996338,0.12882026862563228,0.10380242456766564,0.6866745381437728
1687001990.563198,0.12007496505975723,-0.10187596082687378,-0.9875237941741943,0.001430802047252655,-0.006919197738170624,0.0024164319038391113,-0.030342428013682365,-0.17688865959644318,0.09034430980682373,0.12099800256862417,0.10205301608532755,0.6902347072110947
1687001990.575327,0.1121000200510025,-0.10488883405923843,-0.9881457090377808,-0.0008939206600189209,0.06809989362955093,-0.008512616157531738,0.1470043957233429,-0.2190433144569397,0.057276636362075806,0.1129618874013642,0.1050821173682228,0.6929089217342926
1687001990.6538181,0.10025767236948013,-0.11126076430082321,-0.9887211322784424,0.012962587177753448,-0.007620468735694885,-0.017473936080932617,0.12915055453777313,-0.2847842276096344,0.08675756305456161,0.10105594866826553,0.11149159962969078,0.6955973504821898
1687001990.659627,0.08663607388734818,-0.11994688957929611,-0.9889928698539734,-0.0014767274260520935,-0.007509775459766388,-0.014898121356964111,0.18486568331718445,-0.2758182883262634,0.0649779662489891,0.08737725132861902,0.12023638737263571,0.6980950276432111
1687001990.703176,0.06801893562078476,-0.12684649229049683,-0.9895874857902527,0.01744559407234192,0.023513957858085632,-0.0028594136238098145,0.1610129475593567,-0.44680148363113403,0.08492717146873474,0.06862669402675009,0.12718913298451223,0.7018185554935819
1687001990.834717,0.044829174876213074,-0.1389194130897522,-0.9892885088920593,0.0026562251150608063,0.015079081058502197,0.004089534282684326,0.27312397956848145,-0.4557919502258301,0.07869058102369308,0.045283582242170786,0.13937016273901423,0.705032419012657
1687001990.839725,0.022960824891924858,-0.15474729239940643,-0.9876872301101685,0.003757365047931671,0.006538689136505127,-0.0032032132148742676,0.3488372564315796,-0.44090351462364197,0.061966992914676666,0.023242873713834666,0.15537166588163923,0.7075997040239251
1687001990.9144669,-0.0012686587870121002,-0.1707267165184021,-0.985317587852478,0.01309427060186863,0.0145530104637146,0.0010036230087280273,0.32774922251701355,-0.4803605377674103,0.0814935564994812,-0.0012875625365653394,0.17156716703533276,0.7111119287188793
1687001990.927589,-0.024505088105797768,-0.188555046916008,-0.981756865978241,-0.010834213346242905,0.010774895548820496,-0.008218109607696533,0.4071837067604065,-0.4320521056652069,0.09877640753984451,-0.024955263461057604,0.18969058856790375,0.7158167574244148
1687001991.01173,-0.047055959701538086,-0.20855967700481415,-0.976876974105835,-0.011339370161294937,-0.017300918698310852,-0.02013230323791504,0.3719126880168915,-0.43400341272354126,0.06757348030805588,-0.04813258649120027,0.21010201386856484,0.721380956056685
1687001991.024098,-0.06792254745960236,-0.22775432467460632,-0.9713467359542847,-0.009561523795127869,0.011949285864830017,-0.013028264045715332,0.5284671783447266,-0.4174678325653076,0.07169472426176071,-0.06981251881437232,0.22977077621407818,0.7247395425868339
1687001991.100455,-0.08805111050605774,-0.25101158022880554,-0.9639710783958435,-0.02222409099340439,0.01654505729675293,0.034085214138031006,0.4280592203140259,-0.3039020001888275,0.07121002674102783,-0.09108929764802925,0.25372514607839836,0.7318999524837217
1687001991.1130152,-0.10559993982315063,-0.26972389221191406,-0.9571298956871033,0.04160463809967041,-0.04366111755371094,0.0031198859214782715,0.29385900497436523,-0.42056936025619507,0.15442422032356262,-0.10988536008788034,0.2731062834730195,0.7396328665229708
1687001991.159089,-0.13043618202209473,-0.27635321021080017,-0.9521634578704834,0.005970314145088196,-0.0030504465103149414,-0.011169672012329102,0.1326863020658493,-0.46431243419647217,0.20269641280174255,-0.1361418845394831,0.27999746159366645,0.7498695943376159
1687001991.249557,-0.14863432943820953,-0.2779996395111084,-0.9490121006965637,-0.015290781855583191,0.009246617555618286,0.005835831165313721,0.02265281230211258,-0.20997324585914612,0.14704354107379913,-0.15535795575587877,0.2817110442788564,0.7596939633734519
1687001991.26269,-0.15708070993423462,-0.27816879749298096,-0.9476010799407959,-0.02103506028652191,0.004273533821105957,0.0010221004486083984,0.036290593445301056,-0.10069975256919861,0.07263694703578949,-0.16427291994809795,0.28188712676927813,0.765494457097883
1687001991.3090801,-0.16112904250621796,-0.28020310401916504,-0.9463211297988892,-0.005908861756324768,-0.004083395004272461,0.00662386417388916,0.031431253999471664,-0.034615274518728256,0.012642057612538338,-0.16865148041431094,0.284005669781003,0.7680457381174449
1687001991.395452,-0.16188156604766846,-0.2817852795124054,-0.9457226991653442,0.0032970458269119263,-0.004973113536834717,-0.0016649961471557617,0.050745632499456406,-0.025858135893940926,-0.009598000906407833,-0.16952935348585824,0.28565428920595065,0.7682617608896825
1687001991.4092178,-0.16509580612182617,-0.28366443514823914,-0.9446046352386475,0.002742379903793335,-0.0027735233306884766,0.008249044418334961,0.03209105506539345,-0.07381327450275421,-0.008835537359118462,-0.17302994920725215,0.2876133625649829,0.7683399632146194
1687001991.491075,-0.16683246195316315,-0.28335586190223694,-0.9443920850753784,-0.008307844400405884,0.011917293071746826,0.004404902458190918,0.0024619894102215767,-0.010808613151311874,0.0006682192906737328,-0.17485194090247722,0.2872915929814894,0.7681415214436889
1687001991.496916,-0.1669648438692093,-0.28393155336380005,-0.9441957473754883,0.008242979645729065,-0.004932582378387451,0.005108833312988281,-0.002636432647705078,-0.021602803841233253,0.00024664029479026794,-0.17502351274555694,0.28789193172561545,0.7676352562758486
1687001991.5474138,-0.16786397993564606,-0.28459835052490234,-0.9438354969024658,-0.004483968019485474,-0.014397621154785156,-0.00898432731628418,0.0095086470246315,0.004121733829379082,-0.0022934824228286743,-0.17601255501007537,0.28858743819035515,0.7676627034240502
1687001991.61124,-0.16760781407356262,-0.2848283648490906,-0.9438116550445557,0.003987893462181091,-0.008689671754837036,-0.008687734603881836,-0.007031780201941729,-0.00028193590696901083,0.012062553316354752,-0.1757538052889952,0.2888273740876615,0.768115770730699
1687001991.701178,-0.16738077998161316,-0.28345584869384766,-0.9442650079727173,-0.0018696337938308716,-0.0024785995483398438,0.016133904457092285,-0.04457329586148262,0.03385446220636368,-0.0005539059638977051,-0.17543804199562243,0.2873958403534665,0.7680130774161761
1687001991.7077541,-0.16457714140415192,-0.28152698278427124,-0.9453343152999878,-0.005787163972854614,-0.006757289171218872,0.009863674640655518,-0.061149947345256805,0.07201476395130157,-0.02525818720459938,-0.1723665725189698,0.2853850956655375,0.766662761138076
1687001991.7587628,-0.16195273399353027,-0.27990809082984924,-0.9462677836418152,0.0027120858430862427,0.004548013210296631,0.006067037582397461,-0.024097315967082977,0.05716324597597122,-0.031193839386105537,-0.16950660829790723,0.283698374371062,0.7649397948449146
1687001991.850762,-0.15863578021526337,-0.28000372648239136,-0.9468012452125549,0.004918813705444336,-0.005625516176223755,-0.00023549795150756836,-0.006506938021630049,0.07425820827484131,-0.03307323157787323,-0.1660072310354644,0.2837979976709846,0.7633607758626095
1687001991.862958,-0.1553780436515808,-0.28017160296440125,-0.9472916722297668,-0.001009225845336914,-0.010172605514526367,-0.0036665797233581543,0.0012483203317970037,0.06288571655750275,-0.03643440827727318,-0.16257579085927143,0.2839728730144296,0.7616143260239431
1687001991.906312,-0.151709645986557,-0.2804878354072571,-0.9477925896644592,-0.00624924898147583,0.0032814741134643555,-0.012717664241790771,0.024936538189649582,0.09065063297748566,-0.024699987843632698,-0.1587199103496816,0.28430231143607093,0.7602587763019473
1687001991.999446,-0.14818978309631348,-0.2821851968765259,-0.9478456377983093,0.007335975766181946,-0.006938308477401733,0.007126033306121826,0.006105793174356222,0.039043765515089035,-0.013927767984569073,-0.155088296906341,0.2860711072681544,0.7592972422926989
1687001992.013006,-0.14712785184383392,-0.28102022409439087,-0.9483569860458374,-0.004864886403083801,-0.002396523952484131,0.004661917686462402,-0.02776775322854519,0.038208864629268646,-0.010019312612712383,-0.15391274957938209,0.28485700525981483,0.7588692322509281
1687001992.059915,-0.14452067017555237,-0.27997252345085144,-0.9490675330162048,-0.0059309303760528564,0.0022625625133514404,0.006242215633392334,-0.04726135730743408,0.057792019098997116,-0.010165786370635033,-0.15111559777308636,0.2837654853903627,0.7581336608885623
1687001992.144864,-0.14193710684776306,-0.2776416838169098,-0.9501415491104126,-7.636845111846924e-05,0.00244942307472229,0.006324410438537598,-0.070148766040802,0.07248028367757797,-0.023962559178471565,-0.14828864906725392,0.28133840151440304,0.7568462952860764
1687001992.159208,-0.13264957070350647,-0.27333661913871765,-0.952728271484375,-0.015467435121536255,-0.009851247072219849,0.01263427734375,-0.11579640954732895,0.3061058223247528,-0.055550314486026764,-0.1383419118784759,0.27686004626685423,0.7538348083899471
1687001992.241932,-0.11060260981321335,-0.2696046531200409,-0.9565983414649963,-0.009117789566516876,0.0022706985473632812,-0.024602830410003662,-0.14561043679714203,0.5649487376213074,-0.15320870280265808,-0.11510962399732333,0.2729824547145255,0.7495702985625221
1687001992.332622,-0.08038658648729324,-0.25825628638267517,-0.9627261757850647,-0.02369355410337448,0.0030530691146850586,0.0005527138710021973,-0.2992331385612488,0.6882690191268921,-0.13999222218990326,-0.08330566649726484,0.2612168293538017,0.7410644534392068
1687001992.345465,-0.043080803006887436,-0.24484708905220032,-0.9686041474342346,0.028478194028139114,-0.029566973447799683,0.04122072458267212,-0.3475278317928314,0.6976596117019653,-0.16515430808067322,-0.04444790862556165,0.2473619740751421,0.7297497399068084
1687001992.422237,-0.010317054577171803,-0.23066666722297668,-0.9729781150817871,0.004808686673641205,0.023604929447174072,-0.035597264766693115,-0.19273506104946136,0.5671988129615784,-0.18876536190509796,-0.010603185645115793,0.23276277791599695,0.7204981437441936
1687001992.427575,0.015969060361385345,-0.22142420709133148,-0.9750468134880066,0.020102767273783684,0.005741238594055176,0.017069518566131592,-0.20300494134426117,0.42492035031318665,-0.10929663479328156,0.01637627223927584,0.2232746926149975,0.7116883789885187
1687001992.510878,0.04165388643741608,-0.21425992250442505,-0.9758881330490112,-0.005536284297704697,-0.01646822690963745,-0.00796806812286377,-0.14697164297103882,0.5167335867881775,-0.1147284135222435,0.0426571626504252,0.2159340905573957,0.7059515333387577
1687001992.522708,0.061422038823366165,-0.20014111697673798,-0.9778398871421814,0.013437625020742416,-0.07265551388263702,-0.025867998600006104,-0.4567010700702667,0.2901778519153595,-0.08287647366523743,0.06273158764961262,0.20150194577267813,0.7025373154425034
1687001992.600224,0.07419929653406143,-0.17787784337997437,-0.9812511801719666,-0.02616458386182785,0.06885381042957306,0.007496356964111328,-0.2921285629272461,0.3374482989311218,-0.07280732691287994,0.07547339363921998,0.1788294880878837,0.700326369719032
1687001992.6104789,0.09089037775993347,-0.17023487389087677,-0.9812028408050537,-0.006265096366405487,-0.062309056520462036,0.007890462875366211,-0.1834433674812317,0.2821621596813202,-0.01894463039934635,0.09236799937735207,0.17106802103895635,0.6978551781073219
1687001992.6583672,0.10245896130800247,-0.156740203499794,-0.9823108911514282,0.0026436224579811096,0.043489471077919006,0.019298195838928223,-0.23938971757888794,0.1876622587442398,-0.04484973102807999,0.10392820236495653,0.15738918961132614,0.6963211450691599
1687001992.750313,0.11061067879199982,-0.14816370606422424,-0.9827577471733093,0.011703811585903168,-0.03846654295921326,0.014160335063934326,-0.20748798549175262,0.0874677523970604,-0.07322491705417633,0.11207963828232854,0.14871122278081003,0.6942357516998063
1687001992.764042,0.11711246520280838,-0.13747859001159668,-0.9835569858551025,0.0007617175579071045,0.03739619255065918,0.005529642105102539,-0.14690172672271729,0.13943055272102356,-0.04871770739555359,0.1185123663944786,0.13791537943527102,0.6918868851455151
1687001992.841967,0.12183669954538345,-0.12993215024471283,-0.9840088486671448,0.006596550345420837,-0.017574548721313477,-0.01132190227508545,-0.20576564967632294,0.0481409914791584,-0.019872475415468216,0.12318970114213033,0.13030055428153725,0.6914754298093148
1687001992.8482342,0.1243690550327301,-0.11957460641860962,-0.9850046634674072,-0.0009711980819702148,0.01384645700454712,-0.004665076732635498,-0.1457594335079193,0.07088305801153183,-0.031715553253889084,0.1255977790753198,0.11986140146929981,0.6918619549618525
1687001992.8987222,0.12956996262073517,-0.11555833369493484,-0.9848136305809021,-0.0031203478574752808,0.015323355793952942,-0.012821197509765625,-0.0799715667963028,0.10207599401473999,-0.00711300503462553,0.13081663031188603,0.1158170820913724,0.6912787203620513
1687001992.9639869,0.12859246134757996,-0.10687153041362762,-0.9859221577644348,-0.0055302828550338745,-0.0024119168519973755,-0.012201011180877686,-0.20695576071739197,-0.018237633630633354,-0.014188225381076336,0.12969647977004312,0.10707602419675054,0.6928283763603147
1687001993.050283,0.12866432964801788,-0.09916260093450546,-0.986717939376831,-0.004350945353507996,0.015040896832942963,0.011055707931518555,-0.12084688991308212,-0.003442575456574559,-0.013468106277287006,0.12966466770663418,0.09932584058855001,0.6933303238687953
1687001993.062746,0.12843328714370728,-0.09289388358592987,-0.9873579144477844,-0.0001221001148223877,-0.005967818200588226,0.007545292377471924,-0.16298994421958923,-0.009222167544066906,0.024297380819916725,0.1293514526909734,0.09302800560929506,0.6948550453068821
1687001993.1086001,0.12813898921012878,-0.08866581320762634,-0.9877848029136658,0.00011117756366729736,0.017742954194545746,0.0006784796714782715,-0.020324548706412315,0.002604398177936673,-0.0018628491088747978,0.12900317795539706,0.08878240091115862,0.6958844428667228
1687001993.202872,0.1289082020521164,-0.08739163726568222,-0.987798273563385,0.0034923553466796875,-0.0051834434270858765,-0.01450580358505249,-0.036442000418901443,0.006263314746320248,-0.0001815957948565483,0.1297671846276867,0.08750325871184934,0.6959114509744599
1687001993.208667,0.1297270953655243,-0.08543999493122101,-0.9878617525100708,0.003649994730949402,0.0029052048921585083,-0.009910404682159424,-0.03195064514875412,0.019237834960222244,0.005513042211532593,0.1305739266077984,0.08554428754607643,0.6958680372111824
1687001993.257382,0.1306087225675583,-0.08323334157466888,-0.9879339933395386,0.004462122917175293,0.0031246915459632874,0.008884310722351074,-0.04873688146471977,0.0013045091181993484,0.004905574023723602,0.13144165642395406,0.08332974572197838,0.6963443981430867
1687001993.381228,0.13079078495502472,-0.08187247067689896,-0.9880236387252808,0.0014724433422088623,0.006875522434711456,0.011659502983093262,0.0035980939865112305,-0.000297382241114974,-0.0030460916459560394,0.13161097198544017,0.08196421731392668,0.696880554246318
1687001993.3938131,0.13108381628990173,-0.08187533915042877,-0.9879845380783081,-0.0001786351203918457,-0.002032741904258728,-2.199411392211914e-05,-0.018135031685233116,0.011462071910500526,0.0032999543473124504,0.13190760073586907,0.08196709213134472,0.6968067330614539
1687001993.4717898,0.13152892887592316,-0.0807565301656723,-0.9880174994468689,0.0014056861400604248,0.013083793222904205,-0.0009809136390686035,0.002957004588097334,0.015227914787828922,0.005344996228814125,0.1323459350861966,0.08084456408562284,0.6969992339384555
1687001993.4772,0.13196665048599243,-0.08094893395900726,-0.9879433512687683,0.00536249577999115,-0.005934610962867737,-0.01381140947341919,0.0036299852654337883,-0.007930668070912361,0.002654138021171093,0.13279107105045343,0.08103760454817123,0.6969392623381234
1687001993.561228,0.13230212032794952,-0.08051005005836487,-0.9879343509674072,0.007834628224372864,-0.001429639756679535,-0.007655799388885498,-0.024801189079880714,-0.003225261578336358,0.0014288173988461494,0.13312586599686715,0.08059728312313562,0.6966522088389784
1687001993.574399,0.1320236325263977,-0.0786365196108818,-0.9881224632263184,0.010005205869674683,0.019142501056194305,-0.009085118770599365,0.00791168212890625,-0.024678487330675125,0.008591922000050545,0.13282393886627608,0.07871779362327268,0.6974034280145699
1687001993.650107,0.1320466250181198,-0.07983042299747467,-0.9880236983299255,0.0061217546463012695,-0.014423124492168427,0.012544572353363037,-0.006056131795048714,-0.005895879119634628,-0.0028090709820389748,0.13285993433864768,0.07991545677639968,0.6975019454155825
1687001993.6616402,0.13213063776493073,-0.07874764502048492,-0.9880993366241455,0.0004224926233291626,0.012951739132404327,0.012513399124145508,-0.0011117730755358934,-0.001038673217408359,-0.004785135854035616,0.13293341578544393,0.07882926073765817,0.6973396807168768
1687001993.7082539,0.13186317682266235,-0.07923185080289841,-0.9880963563919067,0.0006441622972488403,0.002098672091960907,-0.0026414990425109863,0.009813578799366951,-0.0025452233385294676,0.00335854385048151,0.13266787156077164,0.07931498460459858,0.6973310675787879
1687001993.8002992,0.13170748949050903,-0.078395314514637,-0.988183856010437,-0.0018246471881866455,0.0008501410484313965,-0.007681012153625488,-0.011476995423436165,-0.0009357420494779944,0.004703439772129059,0.13250146763536086,0.07847583822363621,0.6974451620528812
1687001993.814231,0.13180820643901825,-0.0782807320356369,-0.9881795048713684,0.003262639045715332,-0.0005309209227561951,-0.014933288097381592,-0.006487164180725813,-0.001353858271613717,-0.0015310198068618774,0.13260218076823566,0.07836090310209361,0.6972754898101089
1687001993.858426,0.13152731955051422,-0.0777202919125557,-0.9882611632347107,0.00720563530921936,0.0030590295791625977,-0.0036059021949768066,-0.003544837236404419,-0.01694786362349987,0.0015270886942744255,0.13231208005002001,0.07779875053170168,0.697266311509786
1687001993.947521,0.1312253177165985,-0.0779811441898346,-0.9882807731628418,0.006546333432197571,0.003258846700191498,0.014647960662841797,0.0023255024570971727,-0.016950128600001335,-0.00777400191873312,0.1320092092268728,0.07806039486859265,0.6971323031770752
1687001993.9614558,0.13065937161445618,-0.07759989798069,-0.9883857369422913,0.001680135726928711,0.0033811554312705994,-0.0012687444686889648,0.012312755919992924,-0.013544478453695774,0.0055830832570791245,0.13143263520494233,0.07767799397267702,0.6973217492747444
1687001994.010992,0.1306452602148056,-0.07833033800125122,-0.9883300065994263,-0.0039972662925720215,0.0009682700037956238,0.0052825212478637695,0.0024922830052673817,0.013754388317465782,-0.004574746359139681,0.1314259317737933,0.07841065931462415,0.6972918730538148
1687001994.101646,0.13068875670433044,-0.07780572772026062,-0.9883657097816467,-0.0018587559461593628,-0.007765568792819977,-0.0030588507652282715,-0.020504379644989967,0.00519738532602787,0.0034829135984182358,0.13146448660007098,0.07788444308040289,0.6973355879844397
1687001994.108403,0.13066193461418152,-0.07759854942560196,-0.9883854985237122,-0.0005807280540466309,0.0023879781365394592,-0.014147400856018066,-0.00475098192691803,0.0019097125623375177,-0.00298910029232502,0.13143521345036255,0.07767663647305818,0.6973259384935933
1687001994.187381,0.1308516263961792,-0.07702028751373291,-0.9884056448936462,0.0075303614139556885,-0.0009979009628295898,-0.008786678314208984,-0.007955963723361492,-0.012207703664898872,0.006134090945124626,0.13162118727668654,0.07709663976422862,0.6974154736418108
1687001994.19134,0.1302516907453537,-0.07665486633777618,-0.9885132908821106,0.003613710403442383,0.0006050541996955872,0.009082138538360596,-0.004780410323292017,-0.01881607249379158,0.0006999103352427483,0.13101050988555046,0.076730135099615,0.6975683038625591
1687001994.247529,0.1295805424451828,-0.07660204917192459,-0.9886055588722229,0.005917549133300781,0.012896597385406494,0.011463284492492676,0.02041369304060936,-0.03093678317964077,0.007433978840708733,0.13033105818295626,0.07667715917907607,0.6979265057251176
1687001994.314124,0.1282707005739212,-0.07696259021759033,-0.9887483716011047,0.001673176884651184,-0.002489924430847168,0.004297137260437012,-0.0023103286512196064,-0.03343522921204567,0.021234745159745216,0.12900984745875815,0.0770387732253082,0.6986976910926487
1687001994.403492,0.126616433262825,-0.07776261866092682,-0.9888989925384521,-0.0069264620542526245,0.0027656778693199158,0.013404667377471924,0.015650097280740738,-0.020203711465001106,0.025518974289298058,0.12734490596249443,0.07784120788947459,0.6995937738915197
1687001994.40921,0.12471706420183182,-0.07913242280483246,-0.9890317320823669,0.008431166410446167,0.0022739022970199585,-0.008511602878570557,0.04030910134315491,-0.07021628320217133,0.02433599717915058,0.12543808767064943,0.07921524450146691,0.7005323740498044
1687001994.4604712,0.11940889805555344,-0.07983171939849854,-0.9896304607391357,0.015677206218242645,0.014157891273498535,-0.003838777542114258,0.03266097232699394,-0.15486791729927063,0.056239597499370575,0.1200795915536995,0.0799167615095919,0.702362923624182
1687001994.546902,0.11227485537528992,-0.08318374305963516,-0.9901893138885498,0.0032036975026130676,0.024223782122135162,-0.010894060134887695,0.14329826831817627,-0.16014310717582703,0.04683544486761093,0.11290505105063968,0.08327997799205437,0.7046101888033205
1687001994.5600882,0.10348350554704666,-0.08875486254692078,-0.9906632900238037,0.00340435653924942,0.03553219884634018,0.010621786117553711,0.14055268466472626,-0.23447592556476593,0.038079507648944855,0.10408133879551595,0.08887180578475386,0.7057207609201891
1687001994.6482449,0.09036547690629959,-0.09576649963855743,-0.9912935495376587,0.012768715620040894,0.010363057255744934,-0.013070464134216309,0.18344303965568542,-0.3565073013305664,0.0815846398472786,0.09090789411732618,0.0959134919304973,0.7077860035241841
1687001994.731188,0.07443554699420929,-0.10501401126384735,-0.9916810989379883,0.013210974633693695,-0.0015076026320457458,0.007733345031738281,0.16978028416633606,-0.40191513299942017,0.08837489783763885,0.07491947790769102,0.10520799127864272,0.7111639937506559
1687001994.744606,0.051923252642154694,-0.11512255668640137,-0.9919933080673218,0.007692880928516388,0.012293577194213867,-0.006389260292053223,0.23403821885585785,-0.45618876814842224,0.057021237909793854,0.05229461809952109,0.11537837527326882,0.7140473005919004
1687001994.822268,0.029776712879538536,-0.13040539622306824,-0.9910135269165039,-0.003104301169514656,0.013309448957443237,-0.027266502380371094,0.36514124274253845,-0.4047977328300476,0.06563789397478104,0.030037691044122364,0.1307778633991126,0.717095511952883
1687001994.8278499,0.005211882293224335,-0.1469823569059372,-0.9891253709793091,0.0018682456575334072,-0.008107975125312805,-0.026942133903503418,0.3008870482444763,-0.5137172937393188,0.08320383727550507,0.0052691340607393606,0.14751679858300806,0.7207366671288788
1687001994.9128962,-0.02013220451772213,-0.16192634403705597,-0.98659747838974,0.025152400135993958,0.02297981083393097,-0.00807720422744751,0.3610058128833771,-0.5509340167045593,0.11031641811132431,-0.020402861155409367,0.16264245321336734,0.7253950489421138
1687001994.925286,-0.04549620673060417,-0.18225905299186707,-0.9821974039077759,-0.004506789147853851,0.02404068410396576,-0.01861131191253662,0.48552224040031433,-0.5378410220146179,0.08213165402412415,-0.04628775225425234,0.1832835051976425,0.7310590219565776
1687001995.0014691,-0.07444114238023758,-0.20294076204299927,-0.9763572812080383,0.010430581867694855,0.03361399471759796,-0.00237196683883667,0.45142340660095215,-0.5774595141410828,0.05453970283269882,-0.07609653007148486,0.20436025430301982,0.734654642327834
1687001995.013948,-0.10030225664377213,-0.22332653403282166,-0.9695693254470825,0.007818803191184998,-0.01800645887851715,0.004862964153289795,0.35069721937179565,-0.5125057697296143,0.09402399510145187,-0.10308362866629868,0.22522586725785732,0.7402727623529615
1687001995.0549688,-0.12912535667419434,-0.23316659033298492,-0.9638257026672363,0.01871281862258911,-0.029482930898666382,0.0011792182922363281,0.09716792404651642,-0.6346893906593323,0.13336767256259918,-0.13317868168687483,0.23533276167270864,0.7466522899590557
1687001995.150988,-0.15764100849628448,-0.23906001448631287,-0.958122968673706,-0.01580558717250824,0.023361772298812866,0.0007407665252685547,0.17094241082668304,-0.4993901550769806,0.12578219175338745,-0.16307009565458888,0.2413976807203548,0.7547069417929416
1687001995.1642342,-0.18098288774490356,-0.24379673600196838,-0.9527897834777832,-0.014817804098129272,0.0030283182859420776,-0.0015559196472167969,0.11032167822122574,-0.42685550451278687,0.1213456392288208,-0.18771416730092919,0.24627880209928615,0.7623019003202812
1687001995.210356,-0.2006843388080597,-0.24943360686302185,-0.9473693370819092,-0.016646534204483032,0.0008069127798080444,0.01063227653503418,0.11707258969545364,-0.3456563949584961,0.08192072808742523,-0.20874736898715057,0.2520953369453938,0.7690514423177665
1687001995.304112,-0.21532274782657623,-0.2549048662185669,-0.942687451839447,-0.0011231005191802979,0.016562581062316895,0.012145459651947021,0.1684492975473404,-0.2307664155960083,0.05811792612075806,-0.22456128589871366,0.2577493111216639,0.773699920060088
1687001995.310196,-0.2229425013065338,-0.2601672112941742,-0.9394730925559998,-0.008502736687660217,0.0030260980129241943,0.03279578685760498,0.0865834578871727,-0.03338223323225975,-0.01126940082758665,-0.23299605132466408,0.2631953769039844,0.775876458206475
1687001995.357343,-0.22240643203258514,-0.26128244400024414,-0.9392905831336975,-0.008901476860046387,-0.01247549057006836,-0.00533527135848999,-0.026051610708236694,0.03270650655031204,0.015275124460458755,-0.23249935189751045,0.2643505620610912,0.7765912063556456
1687001995.444396,-0.2220221906900406,-0.25978049635887146,-0.9397979974746704,-0.0017173439264297485,-0.0007327497005462646,-0.01108396053314209,-0.038793839514255524,0.045638684183359146,0.033880770206451416,-0.23199109810962018,0.26279490088843843,0.777261829583105
1687001995.454297,-0.22021456062793732,-0.2593786418437958,-0.940334141254425,0.00062541663646698,0.009973794221878052,-0.011051356792449951,-0.00639049056917429,0.04339044168591499,0.008012950420379639,-0.2300419120750833,0.2623787737972632,0.7783399171666273
1687001995.5085669,-0.21968261897563934,-0.25784558057785034,-0.9408800005912781,-0.0044841766357421875,0.01245376467704773,0.010658442974090576,-0.020894797518849373,0.017193060368299484,-0.00475131394341588,-0.22937702336357207,0.260791712599203,0.7781654711509586
1687001995.602058,-0.2192503809928894,-0.25854507088661194,-0.9407888650894165,-0.00010991096496582031,0.008621394634246826,-0.004508376121520996,0.048417963087558746,-0.021911196410655975,-0.005261575803160667,-0.22896273577837345,0.26151576500598117,0.7778787124029641
1687001995.6147141,-0.21958604454994202,-0.2592872381210327,-0.9405062794685364,-0.0010407119989395142,-0.002309441566467285,0.013519585132598877,-0.012886074371635914,0.01702861115336418,0.00032733380794525146,-0.22936763819006492,0.2622841337344356,0.7778176887860626
1687001995.6597052,-0.2185330092906952,-0.2578972280025482,-0.9411335587501526,0.0062375664710998535,-0.009970784187316895,-0.011411607265472412,-0.035672277212142944,-0.0036722731310874224,-0.011708289384841919,-0.2281586691465497,0.26084516435615357,0.7768663840927356
1687001995.749113,-0.21884441375732422,-0.2575950622558594,-0.9411439299583435,0.000781133770942688,-0.004016846418380737,-0.006991446018218994,-0.009993614628911018,-0.0024369657039642334,-0.007910888642072678,-0.22847015954643182,0.2605324455690033,0.7762876770655021
1687001995.762764,-0.2189144343137741,-0.25772956013679504,-0.9410908222198486,-0.0032687336206436157,-0.003119438886642456,-0.013163328170776367,-0.009828166104853153,-0.003224862040951848,-0.017229288816452026,-0.2285531900844947,0.2606716305857353,0.7758431132243367
1687001995.810466,-0.21771098673343658,-0.25640666484832764,-0.9417311549186707,-0.008698835968971252,0.006772905588150024,0.011280715465545654,-0.0309895109385252,0.042523182928562164,-0.022441361099481583,-0.22719040981604852,0.2593027304440315,0.7746145922374796
1687001995.9028192,-0.2160404473543167,-0.25530892610549927,-0.942413866519928,-0.002236470580101013,0.009810268878936768,-0.0011133551597595215,-0.010745824314653873,0.029208045452833176,-0.003513476811349392,-0.2253479520544125,0.2581671975318695,0.7740444650601832
1687001995.9154348,-0.21504555642604828,-0.2543441653251648,-0.942902147769928,0.001193702220916748,0.0003005862236022949,0.011185228824615479,-0.027228327468037605,0.04723484814167023,0.002563856542110443,-0.22423242928717782,0.2571694932623506,0.7735969999411823
1687001995.957858,-0.2118370234966278,-0.2532959282398224,-0.9439100623130798,0.004699051380157471,-0.006225526332855225,0.0015578269958496094,-0.028177812695503235,0.0691317617893219,-0.015478527173399925,-0.22076708725040273,0.25608578695267564,0.7727650604776117
1687001996.050513,-0.20755648612976074,-0.2521499693393707,-0.9451670050621033,-0.0035793036222457886,-0.0024734437465667725,-0.009514391422271729,-0.04843354970216751,0.13029524683952332,-0.0346309170126915,-0.2161665340100338,0.25490135870221986,0.7712174082573439
1687001996.063322,-0.19953525066375732,-0.25070250034332275,-0.9472771286964417,-0.009189635515213013,0.004837691783905029,-0.01359933614730835,-0.02537696436047554,0.2083897888660431,-0.06049340218305588,-0.2076058971099796,0.2534058751268115,0.7691468858218959
1687001996.110026,-0.1898677498102188,-0.24870282411575317,-0.9497879147529602,7.899105548858643e-05,-0.002609431743621826,0.004521191120147705,-0.09930931031703949,0.24236305058002472,-0.08248712122440338,-0.19730460867781896,0.25134076802922883,0.7655782369678243
1687001996.199578,-0.17328844964504242,-0.24116508662700653,-0.9548876881599426,-0.018865421414375305,-0.0035095959901809692,0.04030638933181763,-0.2884299159049988,0.45944759249687195,-0.13470424711704254,-0.17952148092076395,0.24356619251978193,0.7570614936814513
1687001996.21297,-0.15624304115772247,-0.22543896734714508,-0.9616472125053406,0.01880718767642975,0.004537478089332581,-0.053886234760284424,-0.30739694833755493,0.1155242919921875,-0.12638959288597107,-0.16106695057739087,0.2273935717343442,0.7491809281052174
1687001996.2599158,-0.14723742008209229,-0.21083328127861023,-0.9663697481155396,-0.02535468339920044,0.01481887698173523,0.05297863483428955,-0.3105853199958801,0.3438284397125244,-0.15123583376407623,-0.15119855445414432,0.2124273176113004,0.7401781077984697
1687001996.349739,-0.12009663879871368,-0.2023637443780899,-0.9719185829162598,-0.03603123128414154,-0.007276758551597595,0.034601688385009766,-0.190220445394516,0.5587101578712463,-0.15045738220214844,-0.12294336081281278,0.203771001613174,0.7296132373599448
1687001996.3623018,-0.09032192826271057,-0.19303709268569946,-0.9770253896713257,-0.0003152191638946533,-0.04068177938461304,-0.0038248300552368164,-0.2752200961112976,0.6719797849655151,-0.15264250338077545,-0.09218382316289182,0.1942565170624018,0.7192908287763986
1687001996.4092178,-0.050643905997276306,-0.18640443682670593,-0.9811669588088989,-0.007553063333034515,0.03410646319389343,-0.020847201347351074,-0.07006733864545822,0.8740231990814209,-0.08176673948764801,-0.05157022546700882,0.18750115423276237,0.7135449308353994
1687001996.503186,-0.012267515063285828,-0.17771954834461212,-0.9840047359466553,0.01031444314867258,-0.04743914306163788,-0.03142189979553223,-0.27947327494621277,0.6747663021087646,-0.11318724602460861,-0.012466281317680695,0.1786686213332188,0.7097339896032407
1687001996.5163012,0.017438119277358055,-0.16454975306987762,-0.9862146377563477,-0.013272421434521675,0.052397653460502625,-0.016226768493652344,-0.17789912223815918,0.5802916884422302,-0.10020273923873901,0.01768002884774866,0.16530152615456414,0.705830155933356
1687001996.555541,0.0449502132833004,-0.15693970024585724,-0.9865847229957581,-0.01771322637796402,-0.011090084910392761,0.024441778659820557,-0.19126379489898682,0.5216020345687866,-0.010952751152217388,0.04552994479990344,0.1575911858906982,0.7030917971608781
1687001996.651326,0.06467696279287338,-0.14414478838443756,-0.9874407052993774,0.0487111359834671,-0.04803963005542755,-0.015916168689727783,-0.4203866720199585,0.11852581053972244,-0.052242398262023926,0.06540615947554192,0.1446486853168231,0.7029083632055299
1687001996.665256,0.07095222175121307,-0.12995629012584686,-0.98897784948349,-0.007658720016479492,0.04287438094615936,0.00699847936630249,-0.12566035985946655,0.18582254648208618,-0.04248218238353729,0.07162027663702093,0.1303248997663605,0.7024696577200339
1687001996.710504,0.07974548637866974,-0.12633711099624634,-0.9887768030166626,0.0017059668898582458,0.005640104413032532,-0.013817131519317627,-0.061637166887521744,0.1218893826007843,-0.07000089436769485,0.08047645997886049,0.12667563325542974,0.6996607292595577
1687001996.798314,0.08996175974607468,-0.12137752026319504,-0.9885213375091553,-0.005214400589466095,0.03585200756788254,0.0060231685638427734,-0.07520510256290436,0.23249299824237823,-0.08340032398700714,0.09075638878752589,0.12167754820444023,0.6960279058380072
1687001996.810653,0.1006116196513176,-0.11667553335428238,-0.9880607724189758,0.005238637328147888,-0.01355823129415512,0.02192002534866333,-0.14677929878234863,0.16788816452026367,-0.02273111417889595,0.10147759178868906,0.11694189038533828,0.6938072441278353
1687001996.857688,0.10669125616550446,-0.10735684633255005,-0.9884793758392334,0.006055980920791626,0.006404697895050049,0.0232083797454834,-0.1825171262025833,0.12954357266426086,-0.04988417029380798,0.10751849255188924,0.10756414949817547,0.692713197540969
1687001996.95146,0.11270972341299057,-0.10061096400022507,-0.9885210990905762,0.0061410218477249146,-0.00645996630191803,0.002772808074951172,-0.15699104964733124,0.10809434205293655,-0.017026888206601143,0.11352826480189854,0.10078147889910655,0.6922319217387027
1687001996.964762,0.11661878228187561,-0.09057634323835373,-0.9890379309654236,0.011097326874732971,-0.006637401878833771,0.001763761043548584,-0.23833990097045898,0.08302480727434158,-0.04396502673625946,0.11736940750964085,0.09070065406828313,0.6916441205055825
1687001997.040343,0.12135952711105347,-0.08211170881986618,-0.9892064929008484,0.014611579477787018,-0.00855601578950882,-0.02120000123977661,-0.1600821167230606,0.05943399295210838,-0.015213541686534882,0.12207369391103297,0.08220426183990229,0.690330913379781
1687001997.04586,0.12040814757347107,-0.07417900115251541,-0.9899491667747498,0.005309060215950012,0.015402138233184814,0.008900582790374756,-0.11843347549438477,-0.026612211018800735,-0.02169967070221901,0.12103610708318666,0.07424719791930995,0.6900019484306908
1687001997.099564,0.12144923955202103,-0.06902910768985748,-0.9901944398880005,-0.002735838294029236,0.017683282494544983,0.010198771953582764,-0.08124535530805588,0.007091691717505455,-0.02591625414788723,0.12204236629644083,0.06908404611011586,0.6892716583383436
1687001997.224462,0.12260760366916656,-0.06521664559841156,-0.9903101325035095,0.005993500351905823,0.011688806116580963,0.01928657293319702,-0.08700510859489441,0.0036250543780624866,0.01337522640824318,0.12318045443776957,0.065262964396159,0.6896749270596576
1687001997.229878,0.12327772378921509,-0.06206202134490013,-0.9904296398162842,0.0023784413933753967,-0.0029862038791179657,0.01778864860534668,-0.06194170191884041,0.0213870070874691,0.0025092624127864838,0.12383206175246789,0.06210193112166957,0.6897259996226066
1687001997.313952,0.1237388327717781,-0.059121258556842804,-0.9905520677566528,-2.0526349544525146e-05,-0.007849574089050293,-0.010470271110534668,-0.08129894733428955,0.003699489636346698,-0.0006878627464175224,0.12427529969777291,0.05915575461920731,0.6900735494516077
1687001997.3274121,0.12354019284248352,-0.05552166700363159,-0.9907851219177246,0.004420049488544464,0.007792167365550995,-0.01147317886352539,-0.05292496830224991,-0.014978324063122272,0.011962685734033585,0.12404895242301762,0.05555023079815642,0.6908760921972709
1687001997.401705,0.12336371093988419,-0.05328204855322838,-0.9909300804138184,0.004459209740161896,-0.004930239170789719,-0.01871347427368164,-0.07423286139965057,-0.0005129650817252696,-0.0121066989377141,0.12385561672132228,0.05330729143471307,0.6912793631347468
1687001997.413996,0.12374167889356613,-0.04988965019583702,-0.9910595417022705,0.005439259111881256,0.011773187667131424,0.005143404006958008,-0.023536188527941704,-0.005296934396028519,-0.003771004267036915,0.12421514671245794,0.049910370089534285,0.6909531178821882
1687001997.455575,0.12376613914966583,-0.049575645476579666,-0.9910722374916077,0.005063846707344055,-0.0012208670377731323,0.012083649635314941,-0.023976542055606842,-0.006639966741204262,0.005515703931450844,0.12423787221579262,0.04959597487213866,0.6909518271824718
1687001997.552398,0.12349440157413483,-0.047599367797374725,-0.9912030100822449,-0.003773912787437439,0.007514525204896927,0.013969182968139648,-0.03298568353056908,0.0035382353235036135,0.020744992420077324,0.12395169812448217,0.047617359389272425,0.6917885029224345
1687001997.564924,0.12368112057447433,-0.04689014330506325,-0.9912135601043701,0.00340937077999115,0.0010374747216701508,-0.014752626419067383,0.0043806638568639755,0.005019352305680513,-0.006952682975679636,0.12413588032334376,0.04690734417754638,0.6924752332289975
1687001997.640738,0.12369558960199356,-0.04637369140982628,-0.9912360310554504,0.004844486713409424,0.006243068724870682,-0.01076287031173706,0.0005572966765612364,-0.01944258064031601,0.009181812405586243,0.12414747313257929,0.046390327508127875,0.6925573771926044
1687001997.6453872,0.12296386063098907,-0.04611927270889282,-0.9913389682769775,0.01193913072347641,0.0032115504145622253,-0.01595473289489746,-0.006268651224672794,-0.045643556863069534,0.04453953355550766,0.12340784326665798,0.046135636572189574,0.6937845538134374
1687001997.6985102,0.1220911368727684,-0.045869652181863785,-0.9914583563804626,0.011850550770759583,0.018388565629720688,0.004931926727294922,0.025731759145855904,-0.023330796509981155,0.03503710776567459,0.12252612535004491,0.04588575308149389,0.6953902481962506
