Timestamp,gravityX,gravityY,gravityZ,accelerationX,accelerationY,accelerationZ,rotationRateX,rotationRateY,rotationRateZ,attitudeRoll,attitudePitch,attitudeYaw
1687016482.541626,0.8872560858726501,0.46079081296920776,-0.0211764145642519,0.013134539127349854,-0.04891037940979004,0.04211151599884033,0.04095429927110672,0.06776466965675354,-0.06517504155635834,1.5469335495549557,-0.4788860481439396,-1.720496420164806
1687016482.557253,0.886902391910553,0.46166786551475525,-0.01633722335100174,-0.010025560855865479,-0.054777055978775024,0.031184077262878418,0.006109965033829212,0.08915477991104126,-0.02270428091287613,1.5523778669942527,-0.4798745133136501,-1.7205659326936242
1687016482.693142,0.8880755305290222,0.45960092544555664,-0.009414609521627426,0.013825654983520508,-0.031103700399398804,0.009857178665697575,0.03344684839248657,0.12415045499801636,0.0024873586371541023,1.5601955881007556,-0.4775458136609563,-1.7205459729774297
1687016482.7085829,0.8894944190979004,0.4569428265094757,-0.0016878432361409068,0.00804281234741211,-0.013095229864120483,-0.01968967914581299,-0.08536922186613083,0.10186605155467987,-0.013009841553866863,1.5688987980643763,-0.47455518644551725,-1.7186038292490604
1687016482.7874079,0.890289306640625,0.4553769528865814,0.004092521965503693,-0.0029602646827697754,0.023184388875961304,-0.05527043342590332,-0.09318798780441284,0.05177571624517441,-0.027689717710018158,1.575393139459109,-0.4727955843039225,-1.712680922545009
1687016482.792337,0.8900026082992554,0.4559152126312256,0.006040786858648062,0.0006223320960998535,0.008882671594619751,-0.07414066791534424,-0.18943056464195251,-0.014438588172197342,-0.05613254755735397,1.5775836038929003,-0.47340025644528333,-1.7066377271618922
1687016482.7967172,0.8885347247123718,0.4588019847869873,0.002646688837558031,-0.0003662705421447754,0.030150651931762695,-0.047950029373168945,-0.1380377560853958,-0.07011795789003372,-0.023232385516166687,1.5737750298092124,-0.476646425890002,-1.6974799784633945
1687016482.869094,0.8872255682945251,0.46130478382110596,-0.0053594280034303665,-0.0011782050132751465,-0.01208612322807312,-0.005199611186981201,-0.1374797523021698,-0.07504335045814514,-0.0710558369755745,1.5647557404331798,-0.47946525572389265,-1.6965716167754665
1687016482.8730102,0.8850476741790771,0.4654417932033539,-0.007381885778158903,0.010093927383422852,-0.016925007104873657,0.016781389713287354,-0.17902986705303192,-0.07765989750623703,-0.043505165725946426,1.5624558557830666,-0.48413370601437744,-1.68727510949501
1687016482.930646,0.8851847052574158,0.4651789665222168,-0.007530909031629562,0.001671433448791504,-0.02960166335105896,0.022682905197143555,-0.09539448469877243,-0.04167873039841652,-0.008641725406050682,1.5622888055694253,-0.48383678306636674,-1.6817397280440154
1687016483.055186,0.8858875036239624,0.4638829827308655,-0.0039996858686208725,-0.0036853551864624023,-0.018295884132385254,0.03657722473144531,-0.12503354251384735,-0.01987636461853981,0.009308778680860996,1.5662814662775117,-0.4823732943513947,-1.672775070638545
1687016483.070085,0.8875221014022827,0.4607647955417633,0.0003496750141493976,0.0014548301696777344,-0.020045310258865356,0.01754891872406006,-0.2377682775259018,-0.01912521943449974,0.028050772845745087,1.5711903169613537,-0.47885673609007506,-1.6634063698214216
1687016483.170793,0.8888989686965942,0.45804405212402344,0.007369200699031353,0.005296587944030762,0.029123276472091675,0.0033882856369018555,-0.15851765871047974,-0.013298489153385162,0.047603704035282135,1.5790863936124062,-0.4757935993406912,-1.6488553247011382
1687016483.175232,0.8916096687316895,0.45273709297180176,0.00782647356390953,-0.014000415802001953,0.049505919218063354,-0.011397004127502441,0.23971253633499146,-0.006077860947698355,0.15723618865013123,1.579574016222835,-0.4698326597449962,-1.6490696416477966
1687016483.1799068,0.895649254322052,0.44476118683815,-0.00024143836344592273,-0.031482994556427,0.0248890221118927,-0.0013454556465148926,0.20368129014968872,-0.10278443247079849,0.2972705364227295,1.5705267588185652,-0.4609076177163995,-1.6636973115944929
1687016483.290154,0.9008939862251282,0.4339815676212311,-0.007077286951243877,-0.019012272357940674,0.10730865597724915,0.09098541736602783,0.08243143558502197,-0.020128166303038597,0.1844893842935562,1.562940639392183,-0.44890754003539096,-1.6718812962710743
1687016483.356905,0.9013411402702332,0.43308064341545105,-0.005037133581936359,0.003917038440704346,0.07345005869865417,0.03322017192840576,-0.07085619121789932,0.10949387401342392,-0.16051727533340454,1.5652078973112264,-0.4479077597478989,-1.6734642869500942
1687016483.3735862,0.8956625461578369,0.44471314549446106,0.004306178539991379,-0.011553168296813965,-0.0010334551334381104,-0.004809737671166658,-0.1246485784649849,0.14156898856163025,-0.27643027901649475,1.5756041030890497,-0.4608539570985865,-1.66456323940356
1687016483.377038,0.8897503018379211,0.45631611347198486,0.010946189053356647,0.015584111213684082,-0.056535929441452026,-0.03603160381317139,-0.022133655846118927,0.10308896750211716,-0.2241838574409485,1.5830982467036365,-0.4738507370687883,-1.6631939835985525
1687016483.405421,0.88565593957901,0.46405819058418274,0.016236120834946632,0.02083820104598999,-0.060905784368515015,-0.033310651779174805,-0.09088488668203354,0.05352834239602089,-0.12484689056873322,1.5891265856994672,-0.4825710772745457,-1.657752426638464
1687016483.470117,0.8861837387084961,0.46303069591522217,0.016761910170316696,0.020920753479003906,-0.05264562368392944,-0.0239945650100708,-0.06887412816286087,0.01563289389014244,-0.03721850737929344,1.589708782977899,-0.481411469692424,-1.655564382773845
1687016483.534528,0.8903136849403381,0.4551321566104889,0.01400953158736229,0.0034393668174743652,-0.029091566801071167,-0.022294998168945312,-0.029789909720420837,-0.028787167742848396,0.10595942288637161,1.5865305290204827,-0.47252064183633224,-1.6545922775199893
1687016483.621639,0.8951959609985352,0.4455599784851074,0.010029761120676994,-0.00867551565170288,0.025478839874267578,-0.009572028182446957,-0.03277311846613884,-0.05013333633542061,0.09230406582355499,1.581999841442144,-0.4617996623347095,-1.6546664665755315
1687016483.629389,0.8971284031867981,0.4417017102241516,0.007767315022647381,-0.009402573108673096,0.026987195014953613,-0.002564072608947754,-0.13017424941062927,-0.0736655667424202,0.06796490401029587,1.5794540851949705,-0.4574945717744317,-1.650722347622553
1687016483.680574,0.8978367447853088,0.4402916729450226,0.0056964075192809105,-0.015680372714996338,0.05265870690345764,0.011896967887878418,-0.04911653697490692,-0.06663800776004791,0.08898257464170456,1.5771408333041652,-0.4559235067213317,-1.6450137111069618
1687016483.774413,0.8973667025566101,0.4412643611431122,0.004300257656723261,-0.009366333484649658,0.04132524132728577,0.022784113883972168,-0.10453399270772934,-0.06199132651090622,0.030253473669290543,1.5755883755558548,-0.4570071248140473,-1.6415446123790416
1687016483.7895231,0.8958677053451538,0.4443046748638153,0.0037840018048882484,-0.009377896785736084,0.02874821424484253,0.0163576602935791,0.016194423660635948,-0.05664503201842308,0.03627621382474899,1.5750201417011407,-0.46039796891715323,-1.6392752429845299
1687016483.827489,0.8948923349380493,0.44626206159591675,0.004211796447634697,-0.006083190441131592,0.022335290908813477,0.017760872840881348,-0.03789737448096275,-0.04768149554729462,0.009049919433891773,1.5755027757696969,-0.462584046405169,-1.6369583432653199
1687016483.921763,0.893502414226532,0.44901567697525024,0.006207464728504419,-0.009835302829742432,0.032292306423187256,0.02908611297607422,-0.025406282395124435,-0.024217849597334862,-0.014572585001587868,1.5777435549252254,-0.46566341950617224,-1.6323871901936309
1687016483.926903,0.8929542303085327,0.4500899016857147,0.007189416792243719,-0.0008034110069274902,-0.0020766854286193848,0.007245420943945646,-0.039477892220020294,-0.025190968066453934,0.00566317792981863,1.578847424183226,-0.4668660263956152,-1.631518221019856
1687016484.014746,0.8928169012069702,0.45031148195266724,0.009859981015324593,0.001012265682220459,0.012151777744293213,0.004193424247205257,-0.027327885851264,-0.02528790757060051,0.01252454612404108,1.581839553923482,-0.4671141500647153,-1.6260049198263844
1687016484.105977,0.8937780261039734,0.44841843843460083,0.009033367969095707,0.001607656478881836,0.0055457353591918945,0.0028380146250128746,0.036397166550159454,-0.020080363377928734,0.03353076055645943,1.5809029309371738,-0.4649951069224337,-1.628143776931387
1687016484.1211882,0.8940349221229553,0.4479193687438965,0.0083655696362257,-0.010825634002685547,0.0023521780967712402,0.0020257234573364258,0.036537714302539825,-0.003902857191860676,0.021232817322015762,1.5801531493509795,-0.4644368326589301,-1.6292148325103981
1687016484.195719,0.894313633441925,0.4473676085472107,0.008087681606411934,-0.003856480121612549,-0.0029859542846679688,0.010711193084716797,0.01223363820463419,-0.010586726479232311,0.02686407044529915,1.5798395317635219,-0.4638197973652171,-1.6301006437166963
1687016484.209488,0.8944529891014099,0.44709596037864685,0.0076790680177509785,-0.0050487518310546875,-0.0033247172832489014,0.0012321462854743004,-0.01479511708021164,-0.004775309003889561,0.02590826153755188,1.579381327498853,-0.46351608237497105,-1.6304856553134945
1687016484.283718,0.8947353363037109,0.44651123881340027,0.008747106418013573,-0.0012569427490234375,0.003531426191329956,-0.000446319580078125,-0.1071958839893341,-0.023783089593052864,0.005257845856249332,1.5805722093883792,-0.4628624938807457,-1.6284941544231373
1687016484.28796,0.8950557112693787,0.44580334424972534,0.01160453725606203,-0.0005244612693786621,-0.002764493227005005,-0.0016863355413079262,-0.28968825936317444,-0.06562813371419907,0.020342785865068436,1.583760756711757,-0.4620715369196865,-1.6160862421314872
1687016484.434527,0.8954358100891113,0.44492319226264954,0.015435803681612015,-0.010609030723571777,0.023460596799850464,-0.00240468792617321,-0.28075262904167175,-0.05244003236293793,-0.013578693382441998,1.5880329336632724,-0.46108849296144927,-1.5987200008554927
1687016484.440826,0.8950619101524353,0.44559404253959656,0.017605045810341835,0.003818035125732422,0.007714003324508667,-0.009166957810521126,-0.17374880611896515,-0.04861227422952652,-0.017546003684401512,1.590462872981995,-0.46183769931660185,-1.585655209477611
1687016484.526252,0.8945313096046448,0.446702241897583,0.016454508528113365,0.0036162137985229492,0.014311462640762329,-0.002584220841526985,0.04919092357158661,-0.012151200324296951,0.010037421248853207,1.5891888103691774,-0.46307598318320636,-1.583080621296806
1687016484.540135,0.8938396573066711,0.4481179118156433,0.015517950989305973,0.001607060432434082,-0.026563435792922974,0.012909173034131527,-0.1833481788635254,-0.042251043021678925,-0.025347203016281128,1.5881555831077827,-0.46465891817086974,-1.5811926519630908
1687016484.64831,0.8933936953544617,0.4489542543888092,0.01696532405912876,-0.01059645414352417,0.02644851803779602,-0.0033391714096069336,-0.09171027690172195,-0.03223436325788498,-0.005716508720070124,1.5897837947315243,-0.46559466978156555,-1.5714546767260134
1687016484.664266,0.8920795321464539,0.4514184594154358,0.020384956151247025,0.023127377033233643,0.021970123052597046,0.010407328605651855,-0.3403130769729614,-0.034478478133678436,-0.15144307911396027,1.5936434029528272,-0.4683543492652101,-1.5611113943861694
1687016484.667817,0.8867542743682861,0.46153026819229126,0.025624461472034454,0.017527341842651367,0.09961161017417908,-0.08266174793243408,-0.3355184495449066,-0.08831614255905151,-0.3192507326602936,1.599685201594806,-0.4797193963529734,-1.5415622629487684
1687016484.732605,0.8764625191688538,0.48054802417755127,0.02977892756462097,-0.007733941078186035,0.08454585075378418,-0.15279531478881836,-0.5420308709144592,-0.23049697279930115,-0.5236028432846069,1.6047595323508204,-0.5012795235974323,-1.5140690746636896
1687016484.7361789,0.8651400208473206,0.5006946325302124,0.028945816680788994,0.020892202854156494,0.022208809852600098,-0.12149035930633545,-0.584003210067749,-0.4240540862083435,-0.4168931245803833,1.604241806523601,-0.5244010392704329,-1.4824551601652545
1687016484.821854,0.8540363311767578,0.5196730494499207,0.02370765060186386,0.02473270893096924,0.12063151597976685,-0.06841588020324707,-0.6690078973770142,-0.5267643332481384,-0.6156566143035889,1.5985487325617505,-0.546468193640009,-1.4448373799738101
1687016484.826758,0.8317477107048035,0.554832398891449,0.018883278593420982,0.05785489082336426,0.19083398580551147,-0.08936357498168945,-0.3576483428478241,-0.4773023724555969,-1.0384637117385864,1.593495558741205,-0.5881614921443925,-1.407392555869048
1687016484.8817282,0.7973083853721619,0.6035718321800232,0.0005447606090456247,0.02709341049194336,0.29507917165756226,-0.06664586067199707,0.023761263117194176,-0.5148493647575378,-1.4170228242874146,1.5714795762340874,-0.6479734283565187,-1.402449270162881
1687016484.974855,0.7433501482009888,0.6687871217727661,-0.012408020906150341,0.07139283418655396,0.23669975996017456,-0.09727209806442261,-0.4660934507846832,-0.6286120414733887,-1.8507978916168213,1.5541058507151684,-0.7325761977763133,-1.3853597075173998
1687016484.990693,0.6738649010658264,0.7385777235031128,-0.0202249214053154,0.08579397201538086,0.30181223154067993,-0.03604942560195923,-0.422487735748291,-0.6997976303100586,-2.1436405181884766,1.540792016111847,-0.8309582382848433,-1.3564238987643225
1687016485.030662,0.5807294249534607,0.8138033747673035,-0.021854586899280548,0.17995178699493408,0.1997770071029663,-0.005702735856175423,-0.6354158520698547,-0.6947176456451416,-2.5392422676086426,1.533181086130126,-0.950667112887929,-1.3200060534211313
1687016485.124372,0.470956027507782,0.8816542625427246,-0.029765373095870018,0.1679447591304779,0.33009183406829834,0.03910374641418457,0.7495940923690796,-0.4488530158996582,-2.5736796855926514,1.5076782585000021,-1.0793563735255545,-1.314859964400111
1687016485.1396298,0.35306882858276367,0.9300428628921509,-0.10179585963487625,0.17099431157112122,0.2342330813407898,-0.06540994346141815,1.3406325578689575,-0.5955918431282043,-2.6227145195007324,1.2900917395100056,-1.1945295561872271,-1.5265641206875675
1687016485.180587,0.2197059839963913,0.9648888111114502,-0.14394082129001617,0.21555104851722717,0.3284156322479248,0.02345740795135498,0.42253586649894714,-0.7591031789779663,-2.7791073322296143,0.9908077964051455,-1.3050196269371483,-1.8047725130377479
1687016485.275083,0.07157038897275925,0.9796372652053833,-0.18758630752563477,0.2744074761867523,0.347099244594574,-0.03528353571891785,0.9864277839660645,-0.8609276413917542,-3.0435609817504883,0.36448599832796497,-1.3686468754091947,-2.4055652575750295
1687016485.291115,-0.09346852451562881,0.9684831500053406,-0.23087641596794128,0.3706902861595154,0.39852118492126465,0.08994628489017487,0.8573988676071167,-0.869676411151886,-3.3494720458984375,-0.38467373430260704,-1.319067074594256,-3.128061647870921
1687016485.3297281,-0.26978206634521484,0.9235212802886963,-0.2726280391216278,0.4589301347732544,0.3819749355316162,0.10938957333564758,1.2822740077972412,-0.8575683236122131,-3.6150457859039307,-0.7801512833850803,-1.1771620753457104,2.785583170986673
1687016485.425138,-0.44500255584716797,0.8401308059692383,-0.3100852966308594,0.43598470091819763,0.2756834030151367,0.19123461842536926,0.9459797143936157,-0.8497809767723083,-3.7284514904022217,-0.9622098688437721,-0.9975243059785555,2.629004668405855
1687016485.440078,-0.6045647859573364,0.7283022403717041,-0.32261013984680176,0.4740564823150635,0.2576292157173157,0.12911343574523926,0.9723482131958008,-0.8650089502334595,-3.693871021270752,-1.0806129312259563,-0.8158411117069144,2.534450169453484
1687016485.546118,-0.7393555641174316,0.5889533758163452,-0.32632365822792053,0.4850221872329712,0.18895500898361206,0.17228621244430542,0.8785895705223083,-0.7652021050453186,-3.652336597442627,-1.1551487070656603,-0.6297631749068544,2.48412088100685
1687016485.671247,-0.8434476852416992,0.4336472749710083,-0.31709009408950806,0.554049551486969,0.17079919576644897,0.19375330209732056,0.6490975022315979,-0.697073757648468,-3.552542209625244,-1.2111972832676314,-0.4485365280660417,2.444942475231962
1687016485.6755052,-0.9154775738716125,0.2664033770561218,-0.30154627561569214,0.5224112272262573,0.17401111125946045,0.12825220823287964,0.9929019212722778,-0.6980602145195007,-3.464125394821167,-1.2526018182492409,-0.2696596237156692,2.425033623140209
1687016485.679759,-0.956721305847168,0.09259861707687378,-0.27588021755218506,0.47263628244400024,0.12160435318946838,0.10777413845062256,0.9404923915863037,-0.7543727159500122,-3.327730655670166,-1.290052278569849,-0.09273146092192051,2.4191806312051125
1687016485.7499819,-0.9684327244758606,-0.07671511173248291,-0.23717659711837769,0.38617265224456787,0.12021800875663757,0.07637949287891388,0.4920121133327484,-0.850178599357605,-3.3020193576812744,-1.3306161569515036,0.0767905619516641,2.41550232684351
1687016485.753181,-0.9524223804473877,-0.23705258965492249,-0.1915665566921234,0.4150993824005127,0.12091803550720215,0.052406370639801025,0.1792595088481903,-0.9599063992500305,-3.2570528984069824,-1.3723085601745466,0.23933084298067905,2.3933019960603836
1687016485.843265,-0.9106634259223938,-0.38744914531707764,-0.14344115555286407,0.3815038800239563,0.1135539710521698,0.03183835744857788,-0.15425607562065125,-1.0660154819488525,-3.270024061203003,-1.4145671100089088,0.39786299865796737,2.3651092888824725
1687016485.857691,-0.8473655581474304,-0.5217186212539673,-0.0988997220993042,0.3250877857208252,-0.13076233863830566,0.047737009823322296,0.007221368607133627,-1.0365523099899292,-2.8608107566833496,-1.4546076529670153,0.5488642600366295,2.336499525685322
1687016485.93842,-0.7745548486709595,-0.6289982795715332,-0.06652771681547165,0.291293740272522,-0.17958015203475952,0.01855403184890747,-0.5806219577789307,-0.9275529980659485,-2.5637223720550537,-1.4851150655133907,0.6802639695065975,2.30641607205576
1687016485.944821,-0.6920467615127563,-0.7188956141471863,-0.06527093797922134,0.17800861597061157,0.05663377046585083,-0.02138376235961914,-0.7051270604133606,-0.7178181409835815,-2.425097703933716,-1.476758709736946,0.8022122757650719,2.231872035165066
1687016486.0561628,-0.6082567572593689,-0.7925746440887451,-0.04299835488200188,0.2034868597984314,-0.09115320444107056,-0.03854465112090111,0.2443556934595108,-0.6096445322036743,-2.150391101837158,-1.500222604328054,0.9150197642779034,2.217766777218766
1687016486.061969,-0.5195149183273315,-0.8538878560066223,-0.03130194917321205,0.18377572298049927,-0.00899660587310791,0.049520909786224365,-0.29664045572280884,-0.4693143367767334,-2.118668556213379,-1.510616814239508,1.0234101712929287,2.197795577570978
1687016486.1127539,-0.4328887164592743,-0.9011276364326477,-0.024009140208363533,0.20461711287498474,0.03766322135925293,-0.087898850440979,0.3901507556438446,-0.4070148766040802,-1.8190159797668457,-1.5153904769757867,1.122363411646087,2.1786530203375647
1687016486.2056808,-0.361905574798584,-0.9320449233055115,0.01778576150536537,0.15057134628295898,-0.0568770170211792,0.14606308937072754,1.0043727159500122,-0.38454580307006836,-1.203819751739502,-1.6199015758848283,1.2000160805565607,2.2727869714170263
1687016486.210702,-0.31172823905944824,-0.9486227035522461,0.05422457307577133,0.16245147585868835,-0.20004355907440186,-0.09414160251617432,0.2978111803531647,-0.5258564352989197,-0.8664320707321167,-1.7430212850036644,1.2488542630234754,2.3767482862502995
1687016486.301742,-0.27542975544929504,-0.9574487805366516,0.08619817346334457,0.08138370513916016,0.06775468587875366,0.037474267184734344,0.708113968372345,-0.36322879791259766,-0.6765572428703308,-1.8740991443737824,1.2780286582362441,2.493195147013466
1687016486.306034,-0.2366037368774414,-0.9636594653129578,0.12401267886161804,-0.017912939190864563,-0.056176960468292236,0.04741978645324707,0.7122787833213806,-0.002574472688138485,-0.7818612456321716,-2.0535662535619315,1.3003788869484136,2.6691511795945644
1687016486.4157948,-0.2123485654592514,-0.9623974561691284,0.16940835118293762,-0.015556782484054565,-0.2577105164527893,0.15181969106197357,0.8785399198532104,0.2512841522693634,-0.3031790852546692,-2.2441847622686106,1.2956941269186433,2.8737525425468737
1687016486.432098,-0.2073126584291458,-0.96186363697052,0.17843712866306305,-0.025704383850097656,-0.3259323239326477,0.050871968269348145,-0.2884949743747711,0.37752464413642883,-0.030940640717744827,-2.28147823450309,1.2937358305164466,2.930869670956021
1687016486.505517,-0.21348361670970917,-0.962977409362793,0.16461901366710663,-0.07310706377029419,0.013667047023773193,-0.052222833037376404,0.10156337916851044,0.18443496525287628,0.1405472308397293,-2.2276705139307147,1.2978373247654316,2.88832124284144
1687016486.5102592,-0.2161293625831604,-0.9597903490066528,0.1791376918554306,-0.020778626203536987,0.11901599168777466,-0.059279948472976685,0.44248688220977783,0.08832947164773941,-0.08490293473005295,-2.2628797543977015,1.2862543165694047,2.9317210373895337
1687016486.655772,-0.21098028123378754,-0.9579028487205505,0.1947038620710373,-0.011462420225143433,7.814168930053711e-05,-0.02241694927215576,0.23719237744808197,0.03863528370857239,-0.11974800378084183,-2.316095079580031,1.2796060828671854,2.9903783621159192
1687016486.6615639,-0.2079758197069168,-0.9568633437156677,0.20287562906742096,0.02195584774017334,-0.029403626918792725,0.03932712972164154,0.1749366670846939,0.0810324028134346,-0.03920655697584152,-2.343781432503505,1.2760069952043556,3.0225050654806034
1687016486.6764278,-0.2084137350320816,-0.9563004374504089,0.20506885647773743,0.010247752070426941,-0.009214699268341064,0.010965108871459961,-0.08250544965267181,0.09149769693613052,0.003220527432858944,-2.3481051462525357,1.2740755879109895,3.0316878566769794
1687016486.744271,-0.20768341422080994,-0.957089900970459,0.20210473239421844,0.002971440553665161,0.023664116859436035,-0.018038049340248108,0.013116409070789814,0.03742141276597977,-0.007873669266700745,-2.3425817566036677,1.2767876783109646,3.028699798736325
1687016486.758515,-0.206843301653862,-0.9560120105743408,0.20798344910144806,-0.008259966969490051,0.005297839641571045,0.018167048692703247,0.24954073131084442,0.04647789150476456,0.03852711617946625,-2.3589429740191012,1.2730907331431505,3.047565137467767
1687016486.8314772,-0.20917323231697083,-0.9539448618888855,0.2150251716375351,0.008443772792816162,-0.021381616592407227,-0.003538370132446289,0.11173080652952194,0.05352967604994774,0.02819937840104103,-2.369988897469858,1.2661224986920327,3.062646797568482
1687016486.845413,-0.21169321238994598,-0.9544076323509216,0.21045653522014618,0.004890769720077515,-0.02595418691635132,-0.00038886070251464844,-0.1868150234222412,0.04696018993854523,0.03843097761273384,-2.3532650285959718,1.2676690959956236,3.047769144631061
1687016486.963064,-0.21286122500896454,-0.9553283452987671,0.20503176748752594,-0.004088357090950012,0.010137856006622314,0.01672425866127014,-0.029759353026747704,0.08301220089197159,0.03638806566596031,-2.337461141628024,1.2707687705319246,3.0341892794888525
1687016486.97699,-0.21512959897518158,-0.9550055265426636,0.2041659951210022,0.00934949517250061,-0.00786978006362915,-0.0008884668350219727,-0.015075547620654106,0.05484860762953758,0.07378631085157394,-2.330052777858046,1.2696784602990072,3.029910727090872
1687016487.042722,-0.21976174414157867,-0.9535362124443054,0.20609135925769806,0.006443768739700317,-0.012589335441589355,-0.015234440565109253,0.0824967473745346,0.02507752925157547,0.11732552945613861,-2.324104324253358,1.2647632647482545,3.0255624170314155
1687016487.058165,-0.22630110383033752,-0.9515106678009033,0.20836374163627625,0.031736209988594055,-0.11076045036315918,0.03267931938171387,-0.34620121121406555,0.1143389642238617,0.1894039809703827,-2.31495077907666,1.2581099710993013,3.018435681463307
1687016487.135257,-0.24954785406589508,-0.9565068483352661,0.1510646790266037,0.1848352700471878,-0.3404902219772339,-0.005892634391784668,-1.3307034969329834,0.027189282700419426,0.9980666637420654,-2.115142941390261,1.2747823162603382,2.8143489128440318
1687016487.139209,-0.3282428979873657,-0.9365846514701843,0.1227429211139679,0.23598816990852356,-0.3765409588813782,0.050062909722328186,-0.11871226131916046,0.1634039729833603,2.169856309890747,-1.9286367500734587,1.212754037805539,2.621236319833278
1687016487.225261,-0.44582298398017883,-0.8900441527366638,0.09520042687654495,0.29102253913879395,-0.33407682180404663,0.12020789831876755,-0.8559306859970093,0.5209793448448181,2.8528263568878174,-1.781175261651411,1.0974420413319397,2.479061336631602
1687016487.241154,-0.5813120603561401,-0.8127552270889282,0.038795940577983856,0.32592570781707764,-0.10606789588928223,0.18588972091674805,-0.5875093936920166,0.8772360682487488,3.31832218170166,-1.6374360837745923,0.9488657587655067,2.3526689744231217
1687016487.279948,-0.708306610584259,-0.7059030532836914,-0.0015767994336783886,0.29508334398269653,0.02726846933364868,0.11223351955413818,0.003378627123311162,1.1364820003509521,3.2757112979888916,-1.5685701767550673,0.783697319762588,2.3293291841272894
1687016487.373069,-0.8139132857322693,-0.5799320340156555,-0.03498780354857445,0.319085955619812,0.07492721080780029,-0.04219120740890503,0.65199875831604,1.1154288053512573,3.3328287601470947,-1.5278356378010203,0.6186452843855675,2.3550658636245836
1687016487.378011,-0.8923947215080261,-0.44601401686668396,-0.06858190149068832,0.2513880729675293,0.11282312870025635,0.012414269149303436,-0.020753007382154465,1.002697229385376,2.9457759857177734,-1.4940955585870228,0.4623068883583321,2.390668468624339
1687016487.428804,-0.9442965984344482,-0.310070276260376,-0.11027397215366364,0.24126315116882324,0.003383934497833252,-0.04373300075531006,0.002762238495051861,0.7688145041465759,2.9565370082855225,-1.454543918790959,0.3152669362498201,2.4015491043506985
1687016487.5206451,-0.9739905595779419,-0.17143607139587402,-0.1481621265411377,0.2347174882888794,0.0045202672481536865,-0.014725446701049805,-0.23502282798290253,0.7182481288909912,2.8477792739868164,-1.4198349983714724,0.17228713635370868,2.4151672032056957
1687016487.524576,-0.9821085333824158,-0.026488041505217552,-0.18644341826438904,0.25438642501831055,-0.07449453324079514,0.05978018045425415,-0.27600735425949097,0.8334803581237793,2.9799561500549316,-1.3831888764030549,0.02649114015105736,2.4232697957868115
1687016487.5851479,-0.9647178649902344,0.12207945436239243,-0.23327235877513885,0.26240164041519165,-0.08847954124212265,0.07108666002750397,-0.012849544174969196,1.038712739944458,3.08225417137146,-1.333546565867754,-0.12238474006564724,2.4511214124261516
1687016487.6726,-0.9203746318817139,0.2736266553401947,-0.27935492992401123,0.3958231806755066,-0.15183091163635254,0.06011661887168884,-0.46272802352905273,1.0351738929748535,3.2301313877105713,-1.2761104943670292,-0.2771615871110985,2.4812363966771294
1687016487.679054,-0.8452910780906677,0.43000414967536926,-0.31714269518852234,0.3735809326171875,-0.129390686750412,0.12337130308151245,-0.6414506435394287,1.1060421466827393,3.459951639175415,-1.2118612284542498,-0.4444973868961567,2.509873091797517
1687016487.7317262,-0.7381969094276428,0.583795964717865,-0.33800551295280457,0.4971996545791626,-0.16948926448822021,0.10202831029891968,-1.0709514617919922,1.0277563333511353,3.6058099269866943,-1.141408856122579,-0.6233962628725945,2.5444190431864215
1687016487.824436,-0.6026688814163208,0.7271705269813538,-0.32865387201309204,0.5315324664115906,-0.018643856048583984,0.19459015130996704,-1.2945657968521118,0.9902181625366211,3.619987964630127,-1.0715450341572144,-0.814191056129347,2.574813552878997
1687016487.840454,-0.44432228803634644,0.8284631371498108,-0.3409202992916107,0.49543923139572144,0.09248119592666626,0.07834705710411072,0.5167641639709473,1.1193227767944336,3.5477519035339355,-0.9163264253221579,-0.976357935405758,2.7064498732150017
1687016487.9159222,-0.2837172746658325,0.8816599249839783,-0.37706783413887024,0.45667576789855957,0.10555315017700195,0.48154476284980774,-0.2398814857006073,1.7128220796585083,2.847673177719116,-0.6450547126062816,-1.079368416105369,2.9411480581755525
1687016487.931676,-0.12741023302078247,0.9222032427787781,-0.3651132881641388,0.44061222672462463,-0.02683281898498535,0.11517438292503357,-0.680535078048706,1.4191774129867554,2.851811408996582,-0.3357487417688192,-1.1737397582020246,-3.0901719683271893
1687016487.972557,0.036619022488594055,0.934313952922821,-0.35456493496894836,0.4200918674468994,0.061215102672576904,0.20748552680015564,-0.06101827323436737,1.6749211549758911,3.0908069610595703,0.10291386594154638,-1.2063295130052893,-2.700575968328904
1687016488.066311,0.2178889960050583,0.9114876985549927,-0.34887588024139404,0.3840550184249878,0.05810141563415527,-0.11392316222190857,-0.1626824587583542,1.3567010164260864,3.4238688945770264,0.5582727132006868,-1.1468864780650732,-2.2929787237057178
1687016488.0808802,0.39327532052993774,0.8701983690261841,-0.2967982292175293,0.5894670486450195,0.22423815727233887,0.05137595534324646,-0.9123960733413696,1.2098877429962158,3.5881242752075195,0.9243047633366421,-1.0556047897452616,-1.9535784621077368
1687016488.185248,0.5613426566123962,0.7858458757400513,-0.2595005929470062,0.40920788049697876,0.3357207775115967,-0.020681232213974,0.3653542101383209,1.30854070186615,3.6103410720825195,1.1377728514156087,-0.9040627273964202,-1.7706743686651727
1687016488.1914349,0.7056304812431335,0.6688894033432007,-0.23382173478603363,0.33659058809280396,0.39049774408340454,-0.1638832688331604,0.8954505920410156,1.4219262599945068,3.287513256072998,1.2508176940791087,-0.7327137375866642,-1.7158698423814165
1687016488.275362,0.8142620325088501,0.5419866442680359,-0.20791296660900116,0.3906940221786499,0.43785643577575684,-0.10199296474456787,0.38850048184394836,1.363492727279663,2.630420446395874,1.3207989409743337,-0.5727992811892448,-1.7178451298146373
1687016488.2919579,0.8800577521324158,0.4519011974334717,-0.1458892822265625,0.25858360528945923,0.37515565752983093,-0.053985595703125,-0.2516404688358307,1.4498358964920044,1.7553753852844238,1.4065178750648062,-0.4688954020650996,-1.6829919576335712
1687016488.331346,0.9211652278900146,0.3802189826965332,-0.08299418538808823,0.13021105527877808,0.43756046891212463,-0.11445450037717819,1.0039573907852173,1.6465505361557007,1.4920662641525269,1.4809419692226107,-0.3900330450825698,-1.6910625152202365
1687016488.426305,0.950422465801239,0.3094797432422638,-0.03032144531607628,0.126787006855011,0.44140520691871643,-0.44367754459381104,1.325421690940857,1.4471453428268433,1.2077019214630127,1.5389040202729083,-0.3146458718462681,-1.7587938376041923
1687016488.442512,0.9637614488601685,0.26645857095718384,0.012798767536878586,0.05512893199920654,0.5657709836959839,-0.548000693321228,1.4949499368667603,0.9915021657943726,0.4129643738269806,1.584075562580418,-0.26971689058750736,-1.8255612728931498
1687016488.481138,0.9621501564979553,0.27220234274864197,0.013139055110514164,0.08049798011779785,0.31060704588890076,-0.8239147663116455,1.4933940172195435,0.10235714167356491,-0.5112393498420715,1.584451408077278,-0.2756810498852218,-1.925363034333901
1687016488.571128,0.954348623752594,0.29869353771209717,0.0009546312503516674,0.055035531520843506,-0.024493128061294556,-0.33690738677978516,-0.5729295611381531,-0.4754854142665863,-0.5996083617210388,1.571796622654874,-0.3033233940801457,-1.9389371091847936
1687016488.576573,0.9456032514572144,0.3245750069618225,-0.022038906812667847,0.043624043464660645,0.026789098978042603,-0.053568363189697266,0.5267256498336792,-0.5344692468643188,-0.44050365686416626,1.5474938296647156,-0.330562364054131,-1.928342843131521
1687016488.635066,0.9373160600662231,0.343453973531723,-0.05897219851613045,0.0653998851776123,-0.3305756151676178,0.06530463695526123,-0.3806128203868866,-0.663742184638977,-0.35070398449897766,1.5079631256167605,-0.350592132299847,-1.9536192008087545
1687016488.755691,0.9307827949523926,0.35843929648399353,-0.07186475396156311,0.0037111639976501465,-0.0696820616722107,0.1775471568107605,-0.7314455509185791,-0.4757744073867798,-0.22286400198936462,1.493740259846458,-0.36659557879162397,-1.9139781246680236
1687016488.761298,0.9259302020072937,0.36835503578186035,-0.08347267657518387,-0.024883508682250977,-0.16649660468101501,0.23224592208862305,-0.49995899200439453,-0.331036239862442,-0.07674540579319,1.4808892882727342,-0.3772390350223006,-1.88904906981237
1687016488.844738,0.9241352081298828,0.37253767251968384,-0.08479221910238266,0.0028362274169921875,-0.04769337177276611,0.18168562650680542,-0.5822755098342896,-0.20611494779586792,-0.02060570940375328,1.4792994702840678,-0.38174203546385777,-1.86036324035443
1687016488.8620272,0.9235818982124329,0.3758991062641144,-0.07547405362129211,-0.012388050556182861,-0.06986889243125916,0.14683949947357178,-0.8689219355583191,-0.02239198610186577,0.036773160099983215,1.489258656042564,-0.3853668455634469,-1.818497010988624
1687016488.932656,0.9244709610939026,0.3764999210834503,-0.06001101806759834,-0.020830154418945312,-0.0006454288959503174,0.06677072495222092,-0.5573119521141052,0.11224345117807388,0.04640714451670647,1.5059733756818015,-0.3860153014411234,-1.7813859674481272
1687016488.946851,0.9263668656349182,0.3739970624446869,-0.04439154639840126,-0.017675459384918213,0.06304511427879333,0.0025824904441833496,-0.0890180841088295,0.2389334887266159,0.07112234830856323,1.5229129063840823,-0.3833151351952958,-1.7622465554877078
1687016489.020996,0.9278006553649902,0.37167730927467346,-0.03227813169360161,-0.008992671966552734,0.0030174553394317627,-0.01615321636199951,-0.22834615409374237,0.17459072172641754,0.0834844782948494,1.5360204097920263,-0.38081510006740343,-1.7540216264454924
1687016489.025435,0.929472804069519,0.36809858679771423,-0.024158287793397903,0.005082190036773682,0.0927625298500061,-0.1262628436088562,-0.08010554313659668,0.052691977471113205,0.02163495495915413,1.5448107898617414,-0.3769631897423358,-1.7454761995705923
1687016489.1154199,0.9288879632949829,0.3696196675300598,-0.02341432496905327,0.008993387222290039,0.05982360243797302,-0.13796257972717285,0.2009645402431488,0.03528781980276108,-0.04436749964952469,1.545594829626829,-0.3785996728212847,-1.7479352250445854
1687016489.206831,0.9260958433151245,0.37593874335289,-0.03187987580895424,0.03241539001464844,-0.03923839330673218,-0.04204892739653587,-0.047628700733184814,-0.08159472793340683,-0.074624203145504,1.536385963656338,-0.38540961171622296,-1.7563065302883056
1687016489.212309,0.9241195321083069,0.3797801733016968,-0.04206963628530502,0.014219582080841064,0.013835430145263672,-0.010145895183086395,0.167923241853714,-0.11320604383945465,-0.04582824185490608,1.5253037127887517,-0.389558660496173,-1.7597656636676016
1687016489.2956061,0.9235090017318726,0.3801381289958954,-0.05124657601118088,0.01566946506500244,-0.05263879895210266,0.028999269008636475,-0.03215113654732704,-0.11868017166852951,-0.011407418176531792,1.5153620276797388,-0.38994564295124573,-1.7664199055873402
1687016489.311341,0.9231793284416199,0.38038137555122375,-0.0552234947681427,-0.0033339262008666992,-0.019617974758148193,0.05533034726977348,-0.0824795514345169,-0.11597546190023422,-0.022791367024183273,1.5110487072583665,-0.39020864795719257,-1.7619673244986902
1687016489.381991,0.9254069328308105,0.37525221705436707,-0.05299096554517746,0.0013815760612487793,-0.05185741186141968,0.04223357513546944,-0.08509005606174469,-0.06564958393573761,-0.00640253908932209,1.513596452034771,-0.38466887220899015,-1.7560886775431686
1687016489.39646,0.9266306161880493,0.3732607364654541,-0.04507920518517494,-0.006296753883361816,-0.014206260442733765,0.05634027719497681,-0.16668590903282166,-0.022197840735316277,0.03962726891040802,1.5221861349753194,-0.3825213215297134,-1.7438690604560432
1687016489.505742,0.9291447401046753,0.36749711632728577,-0.04044810310006142,-0.001593470573425293,-0.015248000621795654,0.014264047145843506,-0.07416123896837234,-0.0006066628266125917,0.04618530347943306,1.5272911765071735,-0.3763163809748721,-1.7387799339775216
1687016489.511969,0.9306050539016724,0.3645809590816498,-0.032478027045726776,0.010450184345245361,0.03866297006607056,-0.028892751783132553,-0.18809179961681366,-0.013968807645142078,0.021528426557779312,1.5359105818588275,-0.3731827616187258,-1.7281090497183103
1687016489.596329,0.9302626848220825,0.36565837264060974,-0.030088573694229126,0.01305091381072998,-0.0038267672061920166,-0.09039479494094849,-0.3903745412826538,-0.10913140326738358,-0.06447409838438034,1.538463429437045,-0.3743400490458115,-1.7150380659819082
1687016489.611985,0.928190290927887,0.3708612024784088,-0.030413012951612473,0.019502639770507812,0.0595281720161438,-0.12298357486724854,-0.4670366942882538,-0.246813103556633,-0.09992583096027374,1.538042122482953,-0.3799361720665005,-1.6916767800951296
1687016489.682713,0.9244965314865112,0.37964072823524475,-0.03433864936232567,0.01959526538848877,0.07218718528747559,-0.12767910957336426,-0.8338096737861633,-0.42719313502311707,-0.23445674777030945,1.533670314452088,-0.3894079256471331,-1.6579097293287877
1687016489.697756,0.9162538051605225,0.3986133635044098,-0.039824459701776505,0.03926664590835571,0.19538065791130066,-0.1829996109008789,-1.1269848346710205,-0.6239702701568604,-0.5137349963188171,1.52735922761017,-0.4100044135922719,-1.605396097546625
1687016489.7721338,0.8986493945121765,0.43670129776000977,-0.04148593917489052,0.01579451560974121,0.40407317876815796,-0.1906307339668274,-1.5327318906784058,-0.7000674605369568,-1.130914330482483,1.5246643133214084,-0.45192855330311416,-1.5317940561572794
1687016489.776562,0.8619524240493774,0.5052365064620972,-0.042117539793252945,0.08860903978347778,0.4336061477661133,-0.23916292190551758,-1.502094030380249,-0.867135226726532,-1.758446216583252,1.521972210037814,-0.5296560197930831,-1.452306386802327
1687016489.898083,0.7991490364074707,0.6004555821418762,-0.028529293835163116,0.1315608024597168,0.5563589334487915,-0.09752357006072998,-1.661441445350647,-0.7031840682029724,-2.7820229530334473,1.5351118906400887,-0.6440707139624546,-1.3578564953954468
1687016489.914692,0.6909660696983337,0.7228225469589233,-0.009674177505075932,0.27927935123443604,0.5827652215957642,-0.07015979290008545,-0.7962654829025269,-0.4322652518749237,-3.6788289546966553,1.5567962977471104,-0.8078781329557949,-1.2795751813558618
1687016489.981629,0.5316814184188843,0.8469175696372986,-0.006744783837348223,0.471049964427948,0.39797067642211914,-0.04054218530654907,-0.028411459177732468,-0.3584020733833313,-4.312771320343018,1.558111245277603,-1.0101611669628014,-1.2532589265109195
1687016489.996589,0.3336275517940521,0.9424939751625061,-0.01994362659752369,0.49349042773246765,0.3105882406234741,0.06709325313568115,0.22424742579460144,-0.3399844765663147,-4.474123001098633,1.511089263794649,-1.2300154304293451,-1.2846717253215878
1687016490.075079,0.11922086030244827,0.9902492761611938,-0.07206245511770248,0.4980277717113495,0.3741612434387207,0.09104441851377487,1.8058637380599976,-0.2581019997596741,-4.395327091217041,1.0271148398867302,-1.4310348838846723,-1.764306362202267
1687016490.079459,-0.10733205080032349,0.9826666712760925,-0.15114939212799072,0.6712359189987183,0.33657771348953247,0.14960825443267822,1.1850602626800537,-0.4526846408843994,-4.677402496337891,-0.6174761988643939,-1.3843364793152757,2.8774110248702507
1687016490.1303902,-0.3395380675792694,0.9169565439224243,-0.20953430235385895,0.6718898415565491,0.46332305669784546,0.12776249647140503,1.8732547760009766,-0.6303226351737976,-4.773679733276367,-1.0178866398046882,-1.160384332612963,2.4899564966345946
1687016490.254242,-0.5477940440177917,0.7836554646492004,-0.29292646050453186,0.5910984873771667,0.2225549817085266,0.25546613335609436,2.4640371799468994,-0.7119883894920349,-4.488533973693848,-1.079745808317987,-0.9005287459194647,2.45908976427998
1687016490.260106,-0.7122544050216675,0.6171171069145203,-0.33445489406585693,0.5613908171653748,0.033380329608917236,0.24612176418304443,1.2435966730117798,-0.7956584095954895,-4.178920269012451,-1.131785868785655,-0.6650737048562608,2.4379062307622763
1687016490.3449059,-0.8314710855484009,0.446389377117157,-0.33074507117271423,0.5551649928092957,0.03957259654998779,0.19645249843597412,0.9508381485939026,-0.8167796730995178,-3.7537083625793457,-1.1922025879684781,-0.4627263289619443,2.4018368380342743
1687016490.361728,-0.9095311760902405,0.27811098098754883,-0.30888092517852783,0.5462498664855957,0.019649118185043335,0.16848477721214294,0.2595004141330719,-0.7083719372749329,-3.504819631576538,-1.2434123419569498,-0.2818269583600319,2.3650559377454754
1687016490.431539,-0.9513179063796997,0.11919955909252167,-0.28422826528549194,0.4770137667655945,0.07705908268690109,0.18329137563705444,0.07456598430871964,-0.40311431884765625,-3.237272262573242,-1.2804654510240587,-0.11948365119518438,2.3163601339909436
1687016490.446173,-0.9623453617095947,-0.03505029156804085,-0.26956072449684143,0.4294779300689697,0.1259775161743164,0.17494094371795654,0.8598878383636475,-0.26232364773750305,-2.9826900959014893,-1.2976873839412202,0.03505747162633723,2.2932983110619096
1687016490.557349,-0.9495225548744202,-0.1883811056613922,-0.25083744525909424,0.41583114862442017,0.002300262451171875,0.09017765522003174,0.7313615679740906,-0.31606754660606384,-2.9070489406585693,-1.312524246090134,0.18951347600136031,2.3021980661966333
1687016490.562989,-0.9167708158493042,-0.32262709736824036,-0.2354632467031479,0.2772902846336365,-0.06720435619354248,0.117955282330513,-0.07968682795763016,-0.2493971735239029,-2.6789867877960205,-1.319390630729193,0.32850368907065364,2.2752629511862192
1687016490.6531138,-0.870402455329895,-0.438300758600235,-0.224258691072464,0.2582961320877075,0.006644934415817261,-0.0265195369720459,0.09559650719165802,-0.2629821002483368,-2.4757866859436035,-1.3186312558389526,0.45370728583918574,2.2396210955302993
1687016490.658719,-0.8131464123725891,-0.542776882648468,-0.21020476520061493,0.2148645520210266,0.07662099599838257,0.014709174633026123,0.04889724403619766,-0.3065083920955658,-2.4729197025299072,-1.3178263990120014,0.5737399139651003,2.208783536728493
1687016490.764379,-0.7456099390983582,-0.6368079781532288,-0.1963203102350235,0.2078290581703186,-0.08076703548431396,-0.05358818173408508,-0.02384813502430916,-0.36841821670532227,-2.2880923748016357,-1.3133381973141982,0.690351147707201,2.1723647796771055
1687016490.78121,-0.6756075620651245,-0.7150811553001404,-0.17948023974895477,0.189172625541687,-0.023688197135925293,-0.015649184584617615,0.0967380702495575,-0.3837415277957916,-2.0801026821136475,-1.3111363040018362,0.796740226724293,2.1413119459940106
1687016490.852201,-0.6038075089454651,-0.7794323563575745,-0.16703777015209198,0.1394215226173401,0.02303898334503174,-0.0234987735748291,-0.05936850979924202,-0.4224478006362915,-1.9808475971221924,-1.3009053657383514,0.8937592177844003,2.099858678017569
1687016490.8561149,-0.5315018892288208,-0.8340310454368591,-0.14797957241535187,0.12316137552261353,-0.045302391052246094,0.033202946186065674,0.360149085521698,-0.35603877902030945,-1.7561651468276978,-1.299255429354199,0.9863741553294211,2.074028148436312
1687016490.946536,-0.4655797779560089,-0.8758283853530884,-0.12712238729000092,0.15665027499198914,-0.12070780992507935,0.004365444183349609,0.14797228574752808,-0.36690837144851685,-1.4594863653182983,-1.3042522485694317,1.0671495979759127,2.057643085899497
1687016490.962878,-0.40713638067245483,-0.9062122702598572,-0.11410151422023773,0.04593026638031006,-0.013663709163665771,0.09501272439956665,0.26028886437416077,-0.13843470811843872,-1.2427295446395874,-1.297552309028522,1.134238065197032,2.0356623042524897
1687016491.033608,-0.3543050289154053,-0.9309338927268982,-0.088487409055233,0.0786702036857605,-0.05325794219970703,-0.01722550392150879,0.4153612554073334,-0.07207458466291428,-1.1183428764343262,-1.3260536994919838,1.196961847809241,2.0612005032396987
1687016491.04929,-0.3083266019821167,-0.947817862033844,-0.08109211921691895,0.022926151752471924,-0.15441596508026123,0.09941792488098145,0.19169680774211884,0.13151435554027557,-0.7957786917686462,-1.3136135537010853,1.2463200767394478,2.049299985080868
1687016491.1238341,-0.2835051417350769,-0.9577552676200867,-0.04826846718788147,0.09269389510154724,-0.1743553876876831,0.008412472903728485,1.1701149940490723,0.1849174052476883,-0.2152007520198822,-1.4021573257722568,1.2790925141889138,2.1504544751840413
1687016491.127492,-0.27636492252349854,-0.9610528945922852,-2.1915546312811784e-05,0.011243343353271484,-0.08585268259048462,0.05057424306869507,0.5529249310493469,0.3325701057910919,-0.09752126038074493,-1.5707170274856657,1.2907872037042036,2.3388723900205686
1687016491.2155762,-0.2687801420688629,-0.963168203830719,-0.008009910583496094,-0.007098853588104248,0.02344048023223877,-0.055970191955566406,-0.10154952108860016,0.21978603303432465,-0.1798883080482483,-1.5410041659463365,1.2985459636745924,2.322325067515473
1687016491.232692,-0.2617107331752777,-0.9649207592010498,0.020868830382823944,-0.006660908460617065,0.11882096529006958,-0.034723877906799316,1.1967815160751343,0.13621562719345093,-0.06631993502378464,-1.650368022600881,1.3051413493513357,2.4454470673782813
1687016491.301204,-0.2588728368282318,-0.9644428491592407,0.05324564129114151,0.0038678348064422607,-0.15926021337509155,0.011772044003009796,-0.006265411153435707,0.0780537948012352,-0.06783846765756607,-1.7736499253350253,1.3033271248769673,2.5786227788130542
1687016491.396389,-0.25886115431785583,-0.9647300839424133,0.04782193526625633,0.031749218702316284,-0.02405470609664917,0.004332549870014191,0.00792743917554617,0.04601050540804863,0.05856980010867119,-1.7534764194831567,1.3044161746448104,2.5608181927562166
1687016491.4142199,-0.2603682279586792,-0.9641685485839844,0.05086619034409523,-0.009498804807662964,0.04108816385269165,0.008398890495300293,0.11044968664646149,0.037630338221788406,0.006347876973450184,-1.7637288118558683,1.3022912131408917,2.5737959035023765
1687016491.4838738,-0.26019757986068726,-0.9638891220092773,0.05670084431767464,0.00998389720916748,0.002524435520172119,-0.018218159675598145,0.09021611511707306,-0.018235724419355392,-0.012971226125955582,-1.7853566085538655,1.3012399772265477,2.596820482699718
1687016491.4997458,-0.26186928153038025,-0.9632894396781921,0.05914069339632988,0.03043919801712036,-0.029492974281311035,0.00816582515835762,0.04978853464126587,-0.024829179048538208,0.04245821014046669,-1.7929106452217878,1.2989971736923358,2.6039727410976714
1687016491.572173,-0.26365652680397034,-0.962833046913147,0.058631110936403275,0.013885349035263062,0.008334815502166748,0.0021445751190185547,0.06651438772678375,0.0035420095082372427,0.05014675483107567,-1.7896126186191548,1.2973023593126054,2.6008173068408302
1687016491.575798,-0.2631852328777313,-0.9628716111183167,0.06010079011321068,0.008042901754379272,-0.008258938789367676,0.004047170281410217,-0.0720873698592186,-0.015280547551810741,0.04659915715456009,-1.7953058681892395,1.297445071545926,2.6059472290562593
1687016491.665077,-0.26434236764907837,-0.9625993967056274,0.0593755804002285,0.0048818886280059814,0.015715301036834717,-0.019565466791391373,0.11683634668588638,0.008204006589949131,0.05303548648953438,-1.7917454243748696,1.2964384704822562,2.602251903024548
1687016491.681931,-0.26793354749679565,-0.9611151814460754,0.06685277074575424,0.02827891707420349,-0.008596181869506836,-4.045665264129639e-06,0.08464571833610535,-0.022954845800995827,0.06863681972026825,-1.8153161144521035,1.2910126238619646,2.626710155931285
1687016491.720945,-0.27305591106414795,-0.9595274925231934,0.06890013813972473,0.03640732169151306,-0.0038512349128723145,-0.015036709606647491,0.23666240274906158,0.012272384017705917,0.17484527826309204,-1.8179665225598793,1.285319582353214,2.6302483341641234
1687016491.817409,-0.2826796770095825,-0.9552736282348633,0.08685801178216934,0.030283987522125244,-0.013598322868347168,-0.02229810506105423,0.47888055443763733,-0.07227112352848053,0.3392038643360138,-1.8689063020267824,1.2705835980285318,2.682096052709588
1687016491.8309379,-0.30438196659088135,-0.945486843585968,0.11578592658042908,0.07371476292610168,-0.10266989469528198,0.028958916664123535,0.3759470582008362,-0.004329229239374399,0.5527943968772888,-1.934290025391873,1.2390862255759452,2.7466416807688705
1687016491.869576,-0.3430502116680145,-0.9367631673812866,0.06922027468681335,0.24798786640167236,-0.38846272230148315,0.011468179523944855,-1.7874993085861206,-0.1414061188697815,1.2367525100708008,-1.7699017172831493,1.213263719019292,2.570589850007019
1687016491.9676461,-0.42291438579559326,-0.9060533046722412,0.014517391100525856,0.2591875195503235,-0.17555058002471924,0.01598489284515381,-0.5061941146850586,-0.1979699283838272,2.222217321395874,-1.6051098731935647,1.1338622901671154,2.381362907455791
1687016491.982013,-0.5356975793838501,-0.8443790674209595,0.007210926152765751,0.3882976770401001,-0.272167444229126,0.13538241386413574,-0.4375309646129608,0.19537629187107086,2.8793301582336426,-1.5842563292323555,1.0054051565531732,2.3565697698413217
1687016492.0200582,-0.6629596948623657,-0.7479007840156555,-0.03359747305512428,0.3156543970108032,-0.17948251962661743,0.21647405624389648,-0.6733096837997437,0.7025854587554932,3.4663875102996826,-1.5201616452366198,0.8448940483308676,2.304352302019177
1687016492.114255,-0.7867621183395386,-0.6122010350227356,-0.07883796095848083,0.462756872177124,-0.1923033595085144,0.10314517468214035,-0.14313732087612152,1.0519201755523682,3.909461736679077,-1.4709241269796325,0.6588412664669248,2.299210585624595
1687016492.129051,-0.8867666721343994,-0.44511401653289795,-0.12457358092069626,0.34240925312042236,-0.04200756549835205,0.023194119334220886,0.06255466490983963,1.1676512956619263,4.088611602783203,-1.4312289777548688,0.46130157621989365,2.330316665988736
1687016492.168891,-0.9485974311828613,-0.258694052696228,-0.18231931328773499,0.39035463333129883,0.0420193076133728,0.1179424524307251,-0.9297618865966797,1.0894423723220825,3.912297010421753,-1.3809130277843664,0.26166997530773956,2.344924070029899
1687016492.265728,-0.9691939949989319,-0.05771671235561371,-0.2394406944513321,0.4266830086708069,0.05713696405291557,0.0843350887298584,-0.9421330690383911,0.8880236148834229,4.013604164123535,-1.3285947758756513,0.057748805139694874,2.3280029877844055
1687016492.283235,-0.9494026899337769,0.14268893003463745,-0.2797758877277374,0.4434669613838196,0.003505602478981018,0.13750287890434265,-0.6781659722328186,0.8730306625366211,3.908320188522339,-1.28422167150726,-0.14317761655502417,2.350167814197774
1687016492.31961,-0.8893328309059143,0.3377382457256317,-0.3082529902458191,0.4225207567214966,-0.009796291589736938,0.1598612666130066,-1.2349733114242554,0.8893475532531738,3.969581127166748,-1.2371434096227996,-0.34451291054857314,2.3623117315432123
1687016492.4127479,-0.7862639427185059,0.5271814465522766,-0.32228681445121765,0.47521358728408813,-0.007604360580444336,0.024511516094207764,-0.7374861836433411,0.7462540864944458,4.220777988433838,-1.1817877309627514,-0.5552802282002702,2.390175908423632
1687016492.429216,-0.6500738859176636,0.6901518106460571,-0.3179533779621124,0.5549506545066833,0.02418839931488037,0.16744065284729004,-1.1861361265182495,0.717570960521698,4.038236141204834,-1.115903910154965,-0.7616988503590192,2.438350476075898
1687016492.469043,-0.4807640314102173,0.8173007965087891,-0.3176248073577881,0.4773460924625397,0.11176121234893799,0.021909445524215698,0.06423864513635635,0.6597026586532593,4.173789024353027,-0.9869590385965176,-0.9567109373109387,2.5613643912230084
1687016492.56503,-0.29880329966545105,0.8992594480514526,-0.3194512128829956,0.4807491898536682,0.07901203632354736,0.20293515920639038,-0.8897917866706848,0.6908456683158875,3.7873106002807617,-0.7520134504328408,-1.118073505062904,2.7933158940646163
1687016492.581881,-0.11740124970674515,0.9524145126342773,-0.28128913044929504,0.4153597056865692,0.18074893951416016,-0.040732383728027344,-0.8327895402908325,0.3413141965866089,3.64237904548645,-0.3953890760284958,-1.261061796582142,-3.134556205765566
1687016492.6197739,0.05775183439254761,0.9692814946174622,-0.23907704651355743,0.42383086681365967,0.23460626602172852,0.22304007411003113,-0.6537516713142395,0.6411581635475159,3.3550732135772705,0.23702101797713057,-1.3222925512457917,-2.5055893977570753
1687016492.71419,0.22492818534374237,0.9446728229522705,-0.23874741792678833,0.3047196865081787,0.16306936740875244,0.09526903927326202,0.5560020208358765,0.730587363243103,3.3307008743286133,0.7556033046511189,-1.2365957131415743,-1.9976673078124667
1687016492.731532,0.38428938388824463,0.8920239210128784,-0.23793895542621613,0.32391685247421265,0.1898394227027893,-0.01888173818588257,-0.051006853580474854,0.7944191694259644,3.207242250442505,1.0164031785657328,-1.1018033824851177,-1.7622895920301984
1687016492.769342,0.5314438343048096,0.8192760348320007,-0.21530012786388397,0.32513880729675293,0.233046293258667,0.20616012811660767,0.29014095664024353,1.183008074760437,3.0761280059814453,1.1858813780534472,-0.9601472708199139,-1.6202017679505316
1687016492.895043,0.6563913226127625,0.7243942022323608,-0.21072106063365936,0.26360684633255005,0.23639065027236938,-0.08951085805892944,0.6950834393501282,0.9297388792037964,3.0167791843414307,1.260159681512326,-0.8101552231417738,-1.5890762387384896
1687016492.9134521,0.7621394395828247,0.6219771504402161,-0.17968805134296417,0.2735203504562378,0.33648836612701416,0.06990110874176025,-0.0666951984167099,1.0548936128616333,2.5784809589385986,1.3392567402592663,-0.6712651696662331,-1.5444206252843615
1687016492.980274,0.8373262286186218,0.525147557258606,-0.15200257301330566,0.12374860048294067,0.434828519821167,-0.14301078021526337,0.7361530065536499,1.0110609531402588,2.045152187347412,1.391218617264731,-0.5528884669085498,-1.5411544831123374
1687016492.996335,0.8849765658378601,0.4497331380844116,-0.12064948678016663,0.12227123975753784,0.33150145411491394,-0.014146551489830017,0.2214491069316864,1.0709196329116821,1.3296725749969482,1.4353009373981975,-0.46646654652368413,-1.5555246643257414
1687016493.0699801,0.9151145815849304,0.3957163691520691,-0.07729138433933258,0.11225974559783936,0.44778943061828613,-0.11174970865249634,0.7974442839622498,1.212287425994873,1.0216792821884155,1.4865354245472318,-0.40684775964307884,-1.568412027428863
1687016493.073595,0.9313061237335205,0.36180901527404785,-0.04198918864130974,-0.013108491897583008,0.4349438548088074,-0.31669914722442627,0.47499868273735046,0.9477699995040894,0.32567793130874634,1.5257404974203745,-0.3702076388620674,-1.6171164019917046
1687016493.19573,0.9369387030601501,0.349458783864975,-0.004924142733216286,-0.011447489261627197,0.40070897340774536,-0.3292127847671509,-0.03537176176905632,0.5428161025047302,0.08305490761995316,1.5655408096568253,-0.35699341507941107,-1.6145852890665846
1687016493.2134008,0.9348356127738953,0.35493043065071106,0.010322983376681805,0.03341078758239746,0.2591594457626343,-0.2845233678817749,0.9308710694313049,0.42097851634025574,-0.21588172018527985,1.581838443079943,-0.36283964570041827,-1.6304753812294555
1687016493.308951,0.9281418919563293,0.3722262382507324,0.00033008126774802804,0.08536207675933838,-0.21895179152488708,-0.29401588439941406,0.6249814629554749,-0.04278487339615822,-0.40117061138153076,1.5711519634375832,-0.38140646484021756,-1.6954314371638697
1687016493.315196,0.9247717261314392,0.38045963644981384,-0.006885813549160957,0.011186957359313965,-0.0641908347606659,-0.1133686900138855,0.03226839751005173,-0.2174185961484909,-0.06970427930355072,1.563350504238008,-0.3902932592606742,-1.6978428621614936
1687016493.408214,0.9232595562934875,0.3833232522010803,-0.02558855526149273,0.0249977707862854,-0.21526306867599487,0.01948506012558937,0.04476381838321686,-0.3129291236400604,-0.01446446031332016,1.5430879695545658,-0.393391730098592,-1.7128711456003458
1687016493.412589,0.9234790802001953,0.38187992572784424,-0.03679529204964638,0.0009440183639526367,-0.0317060649394989,0.06973904371261597,-0.17440089583396912,-0.28542399406433105,0.09083773195743561,1.5309731835849387,-0.39182952926036463,-1.7045140808612316
1687016493.4885058,0.9257735013961792,0.37529247999191284,-0.04581664875149727,-0.011176824569702148,-0.0017115473747253418,0.10428839921951294,0.04844823479652405,-0.13665996491909027,0.1408340483903885,1.521346543894018,-0.38471229137913193,-1.7024237748174715
1687016493.4949431,0.9272059202194214,0.37114614248275757,-0.05039597302675247,-0.009252429008483887,-0.048331260681152344,0.09954452514648438,-0.16909927129745483,-0.0311905387789011,0.021123625338077545,1.5164972402596977,-0.38024301801453086,-1.704036834485584
1687016493.5842528,0.9275136590003967,0.3717399537563324,-0.039084527641534805,-0.01206272840499878,0.002466529607772827,0.05501473322510719,-0.11714765429496765,0.03753047063946724,0.04956032708287239,1.528682209324385,-0.3808825772005645,-1.6937389765514872
1687016493.604165,0.9290764927864075,0.36920949816703796,-0.02239064686000347,-0.02162092924118042,0.06674933433532715,0.02934872917830944,-0.052368856966495514,0.10750729590654373,0.04774724692106247,1.5467010949143614,-0.3781582787167374,-1.682672657343669
1687016493.706774,0.9286908507347107,0.37064969539642334,-0.012333003804087639,-0.006327569484710693,0.027970850467681885,0.012134671211242676,-0.0679464191198349,0.13723576068878174,-0.04242711886763573,1.557517119362667,-0.3797084451733462,-1.6786506977301465
1687016493.7117162,0.9265364408493042,0.37617000937461853,-0.005136952735483646,0.0108720064163208,-0.008067041635513306,-0.057042598724365234,0.07288626581430435,0.1174992099404335,-0.026394091546535492,1.5652521299464646,-0.3856591949237771,-1.6784369667663306
1687016493.795923,0.9251882433891296,0.3795074224472046,-0.0009953764965757728,0.011381089687347412,0.00724184513092041,-0.06013131141662598,-0.028645683079957962,0.10502016544342041,-0.043682001531124115,1.5697204634559254,-0.3892638338005498,-1.6789870070551516
1687016493.815023,0.924471914768219,0.3812219500541687,-0.004624085035175085,0.00042426586151123047,0.059436529874801636,-0.057158708572387695,0.21884174644947052,0.08353511244058609,-0.0658288449048996,1.5657945022345514,-0.39111770457965256,-1.6863023317592336
1687016493.88082,0.9233481884002686,0.3838259279727936,-0.010266540572047234,0.00847536325454712,0.003167390823364258,-0.04521441459655762,0.09059442579746246,0.03429193049669266,-0.06598757207393646,1.559677967197385,-0.3939360129031476,-1.6968021595363103
1687016493.896658,0.9213239550590515,0.38845115900039673,-0.016361309215426445,0.007814168930053711,0.02503141760826111,-0.011958954855799675,0.1019647866487503,-0.0019457002636045218,-0.04203936457633972,1.5530397179065107,-0.39895016455504534,-1.703036191683391
1687016493.970006,0.9208149313926697,0.38934582471847534,-0.022573420777916908,0.00023603439331054688,-0.036486417055130005,-0.012491224333643913,-0.06926953792572021,-0.037143636494874954,-0.06482324004173279,1.5462866247363896,-0.3999212707104126,-1.7087747573661742
1687016493.985879,0.9195138812065125,0.3923371434211731,-0.023786846548318863,0.003886997699737549,0.002010941505432129,0.00628507137298584,0.011460721492767334,-0.02796132117509842,-0.039472874253988266,1.5449331576737952,-0.40317107710557404,-1.7058492665719764
1687016494.059969,0.919547975063324,0.392068088054657,-0.02672339417040348,0.014457762241363525,-0.017586946487426758,0.00937420129776001,0.24328069388866425,0.03709238022565842,-0.05829023942351341,1.54174305596328,-0.4028785975709209,-1.7145874277998623
1687016494.063623,0.9187061190605164,0.3940187096595764,-0.026984447613358498,0.012446165084838867,-0.05777612328529358,0.01216823048889637,0.031433362513780594,0.01376055832952261,-0.006450742483139038,1.5414325385634644,-0.40499993645745574,-1.723022367240744
1687016494.121532,0.919406533241272,0.39243510365486145,-0.02619658224284649,0.006466209888458252,0.010106950998306274,0.013074040412902832,0.10882542282342911,0.017238512635231018,0.003936651162803173,1.5423111090767643,-0.4032775906031367,-1.7239242832640356
1687016494.212614,0.9211373925209045,0.38828331232070923,-0.027237463742494583,0.0015310049057006836,-0.018013596534729004,-0.0008996706455945969,0.0821237713098526,0.01972777023911476,-0.000546514056622982,1.5412355584106114,-0.39876800589922295,-1.731315768863289
1687016494.2321901,0.9215543270111084,0.38741177320480347,-0.02549118734896183,-0.0017392635345458984,-0.015326231718063354,-0.007086277008056641,0.04203694313764572,0.02741525135934353,0.026836372911930084,1.5431422987238321,-0.39782244944946465,-1.7316248557643743
1687016494.2723088,0.9229178428649902,0.38412052392959595,-0.02596387080848217,0.015497684478759766,0.002354055643081665,0.004372715950012207,0.04889897629618645,0.0037906155921518803,0.012781807221472263,1.5426713696026233,-0.3942550772467239,-1.73603358991304
1687016494.394248,0.9237345457077026,0.3820737600326538,-0.027091819792985916,0.005479872226715088,-0.001717984676361084,-0.0200272798538208,-0.028623316437005997,-0.021238170564174652,0.029987424612045288,1.5414761550394789,-0.3920392735184172,-1.7354567703234758
1687016494.400577,0.9241795539855957,0.380883127450943,-0.028640924021601677,-0.007156848907470703,-0.01587769389152527,0.007400691509246826,-0.14167924225330353,-0.054620761424303055,-0.023935992270708084,1.539815593373586,-0.39075124327010335,-1.73239655522348
1687016494.4842129,0.9234015345573425,0.3826451599597931,-0.030201051384210587,0.012435197830200195,-0.026825547218322754,-0.020549653097987175,-0.42298632860183716,-0.11622806638479233,-0.062274593859910965,1.5381016777890966,-0.39265766538501146,-1.7194860448681093
1687016494.502156,0.9222816824913025,0.385528028011322,-0.02765071950852871,-0.006922245025634766,-0.007888317108154297,-0.03404051065444946,-0.4444698691368103,-0.13331158459186554,-0.0716201588511467,1.5408245311748645,-0.3957800126669545,-1.6940847725980084
1687016494.605931,0.9210729002952576,0.38844701647758484,-0.027087220922112465,-0.009497523307800293,-0.01973363757133484,-0.028027478605508804,-0.4884580373764038,-0.20374460518360138,-0.028891071677207947,1.5413964656053805,-0.3989456621873858,-1.6703762782149048
1687016494.611546,0.919257640838623,0.3927215337753296,-0.027115900069475174,0.010246753692626953,0.08991390466690063,-0.09057509899139404,-0.6942371129989624,-0.2828708291053772,-0.17680808901786804,1.5413072705407724,-0.4035890137598329,-1.639471899369319
1687016494.694804,0.9117256999015808,0.4099518954753876,-0.026374172419309616,-8.934736251831055e-05,0.10806864500045776,-0.150887131690979,-0.9379740953445435,-0.43317899107933044,-0.5178964734077454,1.5418766426333288,-0.42240132894809096,-1.5938437876347793
1687016494.714388,0.8988492488861084,0.43723124265670776,-0.029982568696141243,0.0294039249420166,0.3024537265300751,-0.2346506118774414,-1.1510803699493408,-0.7292865514755249,-0.6514907479286194,1.5374520749632832,-0.45251774715881027,-1.535571931234044
1687016494.781054,0.873872697353363,0.48477667570114136,-0.03657931089401245,0.007642805576324463,0.5527598857879639,-0.23536282777786255,-1.0790685415267944,-0.7779691219329834,-1.5350618362426758,1.5289618936596208,-0.506107799598164,-1.471829048232197
1687016494.797693,0.820873498916626,0.5688445568084717,-0.050818439573049545,0.12004446983337402,0.6373168230056763,-0.22528934478759766,-0.5069670081138611,-0.8432571887969971,-2.309826135635376,1.50896747392208,-0.6051002599372446,-1.430829833190045
1687016494.908884,0.7315463423728943,0.6775075197219849,-0.07631246000528336,0.2641202211380005,0.6248453259468079,-0.16376930475234985,-0.053491245955228806,-0.9271090030670166,-3.235483407974243,1.4668556217407933,-0.7443685516589053,-1.426998477187053
1687016494.913995,0.5926049947738647,0.7979086637496948,-0.11027789115905762,0.38972538709640503,0.6476479172706604,-0.029996097087860107,0.11512713134288788,-0.9699452519416809,-4.036158561706543,1.38681079313784,-0.923817738597147,-1.4699954443182088
1687016494.995408,0.39422133564949036,0.9078217148780823,-0.14300090074539185,0.6343584656715393,0.618636965751648,0.018702805042266846,0.4448368549346924,-0.9901575446128845,-4.911591053009033,1.2228148551739155,-1.1380601130296994,-1.6023541205646266
1687016495.015044,0.14132553339004517,0.9699456095695496,-0.1980724185705185,0.7874770164489746,0.5710089802742004,0.1937694549560547,1.2504254579544067,-0.8915889859199524,-5.354540824890137,0.6197319024501582,-1.3250071156607108,-2.1871630284947297
1687016495.08062,-0.13253021240234375,0.9542930722236633,-0.26788145303726196,0.8375626802444458,0.47154921293258667,0.25973325967788696,1.4728147983551025,-0.8299357891082764,-5.531713962554932,-0.4594264057530174,-1.2672854084461702,3.0266602602722297
1687016495.096762,-0.393661230802536,0.8578384518623352,-0.33036962151527405,0.8242185711860657,0.33803868293762207,0.27433931827545166,1.832300066947937,-0.8446841239929199,-5.327746391296387,-0.8725921696405855,-1.031048740793689,2.6255490369877243
1687016495.170237,-0.6123566031455994,0.6928068995475769,-0.38083845376968384,0.8870759010314941,0.3027985692024231,0.29152876138687134,1.7503093481063843,-0.9829161763191223,-5.08028507232666,-1.0144129641886772,-0.7653742412259793,2.5031903779159297
1687016495.186652,-0.7785046696662903,0.488949179649353,-0.393521249294281,0.7653669714927673,0.21847882866859436,0.2755708396434784,1.6561954021453857,-1.0593260526657104,-4.711075305938721,-1.1027715640097306,-0.5108847098188783,2.440682004914387
1687016495.2610059,-0.886269211769104,0.270064115524292,-0.3762873113155365,0.727074384689331,0.10931521654129028,0.277791827917099,0.7921831607818604,-1.0312873125076294,-4.520426273345947,-1.1692861277048683,-0.27345961340646296,2.405108194288112
1687016495.264786,-0.9395607709884644,0.06353016197681427,-0.33643639087677,0.5511788725852966,0.1645888090133667,0.1605941355228424,0.2523289918899536,-0.8171358108520508,-4.2238264083862305,-1.2269429284345217,-0.0635729789529302,2.335066985249345
1687016495.319035,-0.9447946548461914,-0.14596185088157654,-0.29335683584213257,0.6704568862915039,0.2596094012260437,0.1311558485031128,1.661672830581665,-0.9043214917182922,-4.000641822814941,-1.2697364068001824,0.14648517035317665,2.334027307200987
1687016495.414665,-0.9066132307052612,-0.3459916114807129,-0.24154186248779297,0.5357940196990967,0.26034408807754517,0.10239693522453308,0.6812686920166016,-0.8531059622764587,-3.925959587097168,-1.3104222220254413,0.35329548057296417,2.3233439727135496
1687016495.433063,-0.8379674553871155,-0.5111690163612366,-0.19109323620796204,0.5370336771011353,-0.1793367862701416,0.06346870958805084,-0.29061359167099,-0.8868415355682373,-3.539090156555176,-1.3465867051388816,0.5365444163420712,2.3036635084939387
1687016495.471919,-0.7440764904022217,-0.6407582759857178,-0.1891530305147171,0.4443480968475342,0.057659029960632324,0.0970814973115921,-0.8210064768791199,-0.5513690114021301,-3.3162355422973633,-1.3218575380951694,0.6954855003258686,2.2025147081419116
1687016495.564713,-0.6412475109100342,-0.7462593913078308,-0.1786014586687088,0.4035918116569519,0.12122893333435059,-0.09150964021682739,0.3044680953025818,-0.5450782179832458,-2.903993606567383,-1.299158812278998,0.8424247839271,2.1273627399715442
1687016495.5816488,-0.5423227548599243,-0.8265131711959839,-0.15087063610553741,0.32650238275527954,-0.06221967935562134,0.09339076280593872,0.27288952469825745,-0.3791702389717102,-2.3799469470977783,-1.299463629298049,0.9728849595126835,2.099699580714787
1687016495.626914,-0.4482479691505432,-0.8840730786323547,-0.13224424421787262,0.27161216735839844,-0.08110630512237549,0.0013085603713989258,0.057281140238046646,-0.3868977725505829,-2.189082145690918,-1.283910202504898,1.084506909475541,2.0583220239398505
1687016495.7475572,-0.3644849359989166,-0.9254565238952637,-0.10334789007902145,0.20336735248565674,-0.026981711387634277,0.03765881806612015,1.1644272804260254,-0.1503765881061554,-1.4968113899230957,-1.2945033625473696,1.18223882558266,2.0549316344508863
1687016495.766594,-0.30930596590042114,-0.9499232769012451,-0.04444686323404312,0.16860461235046387,-0.3441745638847351,0.03555095195770264,0.7607942819595337,-0.1755373328924179,-0.9666918516159058,-1.4280746575622016,1.2529902496835805,2.188439619501239
1687016495.833394,-0.274798184633255,-0.9613800048828125,-0.015310264192521572,0.04957839846611023,-0.19531244039535522,0.06436723470687866,0.7395994067192078,0.07178138196468353,-0.5515873432159424,-1.5151392943758346,1.291973102392635,2.2760414702677725
1687016495.849865,-0.25275999307632446,-0.9664128422737122,0.04646136611700058,0.0137614905834198,0.12035882472991943,-0.10592484474182129,1.789170742034912,0.10888880491256714,-0.38259559869766235,-1.752583166658243,1.3108853848394815,2.528349024804816
1687016495.920387,-0.23634256422519684,-0.9659721851348877,0.10507088899612427,-0.04003995656967163,-0.22496098279953003,0.13226425647735596,0.449140727519989,0.13904337584972382,-0.2354985773563385,-1.9891257715222015,1.3091762208373627,2.777089092482995
1687016495.935775,-0.2325882613658905,-0.966824471950531,0.10560747236013412,0.012419134378433228,-0.21135222911834717,0.0513596385717392,0.026838213205337524,0.25179922580718994,0.05978100374341011,-1.9970158882180464,1.3124918985830438,2.7959833298027488
1687016496.018296,-0.2393607795238495,-0.9654390215873718,0.10312121361494064,-0.019077405333518982,-0.011993169784545898,0.030255794525146484,-0.02687375247478485,0.2647499144077301,0.14309640228748322,-1.9775855315126023,1.30712270232036,2.7888505309353433
1687016496.034617,-0.2439112812280655,-0.9634859561920166,0.11046361178159714,-0.037643998861312866,0.10081499814987183,-0.06059788167476654,0.4242265820503235,0.12096744030714035,0.0032753879204392433,-1.9960463258816923,1.2997301413026576,2.8185656648315303
1687016496.069109,-0.24372532963752747,-0.9610443115234375,0.13035349547863007,0.001751333475112915,-0.10285955667495728,-0.03347550332546234,0.23712807893753052,-0.024392154067754745,0.03161994367837906,-2.061924136549778,1.2907561033355193,2.8885407474100195
1687016496.162189,-0.24465547502040863,-0.961367130279541,0.1261623054742813,0.014903798699378967,-0.02374023199081421,0.021878480911254883,-0.250436007976532,-0.012105925939977169,0.008214219473302364,-2.0469038599832876,1.2919264441270473,2.871442482395974
1687016496.1784291,-0.2455812692642212,-0.9617379903793335,0.1214500293135643,0.008230715990066528,0.04788905382156372,0.013468161225318909,0.11005952954292297,0.021319009363651276,0.027940254658460617,-2.030067267451971,1.2932767841448938,2.8544141696856546
1687016496.288954,-0.24591398239135742,-0.9608848094940186,0.12738539278507233,0.0009035021066665649,8.225440979003906e-06,-0.013188585638999939,0.08054571598768234,-0.005027110688388348,0.011180714704096317,-2.0487462551511197,1.2901795420339004,2.8742606816926437
1687016496.293994,-0.24718570709228516,-0.9605538845062256,0.12741868197917938,0.013588830828666687,-0.037767648696899414,0.009223699569702148,-0.08461381494998932,0.0009056131821125746,0.02632957324385643,-2.0467491550564154,1.2889870627208226,2.871914216937543
1687016496.375637,-0.24870665371418,-0.9605313539505005,0.12459693104028702,-0.008419260382652283,0.009054422378540039,0.020697228610515594,-0.10258729010820389,0.005772140808403492,0.014281966723501682,-2.03522720867128,1.288906094602526,2.859912596256107
1687016496.380549,-0.2460867464542389,-0.9620957374572754,0.11752820760011673,-0.00887240469455719,0.014570891857147217,0.016443945467472076,-0.183955118060112,0.009693644940853119,-0.023836657404899597,-2.016354564186051,1.2945855555391115,2.8405310206679135
1687016496.4970012,-0.24622489511966705,-0.96286940574646,0.11070558428764343,-0.001928865909576416,-0.020635783672332764,-0.00390934944152832,-0.17636623978614807,-0.01539080124348402,0.011046758852899075,-1.9933272701162355,1.297436935602717,2.815903514070323
1687016496.516097,-0.24780434370040894,-0.9630148410797119,0.10580836981534958,-0.015196219086647034,-0.00962609052658081,-0.005344510078430176,-0.23565472662448883,-0.05358372628688812,-0.0071325115859508514,-1.9743458347649863,1.2979761566441177,2.793188151099282
1687016496.5830688,-0.24716581404209137,-0.9634577035903931,0.1032385528087616,0.013553693890571594,0.009234189987182617,-0.02857733517885208,0.0998823270201683,-0.04853024706244469,0.0306558795273304,-1.9664586128821544,1.2996246983862938,2.7823043652770054
1687016496.5992079,-0.2500761151313782,-0.9623481035232544,0.10652673244476318,0.0213773250579834,-0.042015790939331055,-0.029942870140075684,0.021868688985705376,-0.06430348008871078,0.07062327116727829,-1.9734943857535199,1.2955126138501174,2.7868569305174007
1687016496.671418,-0.2551403045654297,-0.9617652893066406,0.09955337643623352,0.03547471761703491,-0.07519137859344482,0.03986620903015137,-0.3305748403072357,-0.0485793799161911,0.15571606159210205,-1.9428178945708012,1.2933766160488427,2.752566451506738
1687016496.687087,-0.26318496465682983,-0.9609608054161072,0.08536852151155472,0.007035642862319946,-0.010550916194915771,-0.013896353542804718,0.005132251884788275,-0.006853107362985611,0.2696801722049713,-1.8844556038045497,1.2904540784691116,2.6904069742866215
1687016496.762392,-0.2804360091686249,-0.9544154405593872,0.10221019387245178,0.10553967952728271,-0.11530190706253052,-0.053046464920043945,0.03607672080397606,-0.01280314102768898,0.5213369131088257,-1.9203024175514476,1.2676951823470388,2.727398934782375
1687016496.778189,-0.3255615532398224,-0.9442527294158936,0.048953935503959656,0.3483123183250427,-0.5263283252716064,-0.03493117541074753,-1.7343472242355347,-0.15653420984745026,1.5988867282867432,-1.7200458442512387,1.235317402778582,2.5138223741015264
1687016496.823224,-0.4341915547847748,-0.9006521701812744,0.01741035468876362,0.4413784146308899,-0.26940691471099854,0.0008696299046278,-0.07673737406730652,-0.19354242086410522,2.9525818824768066,-1.6108731812461685,1.1212679720607597,2.3845018428037896
1687016496.915066,-0.5781254172325134,-0.8159430027008057,0.0028296865057200193,0.5803073644638062,-0.24225395917892456,0.0748833417892456,-0.5629705786705017,0.19058406352996826,3.7765605449676514,-1.5756908770866187,0.9543584068269679,2.3438131189354867
1687016496.931402,-0.7347700595855713,-0.6776715517044067,-0.02956552244722843,0.6087477207183838,-0.09436202049255371,0.15584725141525269,-0.4267162084579468,0.6601542234420776,4.480833053588867,-1.530580233475204,0.7445916144499178,2.312584379635129
1687016496.971747,-0.8650412559509277,-0.495083212852478,-0.08121699839830399,0.6421103477478027,0.09524202346801758,0.10332698374986649,-0.516015350818634,0.9658007025718689,4.509464740753174,-1.477182744687106,0.517930617758748,2.2952173647117244
1687016497.06604,-0.9478407502174377,-0.2895395755767822,-0.13328364491462708,0.4429427981376648,0.2594798803329468,0.15167047083377838,0.007906599901616573,1.1058491468429565,4.462921142578125,-1.431094131752954,0.2937457624085753,2.308419673535995
1687016497.082772,-0.9795817732810974,-0.07756362855434418,-0.18548160791397095,0.4693584442138672,0.16383692622184753,0.06885868310928345,0.07941041141748428,1.1442270278930664,4.332751274108887,-1.3836639891589253,0.07764160941792744,2.3515635446351184
1687016497.18466,-0.9611241817474365,0.13232138752937317,-0.24234522879123688,0.3399847745895386,0.0173826664686203,0.19482937455177307,-0.9074568152427673,1.2385870218276978,4.126355171203613,-1.323797342046344,-0.13271059602915766,2.3864141877274077
1687016497.202917,-0.8982389569282532,0.3426760733127594,-0.27520862221717834,0.5665435194969177,0.07356849312782288,0.14122119545936584,-1.7818751335144043,0.9206763505935669,4.188511848449707,-1.2734903749594648,-0.34976395678089645,2.367037474077843
1687016497.273058,-0.7884329557418823,0.5439867973327637,-0.28714436292648315,0.4003257155418396,0.0779767632484436,0.09357136487960815,-0.8753580451011658,0.817922830581665,4.294327735900879,-1.2215308612774354,-0.5751811147121972,2.387058950786275
1687016497.27672,-0.6520477533340454,0.7090888619422913,-0.26837825775146484,0.6311737895011902,0.20089960098266602,0.0033788681030273438,-1.4359201192855835,0.41292646527290344,4.051083564758301,-1.1803361431483943,-0.788205183288291,2.401363636378315
1687016497.36395,-0.4813026189804077,0.8357900381088257,-0.2642018496990204,0.34578943252563477,0.09731531143188477,0.17563983798027039,0.6169341802597046,0.7457523941993713,4.3690900802612305,-1.0687743188282341,-0.9895701843186662,2.51372973747615
1687016497.3818111,-0.27896058559417725,0.9151621460914612,-0.290962278842926,0.6075892448425293,-0.10354727506637573,0.11568459868431091,-0.8991020917892456,0.8726412057876587,4.369967937469482,-0.764342830164834,-1.1559100659866706,2.8056095711964413
1687016497.4211168,-0.04377185180783272,0.9631775617599487,-0.2652791738510132,0.3531133532524109,0.0043822526931762695,0.07753503322601318,0.17475244402885437,0.8044390082359314,5.186765193939209,-0.16352951410347785,-1.2985807579279744,-2.8850903866417363
1687016497.516406,0.21091695129871368,0.9427220225334167,-0.25843578577041626,0.6711937189102173,0.1245691180229187,0.05851516127586365,-0.9792466759681702,0.697783887386322,4.956845283508301,0.684498632816003,-1.2306984795306193,-2.041684329345931
1687016497.5337338,0.44417935609817505,0.8695541620254517,-0.21582409739494324,0.6228983402252197,0.4696180820465088,0.002582564949989319,0.1970432996749878,0.5939750671386719,4.921698570251465,1.118497053047399,-1.0542987755136615,-1.6012290620639509
1687016497.5695581,0.6379213333129883,0.7364391684532166,-0.2251969277858734,0.5037412643432617,0.3547014594078064,0.1521836668252945,0.28553900122642517,0.69794762134552,4.23826265335083,1.2314365062859922,-0.8277915677849429,-1.5004636684941253
1687016497.6962152,0.7681955099105835,0.6067659258842468,-0.20423169434070587,0.36438804864883423,0.7166287302970886,-0.022757992148399353,0.4257583022117615,0.8406555652618408,2.8861658573150635,1.310948120035947,-0.6519855913567552,-1.4387608603339763
1687016497.7128959,0.8386057019233704,0.5185097455978394,-0.16699767112731934,0.15347498655319214,0.44180208444595337,0.030278921127319336,-0.1453387439250946,1.085818886756897,1.673315405845642,1.374230426246267,-0.5451072059280143,-1.4144604206320812
1687016497.78012,0.883600652217865,0.4516342878341675,-0.12359783798456192,0.11607897281646729,0.5815992951393127,-0.05598282814025879,1.1320925951004028,1.3374584913253784,1.294199824333191,1.4318183229080386,-0.4685962292136882,-1.4230665628165529
1687016497.797377,0.9169520139694214,0.38925790786743164,-0.08762151747941971,0.14560914039611816,0.33414602279663086,-0.1925297975540161,1.245534896850586,1.3571150302886963,1.1126550436019897,1.475528237171802,-0.39982583059013144,-1.489733839082682
1687016497.870511,0.9395491480827332,0.33891138434410095,-0.04885087162256241,-0.052357375621795654,0.4251113533973694,-0.3185960054397583,0.8757159113883972,1.0725431442260742,0.8492276668548584,1.5188491540515465,-0.3457595763272213,-1.5371148443744556
1687016497.8872318,0.9513477087020874,0.30734387040138245,-0.021839819848537445,0.0026163458824157715,0.3905929923057556,-0.27277684211730957,2.445168972015381,1.1057060956954956,0.3523937165737152,1.5478436412506602,-0.3124005498769013,-1.6121945172335634
1687016497.960437,0.9513757228851318,0.30733609199523926,-0.020707236602902412,0.14608216285705566,-0.0007412731647491455,-0.24433785676956177,1.5025043487548828,0.5298630595207214,-0.22830404341220856,1.549034190590439,-0.3123923545925727,-1.7418257205027932
1687016497.9639192,0.9466226100921631,0.32225555181503296,-0.007564207538962364,0.028581976890563965,-0.012105435132980347,-0.2591593861579895,-1.234042763710022,-0.08634140342473984,-0.35177910327911377,1.5628057649620026,-0.3281111999806868,-1.7297212460921452
1687016498.0203319,0.9426679611206055,0.3336634337902069,-0.006751646753400564,-0.0024520158767700195,0.06233257055282593,-0.3671802282333374,-0.58376145362854,-0.5236785411834717,-0.2479882687330246,1.5636341748528546,-0.3401870649552131,-1.6794339173848352
1687016498.116726,0.9383924007415771,0.34456419944763184,-0.026363063603639603,-0.0249251127243042,0.1308843195438385,-0.07367348670959473,-0.13296476006507874,-0.5117074847221375,-0.23137253522872925,1.542709855564238,-0.35177452487937977,-1.6605589301922679
1687016498.131932,0.9316232204437256,0.36039552092552185,-0.04683036357164383,0.03555506467819214,-0.006117045879364014,0.044831518083810806,-0.17752225697040558,-0.4593318998813629,-0.4020252227783203,1.5205711105418789,-0.36869186515819874,-1.6530237444941671
1687016498.170988,0.9223302006721497,0.38210973143577576,-0.0574379563331604,0.016207396984100342,-0.09809795022010803,0.13075649738311768,-0.5485026836395264,-0.31314617395401,-0.45747384428977966,1.5086018140548072,-0.3920782006116718,-1.6312218570632997
1687016498.262864,0.9134179353713989,0.40251272916793823,-0.0604228712618351,-0.014873743057250977,-0.10835391283035278,0.1304912567138672,-0.2218506932258606,-0.13060301542282104,-0.39100295305252075,1.5047422624730038,-0.4142601180097204,-1.615333672561114
1687016498.2672791,0.9077565670013428,0.41530051827430725,-0.059189993888139725,-0.016765356063842773,-0.10760712623596191,0.182694673538208,-0.05808866396546364,0.0536256842315197,-0.15375258028507233,1.5056838042467282,-0.42827314213574325,-1.6071943208840753
1687016498.321628,0.9055705666542053,0.42096835374832153,-0.05222608149051666,-0.008979380130767822,-0.10685098171234131,0.12748247385025024,0.023379897698760033,0.19470517337322235,-0.06807655841112137,1.5131881211503027,-0.43451259795432906,-1.6027989195545163
1687016498.44531,0.9070109724998474,0.4181922674179077,-0.04946091026067734,-0.013624131679534912,0.00565105676651001,0.05339771509170532,0.8460222482681274,0.36159002780914307,0.01438982505351305,1.516318516532929,-0.43145428717765943,-1.6336055715219253
1687016498.451488,0.9088493585586548,0.4152241051197052,-0.03976994752883911,-0.00943535566329956,-0.09701740741729736,0.06307011842727661,0.0684913843870163,0.386289119720459,0.15824154019355774,1.5270656536705258,-0.42818914164421934,-1.6526232729619585
1687016498.534838,0.9140151143074036,0.4048759341239929,-0.02552705630660057,-0.00623929500579834,0.05635136365890503,-0.010788796469569206,0.46319660544395447,0.3962442874908447,0.2729731798171997,1.5428751013762787,-0.4168431558578089,-1.660909813309751
1687016498.552984,0.9207972288131714,0.38949552178382874,-0.020628195255994797,-0.009847581386566162,0.0353853702545166,-0.06920027732849121,1.197393774986267,0.4930853247642517,0.3699444532394409,1.5483975362626863,-0.40008380226233337,-1.7031354377159673
1687016498.622357,0.9285425543785095,0.37047135829925537,-0.023655714467167854,-0.0012660026550292969,-0.024371594190597534,-0.04616844654083252,1.2862777709960938,0.5526912808418274,0.3272723853588104,1.5453256600857523,-0.3795164363831451,-1.7810655750944233
1687016498.639147,0.9346550703048706,0.35482317209243774,-0.022808276116847992,0.01796633005142212,0.07947239279747009,-0.13524222373962402,1.1171128749847412,0.4371410012245178,0.25862807035446167,1.546398287988087,-0.3627249374455336,-1.8495159296977315
1687016498.71124,0.9400790929794312,0.3403263986110687,-0.020721886307001114,-0.0047304630279541016,0.15198317170143127,-0.1434779167175293,1.1233525276184082,0.3538171947002411,0.31454724073410034,1.5487571913669271,-0.3472639796870767,-1.9024667571374174
1687016498.7147698,0.9437111616134644,0.33012279868125916,-0.02069336362183094,-0.01707547903060913,0.06649884581565857,-0.10123956203460693,0.6952492594718933,0.25185060501098633,0.13195933401584625,1.5488721949775035,-0.3364336765402758,-1.9463204005678072
1687016498.769648,0.9452550411224365,0.325311541557312,-0.025794873014092445,-0.03789114952087402,0.1628933846950531,-0.045097410678863525,1.4888914823532104,0.2524949908256531,0.06507723778486252,1.543514299678573,-0.33134116558990845,-1.9999682465493382
1687016498.8643851,0.9452208876609802,0.32427188754081726,-0.037489425390958786,0.005279719829559326,-0.03781864047050476,-0.025315705686807632,0.8463525176048279,0.16125229001045227,-0.06117311120033264,1.5311550253204247,-0.3302419288080143,-2.0635241756967995
1687016498.8836432,0.9458892941474915,0.32155805826187134,-0.04351690411567688,0.016894400119781494,0.06383314728736877,0.010298553854227066,1.1721760034561157,0.23969289660453796,0.059024933725595474,1.5248224052548962,-0.3273744651535998,-2.1123839835909304
1687016498.9198608,0.9476313591003418,0.31330350041389465,-0.061935052275657654,0.015030503273010254,0.15311190485954285,0.010238341987133026,2.7780542373657227,0.26619067788124084,0.11344556510448456,1.5055313991644876,-0.3186696907267558,-2.214651881634242
1687016499.013568,0.9506903886795044,0.2939601540565491,-0.09886911511421204,0.03365403413772583,-0.02021750807762146,0.053153879940509796,2.9755873680114746,0.15673182904720306,0.13386881351470947,1.4671716618649646,-0.2983674156334155,-2.3753152712656638
1687016499.030951,0.9529683589935303,0.2767862379550934,-0.12345262616872787,-0.006130039691925049,-0.09844154119491577,0.10418082028627396,1.5361899137496948,0.201377734541893,0.01558877993375063,1.4419684332295448,-0.2804480541502334,-2.493465181089081
1687016499.070389,0.9529567360877991,0.2738056182861328,-0.1300153285264969,0.06275975704193115,-0.08667179942131042,0.04133129119873047,0.6430963277816772,0.054916515946388245,-0.15202711522579193,1.4351999231179966,-0.277347629660015,-2.5492872812010487
1687016499.161135,0.9516268968582153,0.27946391701698303,-0.127695232629776,-0.011746585369110107,-0.056548237800598145,0.10721802711486816,0.14067649841308594,0.18339993059635162,-0.09087055176496506,1.437406886941279,-0.283235729340231,-2.563640396971033
1687016499.165975,0.951927661895752,0.2800656259059906,-0.12408522516489029,-0.015678882598876953,0.005044877529144287,0.061417460441589355,0.8309913873672485,0.2517518103122711,-0.03701397776603699,1.4411756531616526,-0.2838624685829683,-2.5873605782864053
1687016499.221663,0.9541053771972656,0.27186328172683716,-0.12559235095977783,-0.037891387939453125,0.03914135694503784,0.08169287443161011,1.9322619438171387,0.4778852164745331,0.0410909429192543,1.4399151765736717,-0.2753287185671228,-2.6536506129566657
1687016499.282635,0.9592618346214294,0.24810726940631866,-0.13512732088565826,0.005551338195800781,0.15478581190109253,0.09028179943561554,3.787230968475342,0.671643078327179,0.13754159212112427,1.4308511968478148,-0.25072594158194017,-2.803024458015747
1687016499.374614,0.9656750559806824,0.21442687511444092,-0.14660446345806122,0.06377440690994263,0.024678394198417664,0.1563091278076172,3.9670214653015137,0.7490412592887878,0.11201172322034836,1.4201312770110048,-0.21610501508381533,-3.005515420585467
1687016499.3805342,0.9721821546554565,0.18153396248817444,-0.14801116287708282,0.07287698984146118,0.018325716257095337,0.1016397476196289,3.2942090034484863,0.6493872404098511,0.0770992785692215,1.4197102117488671,-0.18254610675702013,3.0931943177488628
