Timestamp,gravityX,gravityY,gravityZ,accelerationX,accelerationY,accelerationZ,rotationRateX,rotationRateY,rotationRateZ,attitudeRoll,attitudePitch,attitudeYaw
1687009190.516094,0.9374275207519531,0.34351518750190735,0.05680478736758232,-0.033588528633117676,0.07816144824028015,0.010074496269226074,-0.2987123131752014,-0.10616211593151093,0.04427741467952728,1.6313187788918515,-0.35065731318314647,-0.4859449749039257
1687009190.522746,0.9379285573959351,0.34237343072891235,0.05541202053427696,-0.035722196102142334,0.053515881299972534,0.0012285709381103516,0.001795444404706359,-0.05113241821527481,-0.007089634891599417,1.629806884881764,-0.349441825682385,-0.47922698389995516
1687009190.6032948,0.9383192658424377,0.34218189120292664,0.04968198016285896,-0.011607348918914795,0.033352166414260864,0.018372178077697754,0.012569528073072433,-0.13861699402332306,0.021501261740922928,1.623694770461902,-0.34923799800387817,-0.48339204909877426
1687009190.624899,0.9369564056396484,0.34667453169822693,0.04392166808247566,-0.015676677227020264,0.03378811478614807,0.023766279220581055,-0.07428507506847382,-0.15108352899551392,-0.030205607414245605,1.617638992772481,-0.3540234469471011,-0.4783405244696829
1687009190.690257,0.9354672431945801,0.3511805832386017,0.039660945534706116,-0.01899397373199463,0.009628713130950928,0.03980671986937523,-0.022842390462756157,-0.12831296026706696,-0.046262871474027634,1.613167886351817,-0.3588317089498758,-0.4771534956287435
1687009190.7074199,0.9336440563201904,0.35616302490234375,0.03816234692931175,-0.055256783962249756,-0.012611418962478638,0.03485095128417015,-0.09774439036846161,-0.1187206581234932,-0.0739581435918808,1.6116482085668644,-0.36415841175222674,-0.47191619594172907
1687009190.844054,0.9321753978729248,0.3599194586277008,0.03882231190800667,-0.022186994552612305,-0.012095332145690918,0.010021094232797623,-0.1300298273563385,-0.021176118403673172,-0.08917465060949326,1.6124192752814168,-0.3681815560020892,-0.46522004484043583
1687009190.849385,0.9302979111671448,0.3642860949039459,0.04290984198451042,-0.009216487407684326,-0.024289757013320923,0.0030343495309352875,-0.18118129670619965,0.01951112225651741,-0.11276013404130936,1.6168885011109095,-0.37286609338674,-0.45529069761917396
1687009190.9675322,0.9293009042739868,0.36654970049858093,0.04517989978194237,0.06891381740570068,-0.022097766399383545,-0.008223172277212143,-0.14636559784412384,-0.033567409962415695,-0.02012154832482338,1.6193751614011895,-0.37529788284988636,-0.44822577267465674
1687009190.9901419,0.9295311570167542,0.3657245635986328,0.04708946868777275,0.08006656169891357,-0.013154983520507812,0.004332542419433594,-0.22807744145393372,-0.02724972553551197,0.020836804062128067,1.6214124341540044,-0.37441117630867005,-0.4368609048188759
1687009190.9937901,0.9309245347976685,0.36165913939476013,0.050814345479011536,-0.019440889358520508,-0.015559285879135132,-0.002779722213745117,-0.23500896990299225,0.007691480219364166,0.0995934009552002,1.6253270281367562,-0.3700468954568833,-0.42523762194965903
1687009191.049695,0.9329192042350769,0.3559802770614624,0.05421740561723709,-0.09913337230682373,0.017753243446350098,0.0032927952706813812,-0.03123794123530388,0.03919574245810509,0.1001843586564064,1.628846895260446,-0.3639628399378037,-0.4174065029520544
1687009191.053441,0.934654712677002,0.35101068019866943,0.05667443573474884,-0.07804161310195923,0.036059051752090454,0.014629840850830078,0.16393721103668213,0.13072951138019562,0.11612257361412048,1.6313589389086471,-0.3586502299412365,-0.4213699126908121
1687009191.141357,0.9354654550552368,0.34793031215667725,0.06203896924853325,0.03209429979324341,0.035294175148010254,0.02020585536956787,0.09740732610225677,0.19724410772323608,0.06829433888196945,1.637018179499048,-0.3553625704891885,-0.4294170863905202
1687009191.159783,0.9359187483787537,0.34548890590667725,0.06850600242614746,0.08831197023391724,0.06398066878318787,0.007894627749919891,0.20225803554058075,0.1879471391439438,0.08067777007818222,1.6438625517439776,-0.3527597256469074,-0.4376563573672974
1687009191.236104,0.9363539218902588,0.34375452995300293,0.0712307021021843,-0.026441991329193115,0.03889012336730957,-0.014346010982990265,0.2554691731929779,0.09937306493520737,0.04105392470955849,1.6467225018914844,-0.3509121550658625,-0.45000826683545286
1687009191.253199,0.9364179968833923,0.3441672623157501,0.06833775341510773,-0.08293300867080688,0.03931662440299988,-0.012505888938903809,0.3461909890174866,0.027705535292625427,-0.029726237058639526,1.6436450154442361,-0.3513517130790453,-0.46668034894597693
1687009191.291271,0.934283435344696,0.35022667050361633,0.06674983352422714,0.1069914698600769,0.020409315824508667,0.0069043636322021484,0.1357499212026596,0.07941440492868423,-0.18116289377212524,1.6421200849497852,-0.3578131009965603,-0.4801859502069725
1687009191.378392,0.9300937056541443,0.36060822010040283,0.0699068158864975,0.04810124635696411,-0.02279391884803772,-0.02722812443971634,0.08086616545915604,0.15036262571811676,-0.24701328575611115,1.6458163147759746,-0.3689199022047079,-0.48399114780330965
1687009191.382042,0.9248419404029846,0.3722575902938843,0.07804713398218155,0.008293867111206055,-0.08395805954933167,-0.06436002999544144,-0.16004984080791473,0.07052277028560638,-0.24290402233600616,1.6549865531969024,-0.38144024359707357,-0.47665794364338765
1687009191.4395761,0.921264111995697,0.3809254765510559,0.07853662967681885,0.018036305904388428,-0.09831744432449341,-0.06921350955963135,0.21205507218837738,-0.0004191763000562787,-0.12437418103218079,1.6558394780313246,-0.3907970224838597,-0.47855751027496973
1687009191.566014,0.9208207726478577,0.3829028606414795,0.07398911565542221,0.02725350856781006,-0.1513965129852295,-0.046523332595825195,-0.4209151864051819,-0.19613061845302582,-0.02174261212348938,1.6509753400801974,-0.3929365929397504,-0.475864416358088
1687009191.571737,0.9221481680870056,0.3806533217430115,0.06889093667268753,0.06851351261138916,-0.0566328763961792,-0.022428028285503387,0.008248749189078808,-0.23955759406089783,0.0858570858836174,1.6453648257267635,-0.39050271804592823,-0.46206466878228925
1687009191.654364,0.9259681701660156,0.3733598589897156,0.056438956409692764,-0.0126228928565979,-0.07413500547409058,-0.011211991310119629,-0.08462207019329071,-0.3341512084007263,0.23307396471500397,1.6316723089416376,-0.3826281606357887,-0.45944201690183967
1687009191.674835,0.9319828748703003,0.3604128360748291,0.03886689618229866,-0.08118331432342529,-0.050949275493621826,0.04627704992890358,0.1543731987476349,-0.3671531081199646,0.2962585389614105,1.6124756176085537,-0.3687104244365565,-0.4641813312570983
1687009191.740283,0.9372853636741638,0.34781065583229065,0.022890571504831314,-0.02235311269760132,-0.0014208555221557617,0.08839178085327148,0.03228197991847992,-0.23093681037425995,0.2448989450931549,1.5952136729575905,-0.35523495466183974,-0.46891269148998804
1687009191.758414,0.9415214657783508,0.33638840913772583,0.019488243386149406,0.05904287099838257,0.019965320825576782,0.07308673858642578,-0.3156484365463257,-0.07334131747484207,0.23905250430107117,1.5914920437387718,-0.3430791829140665,-0.4601004905947853
1687009191.826993,0.9450322389602661,0.3260730504989624,0.024296417832374573,-0.003946542739868164,0.0627666711807251,0.04400193691253662,-0.3716258108615875,-0.01641225628554821,0.17883363366127014,1.5965002824723513,-0.33214659736000235,-0.44102803274966984
1687009191.8299909,0.9478927254676819,0.31756603717803955,0.025515053421258926,-0.038224875926971436,0.11242663860321045,0.017728326842188835,0.04412279650568962,-0.05734291300177574,0.16763024032115936,1.59770748825245,-0.3231615410632954,-0.4326460401115021
1687009191.890166,0.9503827691078186,0.310433030128479,0.020099252462387085,0.008693099021911621,0.082908034324646,-0.007938146591186523,-0.08981935679912567,-0.229104146361351,0.1644778549671173,1.5919417611233595,-0.31564853985208824,-0.4347013560405685
1687009192.018122,0.9537503123283386,0.30051350593566895,0.007204846478998661,-0.012084782123565674,0.03353193402290344,0.03577911853790283,-0.6226727366447449,-0.5123803019523621,0.23366679251194,1.5783504101651968,-0.3052309962132601,-0.4175450975213239
1687009192.024071,0.9570549130439758,0.28970950841903687,-0.010686259716749191,-0.06464475393295288,0.16398009657859802,0.09860736131668091,-0.08938460052013397,-0.3869515657424927,0.1664973348379135,1.5596310154330826,-0.2939233124194307,-0.3933618623304015
1687009192.1006498,0.9576055407524109,0.28730782866477966,-0.021106844767928123,0.0013938546180725098,0.12655630707740784,0.0876656174659729,-0.14061583578586578,-0.054391730576753616,-0.04489613696932793,1.5487586234000128,-0.29141496717234194,-0.3899384830001901
1687009192.106605,0.9553572535514832,0.29488515853881836,-0.01829802431166172,-0.08775800466537476,0.15436407923698425,0.09410363435745239,-0.06323069334030151,0.1538526862859726,-0.28668850660324097,1.5516455993305216,-0.2993353329621947,-0.3869233842149311
1687009192.1941009,0.9466046094894409,0.3223683834075928,-0.004286195617169142,0.05193054676055908,0.5435373783111572,0.5020126104354858,0.5493333339691162,0.6506726145744324,-0.8721477389335632,1.5662683897037777,-0.32823038611038,-0.398564782399422
1687009192.199887,0.9214285016059875,0.3852720856666565,0.050347525626420975,-0.1005820631980896,0.802853524684906,0.9086215496063232,0.05806344375014305,2.2531020641326904,-1.9692686796188354,1.6253827743914122,-0.3955026417967448,-0.41794935274721834
1687009192.283711,0.8344115018844604,0.5082857012748718,0.21307869255542755,0.45597827434539795,0.8976436853408813,0.975962221622467,-0.09477317333221436,4.970058441162109,-3.82816481590271,1.8208170958899295,-0.5331930197878952,-0.37684942776877917
1687009192.2887502,0.6124169230461121,0.7077516913414001,0.35218265652656555,1.1565496921539307,0.7189602255821228,0.6008964776992798,3.7775895595550537,5.997099876403809,-5.135321140289307,2.092683300565932,-0.7863106269912263,-0.3921009374573299
1687009192.340682,0.29770371317863464,0.8992063999176025,0.3206246495246887,1.268641471862793,-0.02362668514251709,0.531838059425354,3.868513822555542,4.866307258605957,-5.328359603881836,2.3932466991905526,-1.1179522257100385,-0.3670262328972586
1687009192.4416652,0.012061968445777893,0.9748058915138245,0.22272826731204987,1.0924758911132812,-0.7130414843559265,0.22357594966888428,1.9220151901245117,3.6852290630340576,-4.135707378387451,3.087489970618131,-1.3458492204274235,0.1375466696111186
1687009192.446703,-0.19042226672172546,0.9717724323272705,0.13927437365055084,1.0261003971099854,-0.8509992957115173,0.1851426213979721,0.7553901672363281,3.0816242694854736,-3.0951364040374756,-2.202285150929045,-1.3326309468650985,0.9832373547291119
1687009192.4918299,-0.3360935151576996,0.9390380382537842,0.0724463239312172,1.07265043258667,-0.5651673078536987,0.18011701107025146,0.8152554035186768,2.610314130783081,-2.368900775909424,-1.7831020255782342,-1.2198215895671745,1.2708483134088608
1687009192.584509,-0.4434538185596466,0.8962703943252563,0.006930761970579624,0.9660520553588867,-0.6664273738861084,0.3761563301086426,-0.5194800496101379,2.5349624156951904,-2.0353665351867676,-1.5864241051203332,-1.1112874505890782,1.3477704441361902
1687009192.590692,-0.5199765563011169,0.8535687327384949,0.032318148761987686,0.8605375289916992,-0.1686323881149292,-0.0009309090673923492,-1.2483503818511963,2.0441620349884033,-0.9322829842567444,-1.6328695677094074,-1.0227973464252393,1.1673014913904503
1687009192.643254,-0.5431109666824341,0.8396096229553223,-0.009260972961783409,0.5037280917167664,-0.13228869438171387,-0.11255007982254028,-1.4707311391830444,1.5127631425857544,-0.10595016926527023,-1.5537462648862774,-0.9965641483616677,1.1316761685016934
1687009192.7656798,-0.5255957841873169,0.8493431806564331,0.04863259568810463,0.011511921882629395,0.38286495208740234,-1.0886718034744263,-0.4033481776714325,-0.5382215976715088,0.6087697744369507,-1.6630621246550785,-1.0147396922012575,0.9752532349457963
1687009192.771513,-0.47899478673934937,0.8704469799995422,0.11351610720157623,-0.7515960335731506,-0.288782000541687,-0.5509856939315796,-2.2573118209838867,-0.20951859652996063,1.5036875009536743,-1.8034915910804934,-1.0561095780943737,0.8502670916443249
1687009192.8550901,-0.4377985894680023,0.8955636024475098,0.07936062663793564,-0.7191685438156128,0.8386892080307007,-0.1925046443939209,1.6839656829833984,0.28294646739959717,-0.06900599598884583,-1.7501210756697696,-1.1096963223447167,0.9156584048951352
1687009192.8758001,-0.45598945021629333,0.8892948627471924,0.03504682704806328,-0.2994273900985718,0.026171386241912842,-0.25204217433929443,0.2641462981700897,0.5285374522209167,-0.5558449029922485,-1.6475043774304379,-1.095800979282875,0.9967197471258256
1687009192.9403949,-0.48483628034591675,0.8746040463447571,-0.0011729395482689142,0.03155869245529175,0.01013094186782837,-0.10841584205627441,1.1078060865402222,0.23163217306137085,-0.7079668045043945,-1.5683770826934174,-1.0646185345017056,1.0673453169338873
1687009192.957742,-0.5156621932983398,0.8567841053009033,-0.003632491687312722,0.19661623239517212,-0.17319059371948242,0.2660072445869446,-0.4618300795555115,-0.08408038318157196,-0.5466024279594421,-1.5637521192470467,-1.0290007014309994,1.0692710014636095
1687009193.027478,-0.5330246686935425,0.8458513617515564,-0.020497970283031464,0.1693466305732727,-0.3387865424156189,0.1824546456336975,0.0015836565289646387,-0.013475988991558552,-0.14694207906723022,-1.5323593153449708,-1.008159188146709,1.1051468765932309
1687009193.0306559,-0.5271217823028564,0.8497861623764038,0.0024466768372803926,0.04000025987625122,-0.13401174545288086,0.035700201988220215,-0.6179473400115967,0.015435021370649338,0.35276415944099426,-1.575437871424812,-1.0155794783898597,1.0542826877397933
1687009193.1224961,-0.514734148979187,0.857285737991333,0.010491745546460152,-0.09706705808639526,0.11805611848831177,-0.03862917423248291,-0.0759318396449089,0.026095256209373474,0.14542055130004883,-1.5911763476163856,-1.0299742298513375,1.036314828971492
1687009193.141412,-0.5186170935630798,0.8545863032341003,0.026805158704519272,-0.13474899530410767,0.18682605028152466,-0.09452378749847412,-0.2293996959924698,0.08536124229431152,-0.27980610728263855,-1.6224362101474374,-1.0247537441488057,0.9955976415546837
1687009193.181028,-0.5369059443473816,0.8433956503868103,0.020381636917591095,-0.14799994230270386,-0.012676835060119629,-0.060512423515319824,0.1949339509010315,0.21098242700099945,-0.4695456922054291,-1.6087393869548006,-1.0035721992844682,1.0029677197906326
1687009193.27208,-0.5523520112037659,0.833540141582489,-0.010864593088626862,-0.08628934621810913,-0.041227519512176514,-0.1573483943939209,1.0272142887115479,0.3890933096408844,-0.23310545086860657,-1.5511291728363161,-0.9854850117428346,1.0512408965657718
1687009193.29146,-0.5547041893005371,0.8290659785270691,-0.07037355750799179,-0.26045072078704834,-0.1658734679222107,0.12292475253343582,0.2869206368923187,0.30570507049560547,-0.05622469261288643,-1.4446036663602178,-0.9774351754448307,1.1601194661484717
1687009193.362076,-0.5505295395851135,0.832328200340271,-0.06439615786075592,-0.619621217250824,0.14830827713012695,-0.14214694499969482,0.029356498271226883,0.1431789994239807,-0.13593310117721558,-1.4543541616227125,-0.9832948979045963,1.1421715367951466
1687009193.452553,-0.5553544759750366,0.8285754919052124,-0.0710202232003212,-0.8092848062515259,-0.30431413650512695,-0.22098737955093384,0.2492746263742447,-0.4654819369316101,0.16312843561172485,-1.4436039974470045,-0.976558560908303,1.1618607247107038
1687009193.457107,-0.5220761895179749,0.8512811064720154,-0.05250222608447075,-0.6812012791633606,-0.613442599773407,-0.2398563027381897,-1.062406063079834,-0.9148464202880859,2.1044108867645264,-1.4705689941979343,-1.0184220768253107,1.164257647911589
1687009193.543468,-0.3458520174026489,0.9381388425827026,-0.01678616739809513,0.056743770837783813,-0.5086345672607422,-0.17561203241348267,0.6074048280715942,-0.742458701133728,5.991585731506348,-1.5222986925046342,-1.2172154716732446,1.1650392535317986
1687009193.563307,0.010849671438336372,0.9946791529655457,-0.1024465337395668,4.359481334686279,0.5914412140846252,-0.05259816348552704,2.2734925746917725,-3.5171239376068115,8.061630249023438,0.10551239017440091,-1.467591903392969,2.8458510812098696
1687009193.627684,0.1691601276397705,0.980528712272644,0.09973893314599991,-1.2858442068099976,0.36601346731185913,2.0510635375976562,-15.544371604919434,-1.2602235078811646,0.00999507587403059,2.1035430005246476,-1.3731359159618561,-1.113912877835774
1687009193.631309,0.03976675122976303,0.9988183975219727,-0.02793068066239357,0.8617987632751465,0.388693630695343,0.3954690098762512,7.2275390625,3.627347469329834,-0.6076969504356384,0.9584864395536268,-1.5221787141775323,-2.462350808903677
1687009193.6906362,0.048194363713264465,0.9970081448554993,-0.0604318231344223,0.37795305252075195,-0.822630763053894,0.17002034187316895,-4.2992753982543945,-2.123162031173706,-0.027435386553406715,0.6732145377190214,-1.4934222613139874,-2.7516381672305474
1687009193.7800698,0.06947239488363266,0.9961513876914978,0.05344003811478615,-0.31668007373809814,0.48305076360702515,-0.6462899446487427,0.5664945244789124,0.7371246218681335,-0.09394756704568863,2.2264895429115907,-1.4830345567918106,-1.1394192339495945
1687009193.784282,0.05523115023970604,0.9983915686607361,0.012793948873877525,-0.13471423089504242,0.12291574478149414,-0.03682661056518555,0.4590429663658142,0.25724124908447266,-0.7290984392166138,1.7984252912247498,-1.5140710138371423,-1.5831183047220116
1687009193.8420439,0.03857148438692093,0.9990871548652649,-0.018358102068305016,0.11131555587053299,-0.2139766812324524,-0.044874489307403564,0.07154782861471176,-0.500874936580658,0.0736108049750328,1.1265730735521482,-1.5280653779768543,-2.255748119588801
1687009193.9319181,0.03677727282047272,0.9989706873893738,0.02655055746436119,-0.0373724102973938,0.09011006355285645,-0.08259618282318115,-0.6276066899299622,-0.22562512755393982,-0.2695297598838806,2.1960882639058403,-1.5254200160911264,-1.1636910339839843
1687009193.936819,0.027529308572411537,0.9996204972267151,-0.0008575316751375794,0.035992980003356934,0.017621755599975586,0.0670347809791565,0.7027836441993713,0.03507490083575249,-0.10877151787281036,1.5396566255079367,-1.5432449872541207,-1.8218171645854522
1687009193.990171,0.021391792222857475,0.9997528195381165,0.006034349091351032,-0.019942250102758408,0.02249431610107422,0.025871634483337402,-0.36693012714385986,-0.0897410660982132,-0.1512441486120224,1.8457393856959272,-1.5485624201966515,-1.5104754462158134
1687009194.084739,0.014661955647170544,0.9998654723167419,0.007339947856962681,-0.010740487836301327,-0.026293814182281494,-0.019608139991760254,0.21365197002887726,-0.013242695480585098,-0.13904286921024323,2.0349332473272157,-1.5543949060685915,-1.3152588023392713
1687009194.089552,0.006648764479905367,0.9999580979347229,-0.006282349582761526,0.005161499138921499,-0.037876248359680176,-0.07739698886871338,0.5387120842933655,0.037085991352796555,-0.11293963342905045,0.8137264862546627,-1.5616405235554427,-2.538789160519558
1687009194.143224,0.001125630340538919,0.9989690184593201,-0.04538522660732269,0.021869324147701263,-0.09532821178436279,-0.09774231910705566,0.6859318017959595,0.07081691920757294,-0.09202422946691513,0.024796606225280883,-1.5253831253582162,2.9499124139057824
1687009194.2347178,-0.0012243626406416297,0.9988873600959778,-0.04714115709066391,-0.031048016622662544,-0.10159438848495483,-0.03409677371382713,-0.524179995059967,-0.19759149849414825,-0.013008510693907738,-0.025966428836527448,-1.5236189010930794,2.908980144696555
1687009194.2385612,0.0014436449855566025,0.9998083710670471,-0.01951688341796398,0.005926306825131178,0.05500108003616333,0.021622419357299805,-0.32416602969169617,-0.4362582862377167,0.125981867313385,0.073834564464103,-1.5512191326813536,3.0251252048330213
1687009194.291018,0.005636865738779306,0.9999341368675232,-0.009999871253967285,-0.03641388565301895,0.04874134063720703,0.11339330673217773,-0.08535110950469971,-0.029398495331406593,0.04365476965904236,0.5132958649499029,-1.5593172983997723,-2.8093485791443777
1687009194.381784,0.0039379410445690155,0.9997578263282776,-0.02164701744914055,-0.0332043394446373,0.11332494020462036,0.08480304479598999,0.369912326335907,0.3090212345123291,-0.2262108027935028,0.1799482894679114,-1.5487888545505681,3.138680945803669
1687009194.386775,-0.009351786226034164,0.9995411038398743,-0.028802450746297836,0.08155633509159088,-0.10410988330841064,-0.023413294926285744,-0.035463444888591766,0.35714253783226013,-0.2884179651737213,-0.3139489384205526,-1.5405004848298607,2.6276811200749366
1687009194.441617,-0.04465677961707115,0.9990013241767883,-0.0014227069914340973,0.20501135289669037,-0.22828000783920288,0.32097214460372925,-1.8374736309051514,2.051105499267578,-1.6538641452789307,-1.5389483985792176,-1.5261007414386112,1.3516742497149365
1687009194.5408401,-0.18939486145973206,0.9757046699523926,0.11013544350862503,0.8725155591964722,0.18944108486175537,-0.10964727401733398,-1.3988678455352783,3.5325586795806885,-3.3174774646759033,-2.097510989121529,-1.3499146749528261,0.6503014019578277
1687009194.559181,-0.3725903630256653,0.9278953671455383,0.013657176867127419,1.499497652053833,-0.1315239667892456,0.2510521411895752,2.1031389236450195,2.5658607482910156,-3.5651931762695312,-1.6074345938888575,-1.1887276996107836,0.9697061956806237
1687009194.589332,-0.5071333646774292,0.861603856086731,-0.021312016993761063,0.553947389125824,0.025953948497772217,-0.01886451058089733,-1.5212773084640503,1.4244667291641235,-2.3995590209960938,-1.5287965579034148,-1.0384210764666462,0.9654711294853101
1687009194.71504,-0.5691927075386047,0.822087287902832,-0.01384950615465641,-0.2155057191848755,0.020487606525421143,-0.2065180540084839,0.5741187334060669,0.44597935676574707,-0.8759425282478333,-1.5464692869954868,-0.9650673636824008,0.9073043009698475
1687009194.720366,-0.5878256559371948,0.8067634701728821,-0.05994485318660736,-0.3001289963722229,-0.3373728394508362,0.16809898614883423,0.4882667660713196,-1.3062289953231812,-0.20306606590747833,-1.4691703682109083,-0.9386539738782386,1.0264811931243563
1687009194.799643,-0.5433422327041626,0.8387792706489563,0.03504914417862892,-1.109657645225525,-0.09642404317855835,-0.4562375545501709,0.04429883137345314,-2.2109999656677246,1.3188769817352295,-1.6352136443306404,-0.9950373267508117,0.9574235739984548
1687009194.804239,-0.48808324337005615,0.8682664632797241,0.0888136476278305,-0.9544521570205688,-0.35723447799682617,0.0452955961227417,-0.0033255480229854584,-2.2891175746917725,1.0718919038772583,-1.7507911180484366,-1.0516972145075902,0.9592533113523772
1687009194.892426,-0.4472449719905853,0.8840521574020386,0.13573284447193146,-0.5343986749649048,0.0691947340965271,-0.23790587484836578,-0.9135195016860962,-0.3807128369808197,0.4577563405036926,-1.8654487370449528,-1.08446219880494,0.8887082687049503
1687009194.914036,-0.4443187415599823,0.8869749903678894,0.12591977417469025,-0.18585392832756042,0.2647581696510315,0.026194915175437927,0.28817495703697205,1.0202845335006714,-0.1701861470937729,-1.8469547322573032,-1.0907532127774604,0.8905149972689385
1687009194.9794621,-0.4570605456829071,0.8852231502532959,0.08646233379840851,0.015272796154022217,-0.04246491193771362,0.009286411106586456,-0.17536215484142303,1.1845858097076416,-0.07727857679128647,-1.757757472839986,-1.0869734822577064,0.9262888682956829
1687009194.996584,-0.4645201563835144,0.8832433819770813,0.06404516100883484,0.10924983024597168,-0.0220833420753479,0.08755075186491013,-0.09824120998382568,0.6577301025390625,-0.1830310970544815,-1.7078063397272247,-1.0827345638934502,0.9288034703113606
1687009195.039767,-0.46818438172340393,0.8798708915710449,0.08142741769552231,0.12715044617652893,-0.07963907718658447,0.026009559631347656,-0.4104688763618469,-0.2659812271595001,0.1050182655453682,-1.7429955427382997,-1.075590503634633,0.8782404269910564
1687009195.126275,-0.45646244287490845,0.8855698704719543,0.08606897294521332,0.13869816064834595,-0.2149614691734314,-0.03452491760253906,0.6477888226509094,-0.6801433563232422,0.36950477957725525,-1.757164734923185,-1.0877194132958226,0.8891174379996192
1687009195.129911,-0.4267714023590088,0.8986297845840454,0.10163937509059906,0.05941605567932129,-0.09107375144958496,0.042144060134887695,-1.2667287588119507,-0.8124485611915588,0.7695000767707825,-1.8045996743734762,-1.116636204375578,0.8793566989675949
1687009195.19172,-0.38156282901763916,0.9053511023521423,0.18641014397144318,-0.10066062211990356,0.16314536333084106,-0.0510343462228775,-0.7300003170967102,-0.44115421175956726,0.8901444673538208,-2.0252370386718512,-1.1322058113526907,0.6764540896937438
1687009195.27816,-0.36098572611808777,0.9024279117584229,0.23518668115139008,-0.020941734313964844,0.19966846704483032,0.061001524329185486,-1.982641577720642,0.15581956505775452,0.1049245223402977,-2.148234011524948,-1.1253720087362378,0.5424016379688639
1687009195.29908,-0.362022340297699,0.879990816116333,0.30749937891960144,-0.025337278842926025,0.18401968479156494,-0.09363234043121338,-1.087481141090393,0.88066565990448,0.21235430240631104,-2.274938123149545,-1.0758429170688926,0.3712886153269169
1687009195.34096,-0.34111547470092773,0.8776575326919556,0.3366851806640625,0.2315269112586975,-0.47055327892303467,-0.3228152096271515,-1.1229944229125977,-0.20325443148612976,1.1478955745697021,-2.3496583055487714,-1.070952781329956,0.2600634673806444
1687009195.466902,-0.25147151947021484,0.8816837668418884,0.3992440402507782,0.19812676310539246,-0.6138614416122437,-0.4789256453514099,-0.4898061752319336,-1.548247218132019,2.2047276496887207,-2.5794995661363664,-1.0794188608244404,0.04862708656218851
1687009195.47193,-0.09143508970737457,0.8874729871749878,0.4516979455947876,0.18489514291286469,-0.7575139999389648,-0.5320204496383667,-2.3543648719787598,-2.5109779834747314,2.9505650997161865,-2.9418661686029375,-1.0918326892935344,-0.24509405334722625
1687009195.554435,0.1341906636953354,0.8054418563842773,0.5772835612297058,0.3742626905441284,-0.14165395498275757,-0.5962961316108704,-2.467646598815918,-4.7101054191589355,3.2213218212127686,2.9131967940742363,-0.936420615558812,-0.5440210903552108
1687009195.5606608,0.39021503925323486,0.5626226663589478,0.7288264036178589,0.34516701102256775,-0.506470263004303,0.2404422163963318,-11.643649101257324,-6.226650238037109,0.88975590467453,2.650026217381561,-0.5975547729270414,-0.5290893360342438
1687009195.644267,0.6519632935523987,0.2576202154159546,0.713144838809967,0.4921407103538513,1.038812279701233,-0.1761118769645691,-0.54189133644104,-7.204280853271484,-1.9301478862762451,2.400982623542783,-0.26055847828221207,-0.24250730822191205
1687009195.6661181,0.8446350693702698,0.4143333435058594,0.33899784088134766,1.5864105224609375,-0.4206961989402771,0.8165501356124878,5.018677234649658,-7.512844085693359,1.716661810874939,1.9524695907963907,-0.42721020144014576,-0.4550082856425447
1687009195.727401,0.9356345534324646,0.3480367362499237,0.05880502238869667,0.8916967511177063,0.3770456314086914,0.9274619817733765,-3.6170814037323,-5.101064682006836,0.8918489217758179,1.6335641818149353,-0.3554761108012906,-0.45858864171157004
1687009195.744937,0.9453387260437012,0.32548949122428894,-0.019769910722970963,-0.2870595455169678,0.20263239741325378,0.3037359118461609,-2.082183361053467,-0.8845323324203491,0.10090953856706619,1.5498863311817308,-0.3315293535612279,-0.281874797829684
1687009195.7874951,0.9437461495399475,0.32756924629211426,-0.0451812818646431,-0.002996206283569336,-0.08159756660461426,0.5765990614891052,-0.44659826159477234,-0.7384070754051208,0.019490309059619904,1.5229584510670229,-0.33372971310284266,-0.25132007231980946
1687009195.877459,0.9438350796699524,0.3217933475971222,-0.07499440759420395,0.07450586557388306,-0.12332227826118469,0.4356968402862549,-1.1456947326660156,-0.6874939799308777,0.1842542290687561,1.4915057992750187,-0.32762296656139245,-0.21919003122875635
1687009195.896074,0.9447299838066101,0.3200265169143677,-0.07119053602218628,-0.04404956102371216,0.08069980144500732,0.186806321144104,-0.5513263940811157,0.1377987563610077,0.046996235847473145,1.495583045634468,-0.32575747110943243,-0.1705501213470108
1687009195.936662,0.9455796480178833,0.3220290243625641,-0.046650711447000504,-0.06368273496627808,0.012794584035873413,0.05090785026550293,-0.643042802810669,0.4265340268611908,0.01204118225723505,1.5215007253180308,-0.3278718905778291,-0.13642694208893247
1687009196.0265799,0.9457773566246033,0.3243362307548523,-0.01763397455215454,-0.0330120325088501,0.06087186932563782,0.053614139556884766,0.03892616927623749,0.6099725365638733,-0.1057797223329544,1.5521535339686077,-0.3303099484592363,-0.11906581160129938
1687009196.03019,0.9441028237342834,0.32964298129081726,0.0023015171755105257,0.0527384877204895,0.01407650113105774,-0.11152398586273193,0.499189168214798,0.4932122230529785,-0.13216632604599,1.573234104347524,-0.33592540018396627,-0.1414614312875464
1687009196.087638,0.9410252571105957,0.33780694007873535,0.018913453444838524,-0.07431089878082275,0.01697516441345215,-0.09822869300842285,0.5431137084960938,0.4971756935119629,-0.18247103691101074,1.590892394109011,-0.3445858837400885,-0.1638208679425669
1687009196.176517,0.9377628564834595,0.3459452688694,0.030371293425559998,-0.016422033309936523,-0.06112474203109741,-0.1836763620376587,0.13165603578090668,0.15261390805244446,-0.09460057318210602,1.6031719744351696,-0.3532460890497037,-0.17693389651135943
1687009196.196045,0.9365336298942566,0.34923821687698364,0.030614417046308517,0.03464239835739136,-0.05239373445510864,-0.038991570472717285,0.10012926906347275,-0.03556264936923981,-0.017014702782034874,1.6034737645114099,-0.3567579988291151,-0.18510276220188043
1687009196.2375221,0.9382802844047546,0.34541743993759155,0.01779387705028057,0.03829735517501831,-0.02804991602897644,0.016690969467163086,-0.06708036363124847,-0.29527199268341064,0.12709534168243408,1.5897584050697717,-0.35268358088668783,-0.19114338472632098
1687009196.329387,0.9411787390708923,0.3378599286079407,0.005738869309425354,0.01376187801361084,-0.0036925077438354492,-0.09857332706451416,0.24657291173934937,-0.347063809633255,0.2223512828350067,1.5768937850210911,-0.3446422046477892,-0.1883680464389092
1687009196.332885,0.9448283314704895,0.3271775245666504,-0.01593850925564766,0.012553691864013672,-0.005735903978347778,0.05509251356124878,0.08202070742845535,-0.3282022178173065,0.1764461100101471,1.5539287150233116,-0.333315157803504,-0.2043549670896243
1687009196.391069,0.9471802115440369,0.3189586400985718,-0.03338680788874626,-0.03952658176422119,0.019359201192855835,0.032700065523386,0.16169017553329468,-0.2663121223449707,0.13202618062496185,1.535562282100218,-0.32463052881290855,-0.21293305961535314
1687009196.479945,0.9486896395683289,0.3137117922306061,-0.039658498018980026,-0.04318737983703613,-0.005514740943908691,0.034561991691589355,-0.23686513304710388,-0.14386169612407684,0.14791806042194366,1.5290172058034026,-0.3190996390036985,-0.20523010257443453
1687009196.484177,0.9498761892318726,0.3104057013988495,-0.03719719499349594,0.02166616916656494,0.0389900803565979,0.06603628396987915,-0.28862419724464417,0.013012610375881195,0.05112653598189354,1.531656280117329,-0.31561979846249794,-0.18563684354005577
1687009196.572737,0.9499491453170776,0.31084099411964417,-0.03121100552380085,0.007432818412780762,0.06319764256477356,0.07121951133012772,0.18816526234149933,0.2044946849346161,-0.0409298911690712,1.5379526925695157,-0.3160777316716527,-0.18262644627494032
1687009196.594557,0.9498955607414246,0.3116459250450134,-0.023979727178812027,0.05369013547897339,0.04370075464248657,0.02422386407852173,0.32353195548057556,0.16704225540161133,0.018299877643585205,1.545557094200348,-0.31692472344388306,-0.19332956085769148
1687009196.6280332,0.9496714472770691,0.31281420588493347,-0.01647382229566574,0.029683351516723633,0.07820752263069153,-0.028875350952148438,-0.22795160114765167,0.11327730119228363,-0.08122404664754868,1.5534512016429967,-0.3181544878334921,-0.1910971437315108
1687009196.691949,0.9472365379333496,0.3204938769340515,-0.0051389592699706554,-0.01820528507232666,0.050340473651885986,-0.048327863216400146,0.028567802160978317,0.2415875941514969,-0.21162599325180054,1.5653711677317792,-0.326250821340986,-0.18765334686588553
1687009196.7789521,0.9438929557800293,0.3302432596683502,0.0022973716259002686,0.04864537715911865,-0.02285495400428772,-0.10695743560791016,0.4070832133293152,0.22362948954105377,-0.21765032410621643,1.5732302542247616,-0.3365612693597554,-0.2022838557184373
1687009196.7825751,0.9412246942520142,0.3377804160118103,0.0005791626172140241,0.005445718765258789,-0.1226162314414978,-0.038878798484802246,0.24829010665416718,-0.06192128360271454,-0.07776859402656555,1.5714116554861268,-0.34455772355120406,-0.22019387058538303
1687009196.842812,0.9407520294189453,0.33902978897094727,-0.006651450414210558,-0.023332715034484863,-0.07738736271858215,-0.04336690902709961,0.010930219665169716,-0.17842993140220642,0.019090037792921066,1.5637260897197618,-0.34588542893663077,-0.22080773663732922
1687009196.930814,0.9411534070968628,0.33779287338256836,-0.011226833797991276,0.010704994201660156,-0.05477285385131836,0.050808072090148926,0.08302545547485352,0.02816719561815262,0.02146104723215103,1.5588680899007232,-0.3445709608721904,-0.22383735995375642
1687009196.935565,0.9399728178977966,0.34120413661003113,0.005524663254618645,0.05047500133514404,0.013776332139968872,0.39205825328826904,-0.521714985370636,0.9059606790542603,-0.3089011609554291,1.5766737299907105,-0.3481976153650667,-0.2231403495513726
1687009196.9910011,0.9207751750946045,0.3724600076675415,0.11595934629440308,0.11952328681945801,0.23555698990821838,0.34590888023376465,-0.7234042286872864,3.2757983207702637,-1.3342278003692627,1.6960734564377158,-0.3816583569738727,-0.18839104305097146
1687009197.082772,0.8374850749969482,0.4371534287929535,0.32789525389671326,0.5244227051734924,0.5615953207015991,0.6395272016525269,-1.24140465259552,4.793802261352539,-2.126720905303955,1.943974271018359,-0.45243120334601955,-0.07960848305793443
1687009197.087967,0.6843523979187012,0.528626024723053,0.5022116303443909,0.6248059272766113,0.2344813346862793,-0.003096640110015869,2.7484076023101807,5.112307071685791,-1.5462816953659058,2.203880718785495,-0.5569811308672732,-0.07748323672251055
1687009197.142339,0.4985804557800293,0.6501142382621765,0.5733832716941833,0.33293184638023376,0.040315330028533936,0.20011502504348755,3.9480316638946533,5.458472728729248,-0.9868000149726868,2.425862675976863,-0.707734805156162,-0.15553188130854087
1687009197.26633,0.2941933274269104,0.780682384967804,0.5513486266136169,0.4519461393356323,-0.03855586051940918,0.3182191252708435,2.7616684436798096,5.486807823181152,-1.7826052904129028,2.651436621581001,-0.8957570531457802,-0.22951233844986724
1687009197.272485,0.06394631415605545,0.8725164532661438,0.4843817353248596,0.31158769130706787,0.03509145975112915,0.28221964836120605,2.7964415550231934,4.911576271057129,-2.8436641693115234,3.0103353078894295,-1.06032941926542,-0.11097419924506657
1687009197.357712,-0.18709395825862885,0.9154461622238159,0.35630562901496887,0.44017621874809265,-0.034754812717437744,0.09720060229301453,2.549488067626953,4.131354808807373,-3.7597782611846924,-2.6580719651485785,-1.1566150954976775,0.31721101987565664
1687009197.3792949,-0.4159870147705078,0.8900176286697388,0.186609148979187,0.4471607804298401,-0.08365190029144287,0.28832054138183594,1.7455917596817017,3.591966152191162,-4.184267997741699,-1.9924801339508413,-1.097383842622442,0.8428697371972694
1687009197.438517,-0.5863608121871948,0.8100177049636841,0.007210821844637394,0.4352226257324219,-0.9230855107307434,-0.19109463691711426,3.3596901893615723,2.8385143280029297,-3.165684223175049,-1.583093291027063,-0.9441823517635595,1.1435441309626806
1687009197.44211,-0.6770210862159729,0.689501166343689,-0.25735265016555786,0.8488198518753052,0.306943416595459,-0.03573828935623169,5.00246000289917,3.8062636852264404,-1.6652954816818237,-1.2075400830313154,-0.7608001070956002,1.4234255158437825
1687009197.5291991,-0.6651064157485962,0.7165731191635132,-0.21013377606868744,0.5496127605438232,-1.2205862998962402,-0.3783367872238159,-3.2568211555480957,-0.19660919904708862,1.7604138851165771,-1.2647805137948374,-0.7988768405933041,1.232943626735037
1687009197.548777,-0.5823974013328552,0.7939471006393433,-0.17453041672706604,0.2761078476905823,-0.9123097658157349,0.11949189007282257,-3.790865421295166,0.08094838261604309,2.410588026046753,-1.2796369733686237,-0.9172738410923644,1.1819531586875764
1687009197.5910149,-0.5033279061317444,0.8567142486572266,-0.11270034313201904,-0.03645169734954834,1.3236901760101318,0.040404096245765686,0.5193966627120972,-0.32827454805374146,1.148260474205017,-1.3505192465981242,-1.0288652811807837,1.1290308717071371
1687009197.678879,-0.47453901171684265,0.8784559369087219,-0.05592702329158783,-0.21271681785583496,0.5694504976272583,-0.0823940634727478,-0.9049752950668335,-0.37084051966667175,0.34338289499282837,-1.453482007862657,-1.072621032233171,1.0342695764278567
1687009197.682626,-0.475647896528244,0.8781195878982544,-0.051625799387693405,-0.14686498045921326,-0.10335451364517212,-0.11097199469804764,-0.04609225317835808,-0.11952705681324005,-0.2104470133781433,-1.4626816971332526,-1.0719175643117511,1.0318076013528568
1687009197.805768,-0.4838239550590515,0.8741429448127747,-0.04229001700878143,-0.0419328510761261,-0.09893554449081421,-0.1312025785446167,0.2130824625492096,0.08863866329193115,-0.09564612805843353,-1.483610052289945,-1.0636683309827653,1.0077812475398222
1687009197.812784,-0.4862577021121979,0.8717105388641357,-0.060615379363298416,0.06806007027626038,-0.022665798664093018,0.002204596996307373,0.06450369954109192,0.03651806712150574,0.010609201155602932,-1.446779161508956,-1.0586822852424622,1.044062362593302
1687009197.894177,-0.48737335205078125,0.8718229532241821,-0.048907194286584854,0.08664706349372864,0.19923710823059082,0.0011775493621826172,-0.022706037387251854,0.09570549428462982,-0.09105271100997925,-1.4707826126942338,-1.0589118042906782,1.0129351017565158
1687009197.9161139,-0.49495741724967957,0.8665598630905151,-0.06396253407001495,0.07355546951293945,-0.03574937582015991,0.09370177984237671,0.07137944549322128,0.11522699892520905,-0.20235180854797363,-1.4422802258325396,-1.0482674157735,1.0376834904905101
1687009197.979882,-0.5024152398109436,0.8627930283546448,-0.0562763437628746,0.01584303379058838,-0.023605525493621826,0.007097125053405762,-0.10036594420671463,-0.08242669701576233,-0.15534567832946777,-1.4592496753369208,-1.0407685746926898,1.0168005295547433
1687009197.9976301,-0.507160484790802,0.8605545163154602,-0.04726482182741165,-0.14297062158584595,-0.11768049001693726,0.008934620767831802,-0.3241460621356964,-0.12979473173618317,-0.06634123623371124,-1.477869741591606,-1.0363573050487425,1.0024529405976366
1687009198.042656,-0.5108611583709717,0.8587351441383362,-0.03993261232972145,-0.2582123279571533,-0.024705111980438232,-0.1216733455657959,0.4691520929336548,0.03606639429926872,-0.18122920393943787,-1.49278769794413,-1.0327961471364024,0.9916503226814605
1687009198.129436,-0.523112416267395,0.8502293825149536,-0.05885116755962372,-0.27696692943573,-0.08794611692428589,-0.18034577369689941,-0.089131198823452,0.05034533515572548,-0.3255288600921631,-1.4587654348001762,-1.0164208338792273,1.024771527237623
1687009198.147572,-0.5402730703353882,0.8381264209747314,-0.07516133040189743,-0.3418681025505066,0.08663249015808105,-0.1522405743598938,0.8177658915519714,0.31080901622772217,-0.589867353439331,-1.4325662174127574,-0.9938393707273706,1.044709468047682
1687009198.2213311,-0.5616925954818726,0.8219494223594666,-0.09434238076210022,-0.37733322381973267,-0.1097760796546936,-0.21130657196044922,-0.35583072900772095,0.21564707159996033,-0.43789801001548767,-1.404388693115042,-0.9648253316455115,1.0659781229718672
1687009198.2248502,-0.5623074769973755,0.8179506659507751,-0.12151876837015152,-0.38921529054641724,-0.0011631250381469727,-0.303316593170166,2.6834118366241455,0.21598024666309357,0.2491956651210785,-1.3579619958979516,-0.9578397070506027,1.1140816210200113
1687009198.2798939,-0.5376601815223694,0.8105413317680359,-0.23225876688957214,-0.44673001766204834,-0.6326392292976379,-0.14915001392364502,0.9693345427513123,0.4531398117542267,1.699826955795288,-1.163027941586896,-0.9450758184268488,1.3358239150645417
1687009198.341229,-0.41463592648506165,0.8706541061401367,-0.2646476924419403,-0.23680752515792847,-0.5211821794509888,0.18844521045684814,0.8446049094200134,-0.8919614553451538,4.263365268707275,-1.0027147714441478,-1.0565305254035673,1.548513756024933
1687009198.431487,-0.15838487446308136,0.9466161727905273,-0.28077003359794617,1.1125627756118774,-0.12709730863571167,-0.3021005094051361,1.4104875326156616,-1.0504348278045654,7.283481597900391,-0.5136108299256441,-1.242571738083835,2.1210246177215293
1687009198.4518561,0.1486814171075821,0.9280988574028015,-0.34135928750038147,2.9449312686920166,0.6273209452629089,0.8236742615699768,-3.0538511276245117,-5.361924171447754,5.130197525024414,0.41077838827519336,-1.1892739620783097,-3.036304972241847
1687009198.6175032,0.09653738886117935,0.9891294240951538,0.11092185229063034,-1.5361584424972534,1.6469180583953857,-0.894598126411438,5.0803093910217285,4.843299865722656,-1.685085654258728,2.425420025236263,-1.4232136415205323,-0.8657346421013071
1687009198.6228771,0.06498324126005173,0.9437245726585388,-0.32428544759750366,0.1668740212917328,-2.5648794174194336,0.8449457883834839,2.318073034286499,0.5425015091896057,0.23617547750473022,0.1977695871664673,-1.233716716725483,3.0250681537707247
1687009198.669987,0.04371847212314606,0.9883294105529785,-0.1459227055311203,-0.28973597288131714,0.7713139653205872,0.04922761023044586,-2.247936725616455,-0.6492030024528503,0.19912000000476837,0.29108997383668633,-1.417869079295568,-3.077854440026652
1687009198.673637,0.03339005634188652,0.9861429333686829,-0.16250237822532654,0.3138694167137146,-0.2245463728904724,-0.0340462327003479,0.8569300770759583,-0.45813295245170593,-0.3512108027935028,0.20265369911629272,-1.404127857762325,3.0892959823266017
1687009198.677435,0.013642426580190659,0.9810922741889954,-0.19305817782878876,-0.02380482107400894,0.0007038116455078125,-0.1990470141172409,1.05963134765625,0.06221970543265343,-0.1709723025560379,0.07054757541589732,-1.3760267331438476,2.964277062133291
1687009198.729106,0.004399214405566454,0.9750802516937256,-0.22180883586406708,-0.09485335648059845,-0.16555571556091309,0.03298118710517883,-0.3310260474681854,-0.23121137917041779,-0.1816936582326889,0.019830760092442737,-1.3470825659219587,2.9232819479185768
1687009198.792078,-0.005211299285292625,0.9805870652198792,-0.19601446390151978,-0.02567252703011036,-0.0434381365776062,0.06932063400745392,-0.2054276466369629,-0.1855384260416031,-0.036586541682481766,-0.026580038549115757,-1.3734332201473527,2.8932364549645957
1687009198.8810859,-0.005566741805523634,0.9775199890136719,-0.2107689529657364,0.01858244463801384,-0.062282681465148926,0.14428628981113434,0.5360619425773621,-0.06104284152388573,-0.02191838249564171,-0.026405444189082916,-1.358359172671005,2.898821793698495
1687009198.901537,-0.006164066027849913,0.9769273400306702,-0.2134823054075241,0.06790108233690262,-0.1381824016571045,0.042843177914619446,-0.2471390664577484,0.021268408745527267,-0.014038088731467724,-0.028865876962118037,-1.3555666096438201,2.895601669113073
1687009198.9411778,-0.012620425783097744,0.9788743257522583,-0.20407219231128693,0.06305068731307983,-0.1751331090927124,0.06732282042503357,-0.26433518528938293,0.8749876618385315,-0.4862588942050934,-0.06176428642271841,-1.3648813767618098,2.843997526256391
1687009199.0297298,-0.043301280587911606,0.984473705291748,-0.17010700702667236,0.19489730894565582,-0.1717296838760376,-0.0053539276123046875,-0.9497705698013306,1.5123497247695923,-1.1154805421829224,-0.24925939323607352,-1.3943501294720462,2.5948775597550635
1687009199.0486898,-0.0952693298459053,0.9875321388244629,-0.12531505525112152,0.4030085802078247,-0.16839468479156494,0.06148739159107208,-1.4356681108474731,1.2924693822860718,-1.4381057024002075,-0.6500216226697905,-1.4127211327537004,2.1105921871051474
1687009199.08807,-0.15476290881633759,0.9826560020446777,-0.10215512663125992,0.2805105447769165,0.398188054561615,-0.4518153667449951,1.1601446866989136,1.2049108743667603,-1.4282435178756714,-0.9873711105838514,-1.3842788356948768,1.706199468114546
1687009199.179316,-0.22865165770053864,0.9597306251525879,-0.1632039099931717,0.28254568576812744,-0.24781668186187744,0.36710697412490845,-0.621843695640564,0.03387701138854027,-1.5484428405761719,-0.9508906935510665,-1.2860418252327264,1.7094971113877107
1687009199.183008,-0.2970040738582611,0.9509979486465454,-0.0859730988740921,0.4253457486629486,0.55879807472229,0.21786993741989136,-1.4520366191864014,0.3313242793083191,-1.5730878114700317,-1.289029935304828,-1.2564475485114037,1.3395057315223688
1687009199.244084,-0.3589056134223938,0.9310508370399475,-0.06580974906682968,0.0464666485786438,-0.03474968671798706,0.18720853328704834,0.2836986184120178,0.28626638650894165,-0.9494305849075317,-1.3894485621007764,-1.1972822778449341,1.223548480633742
1687009199.262605,-0.40350475907325745,0.9132626056671143,-0.05599392578005791,-0.055861085653305054,-0.013634979724884033,0.33892226219177246,-0.7932003736495972,0.346838116645813,-0.8351426124572754,-1.4329079839387036,-1.1512223585360368,1.1520061919383429
1687009199.294894,-0.436781108379364,0.8990659713745117,0.030045248568058014,0.05413639545440674,-0.11186504364013672,-0.12077414989471436,-1.9997953176498413,-0.3481453061103821,-0.3770434558391571,-1.6394760249867908,-1.11763144983687,0.91691897539102
1687009199.363105,-0.43432432413101196,0.8985840678215027,0.06252079457044601,-0.41588011384010315,0.024770915508270264,-0.6531429290771484,1.268759846687317,-0.9440093636512756,0.36083486676216125,-1.7137637907889047,-1.1165319407113499,0.8683436134703895
1687009199.42207,-0.3981785774230957,0.9155794382095337,0.0562853142619133,-0.5575709342956543,-0.668646514415741,-0.3375202417373657,-1.1910438537597656,-1.3520251512527466,1.7298474311828613,-1.7112228952248083,-1.1569464416596236,0.9358797355647154
1687009199.481287,-0.32644686102867126,0.930287778377533,0.16732241213321686,-0.5665584802627563,0.3502907156944275,-0.2225898653268814,-0.8115058541297913,0.13320252299308777,1.1492210626602173,-2.044438487668029,-1.1951965620751293,0.6054408322243295
1687009199.540664,-0.31284648180007935,0.9446503520011902,0.0988050252199173,-0.5271803140640259,0.185735821723938,-0.13934779167175293,1.241191029548645,1.2287883758544922,-0.3366081416606903,-1.876708320579684,-1.2365272191954035,0.7481668338524609
1687009199.62883,-0.3374129831790924,0.9400966763496399,0.04868948832154274,-0.10171970725059509,0.28736603260040283,-0.022398710250854492,1.4242820739746094,0.7756857872009277,-0.6084327697753906,-1.7141094019571386,-1.2229137229888227,0.8645646940584639
1687009199.649428,-0.3759879171848297,0.9257444143295288,-0.040374912321567535,0.1607169508934021,-0.23473501205444336,0.2393646240234375,0.6127904057502747,0.6009775996208191,-0.7455690503120422,-1.4638227105488744,-1.1829994057793072,1.0930163943855407
1687009199.69193,-0.393443763256073,0.9185022711753845,-0.03943575918674469,0.16186121106147766,-0.14004486799240112,0.21189045906066895,-0.13725730776786804,0.18564456701278687,-0.20832127332687378,-1.4708977150532094,-1.1642758616591828,1.0664093370063878
1687009199.746938,-0.3921351134777069,0.919414222240448,-0.030125580728054047,0.11833134293556213,-0.2141072154045105,0.0993545651435852,-0.765047013759613,0.15952281653881073,0.28556567430496216,-1.4941224422384576,-1.1665884536302742,1.031530125131022
1687009199.838828,-0.37678831815719604,0.9262881278991699,0.004538062959909439,0.03793641924858093,0.17768514156341553,-0.08739340305328369,-0.059760190546512604,-0.37939873337745667,0.228324756026268,-1.5828398093585665,-1.1844397919823193,0.944315566350351
1687009199.842205,-0.3746461868286133,0.926964282989502,0.019430648535490036,-0.014132529497146606,0.030524790287017822,-0.09911215305328369,-0.5081740021705627,-0.4776785373687744,0.00410096812993288,-1.6226138976118054,-1.1862381364246481,0.9214921850724681
1687009199.931716,-0.37240874767303467,0.9271248579025269,0.04184476658701897,-0.10757172107696533,0.1091604232788086,-0.054463982582092285,-0.024413656443357468,-0.1352939009666443,-0.013727297075092793,-1.6826894806475368,-1.186666439005915,0.8782274816488026
1687009199.95394,-0.37605294585227966,0.9256338477134705,0.04225936532020569,0.012237727642059326,0.008036017417907715,-0.03745293989777565,-0.09249730408191681,0.1354072242975235,-0.06549515575170517,-1.6827029341913313,-1.1827070856833652,0.8760423644467754
1687009200.01719,-0.37677621841430664,0.925125241279602,0.04672256112098694,0.04678964614868164,-0.021850764751434326,-0.010513663291931152,-0.319607675075531,0.10962516814470291,0.04318205639719963,-1.6941726241706987,-1.1813653005677913,0.8551685839730896
1687009200.020206,-0.3721315860748291,0.9245452284812927,0.08206169307231903,0.0511019229888916,-0.11302191019058228,-0.15216064453125,-1.074623703956604,-0.24197068810462952,0.19379927217960358,-1.7878406174854957,-1.1798404671334655,0.7571447497380515
1687009200.080245,-0.3535448908805847,0.9239162802696228,0.14623501896858215,0.21868771314620972,-0.2294735312461853,-0.3348337411880493,-0.8139368295669556,-1.0037479400634766,0.5654923915863037,-1.9629929614677768,-1.178193343692054,0.5967815100138878
1687009200.167772,-0.2957437038421631,0.9426903128623962,0.15450015664100647,0.284742146730423,-0.36329901218414307,-0.3076070547103882,1.1449772119522095,-1.8284785747528076,1.4609695672988892,-2.0522125882842635,-1.2306034075195682,0.5808037149193913
1687009200.1710448,-0.18153682351112366,0.9662790298461914,0.182617649435997,0.40172111988067627,-0.7195597290992737,-0.22918760776519775,-1.2085355520248413,-2.6007602214813232,2.819897413253784,-2.3591625127099345,-1.3103650669567335,0.3713671794600464
1687009200.2295809,0.01597621478140354,0.9600211381912231,0.2794703543186188,0.3275296092033386,-0.6388696432113647,-0.11804789304733276,-3.0426459312438965,-3.394684076309204,3.638417959213257,3.084488761485789,-1.287077669567688,-0.3393375110963005
1687009200.291904,0.2674313187599182,0.8581644296646118,0.4382171928882599,0.6403597593307495,-0.23716217279434204,-0.037399351596832275,-2.471067190170288,-5.411015510559082,3.8696775436401367,2.593655056931982,-1.031683422733049,-0.638649406781466
1687009200.387045,0.5467294454574585,0.7701725959777832,0.3285130560398102,0.37778520584106445,-0.2879796624183655,0.04474732279777527,0.6322299838066101,-4.8116559982299805,4.992107391357422,2.1118549293048945,-0.8791116894866859,-0.9165838674858235
1687009200.391978,0.7983925938606262,0.5793118476867676,0.16421571373939514,0.9897541999816895,0.12964195013046265,0.227828249335289,-1.3504981994628906,-6.142519474029541,5.645059108734131,1.7736501963315832,-0.6178842057333291,-1.0021819016435929
1687009200.4691029,0.9316563010215759,0.3572966456413269,-0.0659964308142662,1.6135554313659668,0.11468824744224548,1.283266305923462,-6.240865230560303,-7.025786876678467,3.930475950241089,1.5000767189161068,-0.3653718730765327,-0.8615826332639543
1687009200.473037,0.9352250099182129,0.3253938555717468,-0.13954490423202515,-0.29688894748687744,0.6854856610298157,0.7819093465805054,-8.197517395019531,-1.4385710954666138,0.5277490019798279,1.42267911279141,-0.33142822123002136,-0.37531551698254917
1687009200.5277262,0.9398561716079712,0.31379154324531555,-0.1349257528781891,0.06636923551559448,0.14061519503593445,0.2975233793258667,0.06260813027620316,-0.5418186783790588,0.7253488898277283,1.4282105362127575,-0.3191836317686003,-0.2391188589899732
1687009200.621605,0.9415733814239502,0.3024761378765106,-0.148147851228714,-0.1494133472442627,0.10945016145706177,0.2928926944732666,-1.3581972122192383,-0.735808789730072,0.14194618165493011,1.4147350121136626,-0.307289420452935,-0.18549793833319636
1687009200.6260262,0.9367145299911499,0.30534669756889343,-0.17125818133354187,-0.0560382604598999,0.23473817110061646,0.252267062664032,0.8962842226028442,-0.2695852816104889,-0.09126576036214828,1.3899649434949082,-0.31030249853897507,-0.16945764552665266
1687009200.681104,0.9355347752571106,0.30201256275177,-0.18320269882678986,0.031201064586639404,0.07260599732398987,0.24471084773540497,0.8673828840255737,0.34142762422561646,-0.16142940521240234,1.3774167496484255,-0.30680310689890583,-0.22578581692107558
1687009200.769248,0.9358944892883301,0.30663546919822693,-0.17342516779899597,0.008182108402252197,-0.05105072259902954,0.1594175547361374,0.004480776377022266,0.3705560863018036,-0.2058219015598297,1.387570451657698,-0.3116561921549194,-0.24954759137343502
1687009200.7731361,0.9358939528465271,0.3164873421192169,-0.1547190546989441,0.025363802909851074,-0.04221063852310181,-0.05345664918422699,0.23686935007572174,0.40107473731040955,-0.1772264689207077,1.406961261011035,-0.3220241805850688,-0.2526479284878191
1687009200.830284,0.9365248680114746,0.3194873332977295,-0.14439184963703156,-0.01838827133178711,-0.0740801990032196,-0.018739953637123108,0.18610364198684692,0.28886109590530396,-0.08646541088819504,1.4178225129027384,-0.32518840578180586,-0.2699976340224224
1687009200.920288,0.9376927018165588,0.3193550109863281,-0.13691118359565735,0.05295354127883911,-0.047183990478515625,-0.20590806007385254,0.5851580500602722,0.16921180486679077,0.006758536212146282,1.4258122298522335,-0.3250487923004718,-0.28824465799916393
1687009200.9242659,0.9385971426963806,0.3170328140258789,-0.13610844314098358,-0.017210543155670166,-0.1101541519165039,-0.122222900390625,-0.23955944180488586,0.0030590451788157225,0.023456022143363953,1.4267875301285762,-0.32259926800015704,-0.29918224066416144
1687009200.978723,0.9387645721435547,0.31421589851379395,-0.14138391613960266,-0.06136894226074219,-0.0004188716411590576,-0.11653544008731842,0.07525401562452316,-0.18139788508415222,0.08572472631931305,1.421313421948648,-0.3196305976413794,-0.2944973367176951
1687009201.1076021,0.9383331537246704,0.3097137212753296,-0.15364962816238403,-0.023172080516815186,0.01275026798248291,0.011864960193634033,-0.0968257337808609,-0.2908695340156555,0.0934353768825531,1.408489332518117,-0.3148919416244271,-0.2943404705450141
1687009201.1127958,0.9372767210006714,0.3085568845272064,-0.1621871441602707,0.028772294521331787,0.03333151340484619,-0.0023178905248641968,-0.10060982406139374,-0.23199208080768585,0.07337724417448044,1.3994522432617327,-0.31367551000209515,-0.28297020912353105
1687009201.2543259,0.9370349049568176,0.30328959226608276,-0.173150435090065,0.0483776330947876,0.019220173358917236,0.11361062526702881,0.22249646484851837,-0.09046504646539688,0.10761697590351105,1.3880719918697426,-0.30814296202782815,-0.2875867301866706
1687009201.260587,0.9379558563232422,0.29659906029701233,-0.17963199317455292,-0.02313053607940674,-0.06349056959152222,0.09935547411441803,0.23940813541412354,0.020329244434833527,0.10659459233283997,1.3815732098663525,-0.30112948838364145,-0.302168195891573
1687009201.345893,0.9402677416801453,0.2882864773273468,-0.1810731738805771,-0.020330607891082764,-0.035967081785202026,0.1746949404478073,-0.42999497056007385,-0.09134615212678909,0.22001515328884125,1.3805491375216405,-0.2924368472991962,-0.2999465668102525
1687009201.369213,0.9430707693099976,0.2843440771102905,-0.17252789437770844,0.06411606073379517,0.22459757328033447,-0.039111554622650146,0.11526580899953842,0.23081190884113312,0.029807928949594498,1.3898545277977068,-0.2883221967752209,-0.2776417346492964
1687009201.3718581,0.9443544149398804,0.2836613655090332,-0.1665259748697281,-0.07820463180541992,0.09048417210578918,-0.03141111135482788,0.18680430948734283,0.2185477912425995,-0.10441085696220398,1.3962523021233642,-0.28761014960189624,-0.29581317121842354
1687009201.4301162,0.9426544904708862,0.29323098063468933,-0.15942977368831635,-0.04829120635986328,0.02470111846923828,-0.13092975318431854,-0.3062579333782196,0.034976497292518616,-0.25511330366134644,1.4032532706330418,-0.2976046426355042,-0.29151149833192186
1687009201.4327822,0.9389395713806152,0.3064501881599426,-0.15646326541900635,-0.005559444427490234,0.01325199007987976,-0.09053082764148712,-0.06149224936962128,0.02831619791686535,-0.19648166000843048,1.4056752849408913,-0.31146155568155526,-0.28317976814911294
1687009201.519038,0.935783326625824,0.31474509835243225,-0.1588868349790573,0.025794923305511475,-0.03801169991493225,-0.1016417145729065,0.43120890855789185,-0.011882619932293892,-0.165732279419899,1.4026100878870384,-0.3201880897013924,-0.29205796344618457
1687009201.522725,0.9330840110778809,0.31804248690605164,-0.1679377555847168,0.01488339900970459,-0.10995838046073914,0.02511543035507202,-0.03378971293568611,-0.15124863386154175,-0.07976889610290527,1.3927214176977827,-0.3236640504621436,-0.3059864578499131
1687009201.580089,0.9312801361083984,0.3204062283039093,-0.17336943745613098,0.004815936088562012,-0.07110816240310669,0.08279325067996979,-0.2525619566440582,-0.07736042886972427,-0.041702739894390106,1.3867407631233766,-0.3261583059103918,-0.3005435939982945
1687009201.669318,0.9312161207199097,0.32070714235305786,-0.17315679788589478,0.007473945617675781,-0.04551488161087036,-0.0003814697265625,0.2189074605703354,0.026910580694675446,0.04460445046424866,1.3869491125415168,-0.32647596412347335,-0.2996240338979645
1687009201.672857,0.9341996312141418,0.3139874041080475,-0.1693599820137024,0.0048413872718811035,-0.05236023664474487,0.08497883379459381,-0.03931524232029915,0.11569224298000336,0.0837065801024437,1.3914552628507078,-0.31938994566825785,-0.3018987379258787
1687009201.7298079,0.9370591640472412,0.3073892295360565,-0.16562624275684357,0.026167213916778564,0.01359468698501587,0.02706114947795868,0.4634249806404114,0.09622321277856827,0.1612064391374588,1.395852090584486,-0.31244821378522547,-0.31006566462452306
1687009201.8241758,0.9403089880943298,0.3013676404953003,-0.15810325741767883,-0.057664334774017334,-0.007727473974227905,0.10703204572200775,-0.16421543061733246,0.2191668450832367,0.004133191891014576,1.40421478935984,-0.3061266462579605,-0.3146037215925565
1687009201.828692,0.9412709474563599,0.3062087595462799,-0.1422848403453827,-0.08041596412658691,0.1930130124092102,0.2720455527305603,-0.35812658071517944,0.5277113318443298,-0.2538461685180664,1.4207696762299864,-0.3112079200655425,-0.3111272556932017
1687009201.88069,0.9370436072349548,0.33916956186294556,-0.08314423263072968,0.02635037899017334,0.33659639954566956,0.5167837142944336,-0.7787018418312073,1.5953171253204346,-1.0059486627578735,1.4822977196726208,-0.3460340068512832,-0.2725360934447172
1687009201.971169,0.9114478826522827,0.40984368324279785,0.03592464700341225,0.12820953130722046,0.5214001536369324,0.5192968845367432,0.757845401763916,3.6663975715637207,-2.1108365058898926,1.6101908557691633,-0.42228269946032865,-0.2732626528796044
1687009201.9749131,0.8250256180763245,0.5296671986579895,0.1969405561685562,0.5747699737548828,0.5432546138763428,0.6342513561248779,3.6728878021240234,5.824748516082764,-2.7274792194366455,1.8051196993738614,-0.5582081392892188,-0.3595873074104362
1687009202.030264,0.6355029344558716,0.7137898802757263,0.2943460941314697,1.1878306865692139,0.5330514311790466,0.789821207523346,4.500215530395508,6.7295241355896,-4.1834893226623535,2.0045485701784655,-0.7948947023862807,-0.5656844595517515
1687009202.094662,0.3519805371761322,0.882608950138092,0.3116265833377838,1.014398217201233,-0.053904056549072266,0.37720075249671936,2.973618507385254,5.85706901550293,-4.683785438537598,2.295459268347724,-1.0813833235524273,-0.599940257881659
1687009202.181693,0.057600103318691254,0.9744647145271301,0.21702726185321808,0.8681048154830933,-0.20175963640213013,0.19471588730812073,2.9688029289245605,4.906860828399658,-4.71894645690918,2.8821686021429254,-1.3443247856167944,-0.26626134666527296
1687009202.203426,-0.19591404497623444,0.9770290851593018,0.08385618031024933,0.7683322429656982,-0.830132782459259,0.16243577003479004,1.4972528219223022,3.8994803428649902,-4.18873929977417,-1.9752266801923346,-1.3560433255296804,0.9622069588662753
1687009202.271676,-0.3896465301513672,0.9209378361701965,0.006992864888161421,0.7266674041748047,-0.4262937903404236,0.3491014242172241,0.7606232762336731,3.404012680053711,-3.554202079772949,-1.5887410882681103,-1.1704802313179254,1.1852850440304603
1687009202.2742949,-0.49190014600753784,0.8691484928131104,-0.051136936992406845,0.5755031108856201,-0.9940875768661499,-0.015696700662374496,-0.2772967517375946,1.6871412992477417,-1.8605847358703613,-1.4672104493233264,-1.053477879641223,1.2008036100150385
1687009202.394905,-0.5215992331504822,0.8504598140716553,-0.06820651143789291,0.20185136795043945,-0.4373130202293396,-0.3113102316856384,-0.6756097078323364,0.9303790330886841,-0.2000252604484558,-1.4407698843741699,-1.0168587981309687,1.1715209487817626
1687009202.418956,-0.5083752274513245,0.8610658645629883,-0.010960579849779606,0.15199100971221924,0.13899511098861694,-0.4822799563407898,-0.48435166478157043,-0.47928377985954285,0.4312906563282013,-1.549239647936906,-1.0373620737862088,1.035850646116783
1687009202.47908,-0.49618804454803467,0.8677141070365906,0.029490968212485313,-0.08785739541053772,0.0401533842086792,-0.08335471153259277,-1.9613808393478394,-0.2557040750980377,0.28477391600608826,-1.6301615553309916,-1.050584849147941,0.9562265872511156
1687009202.497098,-0.4878544807434082,0.8703374862670898,0.06715951859951019,-0.05688422918319702,0.23815232515335083,-0.22812461853027344,0.4049389064311981,-0.0957009568810463,-0.02420097589492798,-1.707599465590393,-1.0558872151605394,0.8796379139373294
1687009202.569933,-0.49121466279029846,0.8687748312950134,0.06275829672813416,-0.04670354723930359,0.06683313846588135,-0.1474447101354599,0.2438833862543106,-0.4468252956867218,-0.1933516561985016,-1.6978693637325246,-1.0527228660297234,0.9082920261820248
1687009202.572648,-0.5013603568077087,0.8620817065238953,0.07384288311004639,-0.031629085540771484,-0.031866371631622314,0.0004978179931640625,0.1021837666630745,-0.3745929002761841,-0.3159145712852478,-1.7170300061407633,-1.0393632307070266,0.9105227778823078
1687009202.629638,-0.5169177055358887,0.8537957668304443,0.061876583844423294,0.03892093896865845,-0.03647410869598389,0.08564519882202148,0.4598417282104492,-0.050987813621759415,-0.34188973903656006,-1.6899324283034152,-1.0232333517050929,0.9535741077070321
1687009202.760531,-0.5237610936164856,0.8501823544502258,0.05351749062538147,0.0766175389289856,-0.11806577444076538,-0.005299806594848633,-0.04184684157371521,-0.17346659302711487,0.010966331698000431,-1.6726221425584284,-1.0163316080485667,0.9779161226575925
1687009202.786335,-0.5187860131263733,0.85174161195755,0.07346523553133011,-0.059125304222106934,-0.0694846510887146,-0.05210305005311966,-0.35278815031051636,-0.15887606143951416,0.1315356194972992,-1.711470869804684,-1.0193002706145446,0.9460463564085503
1687009202.8397741,-0.5166798233985901,0.8527919054031372,0.07607890665531158,-0.1915263533592224,-0.03002268075942993,-0.041060082614421844,0.009722276590764523,0.16822803020477295,0.01192320417612791,-1.7169915498208976,-1.021308081828021,0.9361521729839798
1687009202.842454,-0.5206078290939331,0.8492346405982971,0.08813546597957611,-0.3671485185623169,0.04116135835647583,-0.052246928215026855,-0.8362970352172852,0.1721830815076828,-0.19312794506549835,-1.7384996446156995,-1.014534138177255,0.901087678363469
1687009202.9300342,-0.5290524363517761,0.8461021184921265,0.06491978466510773,-0.4496462345123291,0.07970952987670898,-0.11133718490600586,2.5133771896362305,0.4184378683567047,-0.390354722738266,-1.6928954759438612,-1.0086294768839497,0.9382674539881541
1687009202.950622,-0.5383034944534302,0.8416076898574829,-0.0438816174864769,-0.30945950746536255,-0.34415608644485474,0.012311045080423355,0.6640145778656006,0.6906279921531677,0.27396732568740845,-1.4894578193531285,-1.0002530691765446,1.1424505230958997
1687009202.990071,-0.49761807918548584,0.8673304915428162,-0.010671102441847324,-0.4052444398403168,-0.4665127396583557,0.1739247441291809,-1.73141348361969,0.017001625150442123,1.2503048181533813,-1.5493552502208878,-1.0498136292060671,1.0605188533767185
1687009203.078666,-0.4059058427810669,0.9138163924217224,0.013422924093902111,-0.1265954077243805,0.03528034687042236,-0.34247887134552,0.9455471634864807,-0.6059269309043884,2.599130392074585,-1.6038533394691508,-1.1525839030521707,1.0080638461636735
1687009203.098123,-0.21714146435260773,0.9755174517631531,-0.03485797345638275,0.006646484136581421,-0.7240527272224426,0.3527747392654419,2.5821564197540283,-0.29332107305526733,5.603994369506836,-1.4116232017574906,-1.3490617189785197,1.2460392011394235
1687009203.169924,0.09902363270521164,0.9772313833236694,-0.18765082955360413,2.5546934604644775,0.44935840368270874,-0.05505554378032684,1.2263596057891846,-3.035184860229492,6.551677703857422,0.48556248327993545,-1.3569949385009992,-3.04406689224542
1687009203.186459,0.1620413064956665,0.981156051158905,0.10523739457130432,-1.461052656173706,0.8549032211303711,-0.697843074798584,-8.783310890197754,1.443780779838562,-2.7756409645080566,2.1467833867169217,-1.3763563827987475,-1.1322002893903143
1687009203.227262,0.10031035542488098,0.9780408143997192,-0.18268455564975739,0.46664515137672424,-1.1831802129745483,0.32541513442993164,5.912508487701416,1.8322813510894775,1.221850037574768,0.5021446775501872,-1.3608439472631235,-2.992683657751046
1687009203.3190088,0.09352973103523254,0.9923334717750549,-0.08078668266534805,0.06087391823530197,-0.03563791513442993,-0.2599116563796997,-4.067431449890137,-2.7071263790130615,1.2136837244033813,0.8583713115363814,-1.4468904904806519,-2.549037067749776
1687009203.321881,0.08478038012981415,0.9920346736907959,-0.09316325187683105,0.16381576657295227,0.12413036823272705,-0.095816969871521,2.466298818588257,1.1206963062286377,-0.6385030746459961,0.7383232621934025,-1.4444957305098,-2.683720267389452
1687009203.380413,0.06420917809009552,0.9880287647247314,-0.14027145504951477,0.0266568586230278,-0.14296668767929077,0.0158664733171463,-0.029758287593722343,-0.5445569157600403,-0.2992791533470154,0.42927961492820593,-1.4159081366546376,-2.990111254015903
1687009203.469501,0.0509849451482296,0.9873270988464355,-0.15028490126132965,-0.05577625334262848,-0.1083904504776001,-0.0460805743932724,0.10451556742191315,-0.08485735952854156,-0.2082270085811615,0.3270707977515766,-1.4114240086913417,-3.0736442153304706
1687009203.490847,0.03683692216873169,0.9903533458709717,-0.13357891142368317,-0.040026046335697174,-0.06936335563659668,0.08734463155269623,-0.758443295955658,-0.45718327164649963,-0.2694091200828552,0.2690810023884394,-1.431784073640743,-3.115454050648861
1687009203.529982,0.029694950208067894,0.9930217862129211,-0.11412976682186127,0.012983836233615875,0.04570484161376953,0.013925202190876007,0.0951603427529335,-0.19009044766426086,-0.089007668197155,0.2545421326479132,-1.4525904436309753,-3.1194028400627447
1687009203.620707,0.020627792924642563,0.9918924570083618,-0.12539374828338623,0.047136448323726654,-0.09456896781921387,0.05283808708190918,-0.06698767840862274,-0.04134224355220795,-0.1578889936208725,0.16304387502584566,-1.4433717478804555,3.068446031331649
1687009203.624363,0.018739942461252213,0.9935353398323059,-0.11196572333574295,-0.052736565470695496,0.005747437477111816,0.018658101558685303,-0.385379821062088,0.03606266900897026,-0.017819244414567947,0.16583499920145897,-1.4570275616524848,3.0817163813109145
1687009203.6801949,0.018726389855146408,0.9928345084190369,-0.11802132427692413,0.02132789045572281,-0.03253793716430664,0.02080744504928589,0.30303019285202026,-0.058056507259607315,0.013338674791157246,0.1573577428151185,-1.4510125624790058,3.0696189193583603
1687009203.772262,0.01722267083823681,0.99183589220047,-0.12635238468647003,0.004536319524049759,-0.08639472723007202,-0.03656584024429321,0.0467255674302578,0.07830639183521271,-0.07633128762245178,0.13547176048328963,-1.4429273681673145,3.043017517161599
1687009203.775961,0.008575561456382275,0.990475594997406,-0.13742095232009888,0.03688032925128937,-0.021786630153656006,0.004242107272148132,0.2883652448654175,0.5893720984458923,-0.4484883248806,0.06232277573419635,-1.4326691225200452,2.9532662909281617
1687009203.830121,-0.02526318095624447,0.9921675324440002,-0.12233272194862366,0.12887032330036163,-0.1605789065361023,0.059069693088531494,-0.781872034072876,1.3618037700653076,-1.218255877494812,-0.203649223039283,-1.445554793238134,2.641261738868747
1687009203.923311,-0.10620101541280746,0.9889829158782959,-0.10312218219041824,0.5060117840766907,-0.0215604305267334,0.0405152291059494,-0.23938335478305817,2.9428091049194336,-2.5691747665405273,-0.8001056050556722,-1.4222207128399627,1.9303765794350658
1687009203.927366,-0.22490724921226501,0.9668763279914856,-0.12069304287433624,1.035927176475525,-0.008914411067962646,0.2756764888763428,-0.005334503948688507,3.082291841506958,-2.9143896102905273,-1.0782722183569315,-1.3126949144134294,1.485406892356168
1687009203.979573,-0.34248968958854675,0.9252476096153259,-0.16314873099327087,1.0234742164611816,0.11286872625350952,0.33760231733322144,-0.9111518263816833,1.689022183418274,-2.942917585372925,-1.1262381309603833,-1.181687777212433,1.2952462344435316
1687009204.0734758,-0.43603140115737915,0.8946395516395569,-0.09744908660650253,-0.06300720572471619,0.08729386329650879,0.1369539499282837,-0.8169084191322327,-0.08623168617486954,-1.312692403793335,-1.3509186551162127,-1.1076238242587222,1.0378608123139892
1687009204.077759,-0.48631706833839417,0.8705354332923889,-0.07525698095560074,-0.33526185154914856,-0.38262051343917847,-0.2751306891441345,-0.7550031542778015,-1.4596585035324097,-0.4948531687259674,-1.4172653463359195,-1.0562892898699305,0.9786698952749421
1687009204.163477,-0.4741448760032654,0.8774986863136292,-0.07198868691921234,-1.0407934188842773,-0.09574538469314575,-0.1660943627357483,1.3596265316009521,-1.5516605377197266,0.5932731032371521,-1.4201186332705134,-1.0706214408834607,1.0555213159309818
1687009204.225679,-0.4308313727378845,0.9024128317832947,-0.005923250690102577,-0.9787907600402832,-0.1354910135269165,-0.4392978549003601,-2.0755934715270996,-0.6383646130561829,1.1121288537979126,-1.5570487730556708,-1.125336980608534,0.9668540215136376
1687009204.23006,-0.41999971866607666,0.9074636697769165,0.010472474619746208,-0.47741541266441345,0.21883320808410645,-0.19824731349945068,1.3445261716842651,-0.2061409056186676,-0.27787986397743225,-1.5957256431492097,-1.1372070807291423,0.9455597313332711
1687009204.305066,-0.44234737753868103,0.8966225385665894,-0.01991347037255764,-0.1443224847316742,0.04806417226791382,-0.14065492153167725,0.07322102785110474,0.26506176590919495,-0.6475378274917603,-1.5258089827894383,-1.1120820457487193,1.015136213260979
1687009204.308497,-0.46930769085884094,0.8816964626312256,-0.048593200743198395,0.1274193525314331,0.04646497964859009,0.017098907381296158,0.9771267175674438,0.28769662976264954,-0.6566908359527588,-1.4676216893520417,-1.0794458385119505,1.066025623894368
1687009204.369699,-0.4915294349193573,0.8665143251419067,-0.08690127730369568,0.1910075545310974,-0.11344724893569946,0.08955620974302292,-0.0848216786980629,0.32380297780036926,-0.3796008825302124,-1.3958069031183624,-1.0481761878297797,1.1307965137699447
1687009204.45593,-0.494141161441803,0.8681023716926575,-0.04714363068342209,0.25599727034568787,-0.0814661979675293,0.09140920639038086,-0.9185103178024292,-0.12334869056940079,0.24649417400360107,-1.475679028109713,-1.051366554024857,1.0316299157535738
1687009204.4598489,-0.4781185984611511,0.878066897392273,-0.020019130781292915,0.1824338734149933,-0.11355596780776978,0.04490607976913452,-0.6629436612129211,-0.5794460773468018,0.5202934741973877,-1.5289501330629107,-1.0718074759488805,0.9902393069232917
1687009204.521359,-0.45597273111343384,0.8872000575065613,0.07045894861221313,0.0641118586063385,-0.01671689748764038,-0.10602737218141556,-2.563941478729248,-0.9452762007713318,0.46400517225265503,-1.7241082379399102,-1.0912407542925475,0.8094657671107021
1687009204.581743,-0.4261423349380493,0.8739123940467834,0.2338370382785797,0.001825869083404541,-0.23681217432022095,-0.22977837920188904,-3.9303054809570312,-1.0802143812179565,0.47620245814323425,-2.0726638796506767,-1.0631938354906527,0.4790028078723071
1687009204.672453,-0.3792354464530945,0.8040257096290588,0.45795494318008423,0.24216580390930176,-0.1393987536430359,-0.44266584515571594,-4.241316318511963,-1.9240882396697998,0.680846095085144,-2.4499470066828826,-0.9340350988626577,0.11867198797351618
1687009204.6761498,-0.2800207734107971,0.7594674229621887,0.5871943235397339,0.2569647431373596,-0.174918532371521,-0.359167218208313,-0.4263972342014313,-2.9247350692749023,1.2417839765548706,-2.6966121462643584,-0.8624940683666279,-0.04605931215424961
1687009204.731909,-0.10752886533737183,0.8092696070671082,0.5775115489959717,0.21421828866004944,-0.3691757917404175,-0.46752649545669556,1.8582688570022583,-3.556083917617798,2.6709649562835693,-2.9575071900268104,-0.942907673957677,-0.16693398744325397
1687009204.820374,0.13489408791065216,0.8229701519012451,0.5518360733985901,0.36371728777885437,-0.39232152700424194,-0.10753095149993896,-1.2858325242996216,-4.278056621551514,3.5610573291778564,2.9018481354465466,-0.9666197520055536,-0.4476121026880054
1687009204.842421,0.39225801825523376,0.7780741453170776,0.49064627289772034,0.4295802414417267,0.8015308380126953,0.26132187247276306,1.2143527269363403,-4.334950923919678,3.393527030944824,2.4671736825254578,-0.8915941636037626,-0.7109321651625072
1687009204.976435,0.5836434364318848,0.7050206661224365,0.4028722047805786,0.4762471914291382,0.07889962196350098,0.26877379417419434,-1.0474110841751099,-4.032154560089111,2.7197282314300537,2.1749629416158425,-0.7824522745299369,-0.8430440420660363
1687009204.9816709,0.743320643901825,0.6128805875778198,0.26805180311203003,0.172130286693573,0.11133211851119995,0.24960258603096008,1.0323435068130493,-3.5705511569976807,2.9443697929382324,1.9168953004356295,-0.6597009764082815,-0.9382139474302766
1687009205.092938,0.8638380765914917,0.4946284890174866,0.09553145617246628,0.30477142333984375,0.14709517359733582,0.07721316814422607,0.48567503690719604,-3.8126132488250732,3.301482677459717,1.6809383148034402,-0.5174072985790336,-1.0281694780132757
1687009205.098274,0.9358019828796387,0.34665632247924805,-0.0640634074807167,0.7496991157531738,-0.02487894892692566,0.6468727588653564,-3.0563039779663086,-4.0566534996032715,2.860877513885498,1.502444677964775,-0.3540040408775687,-0.98521178834345
1687009205.153716,0.9489719867706299,0.267776221036911,-0.16657766699790955,0.027437925338745117,0.37850984930992126,0.3780338764190674,-3.8769514560699463,-2.1991100311279297,1.3581098318099976,1.3970317397508616,-0.2710842314788354,-0.770888609987525
1687009205.1752071,0.9501616954803467,0.2558695375919342,-0.1781110167503357,0.009677112102508545,0.2883199453353882,0.11416137218475342,-1.083404541015625,-0.22124609351158142,0.2829131484031677,1.3854934235717264,-0.2587470709809221,-0.6261156557566953
1687009205.177886,0.9511024355888367,0.2522386312484741,-0.1782688945531845,-0.05670851469039917,0.004368484020233154,0.3500065207481384,-0.2103092223405838,-0.054836079478263855,0.02523954212665558,1.3855121717031458,-0.2549929881972593,-0.6088592481699235
1687009205.271889,0.9515016078948975,0.2524871230125427,-0.1757688671350479,-0.028299272060394287,0.08601385354995728,0.3150663375854492,-0.4271102249622345,0.0032245605252683163,0.10897652059793472,1.388127690102387,-0.25524980391019053,-0.5869360772425206
1687009205.275558,0.9536299109458923,0.2522282898426056,-0.16422760486602783,-0.030412256717681885,0.1519617736339569,0.12389856576919556,-0.3001112937927246,0.3467840552330017,0.026734106242656708,1.4002559864264714,-0.25498232034966517,-0.5647413238375852
1687009205.3339949,0.9569649696350098,0.25508376955986023,-0.13838444650173187,-0.08011871576309204,0.13911178708076477,0.06866693496704102,0.4377327561378479,0.790464460849762,-0.218070849776268,1.4271842096863812,-0.25793434939387977,-0.5720844134484269
1687009205.454286,0.9578048586845398,0.26758143305778503,-0.10492813587188721,0.035649001598358154,-0.033877819776535034,-0.08667653799057007,-0.1403655707836151,0.6349378228187561,-0.30405393242836,1.4616808108427675,-0.2708820630341277,-0.5809659694373249
1687009205.479425,0.9559742212295532,0.28311657905578613,-0.0771893858909607,0.024906456470489502,-0.030446290969848633,-0.11877930164337158,0.10229422152042389,0.46781858801841736,-0.2921546697616577,1.4902269059875926,-0.2870420919381497,-0.5806319041587296
1687009205.5384622,0.9541870355606079,0.29196086525917053,-0.0654662624001503,0.03523850440979004,-0.008803516626358032,-0.16933608055114746,0.5437042117118835,0.26027941703796387,-0.1686721295118332,1.502294209339027,-0.2962764051058928,-0.5997159153259718
1687009205.541347,0.951844334602356,0.30010682344436646,-0.06267611682415009,0.009123682975769043,-0.07017210125923157,-0.13301795721054077,0.4158071279525757,0.1182805746793747,-0.1850883960723877,1.5050442227414396,-0.30480464544870745,-0.6234455024844003
1687009205.631072,0.9509779214859009,0.30107012391090393,-0.07069230079650879,0.02814781665802002,-0.029585808515548706,-0.06630115211009979,0.4466521143913269,-0.10097934305667877,0.002059655264019966,1.4965963725763227,-0.30581465646807215,-0.6532009698893515
1687009205.6520128,0.950238049030304,0.30109095573425293,-0.07994682341814041,0.029238641262054443,0.005290240049362183,-0.035150282084941864,0.05471491813659668,-0.17847639322280884,0.006727644242346287,1.4868605323310369,-0.3058364955306021,-0.6575371015245917
1687009205.755527,0.949431300163269,0.3003329634666443,-0.0915437638759613,-0.012450218200683594,0.024465620517730713,0.018484652042388916,0.16590489447116852,-0.14843207597732544,-0.060596536844968796,1.4746738912180015,-0.3050417161150717,-0.6710631271802576
1687009205.759577,0.9467666149139404,0.3070278465747833,-0.09678209573030472,-0.10426795482635498,0.0019473731517791748,0.031215012073516846,-0.05656919255852699,-0.009989777579903603,-0.19550295174121857,1.4689263682782292,-0.31206847242035435,-0.6698051510215753
1687009205.846827,0.9445757865905762,0.3130892217159271,-0.09875041246414185,0.008091330528259277,-0.030130237340927124,0.03588414192199707,0.16248686611652374,-0.03566984087228775,-0.0783584862947464,1.4666300056016324,-0.3184440566063296,-0.6788673340836121
1687009205.8693519,0.9433151483535767,0.31636229157447815,-0.10035544633865356,0.012464761734008789,-0.01609981060028076,0.04746842384338379,0.17617110908031464,0.030243925750255585,-0.049026165157556534,1.46480906418653,-0.3218923478121784,-0.6822850106027093
1687009205.958764,0.9444658160209656,0.31170105934143066,-0.10405170917510986,0.03955811262130737,0.001973867416381836,0.05230909585952759,0.4537138342857361,0.008795760571956635,0.08965075761079788,1.4610689242944794,-0.3169827563450105,-0.7023917335968716
1687009205.962256,0.94623202085495,0.30543792247772217,-0.10654903948307037,-0.006473720073699951,0.008420169353485107,0.03689257800579071,0.26035207509994507,0.09793256223201752,0.08129828423261642,1.458665155071905,-0.31039829122752155,-0.7192133992701791
1687009206.053636,0.9478190541267395,0.30052798986434937,-0.1064033955335617,-0.019428730010986328,0.07334282994270325,-0.022655539214611053,0.4671940505504608,0.13016653060913086,0.05412844941020012,1.4590030939897376,-0.3052461926818067,-0.7353421159119569
1687009206.0579472,0.9491097331047058,0.29580309987068176,-0.10812541842460632,-0.02271825075149536,0.06776806712150574,-0.029066376388072968,0.3919787108898163,0.033355962485075,0.038757216185331345,1.4573623819203512,-0.30029612828041635,-0.7590657547023405
1687009206.178127,0.9484823346138,0.29615914821624756,-0.11256491392850876,-0.0408133864402771,0.07061639428138733,-0.02377241849899292,0.09986907988786697,-0.04875941202044487,-0.11132469028234482,1.4526698784270933,-0.30066887932826925,-0.76854413634517
1687009206.184043,0.9461096525192261,0.3018392026424408,-0.11734267324209213,0.0050162672996521,0.022440582513809204,-0.016568541526794434,0.4520334005355835,-0.011367032304406166,-0.15407268702983856,1.4473999684822678,-0.30662125141752417,-0.7847506612928702
1687009206.262566,0.9435805678367615,0.30680885910987854,-0.12459398806095123,0.002616703510284424,-0.03347817063331604,0.025488153100013733,0.2679082751274109,-0.011925230734050274,-0.18029150366783142,1.4395119965963998,-0.3118383697617479,-0.8059929114005572
1687009206.26687,0.9403848648071289,0.3151392340660095,-0.12791913747787476,0.04283028841018677,-0.09759467840194702,-0.0037489980459213257,0.245853990316391,-0.044094350188970566,-0.17938096821308136,1.4355976520502949,-0.32060335508726173,-0.8170185563618064
1687009206.352735,0.9384819865226746,0.31690746545791626,-0.13719066977500916,0.04952460527420044,-0.08247140049934387,-0.0662243515253067,0.4127912223339081,-0.18645668029785156,-0.03809415549039841,1.4256408702973868,-0.322467120075178,-0.8350818783819532
1687009206.374325,0.9367945790290833,0.3132494390010834,-0.1558549553155899,-0.06600600481033325,-0.1368120014667511,-0.02134545147418976,0.653223991394043,-0.25411802530288696,-0.010621518827974796,1.4059358452245827,-0.31861275207094475,-0.8630886273361492
1687009206.439578,0.9356417059898376,0.2976846992969513,-0.1896262764930725,-0.21860086917877197,-0.1036386787891388,-0.09353110194206238,1.3281610012054443,-0.11847537010908127,0.03095734864473343,1.3708350197867154,-0.3022664800391119,-0.9298508986664551
1687009206.443207,0.9292437434196472,0.2959747314453125,-0.22114433348178864,-0.022932827472686768,0.09028622508049011,-0.09280531108379364,1.5400936603546143,-0.6093369722366333,-0.13045364618301392,1.3371592416214273,-0.30047582380866833,-0.9743050614951309
1687009206.5309381,0.9245486855506897,0.26622310280799866,-0.27264416217803955,0.08187514543533325,0.31060490012168884,-0.052978515625,3.369429588317871,-0.12079618871212006,0.10244378447532654,1.2840302087912903,-0.2694726042641763,-1.0919058584302583
1687009206.551048,0.9254171252250671,0.19151456654071808,-0.3269942104816437,0.2371498942375183,0.5616287589073181,0.150282084941864,5.301544666290283,0.11969950795173645,0.12420128285884857,1.2311420883420876,-0.19270504804673447,-1.3138485824322936
1687009206.656578,0.9306237697601318,0.12471406906843185,-0.34407225251197815,0.1293279528617859,0.3787802457809448,0.245927631855011,2.886381149291992,0.12443193793296814,-0.04768206924200058,1.21666077491407,-0.1250396468643322,-1.5026655829780502
1687009206.660829,0.9360728859901428,0.0722627192735672,-0.3443042039871216,-0.03301215171813965,0.4496947228908539,0.054448217153549194,3.1225204467773438,0.3300847113132477,-0.46252933144569397,1.21833725671104,-0.0723257554060014,-1.6673447536572785
1687009206.7390819,0.935195803642273,0.07449379563331604,-0.34620732069015503,-0.051910340785980225,0.6183773279190063,-0.025496840476989746,2.2278337478637695,0.06022406369447708,-1.7018537521362305,1.2162425208812802,-0.07456286532694759,-1.8113866561078378
1687009206.742799,0.9216535687446594,0.1547761857509613,-0.3558073043823242,0.07303619384765625,0.1471799910068512,0.09681984782218933,0.47036439180374146,-0.08079497516155243,-2.7153801918029785,1.2023705574970902,-0.15540090289090666,-1.9180330276589732
1687009206.831521,0.885424017906189,0.286793053150177,-0.36575135588645935,0.25509411096572876,0.0384785532951355,0.1727123260498047,0.2453262060880661,-0.2004673182964325,-2.9889397621154785,1.179064803444506,-0.2908775898169544,-1.9725692295309578
1687009206.85357,0.8361678719520569,0.39535340666770935,-0.38015639781951904,0.24500876665115356,-0.35211002826690674,0.09614446759223938,0.5647262930870056,0.04522207751870155,-2.4778635501861572,1.1440894423698331,-0.4064525646829518,-2.063280343415256
1687009206.9197922,0.7948417663574219,0.4648931920528412,-0.3900010883808136,0.3271826505661011,-0.7962683439254761,0.13612526655197144,0.504291832447052,-0.061362553387880325,-1.3132036924362183,1.1146445215327896,-0.48351396611673325,-2.1264328743392515
1687009206.9234219,0.775727391242981,0.4810498356819153,-0.4084581136703491,0.019545316696166992,-0.9197553396224976,0.15653538703918457,0.7194454073905945,-0.01572343148291111,-0.24426037073135376,1.0861361628563864,-0.5018518152065333,-2.18384957817862
1687009207.0105538,0.7823994159698486,0.46560463309288025,-0.41359832882881165,-0.08661389350891113,-1.0861947536468506,0.3036128282546997,-0.6560933589935303,0.029004493728280067,0.8230623602867126,1.084509398951369,-0.4843176825903838,-2.185352604764341
1687009207.014221,0.8108983039855957,0.45043623447418213,-0.3735652565956116,0.061843276023864746,-0.6142393946647644,0.1645807921886444,-2.323798418045044,0.11296091228723526,1.4524171352386475,1.1390958475513666,-0.46725390307403697,-2.074604016497617
1687009207.069405,0.8505169153213501,0.41529056429862976,-0.32273003458976746,0.19860100746154785,-0.27370429039001465,0.1348179578781128,-1.4757143259048462,0.22381378710269928,1.996396780014038,1.2081285873546797,-0.42826220109624863,-1.9305641466847416
