Timestamp,gravityX,gravityY,gravityZ,accelerationX,accelerationY,accelerationZ,rotationRateX,rotationRateY,rotationRateZ,attitudeRoll,attitudePitch,attitudeYaw
1687093982.156553,0.057475920766592026,0.1401831954717636,-0.9884559512138367,0.00874723494052887,0.005446702241897583,-0.00922471284866333,0.03677176684141159,-0.008997336030006409,-0.0041966866701841354,0.05808177281852036,-0.14064643477853372,-1.1639190359491043
1687093982.161385,0.057058658450841904,0.1397504210472107,-0.9885414242744446,0.004266422241926193,-0.012110635638237,-0.00425642728805542,-0.029138807207345963,0.004725666716694832,-0.021112553775310516,0.05765607716790609,-0.14020935063725853,-1.1644217885997465
1687093982.214339,0.05720831826329231,0.14028826355934143,-0.9884566068649292,0.0002562962472438812,0.007737264037132263,-0.0020371675491333008,0.024975229054689407,-0.00011236505815759301,-0.001920483075082302,0.057811916666137414,-0.14075255120189195,-1.1646167259016937
1687093982.218066,0.05701074004173279,0.13879317045211792,-0.988679051399231,-0.0017281360924243927,-0.006270572543144226,-0.001891016960144043,0.006587899290025234,-0.009051664732396603,0.010195834562182426,0.05759976351323971,-0.1392426837105509,-1.1643945586386342
1687093982.221724,0.056934647262096405,0.13978075981140137,-0.9885442852973938,-0.00507001206278801,0.004033327102661133,0.009769260883331299,-0.01634877547621727,0.008963155560195446,0.0016633328050374985,0.05753087675644549,-0.1402399992164173,-1.1641982263935595
1687093982.2997231,0.05694698542356491,0.13897040486335754,-0.9886578321456909,-0.0034649185836315155,0.00104425847530365,0.003886103630065918,0.009673837572336197,-0.0038947195280343294,0.017848961055278778,0.057536723620697484,-0.13942165071534823,-1.1639562964665275
1687093982.36233,0.05690299719572067,0.13934171199798584,-0.9886080622673035,0.0004548020660877228,-0.01109158992767334,0.012305021286010742,-0.0196368470788002,-0.004300718195736408,0.00925360806286335,0.05749526298847487,-0.13979660813697473,-1.1633506092164851
1687093982.454294,0.05701456218957901,0.13964135944843292,-0.988559365272522,0.005668554455041885,0.0056375861167907715,-0.007931113243103027,0.018399085849523544,-0.0012601874768733978,0.003801850602030754,0.057610574281813806,-0.14009921690533078,-1.1631506092031512
1687093982.4579139,0.05652015656232834,0.13941772282123566,-0.988619327545166,-0.0013443641364574432,-0.013898909091949463,-0.0015692710876464844,-0.032930679619312286,-0.0061590722762048244,0.0010611917823553085,0.05710863133468814,-0.13987337210753578,-1.1626567722468408
1687093982.544258,0.05664343759417534,0.14064134657382965,-0.9884389638900757,0.001721445471048355,0.010451182723045349,-0.0011545419692993164,0.02441636472940445,0.00045222509652376175,-0.001788390800356865,0.05724334849619483,-0.1411091713663622,-1.1624936398631063
1687093982.601738,0.05643803998827934,0.13896800577640533,-0.9886873364448547,0.0011944174766540527,-0.0006470829248428345,-0.0031644701957702637,0.005032945889979601,-0.0067436364479362965,0.0026945089921355247,0.057021926153211236,-0.13941923575901768,-1.1626733181782098
1687093982.605088,0.056314848363399506,0.14021654427051544,-0.9885180592536926,-0.0028022639453411102,0.002743065357208252,0.006248772144317627,-0.02842334844172001,0.0098945964127779,-0.004851025529205799,0.056907451703261495,-0.14068011600590621,-1.1626934956731643
1687093982.693985,0.05640950798988342,0.13942763209342957,-0.9886242747306824,-0.001340523362159729,-0.0012897998094558716,0.004935920238494873,0.020189596340060234,0.0034950198605656624,0.0015136627480387688,0.056996790453000636,-0.13988337839076845,-1.1629663010155316
1687093982.777009,0.05600033700466156,0.13979093730449677,-0.9885962009429932,-0.004166219383478165,-0.008733183145523071,0.004633188247680664,-0.018262522295117378,-0.0005504550645127892,-0.012496694922447205,0.05658584826502847,-0.14025027891753833,-1.1631024666051675
1687093982.793293,0.05613972991704941,0.1399780958890915,-0.9885618090629578,0.005780443549156189,0.003958061337471008,-0.011407673358917236,0.03320632874965668,0.0039589423686265945,-0.020675528794527054,0.05672836688184265,-0.14043929835205385,-1.1637332303301404
1687093982.866778,0.05577458068728447,0.13872955739498138,-0.9887584447860718,0.0017357990145683289,-0.0015530437231063843,-0.011287271976470947,0.00021215854212641716,-0.012123620137572289,-0.005845982581377029,0.0563489865367367,-0.139178455030904,-1.1642199195853176
1687093982.869969,0.0558166541159153,0.13957162201404572,-0.9886375665664673,0.0012207068502902985,0.006775423884391785,-0.0032294392585754395,-0.012629937380552292,0.007472051307559013,-0.011031423695385456,0.05639828099884719,-0.14002878921416706,-1.1641897979230211
1687093982.958729,0.05593787878751755,0.13896358013153076,-0.9887163639068604,-0.0031271986663341522,0.005125164985656738,-0.003822028636932373,0.004779479466378689,0.009160362184047699,-0.00027278531342744827,0.056516015165534644,-0.13941475680732296,-1.164322700601121
1687093982.9742398,0.05599815770983696,0.1396767497062683,-0.9886124730110168,-0.007978733628988266,-0.0037819594144821167,0.014705002307891846,-0.020656105130910873,-0.0004643017891794443,0.014457158744335175,0.05658272192739888,-0.14013495668393813,-1.1640656714654438
1687093983.045892,0.056442905217409134,0.13930660486221313,-0.9886394143104553,0.00152524933218956,0.005484059453010559,0.0015483498573303223,0.03553646057844162,0.007888969033956528,0.006865551695227623,0.057029592046085716,-0.1397611624731342,-1.163830312249609
1687093983.061914,0.05641498044133186,0.13836152851581573,-0.9887737035751343,0.001537911593914032,-0.011957719922065735,-0.011836588382720947,-0.0140193747356534,-0.004120555706322193,-0.006055307108908892,0.05699371005633844,-0.13880683215938808,-1.1637676153910554
1687093983.1076741,0.05711567774415016,0.13875538110733032,-0.9886782765388489,0.007444266229867935,0.011543706059455872,-0.010574042797088623,0.022162465378642082,0.00550810294225812,-0.003931169398128986,0.05770559386164246,-0.1392045229063164,-1.1639110048185985
1687093983.2001119,0.05698740482330322,0.13680517673492432,-0.988957405090332,-0.0013538524508476257,-0.0001169443130493164,-0.0034894943237304688,0.02631000429391861,0.01923603191971779,0.0036686938256025314,0.05756006779287518,-0.13723554435375768,-1.1637862797184606
1687093983.20335,0.059254683554172516,0.13524679839611053,-0.9890385270118713,0.004923790693283081,0.04959818720817566,-0.010580003261566162,0.1738332211971283,0.0330212228000164,0.02893250435590744,0.059839875696892045,-0.13566254157780433,-1.1633273699919873
1687093983.2857208,0.05794637277722359,0.11945206671953201,-0.991147518157959,-0.00708882138133049,-0.001242220401763916,0.020703792572021484,0.31894180178642273,-0.035031598061323166,0.05768665298819542,0.05839745056210774,-0.11973797935018052,-1.161877455835756
1687093983.288919,0.058005619794130325,0.11253981292247772,-0.9919527173042297,0.0023428983986377716,-0.04080823063850403,-0.008459270000457764,0.178604394197464,0.010199528187513351,0.0390450581908226,0.05840968165128131,-0.11277873268460888,-1.1595491130903708
1687093983.347024,0.05752100795507431,0.09846319258213043,-0.9934768676757812,-0.026362553238868713,-0.0019513517618179321,0.020362913608551025,0.24938209354877472,-0.012421761639416218,0.05210306867957115,0.05783411949833716,-0.09862299269968601,-1.1589166006705494
1687093983.40759,0.058575380593538284,0.0951724722981453,-0.9937359690666199,0.007601998746395111,-0.0321689248085022,0.018073737621307373,0.02037768065929413,-0.0690150037407875,0.03915930911898613,0.05887648907617587,-0.0953167390431861,-1.1569879230151252
1687093983.4952068,0.0585334412753582,0.09021256119012833,-0.9942009449005127,-0.0007026232779026031,0.0067570507526397705,0.006392717361450195,0.017286550253629684,-0.002162466524168849,-0.007373039145022631,0.058806976866804694,-0.09033537708945603,-1.1573774555031842
1687093983.511097,0.05989718437194824,0.08932916074991226,-0.9941995143890381,0.02237822115421295,0.004130929708480835,0.013807058334350586,0.1759926974773407,0.016010677441954613,0.02694552019238472,0.060173910515267125,-0.08944838943915864,-1.1574240497782444
1687093983.594821,0.059153635054826736,0.08130434155464172,-0.9949324131011963,-0.03812701255083084,0.011881090700626373,0.02766251564025879,0.035137251019477844,0.006673769094049931,-0.03533889353275299,0.059385021672918606,-0.08139418798358557,-1.158736402531843
1687093983.6112761,0.060686495155096054,0.08401311188936234,-0.9946149587631226,0.01925431564450264,0.0005663633346557617,0.02131783962249756,0.06829940527677536,0.0047897156327962875,-0.028103617951273918,0.06093951531930356,-0.08411225454734655,-1.159282970069043
1687093983.648991,0.05899926647543907,0.07576562464237213,-0.9953786730766296,-0.04238243028521538,0.026514045894145966,0.04191797971725464,0.11876676231622696,0.020950177684426308,-0.0393083356320858,0.05920391792550939,-0.07583830060148665,-1.1627259326600472
1687093983.736423,0.06064203381538391,0.08096113801002502,-0.9948707818984985,0.035167913883924484,-0.03634443134069443,0.029492974281311035,-0.07882487028837204,-0.004508311860263348,-0.014433079399168491,0.060879359643512994,-0.08104984855251444,-1.1631913222630925
1687093983.739743,0.05972866341471672,0.07625620812177658,-0.9952976703643799,-0.007116347551345825,0.021216943860054016,-0.026980161666870117,0.11852768063545227,0.0021457290276885033,-0.01451750099658966,0.059938971144377164,-0.07633031080301501,-1.1642793873749677
1687093983.807324,0.06095707044005394,0.07980450987815857,-0.9949449896812439,0.026201143860816956,-0.03657635301351547,0.014171063899993896,-0.1385236233472824,-0.002914942568168044,0.03318503871560097,0.06119028936557037,-0.07988946081345226,-1.1625512839851504
1687093983.863621,0.06054480001330376,0.07819140702486038,-0.9950981736183167,0.004381351172924042,0.028726927936077118,-0.020923495292663574,0.12726351618766785,-0.00023886520648375154,0.002321399748325348,0.06076813047374006,-0.07827130444195951,-1.1620042585420027
1687093983.987567,0.06091928109526634,0.07879021763801575,-0.9950281381607056,0.011346355080604553,-0.04007866233587265,0.016176819801330566,-0.10892099142074585,-0.003065943717956543,0.01802952215075493,0.061147353447983124,-0.07887197019278651,-1.1613230347032455
1687093983.9926782,0.06095080450177193,0.07994940876960754,-0.9949337244033813,-0.00098375603556633,0.03160760551691055,-0.007629752159118652,0.09755782037973404,0.004129518289119005,-0.0007598772644996643,0.061184708373494746,-0.08003482855542511,-1.1612584988359365
1687093984.0763512,0.06205897033214569,0.07721966505050659,-0.995080828666687,0.002973996102809906,-0.025431320071220398,0.0010927915573120117,-0.006702273152768612,0.013976023532450199,0.014596708118915558,0.06228509248352116,-0.07729660987052621,-1.1611249931576828
1687093984.0974178,0.06280733644962311,0.07573205977678299,-0.9951481819152832,0.015668630599975586,-0.004397213459014893,-0.0410456657409668,0.11622971296310425,0.0055139618925750256,0.008091405034065247,0.0630299498666294,-0.07580463914102249,-1.1599195967120788
1687093984.162057,0.06259293109178543,0.06979021430015564,-0.9955960512161255,-0.023133695125579834,-0.0029872283339500427,-0.00023829936981201172,0.04228903725743294,0.037107840180397034,-0.017563626170158386,0.06278717389268307,-0.06984699181822872,-1.160342095565281
1687093984.179514,0.06354676932096481,0.06935077905654907,-0.9955663084983826,0.003942862153053284,0.018860287964344025,-0.006264746189117432,0.1718829721212387,-0.00485638715326786,0.012570574879646301,0.06374329947604962,-0.0694064918164535,-1.159438689042233
1687093984.251102,0.06142273172736168,0.06013336405158043,-0.9962987899780273,-0.011602774262428284,0.03126678988337517,0.006186485290527344,0.1159113273024559,0.020010879263281822,-0.021086987107992172,0.061572986606372254,-0.06016966326187858,-1.1599017415109203
1687093984.254682,0.06125162914395332,0.06095921993255615,-0.9962590932846069,-0.001330353319644928,-0.036514632403850555,0.009564757347106934,-0.05046819522976875,-0.007582665421068668,-0.020028647035360336,0.061404334545153684,-0.06099703655454475,-1.1595161360212431
1687093984.3402371,0.06092917546629906,0.061138223856687546,-0.9962679147720337,-0.013398032635450363,0.01819222792983055,-0.0037320852279663086,0.028900660574436188,-0.010258875787258148,-0.03214523196220398,0.061081342982198264,-0.061176377583806084,-1.1606962174878623
1687093984.3438349,0.06078474223613739,0.06217068061232567,-0.9962128400802612,0.030157648026943207,-0.05228297784924507,0.0005463361740112305,-0.09170711040496826,-0.014796636067330837,0.020783230662345886,0.060940268778521836,-0.06221080028814098,-1.1610672953672294
1687093984.4005198,0.05962732434272766,0.06323985755443573,-0.9962154626846313,0.010486822575330734,0.00074024498462677,-0.017410576343536377,0.010482106357812881,-0.027345184236764908,-0.03382941335439682,0.059782518946019235,-0.06328208790988414,-1.1623558927759923
1687093984.498677,0.05934195965528488,0.06586790084838867,-0.9960622191429138,-0.0012822523713111877,-0.025767795741558075,0.015517175197601318,-0.16169732809066772,-0.0051097869873046875,-0.02534405142068863,0.059506220458006465,-0.06591562636246148,-1.1633794685790941
1687093984.518271,0.05919387936592102,0.06706041842699051,-0.9959914684295654,0.009501196444034576,0.013383924961090088,-0.02157139778137207,0.0529940128326416,-0.013868791051208973,0.018140044063329697,0.05936228930901733,-0.06711078418474059,-1.163963156148625
1687093984.549907,0.058368902653455734,0.06747248023748398,-0.9960123300552368,-0.008228510618209839,-0.01804925501346588,0.021601319313049316,-0.08715963363647461,0.002532553393393755,-0.007516050711274147,0.05853564413824931,-0.06752377969434828,-1.163523606151176
1687093984.6466079,0.0587581992149353,0.0713718980550766,-0.9957175850868225,0.0018497258424758911,0.027138851583003998,0.00430828332901001,0.04073634743690491,-0.003257292089983821,-0.011834099888801575,0.05894255288364143,-0.0714326339442933,-1.1642705050457127
1687093984.664819,0.05826801434159279,0.07026996463537216,-0.9958247542381287,-0.0015663467347621918,-0.011966131627559662,0.0044765472412109375,-0.021974703297019005,-0.001953674480319023,0.004697471857070923,0.058445677607544905,-0.07032792314499445,-1.164515643385958
1687093984.732182,0.05880984291434288,0.07459082454442978,-0.9954785704612732,0.0014471262693405151,-0.0011350065469741821,-0.004292547702789307,-0.05533239245414734,0.005014220252633095,-0.007732299622148275,0.05900836859007823,-0.07466016777739808,-1.1642895655921626
1687093984.827095,0.05781097337603569,0.07335680723190308,-0.9956287741661072,-0.012126147747039795,-0.006904773414134979,-0.0005107522010803223,-0.0015306142158806324,-0.009032223373651505,0.011739669367671013,0.05799966521738273,-0.07342275661901138,-1.1639548388566103
1687093984.846976,0.05813104659318924,0.07697271555662155,-0.9953371286392212,-0.004740528762340546,-0.0003125518560409546,0.013144135475158691,-0.125052809715271,0.009565961547195911,0.004648203030228615,0.05833710494049334,-0.07704892592731798,-1.1634565297752733
1687093984.9132972,0.05783337727189064,0.07900405675172806,-0.9951952695846558,0.004880256950855255,0.016897432506084442,-0.006452620029449463,0.03134651109576225,-0.014053347520530224,0.019827689975500107,0.05804730749636012,-0.07908647722306895,-1.163280190179365
1687093984.916946,0.05769946053624153,0.08023226261138916,-0.9951047897338867,-0.004186876118183136,-0.011201485991477966,0.012484550476074219,-0.06781362742185593,0.003318984992802143,0.003940867260098457,0.0579184485218568,-0.08031858800571745,-1.1627746334725468
1687093985.0019798,0.058120161294937134,0.08241622895002365,-0.9949018359184265,0.00500546395778656,0.021847084164619446,-0.006059467792510986,0.056661318987607956,0.001438260544091463,0.0064527615904808044,0.0583516683503028,-0.08250981830234623,-1.162521219900952
1687093985.006789,0.05784083157777786,0.08124088495969772,-0.9950147271156311,5.245208740234375e-06,-0.015475504100322723,0.001652359962463379,-0.04502522945404053,0.008794976398348808,0.013969000428915024,0.05806528085784978,-0.0813305179053758,-1.161801517930666
1687093985.089071,0.05837363377213478,0.08370427787303925,-0.9947794079780579,0.0003269314765930176,0.004979804158210754,0.004285693168640137,-0.008285589516162872,0.003549614455550909,0.0012358948588371277,0.05861276517635585,-0.08380233275392243,-1.161367339216781
1687093985.093384,0.05800965428352356,0.08166389912366867,-0.9949703216552734,-0.0029101520776748657,-0.0014942139387130737,-0.0063724517822265625,0.02077282778918743,-0.015845654532313347,0.014230523258447647,0.058236973896931686,-0.081754943236371,-1.16093764217086
1687093985.148463,0.057725727558135986,0.08343025296926498,-0.9948402643203735,-0.0032976120710372925,0.0008898228406906128,0.017591118812561035,-0.057617586106061935,0.004885988775640726,-0.0028382083401083946,0.05796013221931167,-0.08352734589442054,-1.1604770772797297
1687093985.208879,0.0577089861035347,0.08263424038887024,-0.9949076771736145,0.0009763278067111969,0.007590986788272858,-0.005977332592010498,0.05163247138261795,-0.00843008328229189,0.011214226484298706,0.05793944265228001,-0.08272857070220478,-1.1603262738346474
1687093985.3352509,0.057404112070798874,0.08327165991067886,-0.9948721528053284,-0.003311697393655777,-0.013798385858535767,0.01228243112564087,-0.05903252586722374,-0.0036382570397108793,0.005528377369046211,0.05763608427148938,-0.08336820008024318,-1.15978785856412
1687093985.340211,0.05763459950685501,0.08491864055395126,-0.9947196245193481,0.006315000355243683,0.0070003122091293335,-0.0017708539962768555,0.028306443244218826,0.0018498520366847515,-0.002173483371734619,0.05787584075921267,-0.08502103500445186,-1.1599681996591567
1687093985.421798,0.057162556797266006,0.08336032181978226,-0.9948786497116089,-0.001452706754207611,-0.00987398624420166,-0.007806897163391113,-0.013255913741886616,-0.004988878965377808,0.00011789985001087189,0.0573937106036805,-0.08345716816166499,-1.1601757364267347
1687093985.425303,0.0574352853000164,0.08536721765995026,-0.9946927428245544,-0.002473115921020508,0.0023403093218803406,0.012423455715179443,-0.03471007198095322,0.008713084273040295,-0.009874546900391579,0.05767769354186101,-0.08547124666568205,-1.1603481230909287
1687093985.490148,0.05752015858888626,0.08347402513027191,-0.9948484897613525,0.00024963170289993286,-0.0011986270546913147,-0.002618551254272461,0.03500429540872574,0.004254953004419804,-0.0030912086367607117,0.057753711472636,-0.08357127116611472,-1.1608454425044248
1687093985.494125,0.05795900151133537,0.084255650639534,-0.9947571158409119,-0.008215341717004776,0.008822962641716003,0.03014230728149414,-0.007450421806424856,0.057161975651979446,0.0031384583562612534,0.058198678339287734,-0.08435566226381022,-1.1608705430554722
1687093985.571058,0.06016138195991516,0.08030901104211807,-0.9949527978897095,0.018924932926893234,-0.012392133474349976,-0.03823506832122803,0.08115267753601074,-0.02067449875175953,0.028957802802324295,0.06039303785433091,-0.0803955917712554,-1.1606553828870545
1687093985.665566,0.05956051126122475,0.07787622511386871,-0.9951823353767395,0.004160203039646149,-0.01612389087677002,0.000583946704864502,0.053168583661317825,-0.014131377451121807,0.0621061734855175,0.059777538855227144,-0.07795515338002447,-1.1589306566754014
1687093985.6820788,0.060536887496709824,0.07360251992940903,-0.995448648929596,0.026850208640098572,0.01866738498210907,-0.04237788915634155,0.12682662904262543,-0.0009701692615635693,0.010694378986954689,0.06073886945687798,-0.07366913641398135,-1.1574808527712117
1687093985.786913,0.06042242422699928,0.06875191628932953,-0.9958023428916931,-0.005567062646150589,-0.025783151388168335,0.023756444454193115,0.03553985804319382,0.005783340893685818,0.029021721333265305,0.060602823579563196,-0.06880619116556445,-1.1573674561399843
1687093985.792707,0.0612109899520874,0.06612502783536911,-0.9959321022033691,0.0063091665506362915,0.04500474035739899,-0.03931570053100586,0.12337476760149002,-0.003828539978712797,-0.039880648255348206,0.06138379647968762,-0.06617331315836775,-1.1573384972490335
1687093985.878463,0.061373595148324966,0.06243540719151497,-0.9961601495742798,-0.008196700364351273,-0.04229379817843437,0.03008049726486206,-0.019841311499476433,0.03126752749085426,0.011217689141631126,0.06153239120037853,-0.062476042944693784,-1.1572812091774383
1687093985.898552,0.061650149524211884,0.06144093722105026,-0.9962049126625061,0.005168098956346512,0.031607165932655334,-0.037883222103118896,0.11870691180229187,-0.00679450249299407,-0.01222398690879345,0.0618061861755243,-0.061479658890981885,-1.156995425993361
1687093985.962174,0.062041155993938446,0.059146855026483536,-0.9963194727897644,-0.014418467879295349,-0.05293652415275574,0.03899836540222168,-0.10798215121030807,0.027695296332240105,0.020482294261455536,0.062190044140466944,-0.059181397357294226,-1.1570088460466745
1687093985.978765,0.0624433197081089,0.05990217253565788,-0.996249258518219,0.018779225647449493,0.022541072219610214,-0.057309091091156006,0.11116943508386612,-0.010850363411009312,-0.03532052040100098,0.06259652353812796,-0.05993805376834945,-1.1567311156320168
1687093986.048527,0.06253387033939362,0.05571521818637848,-0.996486485004425,-0.023227214813232422,-0.05617297440767288,0.03492337465286255,-0.08833275735378265,0.03358607739210129,0.02496466040611267,0.0626721719186954,-0.0557440834490492,-1.1577633214434264
1687093986.0643191,0.06309635937213898,0.0589020773768425,-0.9962677359580994,0.010679900646209717,0.0315215140581131,-0.030084192752838135,0.06659816950559616,-0.011888597160577774,-0.011364052072167397,0.06324825987869795,-0.05893618944367575,-1.1574373464229561
1687093986.1124759,0.06292955577373505,0.054839570075273514,-0.9965101480484009,-0.036379262804985046,-0.037215664982795715,0.054539382457733154,-0.0859147384762764,0.031282972544431686,0.021368328481912613,0.06306619514051211,-0.05486709579271799,-1.1579860813004532
1687093986.2007751,0.06357165426015854,0.06107434257864952,-0.9961066842079163,-0.0016667470335960388,0.025626100599765778,0.008679986000061035,-0.012249637395143509,0.005835272371768951,-0.02661917172372341,0.06373369113614463,-0.06111237534768556,-1.1564401976938403
1687093986.21738,0.06317203491926193,0.05762777477502823,-0.9963374733924866,-0.01950136572122574,-0.015559285879135132,0.015746653079986572,-0.015024252235889435,0.012184249237179756,0.02267114445567131,0.06331949845480675,-0.057659719704576784,-1.1571062271496568
1687093986.292313,0.06380509585142136,0.06294426321983337,-0.9959753751754761,0.010154269635677338,-0.009202800691127777,0.006152987480163574,-0.11051821708679199,0.0010497053153812885,0.012292008846998215,0.06397550162116504,-0.06298590026794389,-1.15539038408255
1687093986.296123,0.06376741826534271,0.06149658188223839,-0.9960682392120361,0.0005483925342559814,0.003261726349592209,-0.012446165084838867,0.07241411507129669,0.001196578610688448,-0.008355746045708656,0.06393188046924743,-0.06153541110922152,-1.1555934168100481
1687093986.389385,0.06448417901992798,0.06295715272426605,-0.9959307909011841,0.004378743469715118,-0.03227172791957855,0.008977115154266357,-0.09749063104391098,-0.006039762403815985,0.013728518038988113,0.06465739388680185,-0.06299881895868054,-1.1549021673320503
1687093986.471624,0.06451784074306488,0.06244266405701637,-0.9959610104560852,0.011821888387203217,0.022564057260751724,-0.018443286418914795,0.08799481391906738,-0.01903385855257511,0.008090605959296227,0.0646891011577419,-0.062483315023377936,-1.1548503532252445
1687093986.476202,0.06498852372169495,0.06291870772838593,-0.9959004521369934,0.0019365400075912476,-0.01619628816843033,0.026692688465118408,-0.08490872383117676,0.0042500258423388,0.026606500148773193,0.06516365178561563,-0.06296029866675741,-1.1540676820010154
1687093986.564652,0.0650896206498146,0.06371317058801651,-0.9958433508872986,0.002277947962284088,0.04441061615943909,-0.027929842472076416,0.09727579355239868,-0.000582412991207093,-0.01848108321428299,0.06526846369078544,-0.06375635509473204,-1.1537484883163007
1687093986.584218,0.0654345229268074,0.061937905848026276,-0.9959327578544617,-0.005940496921539307,-0.02896365523338318,0.00684279203414917,-0.07310666143894196,0.018541613593697548,0.005929183214902878,0.06560745728807214,-0.061977576397659356,-1.1541213084512172
1687093986.651068,0.06549791991710663,0.0645097941160202,-0.9957652688026428,-0.0001750364899635315,0.016254976391792297,-0.0036853551864624023,0.04500686004757881,-0.0014948119642212987,-0.009803174063563347,0.0656818462457829,-0.06455462429651242,-1.1539425469110363
1687093986.6671119,0.06520162522792816,0.06080726161599159,-0.9960176944732666,-0.0027168691158294678,-0.014832522720098495,-0.0030820369720458984,0.03401246666908264,0.0104623818770051,-0.018217697739601135,0.06536904545552663,-0.060844796629587354,-1.1550516871505334
1687093986.745871,0.06600473821163177,0.060384463518857956,-0.995990514755249,-0.000437714159488678,0.006128605455160141,-0.0006678104400634766,0.048780493438243866,0.006211976520717144,0.0023986315354704857,0.06617368906890066,-0.06042121989399119,-1.1554911508841048
1687093986.761792,0.06576774269342422,0.05403769016265869,-0.9963706731796265,0.00022652745246887207,0.010506995022296906,-0.012662529945373535,0.16201549768447876,-0.0013025316875427961,-0.009406895376741886,0.06591169116857759,-0.054064023712898486,-1.1563408242010622
1687093986.805046,0.06683602929115295,0.050285909324884415,-0.9964960217475891,-0.019793175160884857,-0.011940564960241318,0.01898747682571411,0.037122439593076706,0.038481101393699646,-0.01496065128594637,0.06697074240713984,-0.050307127596536196,-1.1573820348207247
1687093986.894315,0.0661989375948906,0.046081215143203735,-0.9967418313026428,0.0016111284494400024,0.004349090158939362,-0.005608022212982178,0.10457219183444977,-0.01782185398042202,-0.005921616218984127,0.0663179402736775,-0.0460975406929291,-1.1577837441710457
1687093986.910658,0.06594093143939972,0.04499803110957146,-0.9968084096908569,0.005699098110198975,0.00984206423163414,0.0017217397689819336,-0.013122288510203362,0.013804649002850056,-0.03525979816913605,0.06605582086330956,-0.04501323151901483,-1.15918331594382
1687093986.952697,0.06563208252191544,0.04400508105754852,-0.9968730807304382,-0.004657961428165436,-0.010786693543195724,-0.009169340133666992,0.03820455074310303,-0.01592501625418663,-0.006009234581142664,0.06574307148193051,-0.04401929391383024,-1.1596931589880404
1687093987.044322,0.06568773090839386,0.04408132657408714,-0.9968660473823547,0.02197401225566864,-0.032698266208171844,0.0037630796432495117,-0.06765889376401901,-0.01132254209369421,-0.003889624960720539,0.06579911531769833,-0.044095614953802806,-1.1597975918177508
1687093987.062042,0.06447991728782654,0.04606131464242935,-0.9968553781509399,0.000980287790298462,0.021764006465673447,-0.008317291736602783,0.0031580806244164705,-0.019469549879431725,-0.006063829176127911,0.06459333693834599,-0.0460776163362826,-1.160176285810713
1687093987.13266,0.06419248133897781,0.04781532287597656,-0.9967913627624512,-0.007399260997772217,-0.014062874019145966,0.020427227020263672,-0.0940813198685646,-0.007888395339250565,-0.0047996267676353455,0.0643103127213521,-0.047833561238143196,-1.1602117327097867
1687093987.227603,0.06403835862874985,0.05148126929998398,-0.9966186881065369,0.0048550814390182495,0.02194403111934662,-0.021920740604400635,0.025451401248574257,-0.01277116872370243,-0.002791869454085827,0.06416741462166149,-0.05150403548715388,-1.1603255014965874
1687093987.246194,0.06327679753303528,0.05188175290822983,-0.996646523475647,-0.0030656009912490845,-0.02369876205921173,0.005130410194396973,-0.08136226236820221,-0.0017201154259964824,-0.01649276725947857,0.06340460343603384,-0.05190505581725677,-1.1603904604848083
1687093987.313226,0.0633639395236969,0.057725969702005386,-0.996319591999054,0.0043545737862586975,0.01214403286576271,-0.007083117961883545,-0.014872783794999123,0.004452160093933344,-0.03598630800843239,0.06351246993575048,-0.05775807637875031,-1.1615434644952387
1687093987.328309,0.0626639723777771,0.057588256895542145,-0.9963718056678772,-0.0032309815287590027,-0.008256588131189346,0.006015419960021973,-0.02758312039077282,-0.006769601721316576,-0.017845652997493744,0.06280943105448052,-0.0576201347961852,-1.1624752426541303
1687093987.406818,0.06271132826805115,0.061028338968753815,-0.996164083480835,-0.0034156665205955505,-2.3692846298217773e-05,0.007547140121459961,-0.054069191217422485,0.008084711618721485,-0.02282736264169216,0.06286984798937119,-0.06106628561876748,-1.163207620343345
1687093987.410523,0.06203761696815491,0.060474932193756104,-0.996239960193634,-0.0028182417154312134,0.0033525899052619934,-0.005011200904846191,0.015657227486371994,-0.023687731474637985,0.005729978904128075,0.06219145368545899,-0.06051185407602203,-1.1635770008032384
1687093987.4972491,0.06149635836482048,0.06263533979654312,-0.9961400628089905,-0.0013462044298648834,-0.0031107962131500244,0.015503466129302979,-0.08066864311695099,-0.0022181265521794558,-0.013934802263975143,0.0616564031154182,-0.06267636838221909,-1.1639929129242845
1687093987.51475,0.06122839078307152,0.06357169896364212,-0.9960972666740417,0.0009664446115493774,0.0056574344635009766,-0.012478172779083252,0.036759186536073685,-0.005979308858513832,-0.009102229960262775,0.06139104597966251,-0.06361459647056898,-1.1645365725042736
1687093987.553895,0.060867298394441605,0.0635775774717331,-0.9961190223693848,-0.0035857930779457092,-0.014154352247714996,0.0018868446350097656,-0.05773782730102539,0.003131232224404812,-0.011375503614544868,0.06102856317921394,-0.06362048923286381,-1.1649640502128495
1687093987.6442308,0.06105431541800499,0.06707321107387543,-0.995878279209137,0.0023154467344284058,-0.0005448833107948303,-0.003969132900238037,0.002231899881735444,-0.000403848011046648,-0.009392780251801014,0.061230368773633685,-0.06712360345883839,-1.1654031959899898
1687093987.661022,0.06037534400820732,0.06609438359737396,-0.9959850907325745,-0.006755948066711426,-0.0032586902379989624,0.0016919374465942383,0.00044891354627907276,-0.009502004832029343,-0.001920216716825962,0.06054463370400696,-0.06614260040330754,-1.1657440151813525
1687093987.704787,0.060487378388643265,0.06841706484556198,-0.995821475982666,-0.004167176783084869,0.011935725808143616,0.008974552154541016,-0.03492378816008568,0.001735336147248745,-0.0034118536859750748,0.06066665299179076,-0.06847055279814064,-1.1658142132050144
1687093987.825207,0.060340896248817444,0.06757859885692596,-0.9958875775337219,0.001075737178325653,-0.0011265650391578674,-0.008217036724090576,0.024389533326029778,-0.008712111040949821,0.0019115395843982697,0.060516085822242244,-0.06763014442821698,-1.1659876268175802
1687093987.831289,0.06036929786205292,0.06879798322916031,-0.9958024024963379,0.001215185970067978,-0.009395509958267212,0.0025467872619628906,-0.047414351254701614,-0.0031218703370541334,0.002512614242732525,0.060549666157163916,-0.06885237146935902,-1.1657518988679494
1687093987.9162002,0.06050591915845871,0.0688595175743103,-0.9957898259162903,0.0008038990199565887,0.004642069339752197,-0.013975739479064941,0.04832316190004349,0.001476476900279522,-0.00807451643049717,0.06068712490490448,-0.06891405288782275,-1.165953882813751
1687093987.934289,0.06027631834149361,0.06860969215631485,-0.9958209991455078,-0.0012095347046852112,-0.015844792127609253,0.0017261505126953125,-0.04801049828529358,-0.0016675179358571768,-0.0028970642015337944,0.06045551008150667,-0.06866363684897829,-1.1660607711460493
1687093988.005065,0.06113998219370842,0.0681450143456459,-0.995800256729126,-0.007902052253484726,0.018860608339309692,0.0012323856353759766,0.08169004321098328,0.03566986694931984,0.00450439378619194,0.06132086205014511,-0.06819786647902426,-1.1661768109880595
1687093988.009657,0.06256040185689926,0.06378951668739319,-0.9960005283355713,-0.0071252211928367615,0.012550204992294312,0.020674049854278564,0.06870227307081223,0.05033709108829498,0.02381417527794838,0.06272920780540613,-0.06383285922007845,-1.166035744580766
1687093988.095372,0.06270883977413177,0.05947113037109375,-0.9962583780288696,0.008931182324886322,-0.04932402819395065,-0.001300215721130371,0.16333569586277008,-0.0775657445192337,0.13652394711971283,0.06286142236713935,-0.05950624092048038,-1.1641775112277293
1687093988.113338,0.06315214186906815,0.055722277611494064,-0.9964470863342285,-0.005092434585094452,0.07881447672843933,0.025774478912353516,0.04458441585302353,0.02595612034201622,-0.00481214327737689,0.06329266309413518,-0.055751154100262434,-1.1632416460424926
1687093988.153041,0.063514344394207,0.0506465844810009,-0.9966949820518494,0.009743109345436096,-0.030459199100732803,0.0009521842002868652,0.08796930313110352,-0.007008221000432968,0.007647454738616943,0.06363891033656423,-0.05066826229107048,-1.1624496978699486
1687093988.2474442,0.0635095089673996,0.0477367527782917,-0.9968388676643372,-0.019426852464675903,0.007240671664476395,-0.0016047358512878418,0.01566801406443119,0.010352525860071182,-0.003882434219121933,0.06362491109883296,-0.047754901917339776,-1.1628188140396492
1687093988.2649121,0.06466004252433777,0.046270374208688736,-0.9968340396881104,0.010199584066867828,-0.0062313079833984375,0.003258049488067627,0.05678882077336311,0.005773221142590046,-0.00822951178997755,0.06477465783330116,-0.046286900724943646,-1.1622235196871329
1687093988.300694,0.06363490968942642,0.04024368152022362,-0.9971615076065063,-0.005895644426345825,-0.02130751684308052,0.022170662879943848,0.007376395165920258,0.00012811843771487474,0.04103177785873413,0.06372963367863067,-0.040254551579964125,-1.164149593436418
1687093988.3939018,0.06500254571437836,0.04633711278438568,-0.996808648109436,0.01675405353307724,0.0034218057990074158,0.01296776533126831,-0.08463288843631744,-0.005538289435207844,0.041063204407691956,0.06511845777770096,-0.04635371248086558,-1.162551967430909
1687093988.410873,0.06463736295700073,0.043567318469285965,-0.9969573020935059,-0.0039989277720451355,-0.0032383352518081665,0.008309900760650635,0.028549058362841606,-0.005438420921564102,0.0013975491747260094,0.06474401453945247,-0.043581111848490915,-1.1633954270843783
1687093988.485667,0.06587419658899307,0.05016958341002464,-0.9965658783912659,0.013608843088150024,-0.030241601169109344,0.0016165971755981445,-0.14093691110610962,0.00596203887835145,0.018553633242845535,0.06600517180063967,-0.05019065494577364,-1.1620178242911698
1687093988.576806,0.06545105576515198,0.04762856289744377,-0.9967184662818909,0.007806397974491119,0.024896468967199326,-0.02180570363998413,0.11249695718288422,-0.01648840866982937,-0.04699981212615967,0.06557240304054505,-0.04764658791002544,-1.162963888116322
1687093988.582917,0.06626163423061371,0.05146413668990135,-0.9964742064476013,0.011207252740859985,-0.051769305020570755,-6.204843521118164e-05,-0.20491136610507965,0.017841335386037827,0.010614482685923576,0.06639833437502117,-0.05148688100474684,-1.1622577028369003
1687093988.666251,0.06623276323080063,0.05339265242218971,-0.9963746666908264,0.009313516318798065,0.048841241747140884,-0.030145108699798584,0.11049392819404602,-0.01354228612035513,-0.00311251450330019,0.06637609847964641,-0.05341805516589724,-1.162461004045666
1687093988.68251,0.066620372235775,0.05380731076002121,-0.9963265061378479,0.0020747110247612,-0.03435234725475311,0.0110054612159729,-0.1207825094461441,0.01515713520348072,0.04295751079916954,0.066766615240881,-0.053833310447046666,-1.1620594990557078
1687093988.756812,0.0663519874215126,0.05630834400653839,-0.9962062239646912,0.00612727552652359,0.056499890983104706,-0.016382277011871338,0.07957415282726288,-0.010588974691927433,-0.011149668134748936,0.06650644138498969,-0.05633814304074248,-1.1613594639070863
1687093988.761238,0.06651423871517181,0.0549469031393528,-0.9962713718414307,-0.005448557436466217,-0.042724609375,0.01159125566482544,-0.09243461489677429,0.011806878261268139,0.02489488571882248,0.06666423831174957,-0.054974590506686044,-1.1616094241977724
1687093988.847328,0.06665206700563431,0.06028967350721359,-0.9959531426429749,-0.000886671245098114,0.041211798787117004,-0.0007814764976501465,0.007082648109644651,0.0012037691194564104,-0.0017140880227088928,0.06682325017066518,-0.060326258267355604,-1.160147872617589
1687093988.864668,0.06598933041095734,0.05691290646791458,-0.996195912361145,-0.00963861495256424,-0.038785457611083984,-0.0007065534591674805,-0.027111608535051346,0.0014632941456511617,0.010139109566807747,0.06614468798960815,-0.056943675516033264,-1.1603664596504604
1687093988.93138,0.06694132834672928,0.06204164773225784,-0.9958261251449585,0.012618005275726318,-0.0040429867804050446,0.010215222835540771,-0.09358543902635574,-0.0009117128793150187,0.01039796881377697,0.06712091971704168,-0.06208151954947249,-1.1590375899603764
1687093989.027299,0.06587614119052887,0.06053517758846283,-0.9959898591041565,-0.0018655061721801758,0.0030176863074302673,-0.009381234645843506,0.07204746454954147,-0.008921169675886631,-0.015084488317370415,0.06604517802183649,-0.060572211097344716,-1.1596459780047257
1687093989.044959,0.06690443307161331,0.0614510178565979,-0.9958652257919312,0.00031054019927978516,-0.017368365079164505,0.013489127159118652,-0.07906914502382278,0.00949845090508461,0.009236562997102737,0.06708141615711768,-0.06148975798755673,-1.159591306229228
1687093989.147855,0.06663437932729721,0.0612567737698555,-0.9958953261375427,0.002472691237926483,0.007651925086975098,0.0001983046531677246,0.07233002781867981,0.0011956464732065797,-0.001150297001004219,0.06680943958624654,-0.061295149540926235,-1.1596174163315878
1687093989.163536,0.06730927526950836,0.05547661334276199,-0.9961886405944824,0.001599431037902832,-0.0075640082359313965,-0.005962848663330078,0.1450253427028656,0.01744798757135868,-0.02414030209183693,0.06746425561639102,-0.05550511087896853,-1.1607770440139242
1687093989.2374349,0.06815729290246964,0.0511917844414711,-0.9963603615760803,-0.0003930032253265381,-0.0022568441927433014,-0.008583426475524902,0.08577313274145126,0.026727106422185898,0.001287827268242836,0.06829986262483713,-0.051214168370960884,-1.161658590217796
1687093989.242159,0.068412646651268,0.04265173524618149,-0.9967449903488159,-0.008643954992294312,0.009548589587211609,0.008875727653503418,0.18273748457431793,0.027141226455569267,-0.006308307405561209,0.06852858005614101,-0.042664675957037934,-1.162202082149795
1687093989.328412,0.06945762783288956,0.039055660367012024,-0.9968200922012329,-0.00512656569480896,-0.014519520103931427,-0.00313413143157959,0.009427893906831741,0.01350477710366249,-0.03767848014831543,0.06956676251855728,-0.03906559569384162,-1.1634081355427235
1687093989.346261,0.06863167136907578,0.039293888956308365,-0.9968679547309875,0.028536304831504822,-0.08355963230133057,-0.02071017026901245,-0.08167505264282227,-0.02402595430612564,-0.0010392433032393456,0.06873883739964505,-0.03930400919971397,-1.1630454563262471
1687093989.379813,0.06758680939674377,0.04197722300887108,-0.9968299269676208,-0.005880251526832581,-0.0035555846989154816,-0.0016747117042541504,-0.028667226433753967,-0.027244117110967636,-0.016999300569295883,0.06769813187521828,-0.041989559094216956,-1.163837393363662
1687093989.4752269,0.06770148128271103,0.04311715066432953,-0.9967734813690186,0.008531436324119568,-0.003429032862186432,0.005409955978393555,-0.04329497367143631,-0.01695033349096775,-0.025840196758508682,0.06781647189621232,-0.04313052318912813,-1.1647313115384959
1687093989.480998,0.0669320598244667,0.04642648994922638,-0.9966768026351929,0.0037924274802207947,-0.012139987200498581,-0.026852190494537354,-0.09703010320663452,-0.00906657800078392,-0.02046513929963112,0.06705454929953697,-0.046443185038263474,-1.165562208654628
1687093989.5664449,0.06701716780662537,0.050274692475795746,-0.9964843988418579,0.004058279097080231,-0.0007751733064651489,0.0019165277481079102,-0.05982601270079613,-0.010492967441678047,-0.006824161857366562,0.06715248277124462,-0.05029589613275938,-1.1659941850648388
1687093989.58024,0.066494882106781,0.05056652054190636,-0.9965046048164368,-0.00016491860151290894,-0.006178699433803558,-0.001587986946105957,-0.017521297559142113,-0.008017558604478836,0.00040072761476039886,0.06662934509064955,-0.05058809474157346,-1.166171460264227
1687093989.65372,0.06579124927520752,0.05362400412559509,-0.9963914752006531,-0.009410016238689423,-0.016484107822179794,0.011314630508422852,-0.1127283051609993,-0.01465748529881239,-0.000361468642950058,0.06593380844580207,-0.053649735920645404,-1.1658234933474687
1687093989.659679,0.06545936316251755,0.05583412945270538,-0.9962919354438782,0.00824059545993805,0.011640243232250214,-0.003997981548309326,0.0030119395814836025,-0.010489239357411861,-0.006735744886100292,0.06560869612927978,-0.05586318038211504,-1.1659619307200189
1687093989.74335,0.06469029933214188,0.05688779428601265,-0.9962825775146484,-0.003914535045623779,-0.009097255766391754,0.0032100677490234375,-0.06754837930202484,0.0013596971984952688,-0.01625654473900795,0.06484065684305251,-0.05691852145756484,-1.1664756646105219
1687093989.748229,0.06551086157560349,0.06044252589344978,-0.9960196018218994,0.009257219731807709,0.016980577260255814,-0.027875661849975586,-0.007697963155806065,0.0040007540956139565,-0.008753888309001923,0.06567806335353664,-0.06047938820853807,-1.1666581009848715
1687093989.80516,0.0645994320511818,0.062391046434640884,-0.9959589838981628,0.00043354183435440063,-0.009778734296560287,-0.0017369389533996582,-0.08745557814836502,-0.005780104547739029,-0.011254862882196903,0.06477081234314497,-0.062431595651686975,-1.1665229829320942
