Timestamp,gravityX,gravityY,gravityZ,accelerationX,accelerationY,accelerationZ,rotationRateX,rotationRateY,rotationRateZ,attitudeRoll,attitudePitch,attitudeYaw
1687015832.675902,0.9218633770942688,0.31961485743522644,0.2191213071346283,0.057064175605773926,-0.006962329149246216,-0.05650843679904938,-0.13816046714782715,0.10878294706344604,-0.4825696051120758,1.804159672399821,-0.32532299931918957,-0.4313961656073147
1687015832.6931438,0.9130513072013855,0.34178033471107483,0.22253884375095367,0.010929465293884277,-0.05874505639076233,-0.0067948997020721436,0.12201220542192459,0.11020999401807785,-0.4835089147090912,1.80986604081801,-0.34881066793780957,-0.4270259703054629
1687015832.885871,0.9028365612030029,0.36532148718833923,0.2267734408378601,0.006358325481414795,-0.10360279679298401,-0.008282914757728577,0.09600403904914856,0.159816712141037,-0.4419790506362915,1.816884187006679,-0.3739781410404475,-0.42874466905755565
1687015832.891749,0.8953133225440979,0.3812119960784912,0.23041531443595886,0.02618008852005005,-0.10168629884719849,-0.037513747811317444,0.14994017779827118,0.0848991796374321,-0.24328725039958954,1.822687311049237,-0.39110693233158167,-0.42905891738893903
1687015832.977272,0.8907374739646912,0.39164021611213684,0.23066040873527527,0.015497028827667236,-0.139320969581604,-0.02449910342693329,0.14116698503494263,0.04246504232287407,-0.11246851831674576,1.8241847626085768,-0.4024135183184818,-0.43367154686919407
1687015832.9958692,0.8904227018356323,0.3937671482563019,0.22824203968048096,0.02351754903793335,-0.13638201355934143,-0.03025941550731659,-0.11062350869178772,-0.08943559974431992,0.022632040083408356,1.8217236857349364,-0.4047262628240043,-0.4364361408837882
1687015832.9993238,0.8974104523658752,0.3785449266433716,0.22662322223186493,-0.0051528215408325195,-0.09512823820114136,-0.02015674114227295,-0.13295145332813263,-0.0940157026052475,0.18379883468151093,1.8181549135061827,-0.38822373892337153,-0.4285881214696315
1687015833.002886,0.9059748649597168,0.36106276512145996,0.22100494801998138,0.014236867427825928,-0.10631731152534485,-0.04130232334136963,-0.1981523483991623,-0.17388351261615753,0.2794625163078308,1.8100648807272806,-0.36940728096756664,-0.4285508652244334
1687015833.095474,0.9140139818191528,0.3423517048358917,0.21765492856502533,0.008028805255889893,-0.02544194459915161,0.004909634590148926,-0.15568985044956207,-0.160324826836586,0.346356064081192,1.804573207273559,-0.3494187057080019,-0.4207195620376257
1687015833.1093311,0.9219106435775757,0.32404300570487976,0.21231277287006378,0.007761538028717041,-0.011115819215774536,0.007001638412475586,-0.257891982793808,-0.219501331448555,0.4143761098384857,1.7971462684328636,-0.32999999004119346,-0.4150008390475069
1687015833.216856,0.9308685064315796,0.3035593628883362,0.20331156253814697,0.00386965274810791,0.08366289734840393,0.0049707889556884766,-0.04988459497690201,-0.2889581620693207,0.4138253629207611,1.785830121274837,-0.30842606673518974,-0.4120336046222011
1687015833.2223601,0.9398044943809509,0.28402212262153625,0.18999715149402618,-0.013168752193450928,0.12129706144332886,0.018117308616638184,-0.08720027655363083,-0.3244066834449768,0.40553683042526245,1.7702743654806452,-0.2879863866101753,-0.41299815357712955
1687015833.310625,0.9471102356910706,0.26795464754104614,0.1765853762626648,-0.03574860095977783,0.16264832019805908,0.038532838225364685,-0.18040791153907776,-0.30620360374450684,0.23107153177261353,1.7551263536783337,-0.2712694026669051,-0.40847421936256695
1687015833.325851,0.9506762623786926,0.26182904839515686,0.16631408035755157,-0.022300899028778076,0.17116960883140564,0.03671933710575104,0.10472828149795532,-0.15808643400669098,0.04737839847803116,1.743986612642462,-0.264916877182978,-0.40747663116119026
1687015833.426981,0.9512550830841064,0.2637416124343872,0.15985611081123352,-0.02490931749343872,0.08934670686721802,0.022684678435325623,0.010437202639877796,-0.1015709638595581,-0.06780064851045609,1.737288295592998,-0.26689910064355554,-0.4099646676717459
1687015833.444902,0.9489182829856873,0.27351027727127075,0.15730971097946167,-0.011494576930999756,0.04739728569984436,0.031746506690979004,-0.003774823620915413,-0.05792135000228882,-0.1671333611011505,1.7350801619457288,-0.2770405872328672,-0.4079545499610864
1687015833.4841871,0.9464067816734314,0.2831025719642639,0.1554567515850067,0.011021018028259277,-0.04326504468917847,-0.00814858078956604,-0.028456732630729675,-0.06277602910995483,-0.12528711557388306,1.7336024546008886,-0.2870274987014838,-0.40675491467764985
1687015833.487712,0.9440977573394775,0.29017847776412964,0.15644721686840057,-0.013479530811309814,-0.0401022732257843,0.028077229857444763,-0.23869812488555908,-0.03366661071777344,-0.1637953519821167,1.735014846961287,-0.2944133457145025,-0.39661007290378214
1687015833.490336,0.9448109269142151,0.28908494114875793,0.1541496217250824,0.015592515468597412,-0.03658252954483032,-0.004476308822631836,0.03121059201657772,-0.09627273678779602,-0.0037926416844129562,1.7325252774661264,-0.29327082088228046,-0.391338396954792
1687015833.573735,0.9466345906257629,0.28240033984184265,0.15534770488739014,-0.00885993242263794,-0.05553269386291504,0.02420222759246826,-0.12046002596616745,-0.04341671243309975,0.03312249854207039,1.7334517945868233,-0.2862953777985587,-0.38818651735387416
1687015833.694457,0.9488674998283386,0.27510350942611694,0.15481796860694885,0.0036470890045166016,-0.006915062665939331,0.021787166595458984,-0.29970723390579224,-0.05242817848920822,0.05751385912299156,1.7325319462170032,-0.2786973529804828,-0.3782089504350909
1687015833.711831,0.9511663317680359,0.2634185552597046,0.16091367602348328,-0.011102855205535889,-0.0024780333042144775,0.006642937660217285,-0.25896984338760376,-0.06367538124322891,0.14573480188846588,1.738384669960363,-0.2665642262691807,-0.3627306421004104
1687015833.8181481,0.9536314606666565,0.25317686796188354,0.16275347769260406,-0.010714471340179443,0.047955334186553955,0.019176974892616272,-0.3928804397583008,-0.06816639751195908,0.1614629030227661,1.7398347290505958,-0.25596270564621454,-0.3460546383803239
1687015833.8230429,0.9557057023048401,0.24408195912837982,0.16447001695632935,-0.04626667499542236,0.08338688313961029,-0.012034893035888672,-0.15987174212932587,0.03562244772911072,0.1272069215774536,1.7412197385677928,-0.24657290901674703,-0.33068630044239533
1687015833.909326,0.955822229385376,0.24146710336208344,0.16762295365333557,-0.014995813369750977,0.08021865785121918,-0.006932854652404785,0.06551449745893478,0.07326942682266235,0.0207396000623703,1.7444014016012521,-0.2438774076155563,-0.3311452307086589
1687015833.9236531,0.9534183740615845,0.25078803300857544,0.16762641072273254,0.005550682544708252,0.08699575066566467,-0.024377107620239258,0.2036954015493393,0.05823907628655434,0.006682637147605419,1.7448338458039667,-0.25349423072632565,-0.33821081456055563
1687015834.026898,0.9505876898765564,0.2623806595802307,0.16594932973384857,0.006596028804779053,0.04233729839324951,-0.01069130003452301,0.1188514232635498,0.0214534979313612,-0.08627606183290482,1.7436300796328184,-0.265488467344335,-0.34815065925035943
1687015834.0442262,0.9486851692199707,0.2715805768966675,0.1619882434606552,-0.0030675530433654785,0.027567923069000244,-0.0216076523065567,0.11952827125787735,-0.04434069246053696,-0.08969369530677795,1.7399155875737173,-0.27503495960897867,-0.35209577730856395
1687015834.120332,0.9470117688179016,0.2795394957065582,0.15819750726222992,-0.0028894543647766113,-0.030638158321380615,-0.006845712661743164,0.04100776091217995,-0.005712608341127634,-0.09821794182062149,1.7363171265572361,-0.2833144437557159,-0.35662182958085675
1687015834.12574,0.9452882409095764,0.28597691655158997,0.15699489414691925,0.001992642879486084,-0.040707170963287354,-0.0011570453643798828,0.04113133251667023,0.005808759015053511,-0.09293343126773834,1.735375608400026,-0.29002576910162436,-0.35831769451869294
1687015834.130501,0.9458890557289124,0.2848680913448334,0.15538248419761658,-0.0022094249725341797,-0.02260008454322815,-0.0014214664697647095,0.06279854476451874,-0.03417620807886124,0.005274356342852116,1.733613532541414,-0.28886881591942926,-0.3600015276789409
1687015834.171154,0.9475414752960205,0.28041407465934753,0.15340405702590942,-0.0010846853256225586,-0.03589203953742981,-0.003425613045692444,-0.059906333684921265,-0.039527565240859985,0.005934021435678005,1.731300610382908,-0.28422544947517075,-0.36076034348746894
1687015834.266519,0.9489893317222595,0.2764049768447876,0.1517210155725479,-0.012328684329986572,0.013145744800567627,0.008252009749412537,0.07036751508712769,0.0023032398894429207,0.056578557938337326,1.72933110066319,-0.2800513183471891,-0.3599097006017001
1687015834.27268,0.9504424929618835,0.2714861035346985,0.15150724351406097,0.004086315631866455,-0.013475269079208374,0.010830879211425781,-0.07460831850767136,-0.011421892791986465,0.037434954196214676,1.7288734037929951,-0.27493678028776736,-0.3630953073009348
1687015834.325307,0.9507178664207458,0.27037930488586426,0.15175768733024597,-0.010181427001953125,0.05347317457199097,0.001211509108543396,0.039938636124134064,-0.025024520233273506,0.04984235763549805,1.7290852658118292,-0.27378697411807124,-0.3602485436101002
1687015834.4176989,0.9515311121940613,0.2682640552520752,0.1504092663526535,-0.01183384656906128,0.029083937406539917,0.010967493057250977,0.08919460326433182,-0.01589680276811123,0.030156269669532776,1.727569963620037,-0.2715905791883738,-0.36606096831700957
1687015834.42414,0.9505369067192078,0.27208128571510315,0.14983776211738586,0.0028475522994995117,0.04575926065444946,-0.0006527751684188843,0.010500052943825722,-0.014084788039326668,-0.004652043804526329,1.7271446523915897,-0.27555526766456334,-0.36518663553198477
1687015834.474029,0.9496710300445557,0.2753148376941681,0.1494213491678238,-0.007196605205535889,0.01051279902458191,0.0019914060831069946,0.032812148332595825,0.003708856413140893,-0.015509750694036484,1.7268570233467386,-0.27891717198879,-0.36906628756840737
1687015834.567883,0.9483704566955566,0.2797115743160248,0.14951539039611816,0.005288541316986084,0.019238591194152832,-0.009516239166259766,0.0041343653574585915,-0.02350532077252865,-0.05124218389391899,1.727164336029204,-0.2834936685253276,-0.36654559758903926
1687015834.5741081,0.9476507306098938,0.2824113965034485,0.14900264143943787,0.0034447908401489258,-0.014421343803405762,-0.0057838112115859985,0.0013090844731777906,0.017226262018084526,-0.018172645941376686,1.7267532002925015,-0.28630690602030784,-0.3677985197214656
1687015834.622695,0.9470948576927185,0.28428882360458374,0.1489678919315338,-0.004437267780303955,0.0039039254188537598,0.018588677048683167,-0.01566477119922638,0.011069433763623238,-0.03493964299559593,1.726807440647537,-0.2882645566292384,-0.3662362368167381
1687015834.717558,0.9477851390838623,0.2831709682941437,0.14668962359428406,0.005950331687927246,-0.024992257356643677,-0.015265807509422302,0.03799945488572121,-0.05086197704076767,0.023886121809482574,1.724348956483377,-0.28709879689923656,-0.3687673487289383
1687015834.723671,0.9481412172317505,0.2819655239582062,0.14670920372009277,0.005456745624542236,-0.0006392598152160645,-0.001033782958984375,-0.003934679552912712,-0.02064521797001362,-0.008185259066522121,1.724312357426131,-0.28584214880236136,-0.36724845361189773
1687015834.77555,0.948897123336792,0.28062257170677185,0.14437811076641083,0.0006114840507507324,-0.011976420879364014,-0.0048824697732925415,-0.0038535865023732185,-0.008537955582141876,0.026182565838098526,1.7217918158565604,-0.2844426954638199,-0.36915543976773574
1687015834.8978071,0.9494022130966187,0.2793636620044708,0.14349612593650818,0.002074718475341797,0.0214327871799469,0.010464891791343689,0.0970609113574028,-0.043182484805583954,0.02374417707324028,1.7208045781091175,-0.28313131884821546,-0.371100448201653
1687015834.914209,0.9506029486656189,0.2784614861011505,0.13716238737106323,-0.011622726917266846,0.1232871413230896,-0.026719436049461365,0.27677473425865173,-0.13061672449111938,0.028523217886686325,1.7140971764747939,-0.2821918794346876,-0.3784750211150422
1687015834.985399,0.950864315032959,0.28367266058921814,0.12404438108205795,-0.025601863861083984,0.21925699710845947,0.09412562847137451,0.3864905834197998,-0.17865456640720367,-0.1871025413274765,1.7005181012178185,-0.2876219480658448,-0.400213461427972
1687015834.9899669,0.9461480379104614,0.30096790194511414,0.11925613880157471,-0.05761361122131348,0.3829614520072937,0.28705477714538574,-0.33874642848968506,0.09633372724056244,-0.6477319598197937,1.6961789748169145,-0.30570746703924306,-0.3987537673194771
1687015835.077166,0.9283977150917053,0.34269627928733826,0.14365483820438385,-0.011909127235412598,0.47006306052207947,0.39726901054382324,0.3995283544063568,0.7536752223968506,-1.1164683103561401,1.7243130110294895,-0.349785477068746,-0.38283878476205335
1687015835.093861,0.8957574963569641,0.4103209376335144,0.17104117572307587,0.010812878608703613,0.3662292957305908,0.5869238376617432,1.5777546167373657,1.4091533422470093,-1.4379065036773682,1.7594710158423792,-0.4228059504743837,-0.42701736806840906
1687015835.163914,0.8408781886100769,0.49874600768089294,0.2101813554763794,0.13917851448059082,0.19716155529022217,0.594628095626831,1.9991713762283325,2.320291042327881,-1.8522496223449707,1.815732238974062,-0.5221513820615401,-0.5090855597597355
1687015835.178063,0.7451578974723816,0.6114389300346375,0.2662372589111328,0.2864736318588257,0.15835171937942505,0.7232493162155151,2.431318998336792,3.6062309741973877,-2.6761538982391357,1.913950514810745,-0.6578777405201227,-0.5925001496711304
1687015835.286464,0.5756372213363647,0.7599967122077942,0.3017396032810211,0.8171392679214478,0.004972100257873535,0.6450986862182617,2.4658989906311035,3.9659605026245117,-3.8376407623291016,2.05360310767911,-0.8633080296693674,-0.6798221857313047
1687015835.292025,0.3166390359401703,0.8570789098739624,0.4063928425312042,1.0488853454589844,-0.05370384454727173,0.6168614029884338,-2.3799893856048584,4.742178440093994,-4.811930179595947,2.479698031990779,-1.029572654991667,-0.4223055982114853
1687015835.377367,-0.0008816857589408755,0.8601593375205994,0.5100240707397461,1.1961027383804321,0.26467257738113403,0.2662360668182373,0.19430743157863617,5.4011549949646,-4.097552299499512,-3.139863941353888,-1.0355820073519801,0.045681210686524844
1687015835.3936582,-0.29224568605422974,0.8571589589118958,0.42411187291145325,1.069253921508789,-0.13677632808685303,0.15193793177604675,1.747241497039795,5.207122325897217,-3.698702096939087,-2.5382353196373386,-1.0297280103930777,0.437390616446054
1687015835.465251,-0.5105280876159668,0.8376274704933167,0.19427093863487244,0.9428402185440063,-0.27795034646987915,-0.09337985515594482,4.257273197174072,3.9800848960876465,-3.050203561782837,-1.9344058347100697,-0.9929253309486453,0.8770075855768202
1687015835.479858,-0.6489039659500122,0.760832667350769,-0.0075602843426167965,0.8290646076202393,-0.6566609144210815,-0.05086565017700195,0.6105952858924866,3.0043044090270996,-2.7419021129608154,-1.5591460016601706,-0.8645952828305573,1.125732566038086
1687015835.520468,-0.7216452956199646,0.6842033267021179,-0.1053270772099495,0.9558830261230469,-0.3071891665458679,-0.3233533501625061,0.273922324180603,1.9690499305725098,-1.9165256023406982,-1.4258655923345736,-0.7535107757900136,1.1389873418530674
1687015835.619169,-0.7568011283874512,0.6406952142715454,-0.12946614623069763,0.4612690806388855,-0.4011932611465454,-0.03780065476894379,-2.035780191421509,1.1609920263290405,-0.7704293727874756,-1.4013661856540571,-0.6954033743153988,1.0696688998960433
1687015835.624238,-0.7572355270385742,0.6419568657875061,-0.12035621702671051,0.26089781522750854,-0.2307325005531311,-0.2519277334213257,-0.8459569215774536,0.6058270931243896,0.4373836815357208,-1.4131732245851734,-0.6970477071942321,0.9790038967853273
1687015835.6751618,-0.7229026556015015,0.6822234988212585,-0.10946579277515411,-0.22565984725952148,-0.23813176155090332,-0.4874427914619446,-0.7981254458427429,0.348366379737854,1.3388745784759521,-1.4205126771974055,-0.7507994775432794,0.9395963509538261
1687015835.798482,-0.6712937951087952,0.730962336063385,-0.12271486222743988,-0.37655776739120483,0.33898407220840454,-0.4296380877494812,0.12050551176071167,0.8249701857566833,0.9515319466590881,-1.3899891921953496,-0.8197310458782154,0.937786739084703
1687015835.815362,-0.651367723941803,0.7463297247886658,-0.13679146766662598,-0.11250239610671997,0.3767019510269165,-0.19194388389587402,-0.0014833062887191772,0.49968889355659485,0.024443257600069046,-1.3637978999619056,-0.8425304219122268,0.9269844735846106
1687015835.884503,-0.6509630084037781,0.7338250875473022,-0.19428755342960358,-0.0033947229385375977,0.02566581964492798,-0.03483842313289642,2.429743528366089,-0.07168616354465485,-0.041395410895347595,-1.28075138459554,-0.8239355663999853,1.0221148563618982
1687015835.888541,-0.6573441028594971,0.7161688208580017,-0.23452293872833252,-0.011326491832733154,-0.2802709937095642,0.06438744068145752,-0.181955486536026,-0.18606679141521454,-0.1708865612745285,-1.2281000220182658,-0.7982974099919816,1.1088795526414212
1687015835.9779181,-0.6622583866119385,0.720363974571228,-0.20612995326519012,-0.006488502025604248,-0.05117452144622803,0.008681237697601318,-0.33790820837020874,-0.10522016137838364,0.04409871622920036,-1.2690478465333355,-0.8043269725348052,1.0623446871582631
1687015835.994468,-0.6563827991485596,0.7272468209266663,-0.2006828933954239,0.005656540393829346,-0.13515996932983398,-0.00975102186203003,-0.48625612258911133,-0.12935692071914673,0.30665603280067444,-1.2740812579916896,-0.8143021799975719,1.0639229506229437
1687015836.034295,-0.6454747319221497,0.7463142275810242,-0.16241110861301422,-0.08532965183258057,0.03907090425491333,-0.04066812992095947,-0.744182825088501,0.05556805804371834,0.34163159132003784,-1.324298268214677,-0.8425072118790696,0.9989849356592323
1687015836.122669,-0.6331707835197449,0.7546372413635254,-0.1720959097146988,-0.1157914400100708,-0.04954397678375244,-0.007271140813827515,0.40721631050109863,-0.03026096150279045,0.26313865184783936,-1.3054074301468794,-0.8551011160466523,1.02210507357918
1687015836.1279569,-0.6305188536643982,0.7598624229431152,-0.15828776359558105,-0.06561750173568726,-0.005574703216552734,0.011528730392456055,-1.098851203918457,-0.03484426066279411,-0.06086817756295204,-1.3248356377036743,-0.8631014932052481,0.9973323030363934
1687015836.21881,-0.6328028440475464,0.7631266117095947,-0.13114312291145325,-0.12592512369155884,0.03937894105911255,-0.10152286291122437,-0.0035226885229349136,0.009397102519869804,-0.012126204557716846,-1.366447399766387,-0.8681374556615219,0.9427029802294244
1687015836.224571,-0.6347208619117737,0.7628449201583862,-0.12327522039413452,-0.08735537528991699,-0.115506112575531,-0.056549593806266785,-0.8704123497009277,-0.05152270942926407,-0.07794222980737686,-1.3789650020231383,-0.8677016769544716,0.9252955429885183
1687015836.273602,-0.6307904720306396,0.7690216302871704,-0.10348402708768845,-0.1434861421585083,0.07481986284255981,-0.06323342770338058,0.694572925567627,0.09665477275848389,0.28256455063819885,-1.4081902688787007,-0.877309172337885,0.8855981651765984
1687015836.365941,-0.6173412203788757,0.7713821530342102,-0.15446418523788452,-0.20222347974777222,-0.17079627513885498,-0.020813509821891785,0.9528080821037292,-0.0994633361697197,0.36999720335006714,-1.3256211903195851,-0.8810102193964913,0.9926944301433063
1687015836.3829951,-0.59975266456604,0.7876008152961731,-0.14135700464248657,-0.3179261088371277,-0.30586546659469604,-0.18669171631336212,-0.9301242232322693,-0.27868515253067017,0.7655330300331116,-1.339328516376174,-0.9069056726359062,0.9872201827556367
1687015836.457418,-0.5532603859901428,0.8247801065444946,-0.1167927160859108,-0.3696673512458801,-0.4113737940788269,-0.047651223838329315,-0.13966721296310425,-0.5478270053863525,1.39027738571167,-1.362751783245651,-0.9698132157575767,0.9821483620808158
1687015836.462233,-0.4875214993953705,0.8729947209358215,-0.014243556186556816,-0.25153785943984985,-0.30965548753738403,-0.05896812677383423,-2.593545436859131,-1.1922940015792847,2.548682451248169,-1.5415883740324603,-1.0613090871876658,0.8287657723528464
1687015836.518601,-0.3063952326774597,0.9515447020530701,-0.026163512840867043,0.17817574739456177,0.11992740631103516,0.06218951940536499,3.8452231884002686,-0.5464485883712769,4.747209548950195,-1.4856115901610845,-1.2582206839499397,0.9417924117056422
1687015836.6383672,-0.042199838906526566,0.9952967762947083,-0.08719804883003235,1.692529559135437,-0.3832820653915405,0.25379353761672974,-1.7231320142745972,-0.017267398536205292,5.745227813720703,-0.45072856991215177,-1.4737717064205533,1.9848488603348864
1687015836.643317,0.1469312161207199,0.9822093844413757,-0.1169438511133194,0.36091187596321106,0.683912992477417,0.3950810432434082,2.1646387577056885,-3.689906597137451,1.8210314512252808,0.8985549957190827,-1.3818855922977002,-2.822799744711214
1687015836.728671,0.13449814915657043,0.9886460304260254,-0.0670035108923912,-0.43588966131210327,-0.3131698966026306,0.12573456764221191,-2.8529088497161865,0.6960670351982117,-0.4303348958492279,1.1086104115761157,-1.4199618323493866,-2.5357935037224015
1687015836.746299,0.12289995700120926,0.98973548412323,-0.07293429970741272,0.1849309504032135,0.2634078860282898,-0.031893618404865265,3.1664299964904785,0.46792083978652954,-0.3533652722835541,1.0352110190065364,-1.4273938486082385,-2.6484931300257957
1687015836.815824,0.09421555697917938,0.9781155586242676,-0.18550853431224823,0.07694236189126968,-0.48481422662734985,0.07753735780715942,-0.016561059281229973,0.40049469470977783,-0.5136950612068176,0.46992950799902883,-1.361202702493644,3.04573753894483
1687015836.830744,0.10429924726486206,0.9834175705909729,-0.14836274087429047,-0.017903894186019897,0.10757052898406982,-0.01731717586517334,-0.21912960708141327,-0.2392037957906723,0.4886663258075714,0.6127376074524742,-1.3884314507396829,-3.092997917332538
1687015836.872375,0.109980009496212,0.9819760918617249,-0.15371206402778625,0.02519768476486206,-0.10574018955230713,-0.04315680265426636,-0.33652690052986145,-0.2306394726037979,0.10100727528333664,0.6210488661169864,-1.3806474344036461,-3.073646393675818
1687015836.967617,0.11887357383966446,0.980867326259613,-0.1541699469089508,-0.0969008356332779,0.1593914031982422,0.03249633312225342,0.8182058334350586,0.17738915979862213,-0.05604119971394539,0.6568409730440126,-1.37486792377036,-3.0326959327710536
1687015836.983382,0.11183767020702362,0.9723889231681824,-0.2048220932483673,0.06786517798900604,-0.02996039390563965,-0.016506612300872803,0.6902556419372559,-0.07693592458963394,-0.0799393355846405,0.4997850861666152,-1.3352582953532546,3.083225384832515
1687015837.0202641,0.11519520729780197,0.9701983332633972,-0.21317893266677856,-0.020315974950790405,-0.0006549358367919922,-0.011949241161346436,0.1900247484445572,0.036094095557928085,0.13786089420318604,0.4954186149557071,-1.3260479849250586,3.083284805215023
1687015837.113497,0.11616858839988708,0.9638763666152954,-0.23968133330345154,-0.010440357029438019,0.023016273975372314,0.039013028144836426,0.15699248015880585,-0.16038088500499725,-0.2185550034046173,0.4513161119020035,-1.3011919991479517,3.0379182701280287
1687015837.130655,0.10910594463348389,0.974475622177124,-0.19619686901569366,0.025613978505134583,-0.03873038291931152,-0.0021674036979675293,-0.9817448258399963,-0.044905152171850204,0.06948370486497879,0.5075178128197196,-1.3443731387636415,3.10332269321196
1687015837.172752,0.11054651439189911,0.9711902141571045,-0.21111367642879486,-0.030697189271450043,0.08508414030075073,-0.012213945388793945,1.3323596715927124,0.09419028460979462,-0.11233056336641312,0.48237635743248974,-1.3301755593784792,3.0743814233712063
1687015837.2697349,0.09940572082996368,0.9643813967704773,-0.2451263815164566,0.07732165604829788,-0.19205784797668457,0.04104006290435791,-0.3420430123806,0.10650887340307236,-0.25253161787986755,0.38526317584156256,-1.3030947316790522,2.965648921768694
1687015837.274891,0.08526478707790375,0.9754547476768494,-0.203022301197052,-0.038801684975624084,-0.02275693416595459,0.0038340389728546143,-1.000678300857544,0.1968187838792801,-0.45752179622650146,0.3976088203821288,-1.348776850240395,2.976914647119993
1687015837.3235989,0.06237305700778961,0.9809229969978333,-0.1841180920600891,0.07567328959703445,0.006656229496002197,-0.004755184054374695,0.32535338401794434,0.5510439872741699,-0.6637258529663086,0.32663248603755846,-1.3751538230328446,2.879060329148933
1687015837.416772,0.020833855494856834,0.982280433177948,-0.1862550526857376,0.06891842931509018,-0.08234763145446777,-0.011697173118591309,-0.385802686214447,0.5204851031303406,-1.050650715827942,0.11139355156674359,-1.3822645144838053,2.634563616797941
1687015837.434802,-0.02203827165067196,0.9858489632606506,-0.16618043184280396,0.13600626587867737,-0.01250612735748291,0.07555849850177765,-0.305500328540802,0.6995540857315063,-1.0714774131774902,-0.1318471817244901,-1.4023649859987952,2.35759515043134
1687015837.506644,-0.07158265262842178,0.9855022430419922,-0.15382236242294312,0.06506723165512085,0.08122450113296509,-0.04617460072040558,-0.24211981892585754,0.6451796293258667,-1.1912671327590942,-0.4355529807355878,-1.4003092290053094,2.020991512346249
1687015837.510773,-0.14610305428504944,0.9800088405609131,-0.1350431591272354,0.4117891788482666,0.09723114967346191,0.2735471725463867,-0.9150869846343994,1.3441662788391113,-2.171053647994995,-0.8247164935618067,-1.3705058709779674,1.5677840938137648
1687015837.563788,-0.24744956195354462,0.9602123498916626,-0.12946389615535736,0.4142282009124756,0.3189166188240051,0.08590006828308105,0.5491762161254883,1.1691488027572632,-2.5625174045562744,-1.0887668751591177,-1.287761667105773,1.2412403997189019
1687015837.655999,-0.35145437717437744,0.9144951701164246,-0.20044521987438202,0.4049212634563446,0.10456299781799316,0.2524014711380005,1.5934890508651733,0.16345857083797455,-1.823970079421997,-1.0524782246890811,-1.154258371438228,1.2381638654263993
1687015837.661965,-0.43622785806655884,0.8593851327896118,-0.26676300168037415,0.2633458375930786,0.2566274404525757,0.29149752855300903,0.7459222078323364,0.9807383418083191,-2.632943630218506,-1.0219477215930821,-1.0340659887742927,1.2420211672783736
1687015837.7157478,-0.5398489832878113,0.793571412563324,-0.28072670102119446,0.40903550386428833,0.2824479341506958,0.024470627307891846,-0.30122482776641846,-0.5679618716239929,-2.211407423019409,-1.0912694102836566,-0.9166561380463397,1.1333547083863313
1687015837.802075,-0.6230010390281677,0.7512080669403076,-0.21807394921779633,-0.24066162109375,-0.2761256694793701,-0.05293738842010498,-1.1664224863052368,-0.9375588893890381,-1.4114655256271362,-1.2340877580170317,-0.8498904452267015,1.0073075165313492
1687015837.809154,-0.662708580493927,0.7326889038085938,-0.1548682153224945,-0.46395450830459595,-0.4121933579444885,-0.1730584353208542,-0.16739344596862793,-1.6423876285552979,0.006669321097433567,-1.3412263808153693,-0.8222646119037378,0.9472039460007816
1687015837.867362,-0.6638368964195251,0.7369763851165771,-0.12722545862197876,-0.6613735556602478,-0.6005628108978271,-0.12605516612529755,1.5152692794799805,-1.7051112651824951,0.41958871483802795,-1.3814407279663006,-0.8285860314236764,1.0139792238551306
1687015837.986944,-0.6577301025390625,0.7383496165275574,-0.14909948408603668,-0.5261991620063782,-0.5402143001556396,-0.13404254615306854,1.9884734153747559,-0.830584704875946,0.37511125206947327,-1.3478758577489012,-0.8306199692132807,1.1477542271135421
1687015837.99256,-0.6515913605690002,0.7379509806632996,-0.1756615936756134,-0.3187454342842102,-0.3898979425430298,-0.06559509038925171,-0.917974054813385,0.9018154740333557,-0.12907998263835907,-1.3074679835220326,-0.8300290325049763,1.2035627835738296
1687015838.0757809,-0.654456377029419,0.7413194179534912,-0.148769810795784,0.11794215440750122,0.3303358554840088,0.0612301230430603,-1.7746858596801758,1.1348475217819214,-0.3546966016292572,-1.347276544724993,-0.8350341433209817,1.0675264281384507
1687015838.090688,-0.6579436659812927,0.73513263463974,-0.16337092220783234,0.11866772174835205,0.263127863407135,-0.07426945865154266,0.7971295714378357,0.4659019410610199,-0.2779970169067383,-1.327413280809585,-0.8258622938958357,1.0387709118822184
1687015838.19842,-0.6624643206596375,0.7280706167221069,-0.17622148990631104,0.110493004322052,-0.11411798000335693,-0.0017112493515014648,-0.5458370447158813,-0.11954236775636673,-0.04647432640194893,-1.3108080251098029,-0.8155031903536656,1.0531784320752708
1687015838.217582,-0.6634551882743835,0.7315890789031982,-0.15685884654521942,-0.01903986930847168,0.05013400316238403,-0.02125692367553711,0.20109230279922485,-0.10167521983385086,0.07283875346183777,-1.3386322866536984,-0.8206499106553441,1.0259205357258905
1687015838.282542,-0.6615220308303833,0.7315213680267334,-0.16512100398540497,-0.047584354877471924,-0.0574948787689209,0.010641038417816162,-0.16204482316970825,0.10350948572158813,0.016982410103082657,-1.326186898277929,-0.8205506598969062,1.0435133413819568
1687015838.2979488,-0.6602740287780762,0.7336375117301941,-0.1606677919626236,-0.006580710411071777,0.07014977931976318,-0.011970162391662598,0.023182092234492302,0.24514664709568024,-0.028156835585832596,-1.332100366313092,-0.823659450766742,1.0223746080998841
1687015838.373797,-0.6606027483940125,0.7307186126708984,-0.1722044199705124,0.011219263076782227,-0.026433944702148438,0.029626309871673584,-0.147867351770401,0.11502952128648758,-0.08871791511774063,-1.3157935662372258,-0.8193740158939787,1.032000492772815
1687015838.377791,-0.6636741161346436,0.7294656038284302,-0.1655796766281128,0.009560465812683105,0.0330466628074646,-0.022759556770324707,0.008913475088775158,0.026801658794283867,-0.07106009125709534,-1.3262982680243491,-0.8175403396392018,1.013039563312829
1687015838.468518,-0.6653670072555542,0.7268052101135254,-0.1704147607088089,0.0021589994430541992,-0.06683194637298584,0.03464202582836151,-0.04305305331945419,-0.06287016719579697,-0.0003108242526650429,-1.3200646328205652,-0.813659003505116,1.0237253556801642
1687015838.47396,-0.6637536883354187,0.7296978831291199,-0.16423121094703674,0.00031691789627075195,-0.013328313827514648,-0.01270972192287445,-0.02842004969716072,-0.028874119743704796,0.07974299788475037,-1.3282398835450409,-0.8178800176096797,1.0148123499260593
1687015838.5228229,-0.662348210811615,0.731328010559082,-0.1626473218202591,-0.014012813568115234,-0.03247547149658203,0.0502968430519104,-0.24616436660289764,0.06942848116159439,0.05411752685904503,-1.329999271717755,-0.8202670764927473,1.0121382561966916
1687015838.613667,-0.66038978099823,0.7346110939979553,-0.1556665599346161,0.01437842845916748,0.04065752029418945,-0.06731010973453522,-0.1011463850736618,0.0246153362095356,0.08055180311203003,-1.339302899133701,-0.8250933411263826,0.9924360033602104
1687015838.632056,-0.6585232019424438,0.7357874512672424,-0.15799954533576965,-0.0319979190826416,-0.04757028818130493,-0.03177398443222046,0.09743700921535492,-0.02081925794482231,0.0610063262283802,-1.335317430451816,-0.8268287488674985,0.9981824044345905
1687015838.706234,-0.6563265919685364,0.7381541728973389,-0.15608905255794525,-0.05689960718154907,-0.10541790723800659,-0.13691020011901855,-0.2634819447994232,-0.08244413882493973,0.049201600253582,-1.3373115265871807,-0.8303301734278848,0.9985549068909266
1687015838.7102962,-0.6560534834861755,0.7442643642425537,-0.12515726685523987,-0.026350021362304688,-0.3219316005706787,-0.3102675676345825,-1.160822868347168,-0.3183790147304535,0.09173042327165604,-1.382288456474467,-0.8394327257155224,0.9506444229265919
1687015838.829612,-0.6533846855163574,0.7555573582649231,-0.04713214561343193,0.0374026894569397,-0.3010285496711731,-0.4329093098640442,-1.990239143371582,-1.2818875312805176,0.14472146332263947,-1.498785684182098,-0.8565045287217264,0.8420126680866454
1687015838.889791,-0.6385577321052551,0.7621802687644958,0.10641974955797195,0.14533275365829468,-0.18329232931137085,-0.5015918016433716,-2.6517372131347656,-2.546159505844116,0.5063028335571289,-1.7359350383103695,-0.8666743756759773,0.6548312758056617
1687015838.894621,-0.5746815800666809,0.768561840057373,0.28116488456726074,0.36285918951034546,-0.16355085372924805,-0.5706546306610107,-1.1315176486968994,-3.691831111907959,1.311224341392517,-2.0258097223509126,-0.8765901865091027,0.481918281417311
1687015838.898462,-0.432085782289505,0.7961438894271851,0.42362305521965027,0.7226285338401794,-0.3477950096130371,-0.44027048349380493,-1.0368469953536987,-5.356523036956787,1.8507421016693115,-2.3463051154439545,-0.920895644422145,0.3541696353136771
1687015838.943109,-0.2336147427558899,0.7654932737350464,0.599536657333374,0.7840451002120972,-0.1583002209663391,0.11425429582595825,-1.9060308933258057,-5.526611328125,1.7399924993515015,-2.770032730668517,-0.8718076310084406,0.16498713509625335
1687015839.0064092,0.018662242218852043,0.7401877641677856,0.6721410751342773,0.835677444934845,-0.17986977100372314,0.2471703290939331,-0.3222711980342865,-5.39370584487915,2.2205352783203125,3.1138344183975426,-0.8333495256986204,-0.00018700634786328026
1687015839.065417,0.27596619725227356,0.7033804655075073,0.655056357383728,0.8791548013687134,-0.12617093324661255,0.2946353554725647,-0.6002193689346313,-4.685562610626221,2.5393948554992676,2.742871859918474,-0.7801421103346706,-0.16441304826791078
1687015839.156619,0.5060740113258362,0.6458941698074341,0.5715852975845337,0.7496023774147034,-0.04193609952926636,0.12848782539367676,-0.016264449805021286,-4.565797805786133,2.5479416847229004,2.416910148197782,-0.7021939824495775,-0.30536588179426605
1687015839.1625872,0.6843671202659607,0.5643245577812195,0.46171334385871887,0.5154314637184143,-0.08646517992019653,0.3338492512702942,-0.9390345811843872,-3.636540651321411,2.0654938220977783,2.1643106016258136,-0.5996148845672699,-0.3793849771556935
1687015839.2138638,0.798731803894043,0.47616761922836304,0.36782023310661316,0.29025739431381226,-0.024003982543945312,0.305534690618515,-1.1588101387023926,-3.0574631690979004,1.5705642700195312,2.002352018102492,-0.4962913653888314,-0.3711923256600957
1687015839.3056269,0.8760392069816589,0.3930546045303345,0.27939853072166443,0.19007724523544312,0.08146324753761292,0.4101307690143585,-1.224609136581421,-2.4354639053344727,1.4700778722763062,1.8795318392613587,-0.40395121733602385,-0.3427895264984807
1687015839.311747,0.929085910320282,0.31373435258865356,0.19588227570056915,0.12061184644699097,0.28264009952545166,0.4347175061702728,-0.6118028163909912,-2.076625347137451,1.4640852212905884,1.7785865168561643,-0.3191234143455335,-0.3063945340867166
1687015839.3678799,0.9627364873886108,0.24673575162887573,0.11072398722171783,0.022676050662994385,0.481734037399292,0.5098356008529663,0.3371776342391968,-1.5553122758865356,1.2294471263885498,1.6853028754274901,-0.24931041243674137,-0.3151602586412928
1687015839.457865,0.977689802646637,0.20331530272960663,0.05277688056230545,-0.13113224506378174,0.5540241599082947,0.5871765613555908,-0.16621139645576477,-0.6478897929191589,0.5219299793243408,1.6247251987939333,-0.20474275774997647,-0.3247900811671724
1687015839.463848,0.9787425994873047,0.1998724341392517,0.04597663879394531,-0.15003782510757446,0.550447940826416,0.3413064479827881,0.5681270956993103,0.34969717264175415,-0.3471561372280121,1.6177370294210711,-0.20122772638148342,-0.3323979208630468
1687015839.515945,0.9709191918373108,0.23069371283054352,0.06400171667337418,-0.017778992652893066,0.1688576489686966,0.10071682929992676,0.47859176993370056,0.5986758470535278,-0.7758129835128784,1.6366197802795417,-0.23279056944786647,-0.36157318640291525
1687015839.575311,0.9587591886520386,0.27133631706237793,0.08460009098052979,0.09058761596679688,0.006938159465789795,-0.09145141392946243,0.9381431937217712,0.43899548053741455,-0.7333803176879883,1.6588075266139695,-0.2747811553544207,-0.3908800530176617
1687015839.669172,0.9489683508872986,0.3026082515716553,0.08880960196256638,0.06505441665649414,-0.31092432141304016,-0.14693045616149902,0.06200418993830681,0.11578439176082611,-0.4791240096092224,1.6641099599331257,-0.3074280238093205,-0.4181961405283181
1687015839.6750011,0.9428139328956604,0.32150113582611084,0.08797141164541245,2.664327621459961e-05,-0.24958649277687073,-0.13060462474822998,0.222409188747406,-0.10008878260850906,-0.2606489360332489,1.6638342362925675,-0.3273143618914602,-0.42003837459011584
1687015839.722958,0.9424977898597717,0.32586026191711426,0.07424827665090561,0.009543776512145996,-0.26329925656318665,-0.044646382331848145,0.06918033957481384,-0.23588496446609497,0.05925929173827171,1.6494121579847087,-0.3319215143583268,-0.4326171127377619
1687015839.813546,0.9448602199554443,0.32067960500717163,0.0663623958826065,0.01583319902420044,-0.11035245656967163,0.024351008236408234,-0.06142520159482956,-0.18210454285144806,0.18624654412269592,1.6409163224295982,-0.3264468904194192,-0.4290919590479504
1687015839.832802,0.9502271413803101,0.3062446415424347,0.05729615315794945,0.007139980792999268,-0.025940656661987305,0.0507664829492569,-0.11753907054662704,-0.17663149535655975,0.3222472667694092,1.6310207312235918,-0.3112456162145079,-0.42908069758255435
1687015839.9049978,0.9542624950408936,0.29309356212615967,0.05898525193333626,-0.036598920822143555,0.05422693490982056,0.07147717475891113,-0.11079128831624985,0.045894261449575424,0.22818946838378906,1.6325301827513954,-0.2974609073721729,-0.4174773959393751
1687015839.909133,0.9569253921508789,0.28402310609817505,0.06020509824156761,0.02177339792251587,0.09051910042762756,0.020422108471393585,0.1319669634103775,0.026710843667387962,0.1861157864332199,1.6336286531385402,-0.2879874367174791,-0.4233526162120246
1687015839.965784,0.9582495093345642,0.27870091795921326,0.06390290707349777,-0.016477108001708984,0.06480491161346436,0.028870344161987305,-0.2019115388393402,0.13478244841098785,0.01947832480072975,1.6373848639279769,-0.28244116141627446,-0.4234850426720645
1687015840.060997,0.9556854963302612,0.28504323959350586,0.07359158247709274,0.020297229290008545,0.06123968958854675,-0.016951076686382294,-0.0756191834807396,0.10574773699045181,0.0026860302314162254,1.6476486409765212,-0.28905155158303497,-0.41520311594528786
1687015840.077289,0.9533188939094543,0.29110223054885864,0.08026712387800217,-0.009486377239227295,0.006352603435516357,-0.006078951060771942,-0.1961793452501297,0.11541328579187393,-0.11007247120141983,1.6547957610142365,-0.2953787647961689,-0.4104501378963532
1687015840.143559,0.9497973918914795,0.3010784685611725,0.08506867289543152,0.023865938186645508,0.003898918628692627,-0.025056004524230957,-0.12399764358997345,0.05759459361433983,-0.12226974964141846,1.6601230521302397,-0.3058233863819862,-0.4009652851398939
1687015840.237535,0.9480010271072388,0.3061716556549072,0.08690869063138962,0.012051522731781006,-0.028492212295532227,-0.012400142848491669,-0.1071978211402893,0.10433372855186462,-0.12591375410556793,1.6622165253338903,-0.3111689319385861,-0.39719408614308616
1687015840.243531,0.9464863538742065,0.31053146719932556,0.08794202655553818,0.006119847297668457,-0.02181994915008545,0.0058383941650390625,-0.15037278831005096,0.05346029996871948,-0.12040314078330994,1.6634445293433573,-0.31575208937254085,-0.3920168514662439
1687015840.3261828,0.9471485018730164,0.30858421325683594,0.08766550570726395,0.012079834938049316,-0.03667265176773071,-0.007236607372760773,-0.07475198805332184,-0.027787551283836365,-0.017703397199511528,1.6630906651351824,-0.31370425475842345,-0.3856042988536032
1687015840.331342,0.9483329653739929,0.30537480115890503,0.08608435094356537,-0.003493666648864746,-0.020081281661987305,0.03185068815946579,-0.12899546325206757,-0.040449149906635284,-0.03353295847773552,1.6613226191044794,-0.3103319988709601,-0.3839878848892036
1687015840.41646,0.9496461749076843,0.30110013484954834,0.0866650715470314,0.0017393231391906738,-0.0071395933628082275,0.01744556427001953,-0.07805577665567398,-0.031878430396318436,0.016672153025865555,1.6618046153899706,-0.3058461285654787,-0.3769183635613904
1687015840.432617,0.9505932927131653,0.2979768216609955,0.08707737922668457,0.013548612594604492,-0.018328994512557983,0.018513329327106476,-0.06750193238258362,-0.05122256651520729,0.014591692946851254,1.6621445800382484,-0.30257248599893993,-0.3754549288135368
1687015840.597919,0.9511433839797974,0.2959480583667755,0.08798252046108246,-0.0020467042922973633,0.0080680251121521,0.005065321922302246,0.015857400372624397,-0.04142985865473747,0.03367217630147934,1.6630356898520655,-0.30044789544301015,-0.37097315166403144
1687015840.615923,0.9523090720176697,0.29263195395469666,0.08645211160182953,-0.005318164825439453,0.018296360969543457,-0.010143160820007324,-0.034606438130140305,-0.05650414898991585,0.05712902918457985,1.661329732198817,-0.2969781250191453,-0.36939482667823154
1687015840.687762,0.9527806043624878,0.29119980335235596,0.08609279990196228,-0.008414030075073242,0.006682276725769043,0.029065139591693878,-0.07324331253767014,-0.019382348284125328,0.006006459705531597,1.6609111263763014,-0.2954807528459052,-0.36911422308408653
1687015840.6922932,0.9527207016944885,0.2916831076145172,0.08511218428611755,0.007163882255554199,0.03683856129646301,-0.002318151295185089,0.003590082051232457,-0.047587353736162186,0.024664830416440964,1.659895723215566,-0.29598598242977003,-0.36474762851739434
1687015840.6961389,0.9521979093551636,0.2930142283439636,0.08638163655996323,-0.01044076681137085,-0.004104346036911011,0.04096806049346924,-0.018498707562685013,0.015196135267615318,-0.036104507744312286,1.6612668396596144,-0.2973779089604965,-0.3680195415215382
1687015840.774749,0.9505077600479126,0.2976590096950531,0.08907222747802734,-0.008491277694702148,0.032800525426864624,0.010002844035625458,0.03434080258011818,0.03436131030321121,-0.0436556339263916,1.664233605774004,-0.30223957922776906,-0.3650267693432414
1687015840.779251,0.9494855403900146,0.2996771037578583,0.09311806410551071,0.010124564170837402,-0.032877177000045776,0.030477888882160187,0.015325301326811314,0.08276372402906418,-0.04520373046398163,1.6685558307869817,-0.30435419532195696,-0.36965984241996463
1687015840.86759,0.9478171467781067,0.3033330738544464,0.09814062714576721,0.00013506412506103516,0.0061914026737213135,-0.005702979862689972,-0.020255129784345627,0.06115097552537918,-0.03078431263566017,1.6739724834897467,-0.30818860597658926,-0.3654619691296472
1687015840.885798,0.9484509229660034,0.3003534972667694,0.10113435238599777,0.01176917552947998,-0.028411448001861572,-0.01144339144229889,-0.0014700570609420538,0.027769984677433968,0.02483367547392845,1.6770260113238198,-0.3050632421486558,-0.36625252890109433
1687015840.9564009,0.9485851526260376,0.2997252345085144,0.10173964500427246,0.00022161006927490234,0.003390580415725708,-0.05220973491668701,0.009423403069376945,-0.016025299206376076,0.009206513874232769,1.6776419750443265,-0.3044046442614273,-0.36361937671638705
1687015840.9610472,0.9496016502380371,0.297612726688385,0.09840425103902817,-0.030366480350494385,0.0874122679233551,0.0342249870300293,0.007861592806875706,-0.08493352681398392,-0.009009773842990398,1.6740546361168964,-0.3021910913350913,-0.36418709617735406
1687015841.015316,0.9495159387588501,0.2992743253707886,0.09409631788730621,0.04550957679748535,0.16845327615737915,0.18373559415340424,-0.19645532965660095,-0.08856368064880371,-0.10030053555965424,1.6695730674412306,-0.3039320352809236,-0.36077975314833627
1687015841.133809,0.9461684226989746,0.30826807022094727,0.09867113828659058,-0.031037867069244385,0.33583587408065796,0.38016486167907715,0.15909264981746674,0.24156256020069122,-0.3159007430076599,1.6747056887658405,-0.31337191602475833,-0.35275701624379785
1687015841.148602,0.9353546500205994,0.33509305119514465,0.11324354261159897,-0.017370760440826416,0.30045071244239807,0.5670695304870605,1.1913236379623413,0.9361667633056641,-0.6858735084533691,1.691280087223072,-0.3417039743252955,-0.38931982229180556
1687015841.219696,0.9095337986946106,0.38584157824516296,0.1545145958662033,0.08749085664749146,0.17191293835639954,0.5685383081436157,1.3303533792495728,1.7833707332611084,-1.133726954460144,1.7390730602950233,-0.39611987707683355,-0.44758512519422256
1687015841.225696,0.8594915270805359,0.45928022265434265,0.22435593605041504,0.15904772281646729,0.03415834903717041,0.5275054574012756,1.4516677856445312,2.8002960681915283,-1.5849127769470215,1.826132044108661,-0.47718474212057843,-0.5098066484647822
1687015841.314073,0.7689759135246277,0.5516277551651001,0.3230830132961273,0.3426879048347473,-0.027793586254119873,0.38985323905944824,1.4211702346801758,3.832054615020752,-2.0445594787597656,1.968549376916446,-0.584314491808154,-0.5537636371906298
1687015841.330816,0.6179011464118958,0.664110004901886,0.4208991229534149,0.649524450302124,-0.07032954692840576,0.21728432178497314,1.8112643957138062,4.603231906890869,-2.7524185180664062,2.168776362461392,-0.7263028081475519,-0.577067156105339
1687015841.397502,0.3936208188533783,0.7849452495574951,0.47845977544784546,0.9344279766082764,-0.09590411186218262,0.45934534072875977,1.8990135192871094,5.484797477722168,-3.3899080753326416,2.453172695903419,-0.9026077062155413,-0.5350714660640095
1687015841.4114408,0.1164119765162468,0.8788078427314758,0.46275845170021057,1.246686339378357,-0.014137864112854004,0.17714941501617432,2.324955463409424,4.956196308135986,-3.5496232509613037,2.8951453682225674,-1.0733580434925925,-0.33268128373441314
1687015841.462318,-0.1543584167957306,0.9230841994285583,0.3522629141807556,1.0756994485855103,0.06112295389175415,0.45134127140045166,2.5589661598205566,4.790365695953369,-3.9453394412994385,-2.7286024047893154,-1.1760240642483841,0.1267120341167774
1687015841.5583072,-0.38896650075912476,0.9065262675285339,0.1640578806400299,0.8510180711746216,-0.299516499042511,-0.2159224897623062,2.80442214012146,3.8983936309814453,-3.8264408111572266,-1.9699355670076535,-1.134981308685993,0.7183889036112847
1687015841.563199,-0.5588579773902893,0.8292325735092163,-0.007136201485991478,0.7657672762870789,-0.4551786780357361,-0.07184332609176636,1.2513480186462402,3.2334330081939697,-3.0736026763916016,-1.5580277637813764,-0.977733153483613,0.9834680365322523
1687015841.617023,-0.6414816379547119,0.7544740438461304,-0.13881686329841614,0.5097678899765015,-0.7402833700180054,-0.19802087545394897,0.4948424994945526,2.238161563873291,-1.7541022300720215,-1.357682071987857,-0.854852431051314,1.064909104965519
1687015841.706049,-0.6669259667396545,0.7240127921104431,-0.17611122131347656,0.2333323359489441,-0.6358322501182556,-0.39488792419433594,-1.0156205892562866,1.4004030227661133,-0.15393446385860443,-1.312625281175641,-0.8096021065566265,1.0001780189767788
1687015841.709923,-0.6413103342056274,0.7435970902442932,-0.1891670674085617,-0.04554861783981323,-0.2530575394630432,-0.3532980978488922,-1.0905375480651855,1.1593142747879028,0.6089839339256287,-1.2839609309415778,-0.838434173019526,0.9566201726484117
1687015841.816459,-0.6186991930007935,0.7736659646034241,-0.1365731805562973,-0.03401070833206177,0.3487858176231384,-0.316841721534729,-2.0633630752563477,0.4065925180912018,0.17447803914546967,-1.3535379524181932,-0.884606889640782,0.8144006194496616
1687015841.833313,-0.6116304993629456,0.7782092690467834,-0.1424725204706192,-0.09509545564651489,0.11995357275009155,-0.16023127734661102,1.79868483543396,0.1366124451160431,0.15918536484241486,-1.3419385218405695,-0.8918092623689972,0.8136436783342755
1687015841.9053988,-0.6071386337280273,0.7693808674812317,-0.1985844373703003,-0.10134214162826538,-0.2087576985359192,-0.09911447763442993,0.06989181041717529,0.10415836423635483,0.02440677210688591,-1.2546819968323797,-0.8778713485284239,0.9175602417742265
1687015841.908751,-0.6073943972587585,0.777334988117218,-0.16377510130405426,-0.23156428337097168,-0.20073586702346802,-0.08189135789871216,-1.3710650205612183,0.18294945359230042,-0.0499793104827404,-1.3074242234704498,-0.8904183203126014,0.8417216620035752
1687015842.033586,-0.6067231893539429,0.7801602482795715,-0.15243712067604065,-0.26629310846328735,-0.05957907438278198,-0.20663268864154816,0.48065319657325745,-0.009115861728787422,0.024490129202604294,-1.3246447748649504,-0.8949219093711536,0.8124065219891696
1687015842.05049,-0.6094253063201904,0.7754359245300293,-0.16522689163684845,-0.39301598072052,-0.19845527410507202,-0.23089122772216797,-0.16787667572498322,-0.0870499387383461,-0.10158151388168335,-1.3060416690363146,-0.8874051478186572,0.839455373897715
1687015842.118733,-0.6059829592704773,0.7801628112792969,-0.15534080564975739,-0.34390711784362793,-0.1632956862449646,-0.18660861253738403,0.36967334151268005,-0.06262316554784775,0.3218216896057129,-1.3198547009947377,-0.8949260058895477,0.8275102596346334
1687015842.132362,-0.5830323100090027,0.7897894978523254,-0.1905413269996643,-0.19379264116287231,-0.1501867175102234,-0.1217145025730133,1.1903043985366821,-0.3568325340747833,0.9937549829483032,-1.2549273635711442,-0.9104657562949824,0.9193613757124736
1687015842.214153,-0.5334243774414062,0.8254820704460144,-0.18449316918849945,-0.08429712057113647,-0.1886259913444519,0.10395729541778564,-1.202907681465149,-0.3822321891784668,1.5401302576065063,-1.2378093925021025,-0.9710557679759209,0.9628841438063118
1687015842.2312799,-0.4500211179256439,0.8809331059455872,-0.1464163362979889,-0.020605623722076416,0.06645458936691284,-0.23960047960281372,1.3542182445526123,-0.7544546127319336,2.553671360015869,-1.2562439464394723,-1.0778303694182858,0.966227838118344
1687015842.303561,-0.3448251783847809,0.9234208464622498,-0.16849105060100555,0.29959824681282043,-0.1875048279762268,0.15405626595020294,-1.7592257261276245,-1.0478782653808594,2.610975742340088,-1.1162880683490823,-1.1769003935360163,1.1711212881315909
1687015842.307308,-0.1859789341688156,0.9825279712677002,-0.007123067043721676,0.5889178514480591,0.10865861177444458,-0.028841853141784668,-1.3184864521026611,-1.5114402770996094,4.104798316955566,-1.532514641084592,-1.3835899093031827,0.7969271584519793
1687015842.360773,0.007809037808328867,0.9842691421508789,-0.17650282382965088,0.9266850352287292,0.07235616445541382,0.22414076328277588,5.392828941345215,-1.8156750202178955,4.079204559326172,0.04421429689754388,-1.3931886247463443,2.472616896640459
1687015842.457666,0.14665481448173523,0.9670537114143372,-0.20808567106723785,0.32500970363616943,-0.16033679246902466,0.5104996562004089,-3.6867949962615967,-1.4336885213851929,1.9286465644836426,0.6139274701278223,-1.3133907064488082,-3.1369282641930125
1687015842.4633842,0.17225374281406403,0.9810973405838013,-0.0881846621632576,-0.43400293588638306,0.48080140352249146,-0.1691243052482605,0.1417692005634308,-0.25854209065437317,-0.26954150199890137,1.0976374344924464,-1.3760529906322498,-2.5798138317680404
1687015842.509542,0.1558493822813034,0.9735389947891235,-0.16713109612464905,0.09311309456825256,-0.01382225751876831,0.10708779096603394,2.0964651107788086,0.36071422696113586,-0.319180428981781,0.7504823193804643,-1.3402382408193956,-2.956485023880864
1687015842.606892,0.13885152339935303,0.9658792614936829,-0.21862629055976868,0.16812486946582794,-0.14114177227020264,0.043241798877716064,0.006366560701280832,0.17538847029209137,-0.22063787281513214,0.5658357132251581,-1.3088170663798258,3.1153419917263596
1687015842.613315,0.14480242133140564,0.9673244953155518,-0.20812442898750305,-0.10381723940372467,0.09004855155944824,-0.002767324447631836,0.026807453483343124,0.017488451674580574,0.1873147338628769,0.6078674371433841,-1.3144565159964314,-3.121043659487849
1687015842.663131,0.14603771269321442,0.9627104997634888,-0.22773121297359467,0.018284276127815247,-0.031848132610321045,-0.04558420181274414,0.18236854672431946,-0.13179877400398254,-0.1297423243522644,0.5702152531965509,-1.2968489145215125,3.122707152899775
1687015842.75353,0.14127114415168762,0.9657615423202515,-0.2175942212343216,0.015421435236930847,0.027478814125061035,0.0344277024269104,-0.022223206236958504,0.08248662948608398,-0.1017647385597229,0.5758416604374964,-1.3083628711163144,3.1289532543401903
1687015842.75806,0.13614390790462494,0.96434485912323,-0.22694413363933563,-0.03156009316444397,-0.03764820098876953,-0.002242833375930786,0.0939892902970314,-0.09317894279956818,-0.0727730393409729,0.5403463648539247,-1.30295650371573,3.0950051862349346
1687015842.814691,0.13657163083553314,0.966090202331543,-0.21912965178489685,0.005762428045272827,0.030415475368499756,0.03422367572784424,-0.12468605488538742,-0.00501019973307848,0.0577215813100338,0.5573368572955884,-1.309632833122262,3.1130893065917635
1687015842.9086351,0.13197827339172363,0.9656698107719421,-0.22374919056892395,-0.03294864296913147,0.04577434062957764,-0.023397475481033325,0.28396525979042053,0.12114973366260529,-0.20375022292137146,0.5329222250528312,-1.3080095311612703,3.084913469327576
1687015842.914222,0.12573154270648956,0.9634252786636353,-0.23665030300617218,0.029740333557128906,-0.06527775526046753,0.008790850639343262,0.1939527690410614,0.04676617681980133,-0.07188194245100021,0.48837043160352883,-1.2995035407557727,3.0334842039460392
1687015842.963853,0.12062400579452515,0.9646552205085754,-0.23428604006767273,-0.012118689715862274,-0.04064410924911499,-0.0018131434917449951,-0.1567119061946869,0.14455878734588623,-0.12855933606624603,0.47546311347738607,-1.3041317366143867,3.016132709742159
1687015843.0577102,0.11682651191949844,0.9654169082641602,-0.23307040333747864,0.005976296961307526,-0.03891855478286743,-0.02651214599609375,0.04333915933966637,0.2114214301109314,-0.22919966280460358,0.4646470112655053,-1.3070378691220876,2.997853284698267
1687015843.064235,0.0918254554271698,0.9709493517875671,-0.22096461057662964,0.03849993646144867,-0.09599518775939941,0.045717477798461914,-0.6083992719650269,0.8631548881530762,-1.0371170043945312,0.3938531925323744,-1.3291668708095175,2.897780836613429
1687015843.113359,0.0478435717523098,0.9781609177589417,-0.2022673785686493,0.16460463404655457,0.031284213066101074,-0.03865361213684082,0.07492657750844955,1.0942919254302979,-1.3784937858581543,0.23226732959936203,-1.3614210048666169,2.681421651826983
1687015843.208528,-0.015021299943327904,0.9809181690216064,-0.1938398778438568,0.20636659860610962,-0.008170366287231445,-0.041786372661590576,-0.38285955786705017,0.621427595615387,-1.4643956422805786,-0.07733877639416802,-1.3751290608743003,2.319782296883235
1687015843.214645,-0.08375367522239685,0.9805985689163208,-0.17723356187343597,0.214704692363739,0.0249708890914917,0.009692072868347168,-0.3690556585788727,0.8191503882408142,-1.5065020322799683,-0.4414564807384848,-1.373491937740097,1.9089253844817513
1687015843.264165,-0.15172018110752106,0.9743255376815796,-0.16634482145309448,0.19775605201721191,0.06730037927627563,0.10620994865894318,-0.545915424823761,0.9586755037307739,-1.8332910537719727,-0.739450472472453,-1.343705670347619,1.5632746800174848
1687015843.359105,-0.23479142785072327,0.9603098034858704,-0.15059179067611694,0.25709986686706543,0.2004261612892151,0.08034040033817291,-0.023389071226119995,0.6871572136878967,-1.8111120462417603,-1.00050091502487,-1.2881107973145483,1.2534769861511883
1687015843.365176,-0.32411447167396545,0.9278761744499207,-0.18437939882278442,0.38511916995048523,0.028117597103118896,0.15335826575756073,0.598131537437439,0.3562356233596802,-1.919783115386963,-1.0535801983198398,-1.188676300108631,1.1561306450728808
1687015843.410623,-0.39697083830833435,0.8892873525619507,-0.22711710631847382,0.038053661584854126,-0.0003255605697631836,0.08997112512588501,1.0137090682983398,0.5055195093154907,-1.845571756362915,-1.051125071590546,-1.0957846350092044,1.1488434346829355
1687015843.473359,-0.4717826843261719,0.8495954275131226,-0.2358144074678421,0.1504479944705963,0.11872720718383789,0.11578884720802307,-0.25850749015808105,0.04994892328977585,-1.5350146293640137,-1.1072791991288666,-1.0152177840016179,1.0650670931117585
1687015843.567064,-0.5372024774551392,0.7995737195014954,-0.26850590109825134,0.11540383100509644,0.14972132444381714,0.14864814281463623,0.6987038254737854,-0.4109814167022705,-1.8055449724197388,-1.1072906923160037,-0.9265851115978722,1.0679601711598403
1687015843.5870361,-0.603627622127533,0.7597917318344116,-0.24155785143375397,-0.00695270299911499,0.13921034336090088,0.20916348695755005,0.006340527907013893,-0.6323094964027405,-1.1997053623199463,-1.1901374253901078,-0.8629927469994906,0.9985864195255455
1687015843.6541119,-0.6455299258232117,0.7205139398574829,-0.2532801032066345,-0.14501261711120605,-0.22344356775283813,0.027633190155029297,1.3643876314163208,-1.5429123640060425,-0.48099568486213684,-1.1968934662396327,-0.8045431699701789,1.0553257729979524
1687015843.657751,-0.6655815243721008,0.7187075018882751,-0.20114858448505402,-0.5005255937576294,-0.5146821737289429,0.0394207239151001,-0.5918112397193909,-1.6033961772918701,0.3575807511806488,-1.2773088445399066,-0.8019416456549519,1.0584176208973088
1687015843.712572,-0.6617198586463928,0.7315415143966675,-0.1642366647720337,-0.6212237477302551,-0.5049790740013123,-0.5478147268295288,2.252692699432373,-2.950505018234253,0.02897835522890091,-1.3275156214431127,-0.8205801804674154,1.1051203574778554
1687015843.808735,-0.6629842519760132,0.7405682802200317,-0.10959168523550034,-0.24827051162719727,-0.5427075624465942,-0.25213319063186646,-2.203223943710327,0.7312829494476318,0.5014742612838745,-1.4069770957738363,-0.8339156142318626,1.054989620623273
1687015843.8137631,-0.6398881673812866,0.7617595195770264,-0.10131923109292984,-0.13116884231567383,0.3964131474494934,0.004425942897796631,0.0026550462935119867,1.3986828327178955,0.2015719711780548,-1.4137610541830976,-0.8660246717503166,0.9633356345359148
1687015843.863107,-0.6337730884552002,0.7541989088058472,-0.1718009114265442,0.10253852605819702,0.15995514392852783,0.06202925741672516,1.0445111989974976,0.5394952297210693,-0.23620536923408508,-1.3060815223106201,-0.8544332763820538,1.0325038273271627
1687015843.958211,-0.6399524211883545,0.7452163696289062,-0.18738575279712677,0.13276559114456177,-0.03977203369140625,0.02005791664123535,-0.3364676833152771,-0.07402895390987396,-0.10655363649129868,-1.2859469960737444,-0.8408592551846219,1.0413571363729015
1687015843.963591,-0.6450607776641846,0.7418456077575684,-0.18319830298423767,-0.002598404884338379,-0.08136886358261108,-0.02969229221343994,0.24608361721038818,-0.2011038064956665,-0.017099125310778618,-1.2940807980595874,-0.8358184366129718,1.0450558312146931
1687015844.013988,-0.6428294777870178,0.7477205991744995,-0.16638527810573578,-0.0384143590927124,-0.03444850444793701,0.018848061561584473,-0.7455808520317078,0.10302985459566116,0.14355526864528656,-1.317521979363866,-0.8446226755570825,1.0168995734541213
1687015844.107136,-0.6374748349189758,0.754194438457489,-0.15753214061260223,-0.00817018747329712,0.07484608888626099,-0.05351215600967407,-0.05495438724756241,0.170258030295372,0.021488744765520096,-1.3285310229215772,-0.8544264945940566,0.9906144829601695
1687015844.111714,-0.6427658200263977,0.7500053644180298,-0.156025692820549,-0.06881248950958252,-0.037465691566467285,-0.12832176685333252,-0.336868017911911,-0.23028980195522308,-0.32654431462287903,-1.332661135695307,-0.848070209460992,0.9806649769407221
1687015844.168483,-0.6566702127456665,0.7445032596588135,-0.12041318416595459,-0.1071847677230835,-0.1536523699760437,-0.16893918812274933,-1.3580156564712524,0.1939588338136673,-0.352505624294281,-1.3894417139547734,-0.8397904865290609,0.9063309313588427
1687015844.2593122,-0.6696262359619141,0.7380238175392151,-0.0831964910030365,-0.015645921230316162,-0.0020923614501953125,-0.3326665163040161,-0.6651101112365723,0.031048335134983063,-0.3716321885585785,-1.4471865856396575,-0.830137021036379,0.81633539283636
1687015844.265171,-0.6807880997657776,0.7281144857406616,-0.07985489070415497,-0.01704198122024536,-0.03356492519378662,-0.36979109048843384,0.7319129109382629,-0.4411052167415619,-0.1242399588227272,-1.4540321704161419,-0.8155672032733231,0.821712337163638
1687015844.377264,-0.6787590384483337,0.7299808859825134,-0.08008928596973419,0.05305713415145874,-0.10411101579666138,-0.22052407264709473,-0.0016407659277319908,-0.809313178062439,0.4313015639781952,-1.453345694409036,-0.8182939526520534,0.8648187500931962
1687015844.382514,-0.6487841606140137,0.7601999640464783,-0.03427645564079285,0.2063862681388855,-0.2816997170448303,-0.41543060541152954,-0.09084980189800262,-1.7258793115615845,1.3678284883499146,-1.518013564164826,-0.8636208226706656,0.862836814780926
1687015844.4672809,-0.5784919857978821,0.8151832222938538,0.028692686930298805,0.40741056203842163,-0.33317333459854126,-0.3629058599472046,0.054972246289253235,-2.8144216537475586,2.1833107471466064,-1.6203548251402558,-0.9530454096758108,0.8718372371237207
1687015844.488416,-0.4556129574775696,0.8754028081893921,0.16151462495326996,0.5795143842697144,-0.662344217300415,-0.09576450288295746,-2.223435878753662,-3.913015604019165,2.910033702850342,-1.9114740835061443,-1.0662684807585532,0.7297828276582902
1687015844.5519629,-0.2643640339374542,0.8971108794212341,0.35398271679878235,0.7477625608444214,-0.18852323293685913,-0.150873064994812,-1.4742554426193237,-4.8979973793029785,3.4894092082977295,-2.500125021743579,-1.1131861325925934,0.31677239581354216
1687015844.569893,-0.0290619395673275,0.9054461717605591,0.42346471548080444,0.9720094203948975,-0.29704785346984863,0.342526376247406,-1.3687827587127686,-5.712404251098633,2.607680320739746,-3.073071143473627,-1.1324296770105085,-0.020210083438506884
1687015844.610573,0.21962164342403412,0.8494124412536621,0.4798594117164612,0.9082623720169067,-0.04852426052093506,0.6227863430976868,-1.3086650371551514,-4.7242631912231445,2.8415675163269043,2.7123711172897877,-1.0148708687064363,-0.2853541360038713
1687015844.705039,0.43292611837387085,0.7872204780578613,0.43915683031082153,0.6637078523635864,-0.1805310845375061,0.05196237564086914,-0.807151734828949,-4.248330593109131,2.4062066078186035,2.3633390049493688,-0.9062886821179562,-0.43862962615541035
1687015844.708606,0.6025861501693726,0.6953446865081787,0.3916444182395935,0.46389639377593994,-0.10547053813934326,0.39207738637924194,-1.8741118907928467,-3.344848871231079,2.5226430892944336,2.1471288829286794,-0.7688994031778642,-0.4689332175233393
1687015844.761195,0.7350238561630249,0.583452045917511,0.3454325199127197,0.3458477258682251,0.11376774311065674,0.18696177005767822,-1.2753181457519531,-2.804131269454956,2.2434945106506348,2.0101252270815504,-0.6229727574770569,-0.4498691737839575
1687015844.822806,0.8315429091453552,0.4864003658294678,0.2682368755340576,0.2576141953468323,0.16087740659713745,0.29928314685821533,-0.7849888801574707,-2.3739936351776123,1.9378634691238403,1.882835419595984,-0.5079651977605758,-0.44320402293728345
1687015844.949425,0.893103837966919,0.4008750021457672,0.20411980152130127,0.1281670331954956,0.17802822589874268,0.31867673993110657,-1.5889735221862793,-1.7895207405090332,1.3782262802124023,1.7954881160431546,-0.4124717501840952,-0.40380375973791416
1687015844.9723182,0.9278812408447266,0.3348579406738281,0.164031982421875,0.07968711853027344,0.301967591047287,0.35266101360321045,-1.6787281036376953,-1.4383288621902466,0.9010440111160278,1.7457697742629739,-0.3414544747214455,-0.3235655085776001
1687015845.033293,0.9502676725387573,0.2870442867279053,0.12081712484359741,-0.0240134596824646,0.32060641050338745,0.38553035259246826,-0.806661069393158,-1.174714207649231,0.7687224745750427,1.6972579407735742,-0.29113985325806424,-0.26578588730482583
1687015845.051365,0.9639315009117126,0.2529318928718567,0.08283491432666779,-0.036563336849212646,0.4076057970523834,0.4169665575027466,0.024070389568805695,-0.6201031804084778,0.48193544149398804,1.6565201666289306,-0.255709494792571,-0.24652252505532
1687015845.1858048,0.9689916968345642,0.23928655683994293,0.06161996349692345,-0.07587957382202148,0.358842670917511,0.3606516122817993,0.5370098948478699,-0.08538892865180969,0.10568778216838837,1.6343026513018213,-0.24163099920215114,-0.2674871357374193
1687015845.20842,0.9675907492637634,0.24487413465976715,0.06168251484632492,-0.0776371955871582,0.29525643587112427,0.2374812364578247,0.7603604197502136,0.354863703250885,-0.23048916459083557,1.634458739847936,-0.24738986857959602,-0.29566115551458433
1687015845.2445889,0.9611383676528931,0.26618170738220215,0.07321204990148544,-0.008547604084014893,0.08272570371627808,0.08213745802640915,0.7338383793830872,0.5371566414833069,-0.508371114730835,1.6468217438415635,-0.2694296460641178,-0.33971925786126367
1687015845.2471771,0.9515474438667297,0.293527752161026,0.09164565801620483,0.04602646827697754,-0.012918621301651001,-0.021607987582683563,0.5491338968276978,0.5060085654258728,-0.5232217311859131,1.666812406339737,-0.29791505827775144,-0.3662210141955214
1687015845.249757,0.9416698813438416,0.31986474990844727,0.10461392253637314,0.049891889095306396,-0.18198642134666443,-0.08808876574039459,0.36386311054229736,0.3535325229167938,-0.40813133120536804,1.681436694394742,-0.3255867484139884,-0.39007254378613093
1687015845.3010921,0.9357948303222656,0.33497053384780884,0.1099219098687172,0.01603323221206665,-0.19246870279312134,-0.11749039590358734,0.3418061435222626,0.16945800185203552,-0.17555081844329834,1.6877241974896144,-0.3415739599249535,-0.4077080015082896
1687015845.3624048,0.9328953623771667,0.34160804748535156,0.11406209319829941,-0.0029027462005615234,-0.19860273599624634,-0.09537017345428467,-0.11468575894832611,0.06444530934095383,-0.049153998494148254,1.6924592331522916,-0.34862735223523106,-0.4113096845606612
1687015845.489862,0.9342889785766602,0.3386339247226715,0.11149466037750244,0.03356069326400757,-0.12549921870231628,-0.11509586125612259,-0.060173314064741135,-0.1618337631225586,0.11875830590724945,1.6895709961718486,-0.34546466355382277,-0.4080403027887223
1687015845.495335,0.9399451613426208,0.325206995010376,0.10365094989538193,0.01583486795425415,-0.08350780606269836,-0.03541374206542969,-0.3572657108306885,-0.2075655609369278,0.19253027439117432,1.680625976541939,-0.33123061129558673,-0.3983920635199271
1687015845.609099,0.9467580914497375,0.3089205026626587,0.09064918011426926,0.02029818296432495,0.05175146460533142,-0.02679121494293213,0.05202086642384529,-0.32487380504608154,0.34018683433532715,1.6662522724987847,-0.3140578121524885,-0.39048793728872777
1687015845.614668,0.9526535272598267,0.29464688897132874,0.07506296783685684,-0.010957419872283936,0.06178313493728638,0.028559327125549316,-0.049966488033533096,-0.3090554475784302,0.2854282557964325,1.6494274300765202,-0.29908597477693377,-0.39254424820696104
1687015845.697886,0.9566982388496399,0.2841489911079407,0.06314694136381149,-0.021655023097991943,0.12059032917022705,0.06347035616636276,-0.0218193382024765,-0.2239673137664795,0.15260788798332214,1.6367058020039527,-0.2881187068586919,-0.3893221271905887
1687015845.719265,0.9583569169044495,0.2802797257900238,0.0547301210463047,0.0003833174705505371,0.06459939479827881,0.01732182502746582,-0.1590891033411026,-0.2010544091463089,0.04167870059609413,1.6278426516372562,-0.28408549938070465,-0.3863729352118636
1687015845.782714,0.958527147769928,0.2805481255054474,0.050182655453681946,-0.029938340187072754,0.09095755219459534,0.04881620034575462,-0.07790610939264297,-0.0898011177778244,-0.04479307308793068,1.6231024950530732,-0.2843651193136061,-0.37864259579022774
1687015845.799864,0.9555631875991821,0.29028815031051636,0.05129975825548172,-0.009945571422576904,0.003168821334838867,0.0758364200592041,-0.22301118075847626,-0.004630699288100004,-0.115878164768219,1.6244302036299394,-0.2945279365031317,-0.3736121523368792
1687015845.872827,0.9519372582435608,0.30063971877098083,0.058575812727212906,0.014615416526794434,0.011906027793884277,0.020418763160705566,0.13289301097393036,0.051906879991292953,-0.11026874929666519,1.6322521121343059,-0.30536331806337785,-0.3671226518919079
1687015845.876358,0.9504106640815735,0.3045220673084259,0.06313389539718628,-0.021287739276885986,-0.04626709222793579,0.039282917976379395,-0.021339502185583115,0.030585477128624916,-0.045255664736032486,1.637126891867094,-0.30943661600773575,-0.3708573324724552
1687015845.96389,0.9504511952400208,0.3038956820964813,0.06549753248691559,0.006946206092834473,-0.04432845115661621,-0.020926833152770996,-0.0729813277721405,-0.003372622188180685,0.027224130928516388,1.639599595807579,-0.30877908053927616,-0.3651526360664345
1687015845.982328,0.9521234035491943,0.297912061214447,0.06862601637840271,0.019083261489868164,0.01213124394416809,0.06041741371154785,0.2126263827085495,-0.018700577318668365,0.0369875431060791,1.6427487046359102,-0.30250464916106695,-0.36826990107991603
1687015846.053019,0.9537141919136047,0.293390154838562,0.0659644603729248,-0.03290736675262451,-0.0008487105369567871,0.06835853308439255,-0.20705729722976685,-0.020438291132450104,0.07759649306535721,1.6398522038387284,-0.2977711185354297,-0.3711477318475287
1687015846.070199,0.9542459845542908,0.29020634293556213,0.07207422703504562,-0.019004344940185547,0.1377263367176056,0.11260282248258591,0.16373254358768463,0.196371391415596,0.011932524852454662,1.646183215445427,-0.29444245774321687,-0.36524449739296244
1687015846.110843,0.9521447420120239,0.29455336928367615,0.08159937709569931,0.016437292098999023,0.08786231279373169,0.06697522848844528,0.27000734210014343,0.3118729293346405,-0.12213552743196487,1.6562880359018923,-0.29898813106034683,-0.3804127527903844
1687015846.203556,0.9477872848510742,0.30467885732650757,0.09417954087257385,-0.04361259937286377,0.07853031158447266,-0.08832038193941116,0.6432563662528992,0.43296393752098083,-0.23506101965904236,1.669839001562436,-0.3096012382122979,-0.3987575970356604
1687015846.221755,0.9419445395469666,0.31963515281677246,0.10282904654741287,0.04171329736709595,-0.09188252687454224,-0.0935213565826416,0.28328272700309753,0.3184620141983032,-0.2980104088783264,1.6795325097289973,-0.32534442456916735,-0.43134451491880443
1687015846.262959,0.9360769987106323,0.33271461725234985,0.11428394913673401,0.018726468086242676,-0.06554853916168213,-0.12971067428588867,-0.05251459777355194,0.15212948620319366,-0.2193763256072998,1.6922832886135741,-0.33918074816570404,-0.4293693753516523
1687015846.3897061,0.9329240322113037,0.3394790291786194,0.12002737820148468,0.0023176074028015137,-0.07934725284576416,-0.07742501050233841,-0.10138546675443649,0.09415113925933838,-0.09895110875368118,1.6987506042993856,-0.3463629676209444,-0.42546290180151075
1687015846.39473,0.9307657480239868,0.34287360310554504,0.12693707644939423,0.026525020599365234,-0.10212042927742004,-0.0973808616399765,-0.4642608165740967,-0.027457185089588165,-0.1025887206196785,1.7063393060522587,-0.34997423765323904,-0.4090830631442436
1687015846.478643,0.9304640889167786,0.3421100378036499,0.13113678991794586,0.00871419906616211,0.0029368698596954346,-0.04342938959598541,-0.3280099034309387,-0.09981048107147217,0.020643725991249084,1.7108111078836046,-0.3491615308897439,-0.3845010405692718
1687015846.483294,0.9321389198303223,0.33861276507377625,0.12829093635082245,0.02104717493057251,-0.056920260190963745,-0.06383787095546722,-0.053756233304739,-0.13112898170948029,0.057468581944704056,1.7075677605688797,-0.34544217572974556,-0.37902873638548557
1687015846.566067,0.9339702129364014,0.33537471294403076,0.12338387966156006,-0.0035959482192993164,0.02157413959503174,0.0031113773584365845,-0.07222817838191986,-0.15040095150470734,0.0648849606513977,1.702142631252152,-0.34200295294033184,-0.3721787583722871
1687015846.583713,0.9383452534675598,0.3272513449192047,0.111421599984169,0.011560142040252686,-0.0226706862449646,-0.022615551948547363,-0.10455576330423355,-0.21531790494918823,0.11618223786354065,1.6889855667480884,-0.3333932808200046,-0.37492181669738456
1687015846.653893,0.9398683309555054,0.3239791989326477,0.10809817165136337,-0.00964665412902832,0.055506885051727295,0.02399708330631256,-0.1148223802447319,-0.131259486079216,0.03886320814490318,1.6853073361599915,-0.3299325212504791,-0.3632292141076415
1687015846.657737,0.9417099952697754,0.32112807035446167,0.10029340535402298,0.02206552028656006,0.023155927658081055,0.014894954860210419,0.07294125854969025,-0.14161811769008636,0.09500397741794586,1.6768977515292947,-0.3269204058328184,-0.36658957501014633
1687015846.718312,0.9417147636413574,0.3219262361526489,0.09765740483999252,-0.028293073177337646,0.049136996269226074,0.055693283677101135,-0.016471177339553833,-0.08054570108652115,0.013387410901486874,1.6741286450444686,-0.3277633208684339,-0.3655089211353473
1687015846.804504,0.9410203099250793,0.32455453276634216,0.09563039988279343,-0.002543807029724121,0.07875049114227295,0.06541073322296143,0.37385836243629456,-0.06485915184020996,0.03678913787007332,1.6720728020860933,-0.33054073840234904,-0.3702161238327099
1687015846.823822,0.9417585134506226,0.3263190984725952,0.08128158748149872,-0.010652005672454834,0.1123405396938324,0.38748347759246826,0.7459359765052795,-0.044945765286684036,0.011759952642023563,1.656891284914522,-0.3324068790899739,-0.4079546038482197
1687015846.864318,0.9398990869522095,0.3304613530635834,0.08593593537807465,-0.06503641605377197,0.30380067229270935,0.5902113914489746,0.37300294637680054,0.5429282784461975,-0.15777687728405,1.6619738478729926,-0.3367923555732696,-0.424815392577536
1687015846.954957,0.9277694225311279,0.3534446954727173,0.11966974288225174,0.028712570667266846,0.2957557439804077,0.6360675096511841,0.9303093552589417,1.516990303993225,-0.655703604221344,1.6990745554677598,-0.3612509262432456,-0.4655806527087767
1687015846.972519,0.8945508003234863,0.40519681572914124,0.1886644810438156,0.21241331100463867,0.294876366853714,0.4548596143722534,1.5717718601226807,2.36655592918396,-1.2050647735595703,1.7786543350377604,-0.4171940852243216,-0.5173710250138238
1687015847.011946,0.8283310532569885,0.4893452823162079,0.27278023958206177,0.3033981919288635,0.17811992764472961,0.4258432686328888,1.8126606941223145,3.3385913372039795,-1.7926560640335083,1.8889242901158598,-0.5113388573457818,-0.5900889575319497
1687015847.106452,0.7056496143341064,0.6026696562767029,0.3726224899291992,0.5372092127799988,0.04176992177963257,0.32615360617637634,1.9994670152664185,4.508486747741699,-2.576840877532959,2.056635984344357,-0.6468423692368045,-0.640475502280409
1687015847.1103969,0.49560782313346863,0.7512786984443665,0.43583592772483826,1.114926815032959,-0.120602548122406,0.4419409930706024,3.3217015266418457,5.581125259399414,-3.584397315979004,2.292111111152625,-0.8499974296635658,-0.673095651606173
1687015847.1604419,0.17840933799743652,0.8866764903068542,0.42658475041389465,1.6721004247665405,0.23788082599639893,0.5496113896369934,2.335911989212036,5.621626853942871,-5.039674282073975,2.745472602103126,-1.0901072188883103,-0.4884225313406201
1687015847.259862,-0.14242124557495117,0.9353590607643127,0.32375892996788025,1.4226948022842407,-0.44593334197998047,0.22004905343055725,2.444826126098633,5.241638660430908,-4.967055320739746,-2.7271703444833584,-1.209272902578465,0.11173127712484354
1687015847.265732,-0.4036481976509094,0.9075303077697754,0.11600442230701447,1.3710554838180542,-0.6824325323104858,-0.007987365126609802,2.8483176231384277,4.167679309844971,-3.592395782470703,-1.8506444819353784,-1.1373657553067285,0.7915795296227788
1687015847.311153,-0.5658899545669556,0.8224233984947205,-0.058212053030729294,1.009630799293518,-0.5447743535041809,-0.12533587217330933,1.1936206817626953,3.099419355392456,-3.0513529777526855,-1.4682887349911276,-0.9656579480030864,1.0153089544705414
1687015847.403728,-0.6481524705886841,0.7505652904510498,-0.1286473572254181,0.49573248624801636,-0.7620246410369873,-0.3815149664878845,-1.41831636428833,1.4748704433441162,-1.7585047483444214,-1.3748596809528717,-0.8489171623526143,0.9866925261570529
1687015847.424279,-0.6749721765518188,0.7314198017120361,-0.0971476137638092,-0.12748748064041138,-0.46495556831359863,-0.6788533329963684,-1.245941400527954,0.5689991116523743,-0.14725738763809204,-1.4278496758760226,-0.8204016744119993,0.8575241534469934
1687015847.461978,-0.6633171439170837,0.7444304823875427,-0.07637812942266464,-0.3307928442955017,-0.17343133687973022,-0.6568066477775574,-1.8882993459701538,0.8426406979560852,0.33284422755241394,-1.4561554873051223,-0.8396814619412699,0.7702813837619388
1687015847.55707,-0.6530718803405762,0.7566598057746887,-0.031034154817461967,-0.16907161474227905,0.3297201991081238,-0.2363913655281067,-0.22074994444847107,0.5106639266014099,0.17306949198246002,-1.5233117737297062,-0.8581890877289652,0.6386957426163175
1687015847.561739,-0.6464499831199646,0.7542101740837097,-0.11519231647253036,0.0039024949073791504,0.0005505681037902832,0.03050607442855835,2.652007579803467,0.1926104724407196,0.09365295618772507,-1.3944550561027915,-0.8544504838419801,0.7851570869118468
1687015847.6143951,-0.6491025686264038,0.7455355525016785,-0.15113791823387146,0.040307462215423584,-0.19583767652511597,0.08270221948623657,-1.0646082162857056,0.039092279970645905,-0.23354993760585785,-1.3420310293664737,-0.84133805837603,0.8476317386021388
1687015847.7067351,-0.6567863821983337,0.7468526363372803,-0.10412898659706116,-0.045377254486083984,0.05426430702209473,-0.019558727741241455,-0.23838047683238983,-0.11707934737205505,-0.07566762715578079,-1.413561864201256,-0.843316445850886,0.7564204775662867
1687015847.7130508,-0.6589932441711426,0.7431651949882507,-0.11590234190225601,-0.11035478115081787,-0.13690298795700073,-0.1682010293006897,0.4177842140197754,-0.29364213347435,-0.011057744733989239,-1.396698988262788,-0.8377884969479693,0.7930790892622099
1687015847.768323,-0.6652073860168457,0.7397257089614868,-0.10151335597038269,-0.317717969417572,-0.16816198825836182,-0.17619657516479492,-0.22401991486549377,-0.1780092716217041,-0.215048685669899,-1.419360595086628,-0.8326626420568155,0.7812114177502443
1687015847.856223,-0.670985221862793,0.7277436256408691,-0.1420143097639084,-0.21262067556381226,-0.0010895133018493652,-0.09661787748336792,2.3895561695098877,0.1261623352766037,-0.11409224569797516,-1.3622239507468545,-0.8150262604843692,0.8596830297367998
1687015847.862453,-0.6726521253585815,0.7037860751152039,-0.2285265475511551,-0.26081955432891846,-0.19173157215118408,0.12580439448356628,1.2345178127288818,0.011515780352056026,-0.04092269763350487,-1.243291265323681,-0.7807129430663242,1.0226077141481864
1687015847.9139462,-0.6699413061141968,0.7097620368003845,-0.21775299310684204,-0.11671018600463867,-0.2115015983581543,-0.10475669801235199,-1.3738106489181519,-0.11863236874341965,0.27342164516448975,-1.2565346499267216,-0.7891603485313932,0.9995045546559421
1687015848.010155,-0.6531893610954285,0.7349122166633606,-0.18233929574489594,-0.13353848457336426,-0.037402451038360596,0.11524641513824463,-0.4523417055606842,-0.08614286780357361,0.5664758682250977,-1.2985738959931838,-0.8255372525091701,0.9477664784117239
1687015848.016175,-0.6248285174369812,0.7671394348144531,-0.1452108472585678,-0.11403244733810425,-0.1854744553565979,-0.1826852411031723,-0.7301962375640869,-0.3585984706878662,1.241393804550171,-1.3424486581496666,-0.8743698601008216,0.8993370855084872
1687015848.059969,-0.552147626876831,0.818045973777771,-0.16103926301002502,0.024559855461120605,-0.13831275701522827,-0.1361256092786789,1.5941044092178345,-0.20066851377487183,2.300013780593872,-1.2870085494973367,-0.9580053842264235,0.9901754178321911
1687015848.188582,-0.45213863253593445,0.8778656721115112,-0.15786860883235931,0.24330690503120422,-0.42808234691619873,0.07374691963195801,-1.5500516891479492,-0.610167384147644,2.9889628887176514,-1.2348702561721603,-1.0713871898136917,1.0689404850516475
1687015848.209136,-0.2733565866947174,0.9570186734199524,-0.09690987318754196,0.36216282844543457,0.05926245450973511,0.08487069606781006,0.631684422492981,-0.46076732873916626,4.354721546173096,-1.230102120696425,-1.2765419310505235,1.1009237258296078
1687015848.272551,-0.08599871397018433,0.9867842793464661,-0.13733576238155365,0.8183138370513916,0.0010697245597839355,0.14314937591552734,-0.4191892743110657,-0.6129705905914307,3.8082337379455566,-0.5594568618327986,-1.408039182057728,1.806700189037337
1687015848.276122,0.06315525621175766,0.9963769912719727,-0.05695817247033119,0.3986673355102539,0.18215078115463257,0.04887104034423828,-1.0198172330856323,-1.645248532295227,2.361555576324463,0.8369460457460677,-1.4856472629590318,-3.0059494688432378
1687015848.366183,0.13607124984264374,0.9860243201255798,-0.09612838178873062,0.04363156855106354,0.1752610206604004,0.023328721523284912,1.7691490650177002,-1.1717603206634521,1.1373358964920044,0.955750470063507,-1.403414496773893,-2.810600350211084
1687015848.3846068,0.17515474557876587,0.9727956056594849,-0.15162290632724762,0.0011758953332901,-0.06042689085006714,0.1488763689994812,-0.3535119891166687,-0.3404059112071991,0.6007140278816223,0.857285869065507,-1.3370073251213395,-2.872742710956726
1687015848.455031,0.18822139501571655,0.9755004644393921,-0.11389224976301193,-0.00691637396812439,0.09772640466690063,-0.02551203966140747,-0.4756278991699219,0.07420166581869125,-0.016249576583504677,1.0266372621291837,-1.348984682778826,-2.6955022887863676
1687015848.4725962,0.18960461020469666,0.9726675152778625,-0.13404399156570435,-0.03987005352973938,0.1210671067237854,-0.01779620349407196,0.9316241145133972,0.0189991295337677,-0.019370002672076225,0.9554105664722548,-1.336455080080196,-2.768866642854773
1687015848.511816,0.18531189858913422,0.9719140529632568,-0.14506115019321442,0.05394600331783295,-0.03587883710861206,0.020625755190849304,-0.3923685848712921,0.03666387498378754,-0.01988239586353302,0.9066348865538677,-1.3332320893398806,-2.8231889125811453
1687015848.574023,0.18565909564495087,0.9724985957145691,-0.140631303191185,-0.02853928506374359,0.05214428901672363,-0.03237287700176239,0.2830488979816437,0.04446454346179962,-0.09121409803628922,0.9225311641563544,-1.3357286052673012,-2.806732720249344
1687015848.664134,0.1820039600133896,0.9717010259628296,-0.15057048201560974,0.019076421856880188,-0.01389169692993164,-0.0011628717184066772,0.0848604366183281,-0.12616606056690216,0.010218515060842037,0.879633845239609,-1.3323284583159911,-2.8481172000389687
1687015848.682904,0.1797695755958557,0.9712361693382263,-0.156150683760643,-0.008626922965049744,-0.025038719177246094,0.0162886381149292,0.15849077701568604,0.05339212343096733,-0.09946723282337189,0.8555936693211019,-1.3303685138133086,-2.8718710640414096
1687015848.754428,0.1786632388830185,0.9703835248947144,-0.16259001195430756,-0.016736865043640137,-0.030594587326049805,-0.010627761483192444,0.07078249752521515,-0.03980199992656708,-0.010691826231777668,0.8324639532775848,-1.3268133058605456,-2.8946793660006773
1687015848.7580318,0.1781018078327179,0.9701070785522461,-0.16483904421329498,0.026564404368400574,-0.02200227975845337,0.020628273487091064,0.03992891684174538,-0.0313764251768589,0.05537613853812218,0.8240525098824306,-1.3256717089523555,-2.9026236898592614
1687015848.844759,0.17877808213233948,0.9697839617729187,-0.16600455343723297,-0.011099189519882202,-0.0307123064994812,0.009144186973571777,-0.10373151302337646,0.06657716631889343,-0.07668708264827728,0.8224293213589609,-1.3243435949291602,-2.9057669758972438
1687015848.84938,0.1748449206352234,0.97208571434021,-0.15645620226860046,0.0031031370162963867,-0.007974445819854736,-0.011970266699790955,-0.2646784782409668,0.2147064507007599,-0.21381884813308716,0.8408458113784129,-1.3339623846408928,-2.892247026087418
1687015848.902663,0.15548746287822723,0.9784889221191406,-0.1355835646390915,0.02519191801548004,-0.0019570589065551758,0.004129067063331604,-0.4001828134059906,0.7086191177368164,-0.724744975566864,0.8536734857632094,-1.3630047680518564,-2.901986302901945
1687015848.9663758,0.11382117867469788,0.9859192967414856,-0.12250623106956482,0.09617035835981369,0.003445267677307129,-0.04650008678436279,0.03044353425502777,0.9817843437194824,-1.219199776649475,0.7486646161521309,-1.4027853175041374,-3.050426436912717
1687015849.059101,0.050476446747779846,0.9915849566459656,-0.11921216547489166,0.24726839363574982,-0.011772334575653076,-0.024098336696624756,-0.1633785367012024,1.139783263206482,-1.7029757499694824,0.40052897829892486,-1.4409742173690558,2.827171056723007
1687015849.064361,-0.03274264559149742,0.9925311207771301,-0.11751532554626465,0.28657266497612,0.2553631067276001,0.05316901206970215,0.20039662718772888,1.0481127500534058,-2.0275490283966064,-0.27173272985198965,-1.4485002380942749,2.0954553197506818
1687015849.1125178,-0.1506621390581131,0.9843576550483704,-0.09132806956768036,0.45811158418655396,0.04609882831573486,0.11926692724227905,-1.228129267692566,0.8639446496963501,-2.574427366256714,-1.0258465586827987,-1.3936903314465066,1.2790284584047866
1687015849.2056909,-0.2706104516983032,0.9570866227149963,-0.10370615124702454,0.3515278995037079,0.1744440197944641,0.21334058046340942,0.6082521080970764,1.095598816871643,-2.950819969177246,-1.2048295711070576,-1.2767764080895718,1.0489585241424377
1687015849.22586,-0.39944005012512207,0.9101792573928833,-0.10964275896549225,0.27567604184150696,0.09630584716796875,0.26766282320022583,-0.19096048176288605,0.5434967279434204,-2.6745450496673584,-1.3029032372244114,-1.1437165951078956,0.9091333506280281
1687015849.26075,-0.5170413851737976,0.8455913662910461,-0.13282783329486847,0.46304070949554443,0.04745972156524658,0.24295051395893097,0.13418997824192047,0.13430295884609222,-2.594425916671753,-1.3193343559665567,-1.0076719309109747,0.8578404340778455
1687015849.354749,-0.5992538332939148,0.7883043885231018,-0.13953851163387299,0.02816319465637207,-0.03960138559341431,0.08706355094909668,0.6032686829566956,0.11282628774642944,-1.706544041633606,-1.3420192519407543,-0.9080482752323923,0.8294521023598542
1687015849.372751,-0.6537003517150879,0.7440257668495178,-0.13820800185203552,-0.11676162481307983,-0.19136768579483032,-0.01888120174407959,-0.11455725878477097,-0.8201383352279663,-0.852435827255249,-1.362440573080523,-0.839075579971824,0.8233771012485583
1687015849.445757,-0.678420901298523,0.7288137078285217,-0.09260573238134384,-0.4802857041358948,-0.18524974584579468,-0.19166547060012817,-0.3511923551559448,-1.2083028554916382,-0.28871679306030273,-1.4351328907453598,-0.8165877754064721,0.7921555138064366
1687015849.538306,-0.6914317011833191,0.7203842997550964,-0.0544823557138443,-0.5134326815605164,-0.4269578456878662,-0.4117041826248169,1.2891045808792114,-1.472002387046814,-0.1444927603006363,-1.4921623648517706,-0.8043562534144126,0.8065328501130177
1687015849.558649,-0.6914952397346497,0.7172267436981201,-0.08613958954811096,-0.3744989037513733,-0.7850214838981628,-0.19628530740737915,2.3220081329345703,-1.0646153688430786,0.4553011655807495,-1.446864697983495,-0.7998143517936628,0.9746018231885091
1687015849.6230412,-0.6715769171714783,0.7383062243461609,-0.06235790625214577,-0.19367271661758423,-0.4776097536087036,-0.07851124554872513,-2.2588698863983154,-0.17138026654720306,0.61405348777771,-1.4782088405047382,-0.8305556214839585,0.9723720198042005
1687015849.626437,-0.660851240158081,0.7501996755599976,-0.02181672304868698,-0.038565754890441895,0.6098772287368774,0.07284212112426758,0.1149512231349945,0.6612913012504578,0.11677052080631256,-1.5377952509443629,-0.848364049330954,0.8583610055815267
1687015849.7151,-0.6625260710716248,0.74681556224823,-0.05767077952623367,0.040699899196624756,0.07146763801574707,0.004219286143779755,-0.07150620222091675,0.44804462790489197,-0.3025124967098236,-1.4839683753495132,-0.843260697791467,0.8963417350933045
1687015849.7342181,-0.6706763505935669,0.740434467792511,-0.04415934905409813,0.07161635160446167,0.06977677345275879,0.06599467992782593,-0.2907232344150543,0.08030442893505096,-0.0908132940530777,-1.5050482183057188,-0.8337164917253673,0.852247684443459
1687015849.80233,-0.672319769859314,0.7370661497116089,-0.06869812309741974,0.056215763092041016,-0.11556041240692139,-0.03022456169128418,0.7924124002456665,-0.16208516061306,0.040856052190065384,-1.468969013654196,-0.8287188558781494,0.9031702903918805
1687015849.805911,-0.6722999811172485,0.7383838891983032,-0.05293424800038338,-0.05659705400466919,-0.06632572412490845,0.07689058780670166,-1.1116241216659546,0.014852188527584076,0.05913093313574791,-1.492222369537176,-0.8306707287594965,0.8794211445674761
1687015849.8613482,-0.6686708927154541,0.7421283721923828,-0.046095069497823715,-0.014251410961151123,0.09702879190444946,-0.036454979330301285,0.4557133615016937,0.10347166657447815,0.03194458410143852,-1.501969851749369,-0.8362402674528907,0.8584753711993649
1687015849.96072,-0.6723394989967346,0.738616943359375,-0.049035876989364624,-0.1100243330001831,-0.0958251953125,-0.022604167461395264,-0.835469126701355,0.22847393155097961,-0.2349555492401123,-1.4979920220431786,-0.8310164476931972,0.8538464205067098
1687015849.965611,-0.6820650100708008,0.7312795519828796,-0.004214957356452942,-0.22352886199951172,-0.15812885761260986,-0.284374475479126,-1.890811562538147,0.3627273440361023,-0.18676911294460297,-1.5646167051766122,-0.820196023775691,0.7452054743866868
1687015850.011142,-0.6909672021865845,0.7219802141189575,0.03618168458342552,-0.012890219688415527,-0.15578752756118774,-0.4151642322540283,-0.8459678888320923,0.20798422396183014,-0.2193845808506012,-1.62311236814487,-0.8066599967449795,0.6359045631645037
1687015850.104841,-0.6881668567657471,0.7244065999984741,0.04075855761766434,0.03974473476409912,0.002262711524963379,-0.6121543645858765,0.5619886517524719,-0.582753598690033,0.2834031879901886,-1.6299549461054221,-0.8101731811561866,0.6377859975728187
1687015850.1259298,-0.6593122482299805,0.7482350468635559,0.07383523881435394,0.17899620532989502,-0.07153826951980591,-0.44755351543426514,-0.2216961681842804,-1.9675322771072388,1.0860072374343872,-1.6823199261885367,-0.8453976987336173,0.6540079077956347
1687015850.194412,-0.5959177017211914,0.7854748964309692,0.16706658899784088,0.22482401132583618,0.04976069927215576,-0.3308238983154297,-0.414061039686203,-2.8850669860839844,1.4145954847335815,-1.8441312079066323,-0.9034630733654896,0.5981392177055825
1687015850.2884622,-0.5043841600418091,0.8177784085273743,0.277192085981369,0.4959002733230591,-0.04119741916656494,-0.11637955904006958,-0.5470867156982422,-3.2361772060394287,1.5839682817459106,-2.0733058223566774,-0.9575402707274966,0.5056954724410677
1687015850.30899,-0.3801513612270355,0.8708925843238831,0.3114975690841675,0.46349501609802246,0.2660854458808899,-0.16467753052711487,3.0092103481292725,-3.8086297512054443,1.8830114603042603,-2.2572575170953786,-1.0570155599328148,0.4906935545790626
1687015850.371156,-0.2264074981212616,0.9281908869743347,0.29529890418052673,0.6870245933532715,-0.6540513634681702,0.39233842492103577,-2.064541816711426,-4.142129898071289,2.1339874267578125,-2.487485016502391,-1.1895211129497767,0.4654562327714431
1687015850.388314,-0.05541342869400978,0.9055443406105042,0.4206174910068512,0.45258453488349915,0.021900296211242676,0.1193147599697113,-0.3444705605506897,-4.247154712677002,1.9457647800445557,-3.010603961003607,-1.1326610776798827,0.12310912850810775
1687015850.462864,0.12223351746797562,0.8887314200401306,0.44183218479156494,0.701634407043457,-0.4179975986480713,0.31390511989593506,-1.9990941286087036,-3.767962694168091,2.052293062210083,2.871691745421665,-1.0945705007448912,-0.09827188778646709
1687015850.466413,0.2891108989715576,0.8420030474662781,0.45546185970306396,0.49566391110420227,-0.08666259050369263,0.0037054717540740967,-0.08155643194913864,-3.9514081478118896,1.735478162765503,2.5760026596447942,-1.0009855072902627,-0.21956615940734647
1687015850.555157,0.45172107219696045,0.7967676520347595,0.4013841450214386,0.38182082772254944,-0.3077846169471741,0.30869874358177185,-0.9544869661331177,-3.3215599060058594,2.2232725620269775,2.2972584504356606,-0.9219271426447133,-0.3306118098581456
1687015850.5743809,0.5876567959785461,0.7210991382598877,0.3669811189174652,0.33075445890426636,-0.13531434535980225,0.19435903429985046,-1.3245104551315308,-2.7821433544158936,1.8307050466537476,2.1290231071658963,-0.8053874956050611,-0.3531210300030564
1687015850.673384,0.6914087533950806,0.6379583477973938,0.3390623927116394,0.1977667212486267,-0.0604894757270813,0.22410884499549866,-1.6630651950836182,-2.3588318824768066,1.6475621461868286,2.0267292806642008,-0.6918441079857656,-0.3157546785471286
1687015850.6778212,0.7726424932479858,0.5561550855636597,0.3061286211013794,0.1766524314880371,0.004345893859863281,0.33928748965263367,-1.1272555589675903,-1.6897385120391846,1.5293084383010864,1.9480311249492237,-0.5897522078274513,-0.27763463638159597
1687015850.765499,0.8337915539741516,0.4786503314971924,0.2751101553440094,0.13677436113357544,0.071001797914505,0.22720900177955627,-1.3876925706863403,-1.6651159524917603,1.4968104362487793,1.8894994813379982,-0.4991168620907983,-0.2298163696748771
1687015850.786882,0.8866257667541504,0.39928266406059265,0.23338410258293152,0.1333022117614746,0.16057753562927246,0.32089126110076904,-0.5266502499580383,-1.3203198909759521,1.5354177951812744,1.828184948280954,-0.41073431204710836,-0.20026932883494986
1687015850.853174,0.9277097582817078,0.32565364241600037,0.18249450623989105,0.08887654542922974,0.13178953528404236,0.27240025997161865,-0.5688900947570801,-1.2683833837509155,1.4441664218902588,1.7650313416978598,-0.33170298794242514,-0.19756476129886524
1687015850.856699,0.9575909972190857,0.25454702973365784,0.1350017786026001,0.025700747966766357,0.47181710600852966,0.36045098304748535,0.1249370127916336,-0.9165006279945374,1.3357446193695068,1.7108539240581806,-0.25737927702285296,-0.19372955817932958
1687015850.94403,0.9742961525917053,0.20384551584720612,0.09588548541069031,-0.0595928430557251,0.6554379463195801,0.35548460483551025,0.06923560798168182,-0.48742371797561646,0.7438802123069763,1.668895560430062,-0.2052843241114544,-0.21155006615935815
1687015850.947737,0.9773339629173279,0.1914287805557251,0.0904076099395752,-0.10314255952835083,0.7634509801864624,0.18986570835113525,0.6632916331291199,0.2584739029407501,-0.23896387219429016,1.6630381394721079,-0.19261763874802967,-0.2191333504936189
1687015851.003745,0.9710450172424316,0.2213861346244812,0.08977492153644562,0.02308022975921631,0.06590631604194641,0.12227629870176315,1.224129557609558,0.24247975647449493,-0.6757188439369202,1.662986130465159,-0.22323564658292205,-0.2879891953518506
1687015851.094095,0.9604835510253906,0.26083359122276306,0.09714532643556595,0.025875091552734375,-0.03222644329071045,0.018638253211975098,0.1641014665365219,0.3054245114326477,-0.7915253639221191,1.6715956463534896,-0.26388559128365713,-0.309332747327927
1687015851.186131,0.9487801194190979,0.29632025957107544,0.10959219187498093,0.020473361015319824,-0.16826853156089783,0.017803311347961426,0.09841086715459824,0.3862258791923523,-0.6563451886177063,1.6857952111512702,-0.30083757335911565,-0.31604367127806327
1687015851.2086601,0.9382561445236206,0.3218918740749359,0.12673141062259674,0.06354433298110962,-0.2602616250514984,-0.0760570764541626,-0.06496667116880417,0.24399083852767944,-0.4131828248500824,1.7050550036286605,-0.3277270216828174,-0.3119285469786462
1687015851.268641,0.9307643175125122,0.3372761905193329,0.14114856719970703,-0.015206336975097656,-0.22152301669120789,0.016978159546852112,-0.30156731605529785,0.28277671337127686,-0.26408255100250244,1.7212976349211928,-0.3440220493454318,-0.3006043996594413
1687015851.287168,0.9279277920722961,0.33913370966911316,0.1547197550535202,0.03712952136993408,-0.14717820286750793,-0.058269038796424866,-0.27486303448677063,0.07182253152132034,0.05430900678038597,1.736013288501732,-0.345995871021461,-0.28191574242357875
1687015851.3615398,0.927813708782196,0.33387047052383423,0.16641004383563995,-0.0005523562431335449,-0.10552272200584412,-0.010389089584350586,-0.25110796093940735,0.18442191183567047,0.12018389999866486,1.7482665537582307,-0.3404066955841024,-0.26851606088418
1687015851.365219,0.9303804636001587,0.32262569665908813,0.1740819364786148,0.014931857585906982,-0.011712700128555298,-0.012033730745315552,-0.02304132841527462,0.08213242143392563,0.2685246467590332,1.755765890232586,-0.3285022193555658,-0.2612296496763183
1687015851.455975,0.9336776733398438,0.31123775243759155,0.1771356761455536,0.00226593017578125,-0.0027508437633514404,-0.04368233680725098,-0.019954724237322807,0.01547803170979023,0.27012813091278076,1.7582863060078933,-0.3164952086418499,-0.26527697247901194
1687015851.475545,0.9381971955299377,0.29828330874443054,0.1755354404449463,0.0034987926483154297,0.08045503497123718,0.017793163657188416,0.11387936770915985,-0.014524608850479126,0.2530790865421295,1.7557565444548258,-0.3028935864636622,-0.27039076083967717
1687015851.514585,0.9411371350288391,0.2907368838787079,0.17243178188800812,0.004312574863433838,0.08549901843070984,-0.027473345398902893,0.055319588631391525,-0.05777367949485779,0.17853190004825592,1.7520029950960607,-0.29499689061472656,-0.2754902057234111
1687015851.529015,0.9411666393280029,0.29258137941360474,0.16911962628364563,-0.012821972370147705,0.09155860543251038,0.04906569421291351,0.2834817171096802,0.02631230279803276,0.08490660041570663,1.7485904105892918,-0.2969252240582161,-0.2875202175174392
1687015851.571198,0.9394968152046204,0.2982293963432312,0.1685366928577423,-0.017042100429534912,0.07414603233337402,0.04249213635921478,-0.07389512658119202,0.051230836659669876,-0.06465678662061691,1.748298706704241,-0.3028370923666544,-0.29110573515941435
1687015851.6318312,0.935269832611084,0.3087673485279083,0.17301063239574432,0.00988990068435669,0.08391755819320679,0.04120729863643646,0.27312085032463074,0.0897727683186531,-0.1246655285358429,1.753713323543057,-0.31389676873674566,-0.2958843089890727
1687015851.693449,0.9300724267959595,0.321154922246933,0.1783941090106964,0.011516749858856201,0.08346232771873474,0.11436091363430023,0.02622329071164131,0.17537128925323486,-0.2465653419494629,1.760301418212553,-0.3269487679954769,-0.30126196088799434
1687015851.75457,0.9221419095993042,0.33877384662628174,0.18677999079227448,-0.02933478355407715,0.17062556743621826,0.08279682695865631,0.38260897994041443,0.24320361018180847,-0.3804006278514862,1.770642753894588,-0.34561336972256945,-0.3033363655421134
1687015851.84569,0.9122737050056458,0.3653475046157837,0.18514253199100494,-0.03437459468841553,0.19483309984207153,0.0691298097372055,1.813916563987732,0.472552090883255,-0.46166539192199707,1.7710232185982218,-0.3740060759931614,-0.3518989803116089
1687015851.8503242,0.8970436453819275,0.4124212861061096,0.15881220996379852,0.00948101282119751,0.108727365732193,0.07064938545227051,3.712333917617798,0.7864803671836853,-0.5506623983383179,1.7460202543974654,-0.42511031666978744,-0.49516130688907456
1687015851.903081,0.8791229724884033,0.46623334288597107,0.09883850067853928,0.0017821192741394043,0.11718633770942688,0.16335320472717285,6.119315147399902,1.3208709955215454,-0.41975337266921997,1.6827547074887703,-0.4850282516448505,-0.7602241812744939
1687015852.028796,0.8690913915634155,0.4945333003997803,-0.010806250385940075,0.0722995400428772,-0.09089267253875732,0.2839842438697815,7.063660621643066,1.0966874361038208,-0.20048733055591583,1.5583630039103038,-0.5172977851529637,-1.1444739975874305
1687015852.034628,0.8667628169059753,0.4803689420223236,-0.13404378294944763,0.04679608345031738,-0.22721052169799805,0.37487322092056274,5.760622024536133,0.6606241464614868,-0.26399412751197815,1.417363066876415,-0.5010753344129057,-1.5214195136077429
1687015852.116463,0.8658304214477539,0.45119860768318176,-0.21623460948467255,-0.010590553283691406,-0.2433129847049713,0.39941632747650146,3.6464643478393555,0.655121386051178,-0.26738592982292175,1.3260600778422384,-0.46810798613439186,-1.7842662306669523
1687015852.1365519,0.8709027767181396,0.42779064178466797,-0.241916224360466,-0.0076215267181396484,-0.18366539478302002,0.3618350028991699,2.1322925090789795,0.9491214156150818,-0.17239417135715485,1.299850778219033,-0.44204705704122427,-1.940149680459129
1687015852.2036982,0.8833125233650208,0.4063267409801483,-0.23378978669643402,-0.011074244976043701,-0.1303563117980957,0.3370002210140228,2.0003695487976074,1.3079429864883423,0.09611877799034119,1.3120552969200827,-0.41843037735354044,-2.042909119269053
1687015852.221029,0.9042391777038574,0.37049877643585205,-0.212325319647789,0.024273335933685303,-0.06143215298652649,0.2293388992547989,2.7479777336120605,1.5210663080215454,0.26889801025390625,1.3401634748760507,-0.37954596635059257,-2.1642128586610543
1687015852.29289,0.9259180426597595,0.3316148519515991,-0.1808517426252365,0.0066991448402404785,-0.060451000928878784,0.2985275387763977,2.661393165588379,1.8341182470321655,0.2794603705406189,1.3779033078827936,-0.33801477464446766,-2.303794406442402
1687015852.29643,0.9464086294174194,0.2972222864627838,-0.12637116014957428,0.03889721632003784,-0.010845392942428589,0.22097568213939667,3.0188329219818115,2.1956534385681152,0.35303792357444763,1.4380544603713166,-0.30178215064349395,-2.4409247624972235
1687015852.3561258,0.9620019197463989,0.2652756869792938,-0.06466080248355865,0.1338537335395813,0.061048686504364014,0.04296285659074783,4.367151260375977,2.366682291030884,0.24114146828651428,1.5036824351213454,-0.26848983342602195,-2.6261545513998628
1687015852.443695,0.9651914238929749,0.2570454478263855,-0.04829934984445572,1.1660034656524658,-0.38325098156929016,-1.9710029363632202,8.44278621673584,0.11706124991178513,-0.28473082184791565,1.5207968215393215,-0.2599636845541582,-2.9560860167830723
1687015852.448201,0.962250828742981,0.23959414660930634,-0.12910374999046326,-0.2946484088897705,-0.4743506610393524,0.10195846855640411,2.4940695762634277,0.756327748298645,0.6032714247703552,1.437424296148574,-0.24194780030565585,3.049891099426062
1687015852.503684,0.9734087586402893,0.18965546786785126,-0.12847718596458435,0.25358104705810547,-0.09271635115146637,0.011625394225120544,1.0701442956924438,-0.6475585103034973,0.4017828106880188,1.4395679568078874,-0.1908112328280175,2.964306241519353
1687015852.596842,0.9705820083618164,0.17041049897670746,-0.1700909435749054,-0.16014188528060913,-0.14291414618492126,0.2376873940229416,-0.8337852954864502,-0.5097604393959045,0.1564074158668518,1.3973116536473924,-0.17124625408290337,2.961965107266739
1687015852.6018481,0.9671528339385986,0.18238183856010437,-0.17706574499607086,0.003046751022338867,-0.04377099871635437,0.20642369985580444,-2.225926160812378,-0.45575422048568726,-0.09951170533895493,1.3897222478618476,-0.1834083784344761,3.0386811413347483
