Timestamp,gravityX,gravityY,gravityZ,accelerationX,accelerationY,accelerationZ,rotationRateX,rotationRateY,rotationRateZ,attitudeRoll,attitudePitch,attitudeYaw
1687007428.736662,0.9240090847015381,0.3705342710018158,0.0944007858633995,0.0006124377250671387,-0.003484100103378296,0.010655879974365234,-0.08694053441286087,-0.024549677968025208,0.001228482462465763,1.6726074360858194,-0.37958415651580146,-0.01171017961329692
1687007428.742264,0.9242382645606995,0.37019848823547363,0.09347008913755417,0.0009630322456359863,0.00805160403251648,-0.016932010650634766,0.011447956785559654,-0.026085790246725082,0.0026567354798316956,1.6715856724006812,-0.3792226905517693,-0.010112433610712476
1687007428.8200278,0.9240320324897766,0.3707009255886078,0.09351684898138046,0.006219923496246338,0.0022238492965698242,-0.021648049354553223,-0.016411904245615005,-0.009215463884174824,-0.02109200321137905,1.6716581024382267,-0.3797636136236525,-0.009240364187181088
1687007428.838325,0.9238071441650391,0.3716513514518738,0.09195360541343689,0.0038965940475463867,0.0007088184356689453,-0.014988310635089874,-0.015978675335645676,-0.040027838200330734,-0.010263323783874512,1.6700072002611763,-0.38078716240778765,-0.007713594455592896
1687007428.9164891,0.9238038659095764,0.3721577525138855,0.08991608768701553,-0.002844512462615967,-0.0030324161052703857,-0.0030783414840698242,-0.08342096954584122,-0.06230704486370087,-0.01656649261713028,1.6678231424944312,-0.3813326898012295,-0.004959255298704344
1687007428.935631,0.923948347568512,0.37217557430267334,0.08834238350391388,-0.0067885518074035645,-0.017576605081558228,-0.0016421154141426086,-0.1069454699754715,-0.04908685013651848,-0.010866530239582062,1.6661205360551024,-0.3813518665968559,-0.0012094368757653625
1687007429.0039,0.9241547584533691,0.3719100058078766,0.08729754388332367,-0.006491243839263916,-0.010520845651626587,-0.009569287300109863,-0.08318094909191132,-0.06892060488462448,0.007324990816414356,1.6649789026244666,-0.381065763263727,0.002985842858416694
1687007429.020383,0.9246246814727783,0.37096139788627625,0.08635087311267853,-0.0028108954429626465,-0.0061695873737335205,0.007322780787944794,-0.11383458971977234,-0.0470653735101223,0.009563378058373928,1.6639164212253255,-0.3800440838112869,0.009168481532592745
1687007429.0937,0.9252286553382874,0.3697512149810791,0.08506190031766891,-0.006161510944366455,-0.010193198919296265,0.012350186705589294,-0.0999450832605362,-0.05511358007788658,0.016801849007606506,1.6624746935520782,-0.3787412530688732,0.013556010889371849
1687007429.0972981,0.9257313013076782,0.3682897984981537,0.08593014627695084,-0.0057942867279052734,0.0013543665409088135,0.00025153160095214844,-0.1641041487455368,-0.03183981776237488,0.015492639504373074,1.6633551614777906,-0.37716884866764194,0.020781905977224346
1687007429.158045,0.9258489012718201,0.36743834614753723,0.08827701210975647,0.014916419982910156,-0.0067968666553497314,-0.026204347610473633,-0.23404622077941895,-0.04068231210112572,-0.013876168057322502,1.665856062785944,-0.37625318383455825,0.029648017304891614
1687007429.246453,0.9254862070083618,0.36799484491348267,0.08974912762641907,0.016209840774536133,0.014344602823257446,-0.01096808910369873,-0.1603027731180191,-0.05296454206109047,-0.04985840618610382,1.6674691546148435,-0.3768516288223574,0.03960077067314316
1687007429.2651582,0.9244871139526367,0.3700462877750397,0.09159111976623535,0.014035046100616455,0.018045693635940552,-0.0012896135449409485,-0.26887643337249756,-0.05577803775668144,-0.0783262625336647,1.6695464440106746,-0.3790588470915379,0.05614243091035718
1687007429.301475,0.9229351878166199,0.37336206436157227,0.0937601700425148,-0.005424439907073975,-0.005716890096664429,0.006825670599937439,-0.25649192929267883,0.0009393021464347839,-0.11351940035820007,1.672038116930534,-0.3826305310203091,0.0683889382618473
1687007429.395591,0.9208916425704956,0.3767925202846527,0.09992889314889908,0.004736900329589844,-0.005576729774475098,0.014023661613464355,-0.38650375604629517,-0.014203431084752083,-0.10080201178789139,1.6788865804581692,-0.386331166745643,0.08780369419771436
1687007429.4132361,0.9187831878662109,0.37968406081199646,0.10806212574243546,-0.0028743743896484375,0.005966633558273315,-0.013549312949180603,-0.42800572514533997,-0.0031647621653974056,-0.11108660697937012,1.6878728438927004,-0.38945474801939384,0.11175020343628254
1687007429.4850988,0.9171485900878906,0.3819632828235626,0.11376512050628662,-0.009632110595703125,0.0014138519763946533,-0.019145473837852478,-0.37430518865585327,-0.06823057681322098,-0.09313903003931046,1.694208136264911,-0.39191971196166225,0.13304800006195042
1687007429.5791311,0.9158826470375061,0.38388410210609436,0.1174381822347641,-0.007313430309295654,-0.00580182671546936,-0.023505210876464844,-0.31496936082839966,-0.09558510780334473,-0.06341229379177094,1.6983244956548038,-0.3939990166288583,0.15227089120787643
1687007429.5970368,0.9154477715492249,0.3843443989753723,0.11930844932794571,0.01745915412902832,-0.027090460062026978,-0.026519790291786194,-0.5636489987373352,-0.16725888848304749,-0.06897057592868805,1.7003938379330117,-0.3944975735693242,0.1747968652319333
1687007429.666438,0.9153234362602234,0.38466060161590576,0.11924342066049576,0.0052697062492370605,0.0007000863552093506,-0.012355685234069824,-0.3532164990901947,-0.20751643180847168,-0.061359796673059464,1.700341390052469,-0.39484010594043023,0.1981463776481353
1687007429.682559,0.9157053828239441,0.38496845960617065,0.11525145173072815,0.008046448230743408,-0.024449020624160767,0.0011577755212783813,-0.3740859031677246,-0.22918084263801575,-0.04676487669348717,1.6959988319050536,-0.39517364446527653,0.2139362717537466
1687007429.7542949,0.9164487719535828,0.38447824120521545,0.11089623719453812,0.006891012191772461,0.005063354969024658,0.01099085807800293,-0.31249120831489563,-0.2783640921115875,-0.024242255836725235,1.6912173228884666,-0.39464254884089767,0.237075133953622
1687007429.7693372,0.9170016646385193,0.38462114334106445,0.10570775717496872,-0.007257640361785889,-0.002785295248031616,0.05046592652797699,-0.26225370168685913,-0.16962125897407532,-0.0496181882917881,1.6855651744155469,-0.394797365021526,0.24978562219106945
1687007429.877133,0.917193591594696,0.3848014771938324,0.10335958003997803,-0.011569499969482422,-0.0035149455070495605,0.028781399130821228,-0.3112783133983612,-0.21821315586566925,-0.030857548117637634,1.683014023610046,-0.39499274193847966,0.2679894374216763
1687007429.88174,0.9171608090400696,0.3852069079875946,0.10213553160429001,0.0029593706130981445,-0.021498411893844604,0.018393516540527344,-0.22936898469924927,-0.047137413173913956,-0.04165959730744362,1.6816999419961318,-0.39543200770442877,0.28117425227866116
1687007429.9975572,0.9172153472900391,0.38491085171699524,0.10275860875844955,-0.007944285869598389,-0.015694022178649902,-0.004614129662513733,-0.07049863785505295,-0.08419236540794373,0.028226543217897415,1.6823643440187712,-0.3951112221136483,0.28956454978408835
1687007430.014543,0.9177764654159546,0.3835248053073883,0.10293154418468475,-0.01412057876586914,-0.010279595851898193,0.03871572017669678,-0.4467124938964844,-0.12172883003950119,-0.03695539012551308,1.6824827823172492,-0.39360996295759104,0.30391798062562647
1687007430.114097,0.918503999710083,0.3811572790145874,0.10521069169044495,-0.010926604270935059,-0.00420418381690979,0.03872537612915039,-0.12474817037582397,-0.053878672420978546,0.03230490908026695,1.684844964961627,-0.39104774139726284,0.32069076743759306
1687007430.133185,0.9192956686019897,0.3785265386104584,0.10776331275701523,0.007645130157470703,-0.0036028921604156494,0.052484385669231415,-0.24167118966579437,-0.011744535528123379,0.017642874270677567,1.6874875519469696,-0.3882038514050153,0.3305279776100963
1687007430.2068028,0.9195431470870972,0.37670615315437317,0.11194904148578644,-0.008425712585449219,0.0005826354026794434,0.02269446849822998,-0.17003248631954193,-0.011673562228679657,0.03265990689396858,1.691944330570349,-0.38623791296148147,0.3371711675253804
1687007430.210836,0.9196465611457825,0.37463873624801636,0.11788057535886765,-0.0028681159019470215,0.017985105514526367,0.008523106575012207,-0.1600865125656128,0.05941925570368767,0.0013155676424503326,1.69828146787566,-0.38400710521578746,0.34824854354853724
1687007430.214449,0.9188275337219238,0.37497636675834656,0.12307881563901901,-0.004932999610900879,0.003166884183883667,0.005110263824462891,-0.012148981913924217,0.07380831986665726,-0.009570103138685226,1.703955703825572,-0.3843712857011951,0.3488345962314996
1687007430.2996469,0.9176881909370422,0.37644219398498535,0.12704026699066162,-0.0017948746681213379,0.012077003717422485,-0.01256898045539856,-0.10968145728111267,0.019731367006897926,-0.00808725506067276,1.708357133787067,-0.3859530031127919,0.35505172522088274
1687007430.316495,0.9174576997756958,0.37665751576423645,0.12806518375873566,-0.00110626220703125,-0.006357133388519287,-0.02551087737083435,0.020605769008398056,0.03282652795314789,-0.00754556804895401,1.7094871997555214,-0.3861854058729923,0.3571278358418946
1687007430.392939,0.9175747036933899,0.37628376483917236,0.12832367420196533,0.012127935886383057,-0.03976646065711975,-0.003796696662902832,-0.20927809178829193,-0.05895812064409256,0.02307785302400589,1.709746063350899,-0.38578197953048926,0.36040085408048106
1687007430.396483,0.9191696047782898,0.3735710382461548,0.12478689849376678,0.005146682262420654,-0.009679466485977173,-0.006973862648010254,0.07537853717803955,-0.016991494223475456,0.06141432747244835,1.7057318365700878,-0.38285580631986826,0.36179738887891494
1687007430.441087,0.9204543828964233,0.37007999420166016,0.12571431696414948,-2.9206275939941406e-05,0.0026310980319976807,0.01512417197227478,-0.10561102628707886,0.002006830181926489,0.05078485235571861,1.706535024424765,-0.37909514055537047,0.3632444894840672
1687007430.53691,0.9217097759246826,0.36706337332725525,0.12536151707172394,0.004864811897277832,0.02841392159461975,-0.03666222095489502,0.05404135584831238,-0.042051706463098526,0.04872116446495056,1.7059766069504898,-0.37585003406546047,0.3648824241760751
1687007430.555704,0.9220247268676758,0.36614328622817993,0.12573428452014923,-0.007123172283172607,0.004340052604675293,-0.029909148812294006,-0.047525811940431595,-0.002286585047841072,-0.0041780006140470505,1.706327907496803,-0.37486111358755836,0.3651044075859416
1687007430.591392,0.9224268198013306,0.3660902678966522,0.12290877103805542,0.019879579544067383,-0.01472616195678711,-0.037398576736450195,0.04391741752624512,-0.08213907480239868,0.041455261409282684,1.7032610726431001,-0.3748041301774569,0.36440585081968946
1687007430.6546922,0.9235674738883972,0.3645499646663666,0.11885322630405426,-0.005354762077331543,-0.02853626012802124,-0.009447820484638214,-0.11730781942605972,-0.0721663311123848,0.03018955886363983,1.6987821707853081,-0.3731494788083018,0.3661497399729994
1687007430.748547,0.924899160861969,0.3620903789997101,0.11598259210586548,-0.010729968547821045,-0.0025475621223449707,0.048385024070739746,-0.06088835373520851,-0.034730009734630585,0.037015240639448166,1.69554539623372,-0.3705094626290413,0.36776261704156854
1687007430.767992,0.9244207143783569,0.36222970485687256,0.11931390315294266,-0.0016150474548339844,0.057661622762680054,0.08049988746643066,0.06756668537855148,0.16384805738925934,-0.033515650779008865,1.6991555304530375,-0.370658948286419,0.36736898320313915
1687007430.867646,0.9217618703842163,0.36602190136909485,0.1279958039522171,-0.040307462215423584,0.09689921140670776,0.16323339939117432,-0.08190242946147919,0.23651933670043945,-0.16673335433006287,1.7087739556161934,-0.374730684403123,0.3693792321336094
1687007430.886198,0.9119639992713928,0.38092726469039917,0.15236669778823853,-0.07984143495559692,0.22191688418388367,0.3510817289352417,-0.06534628570079803,0.8514108657836914,-0.5164653062820435,1.7363426107748399,-0.3907989551370514,0.3761644301144393
1687007430.956181,0.8851512670516968,0.413771390914917,0.21283817291259766,-0.018040239810943604,0.17768973112106323,0.3511112928390503,-0.30546900629997253,1.7510218620300293,-0.9760387539863586,1.8067705462154162,-0.42659282085561223,0.3864427492873563
1687007430.9601421,0.8350638747215271,0.4536253809928894,0.311274915933609,0.07863229513168335,0.1335633099079132,0.29282045364379883,-0.41101986169815063,2.3131661415100098,-1.161859154701233,1.9275980487185465,-0.47082915358583877,0.4300252232870395
1687007431.0484672,0.7571560144424438,0.5091227889060974,0.40927836298942566,0.15969890356063843,0.17979633808135986,0.16220909357070923,1.392708420753479,2.989508867263794,-1.3295174837112427,2.066352939269996,-0.5341652647254675,0.44332206993027723
1687007431.066671,0.6399611234664917,0.6097087860107422,0.4676591455936432,0.2552110552787781,0.11056715250015259,0.2156141996383667,2.384273052215576,3.584290027618408,-1.850655436515808,2.2018708773345246,-0.6556931090930144,0.38942183480475157
1687007431.1660662,0.47762927412986755,0.7178706526756287,0.5064893364906311,0.38984793424606323,0.125573992729187,0.24459385871887207,1.6451005935668945,3.7120041847229004,-2.4193902015686035,2.3855118725384754,-0.8007388433847222,0.3872237101461924
1687007431.183903,0.2798474431037903,0.8215990662574768,0.4966490566730499,0.47691217064857483,0.18798339366912842,0.1674286127090454,2.7892889976501465,3.8063008785247803,-2.9053330421447754,2.628465723269659,-0.9642103847473731,0.45748598789712713
1687007431.291635,0.057625580579042435,0.9156264662742615,0.39787864685058594,0.5318824052810669,0.09980010986328125,0.2581270933151245,2.882784843444824,3.5122768878936768,-3.47589373588562,2.997760722186973,-1.1570634011067642,0.668155188739195
1687007431.2965941,-0.1685280203819275,0.9537743330001831,0.24882186949253082,0.594171941280365,0.03946578502655029,0.23794862627983093,2.6530933380126953,3.1543445587158203,-3.8231799602508545,-2.546261917886729,-1.2655546679624652,1.2733809701438685
1687007431.3793988,-0.37608206272125244,0.9199399948120117,0.11078137159347534,0.5499407052993774,0.11959540843963623,0.18403363227844238,2.199037551879883,2.8442418575286865,-3.853529691696167,-1.8572613001268463,-1.167927450481007,1.8485186728431386
1687007431.384917,-0.5514135956764221,0.8339886665344238,-0.020152732729911804,0.6102056503295898,-0.18834346532821655,0.26887089014053345,0.8145307898521423,2.5119810104370117,-3.689983606338501,-1.5342651872998003,-0.9862973485357991,2.0570207498204427
1687007431.468429,-0.6815066337585449,0.7247917652130127,-0.10112114250659943,0.6070438027381897,-0.19340455532073975,0.10600388050079346,-0.6745295524597168,2.248188018798828,-3.1959896087646484,-1.423492273760874,-0.8107320869916047,2.0328100405792973
1687007431.4856958,-0.7687938213348389,0.6283575892448425,-0.11883807927370071,0.5512035489082336,-0.11689841747283936,-0.15649163722991943,-1.5250755548477173,1.279768943786621,-2.443647861480713,-1.4174328273452763,-0.6794401503735308,1.9149147084539349
1687007431.527079,-0.8229659795761108,0.553333044052124,-0.12864364683628082,0.47927719354629517,0.14884573221206665,-0.18442098796367645,-0.45430371165275574,0.8255839347839355,-1.7521653175354004,-1.4157341062406958,-0.5863604031461982,1.8244768540026683
1687007431.5306602,-0.8565202951431274,0.4946286380290985,-0.14736056327819824,0.23048287630081177,-0.22212207317352295,-0.17871986329555511,-0.12522153556346893,0.06209772825241089,-0.9837421774864197,-1.4004186951134376,-0.5174074767370257,1.8135473482230806
1687007431.584043,-0.8725417256355286,0.46719345450401306,-0.1428333967924118,-0.04930281639099121,-0.13946521282196045,-0.33560603857040405,-0.07420702278614044,-0.023460447788238525,-0.4130065143108368,-1.4085374017726093,-0.4861138353154351,1.7950024501860427
1687007431.6442661,-0.8795550465583801,0.4576023519039154,-0.130317822098732,-0.3059154152870178,-0.30226799845695496,-0.331108033657074,-0.5369213819503784,0.04337264597415924,-0.23693987727165222,-1.4237030933878474,-0.4752967973721166,1.7686740681032889
1687007431.7381968,-0.8837354779243469,0.4480717182159424,-0.13506829738616943,-0.16045403480529785,-0.09643295407295227,-0.03287006914615631,-0.008178142830729485,0.29532355070114136,-0.3049823045730591,-1.4191320544065136,-0.46460724813231,1.7562904223322093
1687007431.757481,-0.8898428678512573,0.4327786862850189,-0.14450673758983612,0.0587882399559021,-0.0719541609287262,-0.0011842846870422363,-0.037306997925043106,0.021482661366462708,-0.28440937399864197,-1.4098059565131627,-0.4475727936757575,1.7541447423928573
1687007431.822948,-0.8911559581756592,0.4323190152645111,-0.13762730360031128,0.07105714082717896,-0.19133704900741577,0.010872423648834229,-0.27706605195999146,-0.07168083637952805,0.24886837601661682,-1.4175700310239496,-0.44706297077479296,1.745608971010922
1687007431.9181318,-0.8843045234680176,0.4478999972343445,-0.13187569379806519,0.017757833003997803,0.14150121808052063,0.028207406401634216,-0.28737303614616394,0.07249338179826736,0.2644723653793335,-1.4227580461945624,-0.4644151619397608,1.733091625355902
1687007431.9358768,-0.879694402217865,0.4582514464855194,-0.1270553171634674,-0.038670897483825684,0.03508034348487854,-0.025120660662651062,-0.21911653876304626,0.07793834805488586,0.10450560599565506,-1.4273570364917207,-0.4760269213369597,1.7141512417936842
1687007432.0312738,-0.8777471780776978,0.46144482493400574,-0.12895062565803528,-0.024688005447387695,-0.011676877737045288,-0.003465220332145691,-0.209163635969162,0.11132453382015228,0.03431745991110802,-1.4249288688408115,-0.4796230917687822,1.710385152443624
1687007432.049017,-0.8759270310401917,0.4649379253387451,-0.12878097593784332,-0.10232913494110107,-0.13234218955039978,-0.032214581966400146,-0.2539839744567871,0.2017018347978592,0.06516778469085693,-1.4248196283208763,-0.48356449234685306,1.6934103623267391
1687007432.161283,-0.8706929683685303,0.4744853675365448,-0.12945003807544708,-0.23907870054244995,-0.32191282510757446,-0.06163591146469116,-0.9037961363792419,0.337312251329422,0.23173066973686218,-1.423202734035685,-0.4943793013839453,1.6706429818298183
1687007432.166737,-0.8597709536552429,0.49229469895362854,-0.13579395413398743,-0.37963950634002686,-0.3035129904747009,-0.09295065701007843,-0.5359361171722412,0.7421846389770508,0.3693748116493225,-1.4141483154220689,-0.5147240876247333,1.6319894135198114
1687007432.171008,-0.8391222953796387,0.5232714414596558,-0.1485283076763153,-0.25003474950790405,-0.2999286651611328,-0.10386741161346436,-1.0145307779312134,0.6963805556297302,0.8846445083618164,-1.395606522418962,-0.5506854478080114,1.5919457244599335
1687007432.242763,-0.8037425875663757,0.5803511142730713,-0.13111242651939392,-0.16201668977737427,-0.23544150590896606,0.11238974332809448,-1.8680952787399292,0.4817715585231781,1.3895831108093262,-1.4090932335652608,-0.6191597468905377,1.5185316354822047
1687007432.247041,-0.7538562417030334,0.6443242430686951,-0.12863419950008392,-0.06035256385803223,0.11896604299545288,-0.06481687724590302,0.3122791647911072,0.3018878102302551,1.5816459655761719,-1.4017891404274705,-0.7001393231704245,1.5001924883593396
1687007432.3063722,-0.6929684281349182,0.7161701917648315,-0.08303564041852951,-0.02759730815887451,0.17163187265396118,0.016034185886383057,0.31660106778144836,-0.09592080116271973,2.149184465408325,-1.4515389247872572,-0.7982993070970928,1.4337752237748123
1687007432.3987799,-0.6177759170532227,0.760850727558136,-0.1986425518989563,0.19785410165786743,-0.28672975301742554,0.28032273054122925,-0.7162871956825256,0.06436873972415924,1.6365984678268433,-1.2596928384465091,-0.8646231266997392,1.6730717968670519
1687007432.416059,-0.5551204681396484,0.8259736895561218,-0.09802388399839401,0.09177207946777344,0.5555875301361084,0.04168832302093506,-0.369164377450943,-0.6917764544487,1.3708000183105469,-1.396016785211036,-0.9719272687204423,1.5373746088321185
1687007432.4543371,-0.4799764156341553,0.8630561828613281,-0.15734219551086426,0.09434106945991516,-0.14189541339874268,-0.05757796764373779,2.7760748863220215,-0.539503812789917,2.4180595874786377,-1.2540228794251382,-1.041289359945131,1.7410235004865704
1687007432.5443969,-0.3679982125759125,0.903805136680603,-0.2184344083070755,0.5767689347267151,-0.04890096187591553,-0.024607688188552856,1.4241547584533691,-1.3697963953018188,2.8162033557891846,-1.0351147564021375,-1.1285793015686796,2.0332128330954844
1687007432.549422,-0.26363325119018555,0.9163580536842346,-0.3013063371181488,0.27431437373161316,0.06612485647201538,0.12991949915885925,1.8776936531066895,-0.8288663029670715,2.211498498916626,-0.718811592641416,-1.1588869260932397,2.44880548949008
1687007432.60657,-0.21910052001476288,0.9353755712509155,-0.2776101231575012,0.01092483103275299,0.2440982460975647,0.22379231452941895,-1.1037511825561523,-0.6914876699447632,0.3688424527645111,-0.6681443255411132,-1.2093194789297819,2.5591975953414825
1687007432.699121,-0.22420403361320496,0.9334675669670105,-0.2799479067325592,0.09828847646713257,-0.05848294496536255,-0.02109283208847046,0.477347731590271,0.31376898288726807,-0.34675559401512146,-0.6752758925374739,-1.2039624683760333,2.548476180039404
1687007432.717005,-0.22819119691848755,0.9304085969924927,-0.2868253290653229,0.009685277938842773,-0.1187019944190979,-0.07465550303459167,-0.047360632568597794,-0.14761967957019806,0.09363032132387161,-0.6720372369652411,-1.1955260005926367,2.5497932052673495
1687007432.755199,-0.22651177644729614,0.932578980922699,-0.2810494303703308,0.012888699769973755,-0.06482702493667603,0.04447704553604126,-0.3036201298236847,0.06190957874059677,-0.030188560485839844,-0.678358459162731,-1.201492833453675,2.546053810036872
1687007432.8753638,-0.2274482548236847,0.9367976784706116,-0.2658516764640808,0.013962522149085999,0.0043642520904541016,-0.0044273436069488525,-0.20419006049633026,0.09953604638576508,-0.07008510828018188,-0.7077048211651453,-1.2133622999871387,2.5114177147222727
1687007432.881236,-0.2303609997034073,0.9382946491241455,-0.2579476237297058,0.03291220963001251,-0.08955502510070801,0.017270654439926147,-0.3619561791419983,0.22303655743598938,-0.14694713056087494,-0.728963909987554,-1.2176657553735888,2.479389329401449
1687007432.967499,-0.23271360993385315,0.9418238401412964,-0.24251243472099304,0.000688403844833374,-0.08290660381317139,-0.06023731827735901,-0.18083293735980988,0.17914113402366638,-0.007747968193143606,-0.7647817872682102,-1.2280160392554753,2.4308634308740285
1687007432.98563,-0.2224494218826294,0.945568323135376,-0.23752246797084808,-0.01606076955795288,-0.0442926287651062,-0.05421045422554016,-0.2754572033882141,-0.04141814261674881,0.2777221202850342,-0.7526403748087498,-1.2393365158429313,2.4402789904946953
1687007433.0542321,-0.21048910915851593,0.9542311429977417,-0.21245519816875458,-0.03224773705005646,0.07018285989761353,0.006522536277770996,-0.43307948112487793,-0.1034315750002861,0.2425002157688141,-0.7807496090105204,-1.2670782314644933,2.4182072685751934
1687007433.058086,-0.20258189737796783,0.9579609036445618,-0.20315350592136383,0.021383747458457947,0.08412271738052368,0.03045445680618286,-0.27945104241371155,0.2209739238023758,0.02182696759700775,-0.7839893433126573,-1.2798084216399648,2.4115482686359715
1687007433.148203,-0.2147057205438614,0.961162805557251,-0.17340031266212463,0.11265489459037781,0.007739841938018799,-0.025131896138191223,-0.9505320191383362,0.2935902178287506,-0.5964762568473816,-0.8914272190556541,-1.291185014571791,2.284579186314409
1687007433.165627,-0.24067415297031403,0.9563934206962585,-0.16549207270145416,0.062329381704330444,0.08361512422561646,-0.012913778424263,0.5855571627616882,0.7461429834365845,-0.7309757471084595,-0.9684283350159604,-1.2743938176068172,2.180626625979794
1687007433.204638,-0.28397563099861145,0.9432615041732788,-0.17209048569202423,0.20054060220718384,-0.1993042230606079,0.16049368679523468,-1.7527039051055908,0.43053367733955383,-1.140315055847168,-1.0259735290921568,-1.2323194361951288,2.083418400284885
1687007433.292457,-0.3383162319660187,0.936035692691803,-0.09684473276138306,0.21235495805740356,0.23902815580368042,-0.1165190190076828,-0.7118333578109741,0.8370917439460754,-1.5915048122406006,-1.291996786230018,-1.2111907807671813,1.7677165001068786
1687007433.296774,-0.4034382104873657,0.912456750869751,-0.06826536357402802,0.10757029056549072,-0.10865437984466553,0.08616375923156738,-1.1836094856262207,0.1377757042646408,-1.1692510843276978,-1.4031750803286598,-1.149248581057848,1.6276155157838244
1687007433.357905,-0.46323221921920776,0.884299635887146,-0.05856598541140556,0.38229963183403015,0.24094438552856445,-0.041074033826589584,0.6539773344993591,0.4310954809188843,-1.5060218572616577,-1.4450345672889475,-1.0849918571991901,1.5556311262784914
1687007433.447953,-0.525683581829071,0.8485023379325867,-0.0608292818069458,0.0697358250617981,-0.0868600606918335,0.09964752197265625,-1.0577415227890015,-0.02229970693588257,-1.438349962234497,-1.455594057105925,-1.0131487261894383,1.5345443877904514
1687007433.467403,-0.5874007940292358,0.8089985251426697,-0.021943796426057816,0.26507413387298584,0.04856055974960327,0.04557955265045166,-0.3461057245731354,-0.1482376754283905,-1.338775396347046,-1.5334562404958452,-0.9424464006878673,1.4474608569867529
1687007433.503827,-0.6336029171943665,0.7726815342903137,-0.038862042129039764,0.24418342113494873,0.13195085525512695,-0.010668154805898666,0.8525114059448242,0.07437290251255035,-0.950762152671814,-1.509538058247409,-0.8830546249367716,1.4764405454818823
1687007433.593779,-0.6649314165115356,0.7451195120811462,-0.05160224810242653,0.013488054275512695,-0.004381775856018066,-0.027209516614675522,0.3830909729003906,-0.21567502617835999,-0.5726161599159241,-1.4933461930205751,-0.8407140133531891,1.5033194597477375
1687007433.598356,-0.6818947196006775,0.7287886142730713,-0.06234242022037506,0.0033822059631347656,0.20318758487701416,0.09546917676925659,0.5023533701896667,-0.20467205345630646,-0.3213096261024475,-1.4796244944812464,-0.8165511193909243,1.5341686747867802
1687007433.655634,-0.6961953639984131,0.7139582633972168,-0.07467000186443329,-0.26074427366256714,-0.12216144800186157,0.06943613290786743,0.3095065653324127,-0.45589521527290344,-0.4004973769187927,-1.4639503958345266,-0.7951351589434571,1.5761088482656587
1687007433.776711,-0.7162706851959229,0.690982460975647,-0.0974651575088501,-0.23349738121032715,-0.03718924522399902,-0.05300188064575195,1.1704511642456055,-0.7440800070762634,-0.6171876192092896,-1.4355538806154318,-0.7628472907791815,1.652968319601195
1687007433.7829819,-0.7402075529098511,0.6673881411552429,-0.08176570385694504,-0.6137199997901917,-0.21215754747390747,0.11397690325975418,0.8349944353103638,-0.6031680703163147,-0.7288616895675659,-1.4607791430631027,-0.7306960272899818,1.6817744501648635
1687007433.870465,-0.7677919268608093,0.6321021318435669,-0.10460513085126877,-0.3067929148674011,-0.30864644050598145,-0.11531990021467209,0.36428436636924744,0.29003477096557617,-0.8871144652366638,-1.4353885138095015,-0.6842630234339091,1.7253876847184715
1687007433.885443,-0.7898163199424744,0.6026063561439514,-0.1142607182264328,-0.00806570053100586,-0.17505520582199097,-0.020230352878570557,0.16038571298122406,0.16817650198936462,-0.5194624066352844,-1.4271256172392601,-0.6467630513635424,1.7201516226019138
1687007433.96154,-0.7952026128768921,0.5914871096611023,-0.13340100646018982,0.10611575841903687,-0.15795445442199707,0.013558387756347656,0.08615774661302567,0.19702905416488647,0.02032121643424034,-1.404586724252981,-0.6329018900368621,1.740025130453137
1687007433.966299,-0.7906962633132935,0.5982701778411865,-0.12989215552806854,0.05009573698043823,0.028591275215148926,-0.016836464405059814,-0.1867133229970932,-0.0020070860628038645,0.22536838054656982,-1.4079749260806258,-0.6413406158884871,1.7282800438719215
1687007434.04723,-0.7819135785102844,0.6092714667320251,-0.13190586864948273,0.010749757289886475,-0.019778847694396973,-0.08724091947078705,0.046071913093328476,-0.10600365698337555,0.3357073962688446,-1.4036735996521656,-0.6551415291499275,1.7389056345848828
1687007434.0531979,-0.7719897031784058,0.6248696446418762,-0.11648779362440109,-0.014219224452972412,0.09844255447387695,0.0076009780168533325,0.12071652710437775,-0.21818359196186066,0.3454705476760864,-1.4210332089651403,-0.6749645734014099,1.7294856920477504
1687007434.1056461,-0.7664183378219604,0.6283865571022034,-0.13316601514816284,-0.039947569370269775,0.0067757368087768555,-0.009961545467376709,0.3300993740558624,-0.03471003845334053,0.03769727796316147,-1.398762731874248,-0.6794773410460748,1.7697597284462057
1687007434.206012,-0.7649579644203186,0.6308057308197021,-0.13008961081504822,0.02425062656402588,-0.0514143705368042,-0.01795123517513275,0.008749641478061676,-0.20315217971801758,0.15061983466148376,-1.4023467619152619,-0.6825911377512278,1.7740488298729506
1687007434.223849,-0.7616403698921204,0.6352505683898926,-0.12790925800800323,0.007871389389038086,-0.04508638381958008,-0.05611182749271393,0.32378169894218445,-0.29272159934043884,0.19241389632225037,-1.4044097974085568,-0.6883329001888725,1.7886657220790967
1687007434.282428,-0.7524823546409607,0.6498216986656189,-0.10724613070487976,0.07570940256118774,-0.15134775638580322,-0.1300586462020874,-0.3869974911212921,-0.7776467800140381,0.5803123116493225,-1.4292266343983961,-0.7073498475601852,1.7928619557746976
1687007434.298948,-0.7287960052490234,0.6833307147026062,-0.04376556724309921,0.10648155212402344,-0.22115737199783325,-0.09501320123672485,-0.9731451869010925,-1.0685642957687378,1.0795460939407349,-1.5108164813326272,-0.7523148985277047,1.7412504500146198
1687007434.342457,-0.6855424642562866,0.7278798222541809,0.014911990612745285,0.12815415859222412,0.10798126459121704,-0.09813356399536133,0.12809787690639496,-1.429660439491272,1.2973204851150513,-1.592545000678342,-0.8152248988885535,1.7135831398217944
1687007434.404797,-0.6270562410354614,0.7756985425949097,0.0713585615158081,0.07886910438537598,-0.24270915985107422,-0.16248416900634766,-0.5630011558532715,-1.5860559940338135,1.7417062520980835,-1.6841081582125175,-0.8878211725196836,1.6916523147906515
1687007434.4977741,-0.5351256132125854,0.8294171094894409,0.16033674776554108,0.16711407899856567,-0.4967297315597534,-0.13132987916469574,-2.2570998668670654,-2.0947346687316895,2.2746074199676514,-1.86190859627787,-0.9780634188922388,1.5784950997670435
1687007434.503331,-0.3969976603984833,0.843723475933075,0.3612797260284424,0.24245670437812805,-0.24226802587509155,-0.2935766279697418,-3.1350913047790527,-3.2789556980133057,2.427860975265503,-2.3091252519580263,-1.0041826260065891,1.2108713192523564
1687007434.58829,-0.22230838239192963,0.8300301432609558,0.5114961266517639,0.48346251249313354,-0.006589710712432861,-0.1481696367263794,-1.8838969469070435,-3.8847334384918213,2.299576997756958,-2.7315988964710116,-0.9791617265734471,0.9177480105486613
1687007434.710382,-0.006351068615913391,0.7993775606155396,0.6007949113845825,0.4172854423522949,-0.04426604509353638,0.035511553287506104,-1.089331030845642,-4.238007545471191,2.40041184425354,-3.1310219387008327,-0.9262585064841534,0.6846699786924212
1687007434.716039,0.21671336889266968,0.7597888112068176,0.6129891276359558,0.48043006658554077,-0.028404712677001953,0.08435255289077759,-1.5624237060546875,-4.436882495880127,2.173205852508545,2.801771721586526,-0.8629882270725404,0.5124462562859877
1687007434.7206612,0.4262441396713257,0.6759265065193176,0.6011978387832642,0.36059045791625977,0.24091297388076782,0.1952802538871765,-0.3668227195739746,-4.367225170135498,1.9100406169891357,2.5248576311635897,-0.7422211768969029,0.4405200806531548
1687007434.794582,0.5952876210212708,0.6242825388908386,0.5058689713478088,0.4747195243835449,0.10217303037643433,0.4118250012397766,-1.9299250841140747,-3.950850009918213,1.3425276279449463,2.275167968470617,-0.6742127904834246,0.371792562974151
1687007434.798571,0.7080731987953186,0.5544778108596802,0.4372490346431732,0.14492356777191162,0.20069491863250732,0.22145754098892212,0.06783260405063629,-2.936318874359131,0.9861586093902588,2.123998337257389,-0.5877353560861432,0.4053231927874317
1687007434.856322,0.7890898585319519,0.5162040591239929,0.33297133445739746,0.13350212574005127,-0.09045350551605225,0.3260403275489807,-0.9636601805686951,-2.6861493587493896,0.9608650207519531,1.9700967756709724,-0.5424128994553277,0.38236715965342044
1687007434.949235,0.8420859575271606,0.4732808470726013,0.2586430609226227,0.049271345138549805,0.1429910659790039,0.26160526275634766,-0.1413426399230957,-1.8992371559143066,0.6390236020088196,1.868795841899809,-0.4930114575038104,0.4120881443308757
1687007434.968559,0.8740437030792236,0.4467928409576416,0.1908498853445053,0.024317443370819092,-0.00888088345527649,0.1830514669418335,-0.2286706268787384,-1.3418478965759277,0.5628819465637207,1.785774935936836,-0.4631772558953913,0.40592714452621764
1687007435.032525,0.8944677114486694,0.42428627610206604,0.1410970538854599,-0.013623714447021484,0.1095423698425293,0.2143716663122177,0.5287528038024902,-0.8443788886070251,0.4906139075756073,1.727251273999356,-0.43817356295145715,0.3997349140027092
1687007435.04959,0.908105194568634,0.40699759125709534,0.09847669303417206,-0.035714566707611084,-0.050537049770355225,0.18677103519439697,0.33170539140701294,-0.4849315285682678,0.39701682329177856,1.6788161629523102,-0.41916469146480734,0.3613535312139768
1687007435.09007,0.9176124334335327,0.3897443413734436,0.07801692932844162,-0.0008491277694702148,0.010341107845306396,0.1115734651684761,0.37576088309288025,-0.18931639194488525,0.42780935764312744,1.6556140033835278,-0.40035397799726763,0.34787521986889947
1687007435.155099,0.9249314069747925,0.37354010343551636,0.07049472630023956,-0.01749134063720703,0.10476186871528625,0.09748923778533936,-0.03944225236773491,-0.04447198659181595,0.320139080286026,1.6468654257281006,-0.3828224565540043,0.33559283171694343
1687007435.2523441,0.9291259050369263,0.3627879321575165,0.0714825838804245,-0.03657841682434082,0.20345044136047363,0.06366443634033203,0.2514026165008545,0.07545867562294006,0.1339481770992279,1.6475803768935882,-0.3712579176552056,0.33838557122808244
1687007435.271193,0.929400622844696,0.36221393942832947,0.07082100212574005,-0.03764641284942627,0.04356303811073303,0.010004766285419464,0.036127470433712006,0.10558728128671646,-0.043840192258358,1.6468500748111048,-0.37064202098983356,0.3239449130697785
1687007435.2998118,0.9279263019561768,0.3652573525905609,0.07442834228277206,0.003790438175201416,0.0096052885055542,-0.009837992489337921,0.19537577033042908,0.06381174176931381,-0.03918365389108658,1.650834302788858,-0.3739092359903001,0.3214547080360648
1687007435.396194,0.9273253679275513,0.366964727640152,0.07351355254650116,0.008907973766326904,-0.04218146204948425,-0.036724694073200226,0.0362754762172699,-0.011070488952100277,0.0015805521979928017,1.6499056983458449,-0.3757439909560083,0.31609842769292484
1687007435.4003801,0.9280940294265747,0.36556798219680786,0.07072179019451141,-0.001488804817199707,-0.023572713136672974,0.003054387867450714,0.050390295684337616,-0.030783073976635933,0.03895455598831177,1.6468504492825597,-0.3742429419707049,0.3118513096606427
1687007435.491857,0.9296709895133972,0.3620355725288391,0.06813397258520126,-0.014601349830627441,0.0018865466117858887,-0.010394684970378876,0.07766426354646683,0.01918821409344673,0.03348388895392418,1.6439537969987186,-0.3704506757267236,0.3089042508568094
1687007435.497246,0.9305242300033569,0.3596711754798889,0.06900112330913544,-0.003354489803314209,0.004708677530288696,0.036894798278808594,-0.06552165746688843,0.005682791583240032,0.03156827762722969,1.6448138185829166,-0.3679154767303352,0.3079713493038344
1687007435.54352,0.9305605888366699,0.3594168424606323,0.06983090192079544,0.0005000829696655273,0.004596799612045288,-0.011176109313964844,0.023841509595513344,0.05720297247171402,0.00044098589569330215,1.6456976992056378,-0.36764289415682483,0.3071072590734009
1687007435.634166,0.9301385283470154,0.3597892224788666,0.07344353944063187,-0.01906687021255493,0.003858208656311035,0.03614509105682373,-0.014314131811261177,-0.004368244670331478,0.025628630071878433,1.6495926239375085,-0.36804199154599193,0.30882025329377943
1687007435.6546721,0.9302812218666077,0.35933682322502136,0.07385148108005524,0.0005660057067871094,-0.014656037092208862,-0.021422378718852997,-0.05349329486489296,0.023457394912838936,0.011117865331470966,1.6500163787398414,-0.3675571412166985,0.31019045173878795
1687007435.723116,0.9306004047393799,0.35800743103027344,0.0762467235326767,-0.015836060047149658,0.0049991607666015625,0.02938985824584961,-0.04001609981060028,-0.015136603266000748,0.03398243337869644,1.6525465513720037,-0.36613299083102274,0.3151956741382405
1687007435.817554,0.9313938021659851,0.35623469948768616,0.07484841346740723,-0.005475342273712158,0.006741344928741455,0.016185402870178223,-0.022782916203141212,0.03886484354734421,0.01597094163298607,1.6509857219869668,-0.36423513592613865,0.31335383190664173
1687007435.835906,0.9315367341041565,0.3549342751502991,0.07912430167198181,0.0015227794647216797,-0.013244271278381348,0.021980397403240204,-0.3469472825527191,-0.04884103685617447,0.02555326372385025,1.6555324807311314,-0.3628437707180509,0.32415415362904354
1687007435.937448,0.9321033954620361,0.35314512252807617,0.08044388890266418,0.00655597448348999,0.012409597635269165,-0.01827968657016754,0.11300280690193176,0.033893391489982605,0.03494942560791969,1.6568866181783406,-0.3609306876500355,0.3287917133079955
1687007435.955772,0.9326303005218506,0.3517139256000519,0.08060972392559052,-0.006971180438995361,0.019028812646865845,0.010149478912353516,0.048646192997694016,0.0007287792395800352,0.03692842274904251,1.6570147219730307,-0.35940139448863234,0.32612099555327384
1687007436.0223289,0.9327253103256226,0.3515523076057434,0.08021384477615356,0.0027604103088378906,0.006189942359924316,-0.00820767879486084,-0.09119845926761627,-0.014376536943018436,0.016023408621549606,1.656584674121693,-0.359228752992975,0.32763300942663026
1687007436.025913,0.9329530596733093,0.3508239984512329,0.0807524025440216,-0.003799736499786377,0.014334052801132202,0.0029419660568237305,0.09182129800319672,0.012083832174539566,0.02422114834189415,1.6571368383514486,-0.35845089192275414,0.32934801984123624
1687007436.117022,0.9332473874092102,0.35000887513160706,0.08088905364274979,-0.0065201520919799805,0.015576422214508057,0.00044023990631103516,0.01684298738837242,0.01868647336959839,0.023126322776079178,1.657255072061498,-0.3575805763472725,0.3298648126964687
1687007436.133812,0.9331790804862976,0.35023635625839233,0.08069176226854324,-0.0003789067268371582,-0.010468930006027222,-0.027194499969482422,-0.023745518177747726,-0.04240470752120018,-0.001992877572774887,1.6570515235456365,-0.35782343002025574,0.3265764860763049
1687007436.204348,0.9336203932762146,0.34954309463500977,0.07856493443250656,-8.779764175415039e-05,0.017156094312667847,-0.024564146995544434,0.1516914814710617,-0.004955205135047436,0.021907128393650055,1.6547493670592035,-0.3570833910662903,0.32658598835275104
1687007436.220434,0.9342920184135437,0.34832069277763367,0.07596633583307266,-0.00048482418060302734,-0.004219770431518555,0.00261639803647995,-0.03739987686276436,-0.06187787652015686,0.047779738903045654,1.6519268356621475,-0.3557789913875223,0.3260598814979079
1687007436.2920961,0.9350963234901428,0.3467494249343872,0.07320908457040787,-0.005622565746307373,-0.0013209879398345947,0.0011774301528930664,0.045971378684043884,-0.017448492348194122,0.03269639238715172,1.648927374002314,-0.3541032849989753,0.322882388772969
1687007436.295649,0.9358949065208435,0.3446315824985504,0.07300545275211334,-0.004910409450531006,0.019122689962387085,0.013374455273151398,-0.0430021695792675,-0.024747151881456375,0.026303742080926895,1.6486447173850511,-0.35184629569291315,0.32575558891415074
1687007436.422073,0.9360432028770447,0.3442884087562561,0.07272128760814667,-0.0077748894691467285,0.009288251399993896,0.008684277534484863,0.014858867041766644,0.008783376775681973,0.005461576394736767,1.648330679147558,-0.3514807509068214,0.3248149176455622
1687007436.439796,0.9353942275047302,0.34559011459350586,0.0748666375875473,-0.0076141357421875,0.028921574354171753,-0.010611891746520996,0.01653279736638069,0.021113013848662376,-0.01548738032579422,1.6506635979687474,-0.35286757820142534,0.32710875652559573
1687007436.502249,0.9344203472137451,0.3478148877620697,0.0767030268907547,0.0030338168144226074,0.07302245497703552,0.06395244598388672,-0.15951652824878693,0.02878078632056713,-0.10476718842983246,1.6526989155712932,-0.3552394778390642,0.33120445186086883
1687007436.517786,0.9293472170829773,0.35868170857429504,0.08752892166376114,-0.062342822551727295,0.23898980021476746,0.19720005989074707,0.037019629031419754,0.3842678964138031,-0.4060676395893097,1.6647025434841505,-0.366855243195671,0.33743642075475666
1687007436.5934029,0.9159759879112244,0.38483119010925293,0.11354593187570572,-0.054998934268951416,0.16413426399230957,0.3709663152694702,0.5488775968551636,1.0394601821899414,-0.6704599261283875,1.694128857917132,-0.3950249096834836,0.3275492311131849
1687007436.596715,0.8879905939102173,0.4302191436290741,0.16243091225624084,0.04964655637741089,0.21153494715690613,0.450484037399292,1.7566602230072021,2.120755434036255,-1.0240530967712402,1.751715822530383,-0.4447355136031914,0.2771022929050686
1687007436.6562319,0.8284094333648682,0.5116090774536133,0.22802141308784485,0.17969286441802979,0.18031597137451172,0.358007550239563,1.8021087646484375,3.0315306186676025,-1.9339290857315063,1.8393968736465947,-0.5370564424747695,0.18030116974746588
1687007436.7463999,0.722679615020752,0.6153042912483215,0.314856618642807,0.28630775213241577,0.1525942087173462,0.3238457441329956,1.5646106004714966,3.5893161296844482,-2.3495771884918213,1.9816776532045242,-0.6627719448294652,0.14006654908158409
1687007436.7522202,0.5690920352935791,0.7319894433021545,0.3746007978916168,0.4731747508049011,0.04263824224472046,0.2009148895740509,1.6190268993377686,3.637807846069336,-3.025815725326538,2.1529444143636667,-0.8212373626740432,0.12200851265200384
1687007436.837749,0.37172916531562805,0.8411160111427307,0.39286255836486816,0.5475059747695923,0.10766017436981201,0.16605150699615479,2.030385732650757,3.583500623703003,-3.3887808322906494,2.383827562061463,-0.9993433336274476,0.18509609494268328
1687007436.855622,0.14990925788879395,0.9336631298065186,0.3252699375152588,0.5739981532096863,-0.005760848522186279,0.10916295647621155,2.405365228652954,3.2349777221679688,-3.756253242492676,2.7097307516835962,-1.2045079749939622,0.35609155046257784
1687007436.895375,-0.07295578718185425,0.9670252203941345,0.24400703608989716,0.5600467920303345,-0.06597858667373657,0.14191806316375732,1.7841777801513672,2.9877660274505615,-3.6393673419952393,-2.8510622622446644,-1.313278970490299,0.9503871957459937
1687007437.049731,-0.2780840992927551,0.949770987033844,0.14354228973388672,0.5587694644927979,-0.019503653049468994,0.007519617676734924,0.9748139977455139,2.5930821895599365,-3.7350170612335205,-2.047306387987488,-1.2525033580486382,1.634334527354436
1687007437.067381,-0.4601147174835205,0.8860330581665039,0.05692115053534508,0.49148672819137573,-0.049378395080566406,0.12313247472047806,0.8434343338012695,2.0314528942108154,-3.7101213932037354,-1.693881733566152,-1.0887174850833718,1.8919053738100953
1687007437.139556,-0.6117759943008423,0.7910212278366089,0.0039332471787929535,0.3920036554336548,-0.09161949157714844,0.05639994144439697,-0.5930215120315552,2.0351333618164062,-3.3982276916503906,-1.5772254661811804,-0.9124764937304306,1.913443935924609
1687007437.155995,-0.723837673664093,0.6876910328865051,-0.056036289781332016,0.359915554523468,0.029349863529205322,0.017690837383270264,0.6104308366775513,2.173419713973999,-2.7825379371643066,-1.4935348775694737,-0.7583038855153728,1.8851322913429893
1687007437.158622,-0.7913604974746704,0.5966089367866516,-0.13343998789787292,0.3771912455558777,-0.3857325315475464,-0.16592228412628174,-1.0727888345718384,1.686835527420044,-1.9905595779418945,-1.4037467555491172,-0.6392689533452455,1.8675595180657025
1687007437.19098,-0.826244592666626,0.5444398522377014,-0.14458602666854858,0.23910164833068848,-0.36232632398605347,-0.18735378980636597,-1.3009088039398193,0.6703159213066101,-0.955173134803772,-1.3975586228451184,-0.5757211769303615,1.7742284699457158
1687007437.2866359,-0.8364966511726379,0.5301036238670349,-0.1387924700975418,0.013742804527282715,-0.13665586709976196,-0.18864601850509644,-1.0802878141403198,0.784310519695282,-0.3624860942363739,-1.4063731296129083,-0.5587227798932154,1.6975736556307057
1687007437.377637,-0.8379518389701843,0.5217121243476868,-0.16016587615013123,-0.1111447811126709,-0.14402669668197632,-0.06679342687129974,-0.5053955912590027,0.8511979579925537,-0.2803267538547516,-1.3819346021066932,-0.5488566026503626,1.6602695903710614
1687007437.3838282,-0.838214099407196,0.5159647464752197,-0.17657090723514557,-0.042599380016326904,-0.004459738731384277,-0.03808985650539398,-0.42604389786720276,0.771183967590332,-0.30064719915390015,-1.36318041403426,-0.542133499009788,1.6213244825152928
1687007437.46771,-0.8383069038391113,0.5088812708854675,-0.19565625488758087,0.018345355987548828,-0.2398536205291748,-0.08548703789710999,-0.5278711318969727,0.4595942497253418,-0.07246464490890503,-1.3415063600212525,-0.5338847306838131,1.5966309496468303
1687007437.4858189,-0.8311132192611694,0.5233114957809448,-0.18813738226890564,-0.060274600982666016,-0.22387313842773438,-0.15800832211971283,-0.6679794192314148,0.04440541937947273,0.37654805183410645,-1.3481802513772316,-0.5507324134434558,1.564513937771108
1687007437.5559158,-0.821516752243042,0.5367329716682434,-0.19242607057094574,-0.17341727018356323,0.002878725528717041,-0.07657122611999512,0.15885978937149048,0.3679187595844269,0.16867287456989288,-1.340711650122521,-0.5665603216270841,1.5603005027183272
1687007437.572445,-0.8151381611824036,0.5489246845245361,-0.1850171536207199,-0.21722567081451416,-0.3369191884994507,-0.21348148584365845,-1.9960663318634033,0.2041693776845932,0.14777956902980804,-1.3476014820687772,-0.5810772386638914,1.5170604166498036
1687007437.6422791,-0.8071839213371277,0.5633419752120972,-0.17635175585746765,-0.18639212846755981,0.10502344369888306,0.019964277744293213,0.5372124910354614,0.5483136773109436,0.16372472047805786,-1.3556984184963468,-0.5984251017348727,1.4705757615950144
1687007437.6580338,-0.7986403703689575,0.5673386454582214,-0.20074954628944397,-0.11778730154037476,-0.11204695701599121,-0.03849312663078308,-0.9770673513412476,0.25199708342552185,0.13827554881572723,-1.3245341900002132,-0.6032704589718999,1.483046860983743
1687007437.7051091,-0.7898126840591431,0.5866242051124573,-0.17907479405403137,-0.20773053169250488,0.028243839740753174,-0.006136476993560791,0.01003781333565712,0.2363748550415039,0.32033005356788635,-1.3478351884709554,-0.6268841799064967,1.4289930129583028
1687007437.79648,-0.7794948816299438,0.6039777398109436,-0.16612736880779266,0.06254559755325317,-0.21088093519210815,0.0004626065492630005,-2.5094480514526367,-0.37304121255874634,0.5547707676887512,-1.3608160604785802,-0.6484825865955749,1.4017491841607577
1687007437.801262,-0.7589148283004761,0.6376098394393921,-0.132294163107872,-0.23650747537612915,0.13382863998413086,0.06532323360443115,1.7632544040679932,0.0835777223110199,0.8581628203392029,-1.398210355588585,-0.6913916459040599,1.3625471491519106
1687007437.889176,-0.7199198603630066,0.6685742139816284,-0.1863427311182022,-0.0022937655448913574,-0.27692705392837524,-0.06088028848171234,0.3044685125350952,-0.1651986837387085,1.506341576576233,-1.317516851861616,-0.7322898456099707,1.4797360157371395
1687007437.906524,-0.6534441709518433,0.7318159341812134,-0.19353605806827545,-0.02850162982940674,-0.13817286491394043,-0.03330123424530029,1.530677080154419,-0.6396749019622803,2.616255283355713,-1.2828492344179931,-0.8209827909452703,1.5623406361708596
1687007437.9407,-0.5543514490127563,0.8145462870597839,-0.1709051877260208,0.5643154978752136,-0.26808345317840576,0.07529349625110626,-2.0705742835998535,-1.2957972288131714,2.9423329830169678,-1.2717446153758807,-0.9519466069898677,1.623833570115645
1687007438.003845,-0.438496470451355,0.8858253955841064,-0.15176978707313538,0.37024393677711487,0.3369375467300415,0.005559980869293213,3.5781047344207764,-1.2349299192428589,2.907170534133911,-1.2375875776569734,-1.0882698084788929,1.748016053649968
1687007438.099483,-0.33052733540534973,0.9092588424682617,-0.252981573343277,0.5087805390357971,-0.022372424602508545,0.1037200391292572,0.8210175633430481,-1.49817955493927,2.0698885917663574,-0.9175195979609688,-1.141500006670232,2.169164103106237
1687007438.104964,-0.2762677073478699,0.9235795140266418,-0.265851229429245,0.12340518832206726,0.2545972466468811,0.06080356240272522,1.216904878616333,-0.830822229385376,1.1148204803466797,-0.8046101911094692,-1.1773139513456734,2.365795382060632
1687007438.191798,-0.25581565499305725,0.9293189644813538,-0.26631611585617065,0.03492942452430725,0.03984278440475464,0.09515824913978577,-0.721886396408081,-0.574436366558075,0.21228159964084625,-0.7652901392451106,-1.1925642680742807,2.4444395006463298
1687007438.209536,-0.2552945613861084,0.9302901029586792,-0.26340991258621216,0.018783360719680786,0.07443994283676147,0.0019657909870147705,0.7776646018028259,0.0349235013127327,0.032307304441928864,-0.7697540136400016,-1.195202852110903,2.449878268694991
1687007438.24263,-0.2550753355026245,0.9239911437034607,-0.28491517901420593,0.0318392813205719,-0.14170372486114502,0.08580318093299866,-0.1602100133895874,-0.08124851435422897,0.012266752310097218,-0.7301943998015514,-1.1783889828874616,2.4916580824708867
1687007438.344204,-0.2557673454284668,0.9245445132255554,-0.2824898660182953,-0.006302386522293091,0.00251847505569458,0.05719378590583801,-0.007429128047078848,0.22933226823806763,-0.1192806214094162,-0.7357925163922372,-1.1798386279446942,2.481437455021015
1687007438.3492808,-0.2599416971206665,0.9243009090423584,-0.2794601023197174,0.03040376305580139,-0.06681817770004272,0.019160360097885132,-0.16893526911735535,0.21714895963668823,-0.13889506459236145,-0.7492287036999782,-1.1791998458640793,2.4538187024515135
1687007438.487117,-0.2610594630241394,0.9252139329910278,-0.275366872549057,0.004574477672576904,0.009737670421600342,-0.03611078858375549,-0.07822494208812714,0.4541980028152466,-0.18763065338134766,-0.7587327517735806,-1.181598999330191,2.4272362910436986
1687007438.547676,-0.26707062125205994,0.9275933504104614,-0.26123493909835815,0.07319241762161255,-0.03173470497131348,0.0069165825843811035,-0.6583932042121887,0.33278635144233704,-0.2219047248363495,-0.7964437333673525,-1.1879185003078803,2.366152126943639
1687007438.552497,-0.27630195021629333,0.9224480986595154,-0.2697162330150604,0.05308109521865845,0.02147585153579712,-0.10481086373329163,0.5187888741493225,0.6064599752426147,-0.5155949592590332,-0.7974589453517561,-1.174373507862185,2.336961419819137
1687007438.55639,-0.2925054132938385,0.9085029363632202,-0.2984340786933899,0.05231678485870361,-0.042231082916259766,0.008608579635620117,0.3926142156124115,0.5345780849456787,-0.5165627598762512,-0.7753658604446287,-1.139687432365931,2.3306956237269714
1687007438.636334,-0.30645552277565,0.9011917114257812,-0.30649399757385254,0.04586589336395264,-0.00849151611328125,-0.029580920934677124,-0.6817059516906738,0.36797404289245605,-0.45823949575424194,-0.7853354175367722,-1.122511216666844,2.291733452544983
1687007438.652786,-0.3309582769870758,0.9121450185775757,-0.24178090691566467,-0.025517553091049194,0.06986474990844727,-0.06983417272567749,-1.081136703491211,0.25612714886665344,-0.47535404562950134,-0.9398611674968451,-1.1484874546186805,2.110640237432504
1687007438.6946092,-0.3455674648284912,0.9002001285552979,-0.2649959921836853,0.12433025240898132,-0.0010455846786499023,0.10923421382904053,0.05329866707324982,0.5251394510269165,-0.6074281930923462,-0.9166025264153955,-1.1202289001614263,2.1048014600662412
1687007438.786388,-0.3825351893901825,0.896172821521759,-0.22481279075145721,0.13400009274482727,0.08731693029403687,0.023625582456588745,-0.7474961876869202,0.449763685464859,-0.9968697428703308,-1.0394761539076656,-1.111067443687572,1.947818643114472
1687007438.803648,-0.41838598251342773,0.8647589683532715,-0.2777497172355652,0.017842769622802734,-0.011899590492248535,0.017312586307525635,0.7946984171867371,0.6724403500556946,-1.1922166347503662,-0.9847393349309689,-1.0446702423408603,1.9695564218750796
1687007438.843626,-0.4763529598712921,0.8419762849807739,-0.25330594182014465,0.3837626576423645,0.1498296856880188,0.01520770788192749,-1.038766860961914,-0.1212618425488472,-1.661181092262268,-1.0820639305241777,-1.000935847974771,1.843067675872993
1687007438.934581,-0.5336437821388245,0.8043978214263916,-0.26109105348587036,0.08054929971694946,0.0517728328704834,0.16091695427894592,1.0253880023956299,0.5602955222129822,-1.4119484424591064,-1.1157768471098577,-0.9346611337281527,1.7917930636792052
1687007438.95184,-0.5820887684822083,0.7674975991249084,-0.26855164766311646,0.38442641496658325,-0.048198401927948,0.0967223048210144,-0.8193100094795227,-0.07361535727977753,-1.1101917028427124,-1.138536868641225,-0.8749283976704045,1.7456417650819482
1687007439.024086,-0.6218247413635254,0.7370482087135315,-0.2647520899772644,0.012541353702545166,-0.050875842571258545,0.12757545709609985,-0.17468956112861633,0.04979619383811951,-1.0967142581939697,-1.1682767127478924,-0.8286923152268965,1.700587308046612
1687007439.117175,-0.6626704335212708,0.7183325886726379,-0.2118159532546997,0.16277730464935303,0.10262060165405273,0.07528020441532135,-1.0508538484573364,-0.6046470403671265,-0.9089638590812683,-1.2614199990781998,-0.8014026256155073,1.5951714156702141
1687007439.137795,-0.6951626539230347,0.6962154507637024,-0.17897683382034302,-0.02961444854736328,-0.02366924285888672,0.11424894630908966,-0.5717076659202576,-0.659150242805481,-0.691493809223175,-1.3188085479367322,-0.7701117425411222,1.5578111524056748
1687007439.2032208,-0.718317449092865,0.6845109462738037,-0.12435713410377502,-0.15630102157592773,0.143507182598114,-0.009767770767211914,0.5534400343894958,-0.8433871269226074,-0.23017863929271698,-1.3993726485526956,-0.7539326159313351,1.5009191924769023
1687007439.219936,-0.7293422818183899,0.6728321313858032,-0.12392245978116989,-0.45863068103790283,-0.1159626841545105,-0.14873695373535156,-0.002863471396267414,-0.6536085605621338,-0.38354235887527466,-1.4024937607290695,-0.7380303801825404,1.5506819684863344
1687007439.293608,-0.7507514357566833,0.6502530574798584,-0.11637446284294128,-0.4318351149559021,-0.02343738079071045,-0.13098591566085815,1.2708569765090942,-0.5668259859085083,-0.6863664388656616,-1.4170096298450676,-0.7079174628597105,1.5743896091672593
1687007439.297301,-0.7788117527961731,0.6157958507537842,-0.11936292797327042,-0.32516157627105713,-0.23913276195526123,-0.13686275482177734,0.06560513377189636,-0.3374749720096588,-0.923416256904602,-1.418716848621437,-0.6633956552011677,1.6120339363829577
1687007439.3843899,-0.8020346164703369,0.5800223350524902,-0.14252813160419464,-0.038373589515686035,-0.10677117109298706,-0.13696716725826263,1.3480275869369507,0.014591731131076813,-0.5306905508041382,-1.3949241358057796,-0.618756126844863,1.6594533824098305
1687007439.4031792,-0.8110476732254028,0.5646554231643677,-0.1528584063053131,0.013699769973754883,-0.201740562915802,0.04304082691669464,0.1092522144317627,-0.0955776497721672,-0.0869050994515419,-1.3845111834640396,-0.6000157228287744,1.6857883462422585
1687007439.4450998,-0.8091972470283508,0.5647059679031372,-0.16219395399093628,0.028435587882995605,0.0004947185516357422,0.1418386697769165,0.24037733674049377,0.1257195770740509,0.10043656080961227,-1.3729795586055964,-0.6000769475438408,1.7045812643111908
1687007439.567934,-0.8061084747314453,0.5690451264381409,-0.16240836679935455,0.0023976564407348633,-0.0004417896270751953,-0.03476576507091522,-0.37428322434425354,0.12964841723442078,0.040081605315208435,-1.3719856845077256,-0.6053442051656726,1.69326471446718
1687007439.587305,-0.8034752011299133,0.5731971263885498,-0.16084857285022736,0.004326760768890381,0.02357393503189087,-0.041650936007499695,0.06799192726612091,-0.03396688401699066,0.07910171151161194,-1.3732170308399416,-0.610402289192501,1.6878512599688194
1687007439.6553059,-0.8021165132522583,0.5754337906837463,-0.1596398800611496,0.0007249712944030762,-0.007867991924285889,-0.09733349084854126,0.08807488530874252,-0.14832980930805206,0.04931984469294548,-1.3743400636253038,-0.6131344840586318,1.693619293689823
1687007439.67262,-0.8009636998176575,0.5800310373306274,-0.14839427173137665,0.04981940984725952,-0.030989468097686768,-0.10738889873027802,-0.12667521834373474,-0.45553290843963623,0.1962999701499939,-1.3876038480034039,-0.618766804323568,1.691030121441239
1687007439.7730742,-0.7976663112640381,0.5919687151908875,-0.11533238738775253,0.019895315170288086,-0.13374733924865723,-0.1292508840560913,-0.6645808815956116,-1.0288466215133667,0.359360009431839,-1.42720416262618,-0.6334993273785053,1.6848832309242003
1687007439.791181,-0.7926376461982727,0.6078954935073853,-0.0467819944024086,0.03438258171081543,0.09626704454421997,-0.10498201847076416,-0.099904865026474,-1.170294165611267,0.2980303168296814,-1.511844060590918,-0.6534074261654524,1.6395321500078741
1687007439.859968,-0.7825060486793518,0.6225495338439941,0.01078061107546091,0.04945862293243408,-0.2999635338783264,-0.0748676061630249,-0.8014107942581177,-1.5008739233016968,0.6207305788993835,-1.5845724879369536,-0.6719963373263508,1.6279706192788328
1687007439.877392,-0.7570900917053223,0.645115315914154,0.10315240174531937,0.020136475563049316,0.05994737148284912,-0.09721685200929642,-0.7704018950462341,-1.4798245429992676,0.6826224327087402,-1.706211021767732,-0.7011742156227408,1.5579605487529247
1687007440.0158448,-0.723077118396759,0.6648837924003601,0.18732105195522308,0.08507657051086426,-0.2535220980644226,-0.19675110280513763,-1.054619312286377,-1.719999074935913,0.8355494141578674,-1.8242846033652678,-0.727338199963566,1.4945736682898099
1687007440.021531,-0.6722244024276733,0.6809207201004028,0.29062172770500183,0.11411899328231812,0.17821002006530762,-0.01094353199005127,-0.736839771270752,-1.806595802307129,0.7311447262763977,-1.9788578093251818,-0.7490191277475945,1.4014514539554177
1687007440.07653,-0.6161338090896606,0.6959189176559448,0.368884414434433,0.08390724658966064,-0.1806449294090271,-0.12836027145385742,-0.3984780013561249,-1.9042659997940063,0.8875287175178528,-2.110265484216916,-0.7696987136332428,1.3439715232228449
1687007440.080577,-0.5405399799346924,0.6987709403038025,0.4685458242893219,0.14300286769866943,-0.07178753614425659,-0.06534776091575623,-2.2351596355438232,-2.3669400215148926,0.9006117582321167,-2.2849692711065073,-0.7736779178840716,1.2413216428732263
1687007440.084217,-0.4329726994037628,0.6724334359169006,0.6003063917160034,0.16893461346626282,0.028036415576934814,-0.25823497772216797,-0.47274062037467957,-2.926039218902588,1.0380349159240723,-2.516744953495051,-0.7374916551773919,1.1021268062243488
1687007440.133367,-0.30388152599334717,0.7215617299079895,0.6220964193344116,0.26854220032691956,-0.1190229058265686,-0.06904184818267822,0.9490789771080017,-2.6900794506073,1.5626107454299927,-2.6872036383342603,-0.806055388667097,1.0559336988251027
1687007440.1922321,-0.14480702579021454,0.7364647388458252,0.6607951521873474,0.24717821180820465,-0.008071303367614746,-0.18317997455596924,-0.021522043272852898,-3.293596029281616,1.7497947216033936,-2.9258622628898348,-0.8278294102694158,0.935653067675393
1687007440.291566,0.032595086842775345,0.759689450263977,0.6494681239128113,0.3551154136657715,-0.15422093868255615,0.04590517282485962,-0.23818956315517426,-3.4066734313964844,1.8794512748718262,3.0914473706504593,-0.8628354530911343,0.7998421073996903
1687007440.31251,0.22412241995334625,0.7085891962051392,0.6690818071365356,0.33819442987442017,0.07144010066986084,-0.04867476224899292,-0.8164190053939819,-4.0192975997924805,1.6978298425674438,2.8183696974983037,-0.7874968221513741,0.6861133846201615
1687007440.338365,0.41318851709365845,0.6677080392837524,0.6192256212234497,0.4696238934993744,-0.08648562431335449,0.23848557472229004,-1.1014935970306396,-4.196052074432373,1.4066411256790161,2.5531749165769986,-0.7311257032860285,0.6010593920073696
1687007440.4279509,0.5708784461021423,0.6084550023078918,0.5512526631355286,0.31423789262771606,0.017628192901611328,0.19204843044281006,-0.23677650094032288,-3.6139209270477295,1.2526429891586304,2.3387065177618878,-0.6541123004934637,0.5755632556074973
1687007440.431827,0.6920251250267029,0.567295253276825,0.44640442728996277,0.1713017225265503,0.0069539546966552734,0.20601552724838257,0.12475008517503738,-3.056727409362793,1.3989648818969727,2.1436977517021294,-0.6032176974332314,0.521819257137607
1687007440.4935231,0.7886665463447571,0.5153594017028809,0.33527493476867676,0.15240377187728882,0.01145017147064209,0.33309051394462585,-0.06420619040727615,-2.789069414138794,1.4342666864395142,1.9727653791252973,-0.5414269944699069,0.47946960076745704
1687007440.588872,0.8550518155097961,0.4617537558078766,0.23594416677951813,0.07016479969024658,0.09095004200935364,0.342379093170166,0.23638486862182617,-1.873288869857788,1.1595234870910645,1.8400375035978822,-0.47997134679782855,0.4505589003903276
1687007440.609373,0.8914900422096252,0.4213818609714508,0.16638174653053284,-0.01899242401123047,0.1203509271144867,0.317626953125,0.35025137662887573,-1.0596222877502441,0.8462057709693909,1.7553068975112947,-0.4349685445796786,0.42674666840137715
1687007440.641737,0.9129290580749512,0.39052167534828186,0.11854677647352219,0.0016369819641113281,0.17646443843841553,0.14631523191928864,0.6890034079551697,-0.6245098114013672,0.654016375541687,1.6999269913804924,-0.40119819957243585,0.3855180025150331
1687007440.738196,0.9260362982749939,0.36745336651802063,0.08622435480356216,-0.06296879053115845,0.18816488981246948,0.16614067554473877,0.48065510392189026,-0.3567467927932739,0.41805553436279297,1.663639836620523,-0.3762693354857504,0.3554070562985105
1687007440.757721,0.9318427443504333,0.35618436336517334,0.06929315626621246,-0.0167275071144104,0.14096218347549438,0.15200507640838623,0.6234098076820374,0.06330201029777527,0.18257084488868713,1.6450211437152142,-0.36418126411795465,0.32249818336337494
1687007440.793524,0.9337828755378723,0.35191071033477783,0.06487048417329788,-0.006353795528411865,0.03184780478477478,0.06763684749603271,0.295857697725296,0.08049790561199188,0.10158172249794006,1.64015551906768,-0.35961160502338774,0.29694864016909844
1687007440.918867,0.9349609613418579,0.34910428524017334,0.06304189562797546,0.02066648006439209,-0.07255399227142334,-0.043907396495342255,0.3991592824459076,0.10828173905611038,0.08643685281276703,1.6381217271788697,-0.3566150708778237,0.2758910671279471
1687007440.9385529,0.9373553395271301,0.34270521998405457,0.0625908374786377,-0.008446335792541504,-0.08387044072151184,0.03192208707332611,0.0232702624052763,0.05511984974145889,0.20612438023090363,1.6374712101323923,-0.34979497973887985,0.26260140983993935
1687007441.0687652,0.9405715465545654,0.3334508538246155,0.06431007385253906,0.01018834114074707,0.03550666570663452,-0.008386604487895966,0.2430022954940796,0.10306407511234283,0.17934975028038025,1.6390634749271535,-0.3399615563067699,0.2565120345620251
1687007441.09078,0.9422153234481812,0.32824766635894775,0.06696023046970367,-0.03897136449813843,0.07646116614341736,0.06147289276123047,0.1288377046585083,0.15571916103363037,0.08086179196834564,1.6417438486485973,-0.3344478571740066,0.24584840334721095
1687007441.09437,0.941836953163147,0.328214555978775,0.07223805040121078,0.019863486289978027,0.053819745779037476,-0.008593671023845673,0.0030823019333183765,0.1165134385228157,-0.023953836411237717,1.6473455615353203,-0.334412801622886,0.24164113957937156
1687007441.15212,0.9398294687271118,0.3329005539417267,0.07679788768291473,0.004765868186950684,-0.010238170623779297,-0.013870708644390106,0.09426294267177582,0.0912775844335556,-0.05262942239642143,1.6523298793493022,-0.3393779088589709,0.23740620015826694
1687007441.155746,0.9389506578445435,0.33467087149620056,0.07979346066713333,0.0020130276679992676,-0.04914844036102295,-0.009541988372802734,-0.05314841493964195,0.06572229415178299,0.012254768051207066,1.6555741649627798,-0.34125593832764806,0.23857708390199026
1687007441.245984,0.9393941164016724,0.33286863565444946,0.08208033442497253,-0.00015461444854736328,-0.008421003818511963,-0.027942173182964325,0.03381345048546791,0.0686098262667656,0.03203672915697098,1.6579508064567576,-0.3393440791463871,0.23772779021833643
1687007441.250228,0.9402969479560852,0.3299058973789215,0.08368895202875137,0.00590062141418457,0.009831041097640991,-0.006906740367412567,-0.029614191502332687,-0.0023278635926544666,0.03229079395532608,1.6595651155921054,-0.33620387743946384,0.23969918689731307
1687007441.3360639,0.9413362145423889,0.3280486762523651,0.07918528467416763,0.000863492488861084,0.008743315935134888,0.0006181076169013977,-0.04768447205424309,-0.042577147483825684,0.0006926544010639191,1.6547188398998647,-0.33423720144588953,0.2368073376536404
1687007441.356056,0.9415605664253235,0.32801058888435364,0.07663353532552719,-0.0036943554878234863,0.017005890607833862,0.014476664364337921,0.04858294129371643,-0.020163720473647118,0.014884374104440212,1.652007237083888,-0.3341968885252797,0.23821452727733755
1687007441.39234,0.9416505098342896,0.3279683291912079,0.07570244371891022,-0.0195314884185791,-0.021007299423217773,0.03290963172912598,0.010366979986429214,0.018109900876879692,0.010738630779087543,1.6510171512986418,-0.33415213367627983,0.2360526575051399
1687007441.484036,0.9419144988059998,0.3266790509223938,0.07796075940132141,0.010996818542480469,-0.021060794591903687,0.008938074111938477,-0.07255260646343231,0.015041273087263107,0.030499018728733063,1.6533764983912926,-0.33278769624134535,0.2366898223286679
1687007441.487934,0.9426613450050354,0.3236507773399353,0.08148197084665298,-0.011081993579864502,0.015918254852294922,-0.0024720504879951477,0.0057360087521374226,0.021422605961561203,0.022553477436304092,1.6570202275177275,-0.3295854149947086,0.24092416297712516
1687007441.540952,0.9433139562606812,0.3215625584125519,0.08219531178474426,0.004973888397216797,0.012498080730438232,0.0018194839358329773,-0.03979465737938881,-0.018240250647068024,0.02253776416182518,1.6577114295929363,-0.3273792248766965,0.24279346120704964
1687007441.666947,0.9430927634239197,0.3223075568675995,0.0818147361278534,-0.0023122429847717285,0.0036658942699432373,0.007342331111431122,0.018880972638726234,0.026262901723384857,0.0024609938263893127,1.657331204239726,-0.3281661066510025,0.2425548118997799
1687007441.672281,0.9430239796638489,0.322304368019104,0.08261430263519287,0.004653334617614746,-0.019859999418258667,0.014782413840293884,-0.025770384818315506,-0.00555122084915638,0.02055077999830246,1.6581789636699604,-0.3281627570331779,0.24325979879866272
1687007441.757142,0.9431939721107483,0.3216340243816376,0.0832848846912384,-0.004229307174682617,-0.010812520980834961,0.0037816688418388367,-0.047581810504198074,0.02194405347108841,0.00963288638740778,1.6588688097568685,-0.32745469433175467,0.24325036931683625
1687007441.777903,0.9436777830123901,0.3196476399898529,0.08542405813932419,-0.0014629960060119629,0.02491101622581482,0.006159178912639618,0.003319589653983712,-0.0066444482654333115,0.02397960051894188,1.6610727641730423,-0.32535760386237467,0.24763697519009414
1687007441.8780742,0.9436052441596985,0.31975045800209045,0.08584045618772507,0.003629744052886963,0.003217041492462158,-0.008615732192993164,-0.011067206040024757,0.0219509769231081,-0.031935062259435654,1.6615173445941434,-0.32546610610715226,0.24520229516397285
1687007441.88335,0.94316565990448,0.32092368602752686,0.0862918347120285,-0.004445075988769531,-0.007904887199401855,0.00040853023529052734,0.017626024782657623,-0.005452550947666168,-0.00709256436675787,1.662034022775372,-0.3267045939560746,0.24714488698359574
1687007441.9659472,0.9425501227378845,0.3224250078201294,0.08741346746683121,0.004196584224700928,0.011772960424423218,-0.021571874618530273,-0.15633325278759003,0.0013816531281918287,-0.05861993879079819,1.6632732576543459,-0.3282902095659248,0.24891255104009538
1687007441.9711618,0.9420520663261414,0.32377198338508606,0.08780323714017868,-0.0010274052619934082,0.012577474117279053,0.018306367099285126,-0.06258726119995117,-0.027503125369548798,-0.05888678878545761,1.663732068739098,-0.3297135156606562,0.2551917625927448
1687007442.0576549,0.9407075643539429,0.32703715562820435,0.09008654952049255,0.014400899410247803,-0.011821120977401733,-0.01609671860933304,-0.2393796145915985,-0.02577393501996994,-0.045185089111328125,1.6662698500526347,-0.333166608804363,0.26653434278042026
1687007442.0774941,0.9398409128189087,0.3291337788105011,0.09148736298084259,-0.028723478317260742,0.019407451152801514,0.06071901321411133,0.05301850289106369,0.060514483600854874,-0.08377987891435623,1.6678340500497355,-0.33538609419873,0.26996266603216484
1687007442.1475558,0.935644268989563,0.33710673451423645,0.1045413538813591,-0.032613933086395264,0.12019917368888855,0.15769612789154053,-0.481824666261673,0.2970793545246124,-0.3029513657093048,1.6820667687033672,-0.34384204458942275,0.2851412018422825
1687007442.151153,0.9267563223838806,0.3528326153755188,0.1289641112089157,-0.03642129898071289,0.07770934700965881,0.3538239002227783,-0.19953005015850067,0.6661443114280701,-0.45350173115730286,1.7090648378436937,-0.360596700993201,0.30161613409058985
1687007442.270479,0.9050513505935669,0.3793705105781555,0.19224971532821655,-0.014518022537231445,0.1548854410648346,0.47874021530151367,-1.1211177110671997,1.7013899087905884,-0.945540189743042,1.7801037993744095,-0.3891158479438461,0.34062819007082246
1687007442.286905,0.8515833616256714,0.4155596196651459,0.3195563852787018,0.1334478259086609,0.2087385356426239,0.3808067739009857,-1.0663354396820068,2.981015205383301,-1.3236027956008911,1.9297858900911302,-0.42855797583258615,0.4194994326907986
1687007442.3590012,0.7478982210159302,0.4642064869403839,0.4745104908943176,0.2928273677825928,0.2593346834182739,0.3665080666542053,0.38716697692871094,4.145257949829102,-1.5659390687942505,2.136168481157276,-0.4827384993653198,0.48022903142760576
1687007442.3771682,0.5853226780891418,0.5260489583015442,0.6169842481613159,0.3927808403968811,0.09123009443283081,0.41306018829345703,-0.8911154866218567,4.528123378753662,-1.9751890897750854,2.3825224215458283,-0.5539480204626527,0.5402602188055559
1687007442.380024,0.3588408827781677,0.5630517601966858,0.7444498538970947,0.6374968886375427,0.25002801418304443,0.11526066064834595,0.5049189925193787,5.187535762786865,-2.205784559249878,2.6924309536583872,-0.598073881344853,0.6574020518021828
1687007442.412363,0.08475881069898605,0.6217319965362549,0.7786304950714111,0.7423590421676636,0.03532677888870239,0.33564263582229614,1.0786470174789429,5.50220251083374,-2.448976993560791,3.0331633184116047,-0.6709520869155103,0.7806340460726401
1687007442.474417,-0.20161394774913788,0.6487441062927246,0.7338139414787292,0.7299036979675293,-0.02259969711303711,0.0183679461479187,1.0019606351852417,5.239511489868164,-2.6210384368896484,-2.8734606881242324,-0.7059329297727522,0.9504995413736022
1687007442.5344949,-0.4614636301994324,0.6153914332389832,0.6390184164047241,0.8659741282463074,-0.11598658561706543,-0.05170774459838867,-0.43336546421051025,4.76859188079834,-2.555692195892334,-2.516158675290699,-0.6628824421595477,1.1117719676300273
1687007442.595973,-0.6658315062522888,0.544462263584137,0.5101266503334045,0.7216938734054565,-0.16436588764190674,-0.1398264765739441,0.7517869472503662,4.594488143920898,-2.0495803356170654,-2.2245534415466,-0.5757479178969084,1.2089181667953994
1687007442.689913,-0.8066266179084778,0.4874172508716583,0.3343311548233032,0.5922713279724121,-0.05057355761528015,-0.11808377504348755,0.9770842790603638,3.432995557785034,-2.2147176265716553,-1.9637233774608949,-0.5091294005243198,1.3125726688448665
1687007442.708887,-0.8901122808456421,0.4085729420185089,0.20191140472888947,0.2995207905769348,-0.2778661847114563,-0.2480235993862152,0.13184493780136108,2.317183017730713,-1.8511393070220947,-1.7938596342155912,-0.4208899861958348,1.3880359156668562
1687007442.7406769,-0.9300311207771301,0.35204464197158813,0.10538667440414429,0.22692155838012695,0.1344817578792572,-0.5874729156494141,3.195054769515991,0.9777239561080933,-1.012168526649475,-1.6836302398056116,-0.3597546979946374,1.4689884754822862
1687007442.835866,-0.9427568316459656,0.33283495903015137,0.020749295130372047,-0.004814028739929199,-0.6324871182441711,0.010210635140538216,-0.7200497388839722,0.9716852307319641,-0.2203073650598526,-1.5928019436034437,-0.3393083661566619,1.5720846492447091
1687007442.854203,-0.9457906484603882,0.32464590668678284,-0.009223613888025284,-0.046320557594299316,0.3712311089038849,-0.23471879959106445,1.7449878454208374,0.6127131581306458,-0.22683531045913696,-1.5610443577177946,-0.33063733135100465,1.5674503882640083
1687007442.8929439,-0.9451422691345215,0.32480040192604065,-0.03479602560400963,0.02453380823135376,-0.4347552955150604,-0.03614223003387451,-0.696434736251831,-0.07057748734951019,0.25908559560775757,-1.533997298508754,-0.33080066799963564,1.6053057705509166
1687007443.01966,-0.9374989867210388,0.3457699120044708,-0.039223745465278625,-0.03677457571029663,-0.1567898988723755,0.17362302541732788,-0.09421468526124954,0.4785579442977905,0.6491143107414246,-1.5289820066916857,-0.3530591776802157,1.5903566509460698
1687007443.039384,-0.9207783341407776,0.3849424123764038,-0.06314045190811157,0.03260993957519531,-0.050286680459976196,0.051116399466991425,-0.20264549553394318,0.6102780103683472,0.9523460865020752,-1.502330588819038,-0.3951454172525658,1.5814454683595893
1687007443.103683,-0.902167022228241,0.4233340322971344,-0.08296369016170502,-0.18097805976867676,-0.015161514282226562,-0.18948209285736084,0.38822510838508606,0.48929351568222046,0.7350097298622131,-1.4790937856214967,-0.4371222403036303,1.581846902305631
1687007443.1211228,-0.8867789506912231,0.44942498207092285,-0.10788878053426743,-0.005707502365112305,0.1409374475479126,0.053384311497211456,-0.49658656120300293,0.4836178123950958,0.6245895028114319,-1.4497276691263887,-0.46612155422977375,1.588729951033889
1687007443.193867,-0.8631241917610168,0.48726093769073486,-0.1326390653848648,-0.053242266178131104,-0.4337179958820343,-0.0010280460119247437,0.6667231917381287,0.8069708347320557,1.1157594919204712,-1.418315943272158,-0.508950405806511,1.592798058513466
1687007443.210706,-0.8310765624046326,0.5324310660362244,-0.1607132852077484,0.28642940521240234,0.6159452795982361,-0.08696752786636353,0.21621282398700714,0.05642799288034439,0.9907627105712891,-1.3797745307876563,-0.5614700078468372,1.6150915565983686
1687007443.283004,-0.8186560273170471,0.5486729741096497,-0.16958875954151154,-0.16040897369384766,-0.057828307151794434,0.030138537287712097,1.1582088470458984,-0.31541839241981506,0.2960017919540405,-1.3665304389925603,-0.5807761548657879,1.6674157674320207
1687007443.286605,-0.8067936897277832,0.5650665760040283,-0.17257928848266602,-0.4270777106285095,-0.6203035116195679,0.11926496028900146,-1.5137791633605957,0.41583529114723206,0.7143641114234924,-1.3600645549554158,-0.6005139372567151,1.6714389234441074
1687007443.3437948,-0.7847709059715271,0.5891703963279724,-0.19238676130771637,-0.6946754455566406,-0.10706907510757446,-0.08102035522460938,0.415120929479599,1.2941581010818481,0.21894589066505432,-1.3303873320389357,-0.630031762730977,1.6395290175773607
1687007443.467813,-0.756065845489502,0.6117975115776062,-0.23252533376216888,-0.35964149236679077,-0.32035475969314575,0.13897359371185303,-1.367204189300537,1.21090567111969,0.9410891532897949,-1.2724306887470191,-0.6583310487958476,1.6265573382989733
1687007443.472835,-0.6940743923187256,0.6700879335403442,-0.26314008235931396,-0.15809834003448486,-0.11253190040588379,0.0613882839679718,0.913006067276001,1.0399612188339233,1.8625003099441528,-1.208415225702793,-0.7343272287950834,1.6362951398736254
1687007443.6151152,-0.6059960126876831,0.7523384094238281,-0.2583708167076111,-0.11252498626708984,-0.16780489683151245,-0.23935571312904358,-0.7144969701766968,-0.03415010869503021,2.9299709796905518,-1.1677766061077446,-0.8516045019216834,1.6660799640527009
1687007443.620698,-0.46756798028945923,0.8251522183418274,-0.31702327728271484,0.6921926736831665,-0.2521390914916992,0.10643669962882996,1.3609868288040161,-0.46878331899642944,3.920706033706665,-0.9749706976981792,-0.9704716467476433,1.9172644270394625
1687007443.73885,-0.321931928396225,0.9106691479682922,-0.2589232921600342,1.0134602785110474,0.36527061462402344,0.09147331118583679,0.8160234689712524,-2.1828689575195312,3.474560499191284,-0.8934512753447204,-1.1449008221354924,2.100784598888567
1687007443.757766,-0.21038459241390228,0.8901674151420593,-0.40415388345718384,0.240825816988945,-0.13673418760299683,0.4009188413619995,2.2265141010284424,-0.409304678440094,2.068734884262085,-0.4799565940655877,-1.0977124884598326,2.6216647071954244
1687007443.761375,-0.1744142323732376,0.9050400853157043,-0.3879203200340271,0.09551098942756653,0.31663960218429565,0.11996060609817505,-0.70757657289505,-0.5989534258842468,0.28965842723846436,-0.42253251172801143,-1.1314739418574133,2.7241947403113045
1687007443.82302,-0.1647050380706787,0.9101434946060181,-0.38014623522758484,0.06895609200000763,-0.005037903785705566,-0.0027121901512145996,0.25866276025772095,-0.1280551701784134,0.24615302681922913,-0.40885246906815054,-1.143630304757983,2.754726097047602
1687007443.841022,-0.1630333811044693,0.911361813545227,-0.377941370010376,0.01970754563808441,0.012450933456420898,0.029873013496398926,-0.10121048241853714,0.014288397505879402,0.03440374508500099,-0.4072555313807429,-1.1465805899822454,2.758293568507148
1687007443.944933,-0.15962320566177368,0.9100435376167297,-0.3825456500053406,0.004288703203201294,-0.08004176616668701,0.0090714693069458,0.03258679807186127,-0.014486659318208694,0.13142083585262299,-0.39530148095912127,-1.1433890181447375,2.7704776156321493
1687007443.96261,-0.15996162593364716,0.9121643304824829,-0.37731754779815674,-0.005474209785461426,0.04997861385345459,0.020032882690429688,-0.3131736218929291,0.13065575063228607,-0.21716244518756866,-0.4009761126600024,-1.1485345447834623,2.7608105725054735
1687007444.032308,-0.17149391770362854,0.9103339314460754,-0.37667223811149597,0.01997409760951996,0.02747124433517456,0.003396332263946533,0.1895025223493576,0.3780507743358612,-0.4471628963947296,-0.42724176912503653,-1.1440901633345955,2.7174381711271764
1687007444.035954,-0.18387967348098755,0.9067990183830261,-0.37934648990631104,0.05872705578804016,-0.17446881532669067,0.0027900338172912598,-0.2813904583454132,0.1192154809832573,-0.1884799301624298,-0.45135514064475923,-1.1356278838533642,2.674780158278159
1687007444.099235,-0.18342575430870056,0.9104875326156616,-0.3706307113170624,0.010024860501289368,-0.05179941654205322,-0.0336814820766449,-0.20086249709129333,0.0992477610707283,0.04294796660542488,-0.459560633972682,-1.1444615337639439,2.6598446194059657
1687007444.102844,-0.1811976432800293,0.9163550138473511,-0.35701629519462585,0.018401607871055603,0.0176047682762146,0.02364221215248108,-0.6782309412956238,0.04345693439245224,-0.037533558905124664,-0.4696560493454603,-1.1588793180925798,2.644800394875126
1687007444.1064281,-0.18748736381530762,0.9205644726753235,-0.34265032410621643,-0.04299663007259369,0.1563090682029724,-0.08511459827423096,0.35500484704971313,0.2676812410354614,-0.3042696416378021,-0.5006665098997402,-1.1695231690138284,2.6034552809231246
1687007444.183073,-0.19572587311267853,0.9166273474693298,-0.3485477864742279,0.059663236141204834,-0.017533838748931885,0.03514745831489563,-0.3946489989757538,0.04512567073106766,-0.22429890930652618,-0.5116650345978325,-1.15956003944895,2.58281398878287
1687007444.2797499,-0.20827989280223846,0.9161889553070068,-0.342369943857193,0.03501631319522858,0.1258794069290161,-0.02825087308883667,0.06817667931318283,0.254149466753006,-0.5354467034339905,-0.5465347421087658,-1.1584648481077437,2.5365939071171097
1687007444.285569,-0.24726097285747528,0.9140218496322632,-0.32159873843193054,0.22103111445903778,0.044016242027282715,0.08998551964759827,-1.030002236366272,0.2458418756723404,-1.3099058866500854,-0.6554559244811978,-1.1530901721179545,2.404715712149081
1687007444.3324308,-0.3112870156764984,0.8980362415313721,-0.310855895280838,0.2733994126319885,0.10199421644210815,0.01155465841293335,-0.012132469564676285,0.49669405817985535,-1.8848011493682861,-0.7860910762240678,-1.1152850254628228,2.2370535392719826
1687007444.4272208,-0.3929692804813385,0.869849443435669,-0.2982228398323059,0.2482702136039734,0.05796104669570923,-0.07242849469184875,0.17842096090316772,0.30439093708992004,-1.8312276601791382,-0.9216260063660708,-1.054897090648921,2.066028849262631
1687007444.449121,-0.4668290615081787,0.8224501013755798,-0.3250328302383423,0.2985704243183136,-0.09056240320205688,0.0018669068813323975,-0.709502637386322,-0.15331192314624786,-1.947174310684204,-0.9625870817814995,-0.9657048680184916,2.003943491423468
1687007444.5766811,-0.5468339323997498,0.7837467193603516,-0.2944715619087219,0.07642078399658203,0.2175195813179016,0.00928470492362976,1.1125457286834717,-0.04653766751289368,-1.833837628364563,-1.076823028961774,-0.9006756752040443,1.8854213813076608
1687007444.638313,-0.6166043877601624,0.7269615530967712,-0.30220144987106323,0.25193464756011963,-0.03874450922012329,-0.018416285514831543,-0.9226994514465332,-0.6702205538749695,-1.675075650215149,-1.1150952593360897,-0.813886680434918,1.8470899048250906
1687007444.657598,-0.689353346824646,0.6798009276390076,-0.2503252625465393,0.228873610496521,0.20801639556884766,0.025914102792739868,0.17971140146255493,-1.1443668603897095,-1.6583714485168457,-1.2224721515038501,-0.7474911379090511,1.7657765138907517
1687007444.6605248,-0.7489619255065918,0.6268301010131836,-0.21480216085910797,-0.05244487524032593,0.09703147411346436,0.2523234486579895,0.033678293228149414,-0.5394678711891174,-1.3495556116104126,-1.2914933293431707,-0.677478170517551,1.7339144900657264
1687007444.72283,-0.7893117666244507,0.5772511959075928,-0.20920805633068085,-0.08918243646621704,0.14043056964874268,0.2410988211631775,0.7751253843307495,-0.32292863726615906,-0.9809756875038147,-1.311702720801093,-0.615358378202663,1.7315679505221309
1687007444.8161721,-0.8122896552085876,0.5443671941757202,-0.20940297842025757,-0.3850674033164978,-0.33840417861938477,0.054709285497665405,0.0750156119465828,-0.5194502472877502,-0.5502719879150391,-1.3184961817830165,-0.5756345240911662,1.7541997528255902
1687007444.8203812,-0.8323012590408325,0.5154891610145569,-0.20382672548294067,-0.5140883922576904,-0.5288255214691162,-0.02455165982246399,0.14784781634807587,-0.30803558230400085,-0.6323205232620239,-1.3306277491523422,-0.5415784315230171,1.7732978703342837
1687007444.909728,-0.8462950587272644,0.4960203766822815,-0.19428914785385132,-0.3277313709259033,-0.35316771268844604,-0.26075857877731323,0.5583035349845886,0.22691650688648224,-0.3007335066795349,-1.3451305374911464,-0.5190095806156779,1.7522112882204317
1687007444.929206,-0.8454757928848267,0.48291563987731934,-0.22795429825782776,-0.029798805713653564,-0.204366534948349,0.0630219578742981,0.24170832335948944,0.2026621699333191,0.009256049059331417,-1.3074418997553927,-0.5039812796524333,1.8021735831267638
1687007444.993524,-0.8438739776611328,0.48670005798339844,-0.22583098709583282,0.10452467203140259,0.1053561270236969,0.061722636222839355,-0.3016655445098877,0.1299593299627304,-0.02282651886343956,-1.3093113738030886,-0.508308226937291,1.7807398507731693
1687007445.010717,-0.8417378067970276,0.4870123863220215,-0.2330157458782196,0.08108723163604736,-0.08582839369773865,-0.09669625759124756,-0.027476871386170387,-0.071066714823246,0.19249245524406433,-1.3007323718494883,-0.5086657964410576,1.7908566123182816
1687007445.082803,-0.8373947143554688,0.4987774193286896,-0.22358696162700653,-0.041648805141448975,0.04339778423309326,-0.014084041118621826,-0.01956428773701191,-0.11689025908708572,0.18784816563129425,-1.3098798879052385,-0.522187647413967,1.7850786394512361
1687007445.086384,-0.8356000185012817,0.5004242658615112,-0.22660136222839355,-0.05107295513153076,0.003314077854156494,0.051308274269104004,-0.0022344994358718395,0.06786320358514786,-0.010385829024016857,-1.3059812598400637,-0.5240887223385822,1.7945801871885882
1687007445.172834,-0.8345639705657959,0.5001735687255859,-0.23093146085739136,0.0005491375923156738,0.0018710494041442871,-0.006327509880065918,-0.03607122600078583,0.1507217437028885,-0.022611070424318314,-1.300841858311362,-0.5237991865196437,1.7911959950283192
1687007445.191553,-0.8339449167251587,0.5011181831359863,-0.2311192750930786,0.026358425617218018,0.008448898792266846,-0.04822346568107605,0.08354831486940384,-0.07303985208272934,0.05335773155093193,-1.3004419079498046,-0.524890442058824,1.790505136333524
1687007445.228472,-0.8335418105125427,0.5021621584892273,-0.23030643165111542,0.0067291259765625,0.0029951930046081543,0.01231926679611206,0.07992128282785416,-0.05165160447359085,0.061331767588853836,-1.3012232186691357,-0.5260972576365917,1.79667100978401
1687007445.325361,-0.8313506245613098,0.5062575936317444,-0.22925817966461182,0.01117551326751709,0.025221168994903564,0.0002999305725097656,-0.015743650496006012,-0.06954631209373474,0.10027996450662613,-1.301718169767116,-0.530839643412854,1.7975990207785137
1687007445.344019,-0.829849898815155,0.5100770592689514,-0.22620889544487,-0.010497331619262695,-0.04602682590484619,-0.028979182243347168,0.10021517425775528,-0.12330648303031921,0.11822114884853363,-1.3046719172664973,-0.5352743593992084,1.8029080356506626
1687007445.382368,-0.8278260827064514,0.5146709084510803,-0.22319887578487396,0.011252045631408691,0.012855887413024902,-0.01250368356704712,0.07609639316797256,-0.1645985245704651,0.15993423759937286,-1.3074382377338098,-0.5406237670459234,1.8102445695815401
1687007445.472723,-0.82454913854599,0.521560788154602,-0.21930049359798431,0.021387696266174316,-0.10678130388259888,-0.06826671957969666,0.22136077284812927,-0.27722200751304626,0.35187864303588867,-1.3108499404490503,-0.5486792618098256,1.820929735768786
1687007445.4915671,-0.8166797757148743,0.5409528017044067,-0.20100806653499603,0.031187891960144043,-0.1849958300590515,-0.15278232097625732,-0.38926249742507935,-0.683059811592102,0.6347590684890747,-1.3294648555591035,-0.5715695330059083,1.8290301585214455
1687007445.530312,-0.8031041026115417,0.5745651721954346,-0.15779265761375427,0.026309728622436523,-0.09304368495941162,-0.1362747997045517,-0.16901661455631256,-0.9340633749961853,0.8602976202964783,-1.3767891358227309,-0.612072761154204,1.8172686181260944
1687007445.6247048,-0.7787221074104309,0.6215529441833496,-0.0852285698056221,0.08246350288391113,-0.4356245994567871,-0.15532630681991577,-2.162196159362793,-1.520963430404663,1.3651320934295654,-1.4617835127910779,-0.6707235122593255,1.7743655590681435
1687007445.642776,-0.7253408432006836,0.6831351518630981,0.0848938599228859,0.26364046335220337,-0.2508842349052429,-0.22919631004333496,-2.938922643661499,-2.3293001651763916,1.8641396760940552,-1.6873062139802613,-0.7520470540812941,1.5812147467976525
1687007445.68315,-0.6264116764068604,0.7383908033370972,0.24977372586727142,0.3970873951911926,-0.174746572971344,-0.29419222474098206,-1.6367807388305664,-3.092255115509033,2.513671398162842,-1.9502137408152016,-0.8306810137728036,1.396917391026453
1687007445.745669,-0.481069952249527,0.7530515789985657,0.44887077808380127,0.4511778950691223,-0.12770062685012817,-0.012088000774383545,-3.3054845333099365,-3.6378419399261475,2.285675048828125,-2.3215833498536123,-0.8526878191540296,1.1202733616985325
1687007445.8370361,-0.30499398708343506,0.7890595197677612,0.5332573056221008,0.28273141384124756,0.07580852508544922,-0.06218820810317993,1.0901384353637695,-3.282599925994873,2.269343137741089,-2.6220571445761753,-0.9092765103963569,0.9566896157167929
1687007445.841649,-0.11671623587608337,0.7652292847633362,0.6330884099006653,0.427690327167511,-0.1308300495147705,0.06263583898544312,-2.7710022926330566,-4.21781063079834,1.9412893056869507,-2.9592796853525583,-0.8713974079070187,0.7630520206294766
1687007445.926213,0.08607176691293716,0.714989960193634,0.6938157677650452,0.43286430835723877,-0.02315664291381836,0.16244620084762573,-1.877752661705017,-4.348731994628906,1.235332727432251,3.018167582415864,-0.7966097848191063,0.6366468231084755
1687007445.946487,0.2874032258987427,0.6034155488014221,0.7438340187072754,0.29236969351768494,0.02533811330795288,0.06681960821151733,-1.9290963411331177,-4.603970050811768,0.9104806184768677,2.7728817723703525,-0.647777411321143,0.616196722097584
1687007445.980517,0.4762296676635742,0.5750389099121094,0.6652331948280334,0.3421753942966461,-0.09739309549331665,0.20395302772521973,0.16663941740989685,-4.3019118309021,1.3059097528457642,2.520285776873129,-0.6126516956358079,0.5588053925794224
1687007446.0748339,0.6448670625686646,0.5273013114929199,0.5532621741294861,0.34805262088775635,0.06905776262283325,0.23233628273010254,-0.25040820240974426,-4.107611656188965,1.3431066274642944,2.279886370501584,-0.5554212927574002,0.5099406378251149
1687007446.093749,0.7727060914039612,0.48249468207359314,0.4124608635902405,0.29603463411331177,0.09553870558738708,0.31600892543792725,0.2870931327342987,-3.66603684425354,1.3502415418624878,2.061107175720726,-0.5035006394265742,0.4624456625158058
1687007446.1616101,0.856834352016449,0.43543609976768494,0.2760983109474182,0.13907629251480103,0.17804354429244995,0.3011721670627594,0.19360770285129547,-2.7546169757843018,1.0229991674423218,1.8825214083638182,-0.45052265008231396,0.4274539901643354
1687007446.262661,0.8986670970916748,0.4013708531856537,0.17691536247730255,0.006240248680114746,0.1846582591533661,0.30030328035354614,0.4794861078262329,-1.602959156036377,0.6334367990493774,1.7651748650473824,-0.41301304946052386,0.40188222856325495
1687007446.2834501,0.918369710445404,0.37994101643562317,0.1106424629688263,-0.0035291314125061035,0.06845369935035706,0.24937331676483154,0.1852935254573822,-0.9764337539672852,0.4443707764148712,1.690695493673896,-0.38973253287677023,0.3746888598709355
1687007446.343645,0.9269536733627319,0.36790841817855835,0.07348687201738358,-0.036633849143981934,0.13784414529800415,0.24365174770355225,0.5588216781616211,-0.3951942026615143,0.19910374283790588,1.6499086852691072,-0.37675868281024694,0.3529526117350112
1687007446.347204,0.9312947988510132,0.36056265234947205,0.05180791765451431,0.03251105546951294,0.0345330536365509,0.14361129701137543,0.4787767827510834,-0.18324318528175354,0.20261752605438232,1.6263690323953366,-0.36887105822394567,0.32685433343668713
1687007446.4351,0.9353832602500916,0.3516604006290436,0.03732268884778023,-0.0034070611000061035,-0.07227200269699097,0.1412355899810791,0.3603213131427765,-0.06021380051970482,0.2461887001991272,1.6106761275569546,-0.35934421055019705,0.3002264087565792
1687007446.439125,0.93904048204422,0.3420446813106537,0.034759875386953354,-0.06408637762069702,0.04084405303001404,0.048751350492239,0.09774529933929443,0.018282737582921982,0.1988888382911682,1.6077958116801143,-0.34909197777169493,0.29506519250670793
1687007446.5005999,0.9413673877716064,0.33550316095352173,0.035568252205848694,0.010002851486206055,0.15106913447380066,0.029388312250375748,0.40533095598220825,0.14187072217464447,0.07338576763868332,1.6085619656390193,-0.34213928563739665,0.2837094899259106
1687007446.504287,0.9413557052612305,0.33537912368774414,0.037015657871961594,-0.0017043352127075195,0.059152066707611084,0.008043523877859116,0.1335982382297516,0.10049771517515182,-0.02589821070432663,1.6100977288754899,-0.34200763306247034,0.27292132197042523
1687007446.5555,0.9404041767120361,0.3378940224647522,0.03831072151660919,-0.007298707962036133,-0.0453982949256897,-0.027232881635427475,0.19887769222259521,0.04689667373895645,-0.002531634643673897,1.6115123810041916,-0.3446784121114355,0.26190776704020924
1687007446.612266,0.9404198527336121,0.33788421750068665,0.03800921514630318,-0.007375538349151611,-0.039788514375686646,-0.025893807411193848,0.02804710529744625,0.03243224695324898,0.02681107446551323,1.6111916243026136,-0.3446679900309322,0.25758567690754686
1687007446.704766,0.9411205649375916,0.33571943640708923,0.039804548025131226,0.0018877983093261719,0.02649366855621338,0.04031932353973389,0.008864624425768852,0.06726692616939545,0.008089850656688213,1.6130659799649238,-0.3423688886984612,0.2568593392188584
1687007446.796809,0.9413935542106628,0.3346762955188751,0.04206914082169533,0.003522157669067383,0.02628558874130249,-0.009339094161987305,0.06732620298862457,0.08540891110897064,-0.018749486654996872,1.6154547720885561,-0.34126169770872433,0.2535617218630629
1687007446.818913,0.940172553062439,0.3374517261981964,0.04692279174923897,0.006574153900146484,0.014629542827606201,0.021283984184265137,-0.029058057814836502,0.06284355372190475,-0.03178859129548073,1.6206636526949205,-0.34420853206034896,0.25354551027105127
1687007446.8872519,0.9390810132026672,0.34027862548828125,0.04834509268403053,0.0014858841896057129,-0.011650115251541138,-0.019719600677490234,0.01952199451625347,0.07459927350282669,-0.04672412946820259,1.6222321975178413,-0.347213204240852,0.2522342570250455
1687007446.890829,0.9384583830833435,0.34147801995277405,0.05185098573565483,-0.004574775695800781,-0.010499656200408936,0.002882242202758789,-0.03941122815012932,0.03241293877363205,-0.02097162790596485,1.6259914467994658,-0.3484890109860088,0.255058291112748
1687007446.97492,0.9385789632797241,0.34121501445770264,0.05139872431755066,0.008259356021881104,-0.016446977853775024,0.0008320808410644531,-0.040498796850442886,0.02155323326587677,-0.01639285497367382,1.6255039660892794,-0.34820918664602074,0.2552361350659568
1687007446.993579,0.9386918544769287,0.34070059657096863,0.052731942385435104,0.001676797866821289,-0.013948887586593628,0.0051751211285591125,-0.09634921699762344,0.003931763116270304,-0.010711800307035446,1.6269133316553293,-0.347661976294844,0.2582746600041706
1687007447.032624,0.9388946294784546,0.33997857570648193,0.05377095565199852,0.00878286361694336,-0.009488493204116821,-0.010695457458496094,0.01707122102379799,0.010985145345330238,-0.007165534887462854,1.6280043247959293,-0.34689412504037753,0.2594433074659932
1687007447.1228662,0.9387266635894775,0.3403405249118805,0.054412588477134705,-0.010458230972290039,-0.007683664560317993,0.0255892351269722,-0.024809982627630234,0.012099544517695904,-0.004285059869289398,1.628695792060764,-0.3472790161111054,0.26075823697337297
1687007447.140398,0.938555896282196,0.34063920378685,0.05547473579645157,0.006527543067932129,-0.005678296089172363,-0.0037169530987739563,0.02345375344157219,0.029637126252055168,0.0019725700840353966,1.6298341205632552,-0.34759667248444504,0.25835420163049216
1687007447.212311,0.9385186433792114,0.3404603898525238,0.05717577040195465,-0.0020869970321655273,0.013131469488143921,0.008040178567171097,0.10448388755321503,0.035089947283267975,0.008445116691291332,1.631642419793595,-0.3474064923669437,0.25853039825712004
1687007447.306237,0.938605010509491,0.34015265107154846,0.057588398456573486,0.0015497803688049316,-0.03476327657699585,0.004011265933513641,-0.09140272438526154,0.011770112439990044,-0.0044190166518092155,1.6320748199899413,-0.34707921008609527,0.2531283292144432
1687007447.325393,0.9385625123977661,0.33995169401168823,0.05944027379155159,0.00014281272888183594,0.00460699200630188,0.008110404014587402,-0.002621389925479889,0.028532180935144424,0.0011123688891530037,1.6340430437399718,-0.34686552631911693,0.2567889271758636
1687007447.3950171,0.9385927319526672,0.33959174156188965,0.060998037457466125,0.011571884155273438,-0.009010136127471924,-0.0031977929174900055,-0.03247835487127304,0.021540585905313492,-0.0023201797157526016,1.63569388645123,-0.3464828253638251,0.2542070088666385
1687007447.412449,0.9383239150047302,0.33998748660087585,0.06290438771247864,0.0008699297904968262,0.015405029058456421,-0.0011367648839950562,0.08064720034599304,0.05078169330954552,-0.0007728831842541695,1.6377352670139245,-0.3469035829072095,0.2556010254902391
1687007447.549494,0.9380303025245667,0.34063124656677246,0.06379200518131256,-0.002086818218231201,-0.008813649415969849,0.000996708869934082,0.01039574109017849,0.010804316028952599,-0.011723535135388374,1.6386981166447148,-0.3475882272390545,0.2514442964774674
1687007447.555779,0.937546968460083,0.3417763411998749,0.06476298719644547,-0.011811673641204834,-0.007319003343582153,0.014842025935649872,-0.02584422007203102,0.030973633751273155,-0.017923640087246895,1.6397638260437422,-0.3488064023789649,0.2521261998169998
1687007447.608443,0.9374059438705444,0.3417404592037201,0.0669591873884201,0.02061706781387329,-0.01285254955291748,0.0016595125198364258,0.03180709108710289,0.06158001348376274,0.0011206241324543953,1.642105510749396,-0.3487682224283598,0.2507652101652963
1687007447.626313,0.93723064661026,0.34161797165870667,0.06996925920248032,-0.01071709394454956,0.01560547947883606,0.007194392383098602,-0.05282264202833176,0.056880198419094086,-0.009802863001823425,1.6453134228279696,-0.3486379048544487,0.2535490843614356
1687007447.628975,0.9367977380752563,0.34204548597335815,0.07358565181493759,0.001983940601348877,0.010463029146194458,-0.0030291080474853516,0.04705541953444481,0.07035166025161743,-0.01579897105693817,1.6491855673881721,-0.34909283120800666,0.2540157802688394
1687007447.660553,0.9362840056419373,0.34312379360198975,0.07508791238069534,-0.0037584304809570312,0.004120439291000366,0.003693222999572754,-0.028665442019701004,0.009618011303246021,-0.008986604399979115,1.6508228507516074,-0.35024058937848646,0.2560446821966578
1687007447.723448,0.9358528852462769,0.3441900312900543,0.07558155804872513,0.0005484819412231445,0.004427522420883179,-0.008793823421001434,0.16826273500919342,0.042550262063741684,-0.0006391927599906921,1.6513836422597037,-0.3513759706660935,0.25125171163596083
1687007447.786356,0.9359524250030518,0.3441932499408722,0.07432156056165695,0.01227426528930664,0.005522876977920532,-0.011058695614337921,0.06725383549928665,0.004921127110719681,-0.005026217550039291,1.6500374663459814,-0.35137940197574263,0.24666052425758025
1687007447.87624,0.9357165694236755,0.34500691294670105,0.07351596653461456,-0.014268934726715088,-0.0062618255615234375,0.007950656116008759,0.07969359308481216,0.025336921215057373,-0.013436214067041874,1.6492017629026539,-0.3522461428470482,0.2416240162544619
1687007447.89467,0.9353945851325989,0.3456697463989258,0.07449453324079514,0.0076901912689208984,-0.013882607221603394,0.007445104420185089,0.07204625755548477,0.06505437195301056,-0.0006125606596469879,1.6502682787135925,-0.35295242374916747,0.23810993801544392
1687007447.9298692,0.9350368976593018,0.3460010290145874,0.07739000767469406,0.008597075939178467,-0.008919119834899902,-0.0017064809799194336,-0.0030480283312499523,0.043455205857753754,-0.009694739244878292,1.6533749049686997,-0.3533054956808248,0.2357333007707382
1687007448.022526,0.9350695013999939,0.345615953207016,0.07870592921972275,0.0016828179359436035,0.006968885660171509,-0.01115524023771286,0.0361543670296669,0.02315658889710903,-0.0034576160833239555,1.6547695967692055,-0.35289512150326047,0.2360126337246101
1687007448.040225,0.9349097609519958,0.3462720215320587,0.07771167904138565,-0.006565213203430176,0.0006822943687438965,-0.01737845689058304,0.012350169010460377,-0.023979097604751587,-0.01163991168141365,1.6537277998812487,-0.35359435117873816,0.23268409873569704
