Timestamp,gravityX,gravityY,gravityZ,accelerationX,accelerationY,accelerationZ,rotationRateX,rotationRateY,rotationRateZ,attitudeRoll,attitudePitch,attitudeYaw
1687003318.2433748,0.9086740612983704,0.3453749716281891,0.23457898199558258,0.024004042148590088,0.008155912160873413,-0.03584861755371094,0.05880356580018997,-0.035788752138614655,-0.2421409785747528,1.8234356790242752,-0.3526383122183075,-0.18012138214974596
1687003318.251796,0.9055733680725098,0.3545689284801483,0.23284661769866943,-0.024500489234924316,0.016738444566726685,-0.011731505393981934,0.0629642903804779,0.04865196347236633,-0.12204013764858246,1.8224706573113312,-0.3624530132552263,-0.18304984467631222
1687003318.366394,0.9011757969856262,0.36391282081604004,0.235477477312088,-0.01322108507156372,-0.007436960935592651,-0.08592602610588074,0.40318119525909424,0.1959611177444458,-0.1648387312889099,1.8263819287421228,-0.372465330814041,-0.18926506570988474
1687003318.375891,0.8950991034507751,0.3783349096775055,0.23592403531074524,-0.016131877899169922,-0.009102672338485718,-0.010902732610702515,0.5871632695198059,0.26751917600631714,-0.2285631150007248,1.8285082941666275,-0.3879968299436014,-0.21723022930920124
1687003318.454296,0.8882331252098083,0.3948552906513214,0.23479939997196198,0.03568631410598755,0.043056637048721313,-0.1718265265226364,1.120484709739685,0.2332790642976761,-0.07574587315320969,1.8292293220057765,-0.4059103368369924,-0.24604578545978892
1687003318.4568129,0.8887799382209778,0.40877118706703186,0.207306370139122,0.08424228429794312,-0.061526983976364136,-0.2581181824207306,1.9271968603134155,0.014274947345256805,0.3378206491470337,1.7999475781638041,-0.4211072078004231,-0.33540944388400473
1687003318.575142,0.9015247225761414,0.3973575532436371,0.17134656012058258,0.001352846622467041,-0.01494184136390686,0.02178381383419037,0.7664285898208618,-0.23840510845184326,0.6820163726806641,1.758619155375548,-0.408635520073555,-0.4209777355561916
1687003318.577825,0.9182075262069702,0.371232807636261,0.13813449442386627,-0.08230054378509521,0.3502485454082489,0.038211241364479065,1.2588591575622559,-0.40542978048324585,0.6897653937339783,1.720115870547692,-0.3803363443646756,-0.4607348030024936
1687003318.664289,0.9306104183197021,0.35550856590270996,0.08704867213964462,-0.04053497314453125,0.20288676023483276,0.06440995633602142,2.045907735824585,-0.12182576209306717,0.46012791991233826,1.6640642685305813,-0.36345813256372805,-0.5797700910870014
1687003318.672862,0.9334787130355835,0.353355348110199,0.061298392713069916,0.03041893243789673,-0.048728883266448975,-0.022068142890930176,0.14211143553256989,-0.20728899538516998,-0.2614513039588928,1.6363688071551636,-0.36115542623650054,-0.6401000528092761
1687003318.788542,0.9264721870422363,0.37319475412368774,0.04873330891132355,0.04976987838745117,0.06772327423095703,0.03392339497804642,0.3520873188972473,-0.33944785594940186,-0.5272182822227478,1.6233488334225772,-0.38245016998585724,-0.6454487872187029
1687003318.790637,0.917701005935669,0.3961341083049774,0.0300443172454834,0.02130955457687378,-0.16325441002845764,0.0765078067779541,-0.3367021977901459,-0.3903132975101471,-0.4524867832660675,1.6035233150582875,-0.407302691054256,-0.6510661254993036
1687003318.7923698,0.911506175994873,0.41084226965904236,0.019097978249192238,-0.012717962265014648,-0.16558781266212463,0.15134263038635254,-0.11301066726446152,-0.19941550493240356,-0.25289830565452576,1.591745372632367,-0.42337772192361633,-0.6397073742802935
1687003318.875476,0.9067136645317078,0.4216182231903076,0.010413017123937607,-0.018346965312957764,-0.17969006299972534,0.08791458606719971,0.005801401101052761,-0.042331207543611526,-0.1865730583667755,1.5822801721668558,-0.4352291746777456,-0.6411125850159222
1687003318.877218,0.9037065505981445,0.42787787318229675,0.01532542984932661,-0.014897406101226807,-0.16226813197135925,0.08388710021972656,-0.2042136788368225,0.18022502958774567,-0.16198648512363434,1.5877531150662518,-0.44214356456706033,-0.6388858078701994
1687003318.997035,0.9012848138809204,0.4323102533817291,0.028171146288514137,-0.00338137149810791,-0.02969178557395935,0.002834681421518326,-0.013406315818428993,0.1983632892370224,0.02410694770514965,1.602042806744696,-0.44705324623392806,-0.6281733014312753
1687003319.007036,0.9021516442298889,0.42942047119140625,0.0414767749607563,0.015145599842071533,-0.06337738037109375,0.0037349462509155273,-0.19684584438800812,0.2266368716955185,0.0751006230711937,1.6167393667007999,-0.44385097063883133,-0.6198243028730528
1687003319.091004,0.9020464420318604,0.4269731044769287,0.06329351663589478,-0.03411132097244263,-0.1382005214691162,0.05818164348602295,-0.8225975036621094,0.4117460250854492,-0.09897662699222565,1.640848100557288,-0.4411427777470006,-0.5979050758151112
1687003319.092211,0.8926887512207031,0.4377327859401703,0.10722247511148453,-0.047153592109680176,-0.060962796211242676,0.1538095474243164,-1.0918806791305542,0.5572498440742493,-0.48830389976501465,1.6903354953505318,-0.45307548309198237,-0.5377576407329832
1687003319.093369,0.8847357034683228,0.44270017743110657,0.14580592513084412,0.14747560024261475,0.2253449261188507,-0.252968430519104,0.5173141360282898,0.16536566615104675,0.15846635401248932,1.734129872291929,-0.45860779063523605,-0.4885301780886903
1687003319.144114,0.88593989610672,0.43833866715431213,0.15155836939811707,-0.04998701810836792,-0.21522453427314758,-0.004356831312179565,-0.8395364284515381,0.35190996527671814,0.03626507520675659,1.740226935359157,-0.4537494663929487,-0.4987432655840115
1687003319.205573,0.8843064308166504,0.42914435267448425,0.18394826352596283,0.05697757005691528,0.18915700912475586,-0.10055901110172272,0.07196676731109619,0.1685609221458435,0.2305501401424408,1.7758857946181188,-0.4435452540020691,-0.45182005673667797
1687003319.2680879,0.8891869783401489,0.4199156165122986,0.18170729279518127,0.03409188985824585,-0.05014932155609131,-0.052129730582237244,0.10466679185628891,0.009262080304324627,0.36092332005500793,1.7723731441536006,-0.4333523276076513,-0.47229864444461256
1687003319.325798,0.8995029926300049,0.4015754461288452,0.17213808000087738,0.005633115768432617,0.02560967206954956,-0.02222047746181488,0.10627280920743942,-0.31255483627319336,0.46591949462890625,1.7598804142532565,-0.4132364566661448,-0.4834973340679278
1687003319.4484859,0.9118244051933289,0.3811356723308563,0.15268267691135406,-0.017399966716766357,0.12844690680503845,0.014797702431678772,0.1421937197446823,-0.43124672770500183,0.4318952262401581,1.7367045966882617,-0.3910243741144408,-0.4903343544293233
1687003319.4550982,0.9204558730125427,0.36728304624557495,0.1336558759212494,-0.017242491245269775,0.06661587953567505,0.06750059127807617,-0.019391635432839394,-0.27212727069854736,0.17163968086242676,1.714994666328197,-0.376086214927005,-0.5009472311710661
1687003319.536839,0.9225342273712158,0.3638462722301483,0.12863197922706604,-0.029910504817962646,0.1104578971862793,0.0323023647069931,-0.0920926034450531,-0.061671216040849686,-0.027845729142427444,1.7093364064343906,-0.3723938854631525,-0.4931678210222877
1687003319.5396628,0.9212878346443176,0.3663572669029236,0.13042685389518738,-0.03733086585998535,0.055029481649398804,0.04575110971927643,-0.07546509057283401,0.10485052317380905,-0.1022680327296257,1.7114319033855445,-0.37509107039526457,-0.4923126174512729
1687003319.629928,0.9176139831542969,0.3715651333332062,0.1411518156528473,-0.008342862129211426,0.06895610690116882,0.026557445526123047,-0.32649773359298706,0.13257430493831635,-0.1405235379934311,1.7234248190888468,-0.3806942784031714,-0.4757943802498135
1687003319.640112,0.9138228297233582,0.376888245344162,0.15127164125442505,0.0001633763313293457,0.009952634572982788,0.01953519880771637,-0.16456541419029236,0.1456935554742813,-0.1547567993402481,1.7348458261466464,-0.3864344950567642,-0.4659082540831243
1687003319.7139559,0.909125566482544,0.38361385464668274,0.1622684746980667,0.008370161056518555,0.029945164918899536,-0.003897532820701599,-0.23924030363559723,0.12805359065532684,-0.18916217982769012,1.7474248290136687,-0.39370638336112473,-0.4507445121651275
1687003319.805964,0.9047552347183228,0.38991954922676086,0.1714065670967102,-0.0071877241134643555,0.01189008355140686,0.013941854238510132,-0.11403565853834152,0.14072169363498688,-0.14610126614570618,1.7580281147731942,-0.40054422166569076,-0.4418003698691528
1687003319.808646,0.9007068276405334,0.39395672082901,0.18309779465198517,0.005008876323699951,0.016229987144470215,-0.03522494435310364,-0.383664608001709,0.14618197083473206,-0.11754951626062393,1.771345995686377,-0.40493250913768114,-0.42517994669281495
1687003319.8980079,0.8964421153068542,0.3976770341396332,0.195561021566391,-0.01410287618637085,0.06902822852134705,-0.03596940636634827,-0.07876688241958618,0.18694618344306946,-0.2166614532470703,1.7855836612742033,-0.4089836913513452,-0.41115973853279664
1687003319.909508,0.8910788893699646,0.40777450799942017,0.1992436945438385,0.026065707206726074,0.034577757120132446,-0.06820131838321686,0.22309356927871704,0.01370423287153244,-0.14763551950454712,1.7907761695471387,-0.4200154054764204,-0.4106787158114565
1687003320.040008,0.8892091512680054,0.4136864244937897,0.19537179172039032,-0.018298745155334473,-0.04997798800468445,0.0017869174480438232,-0.11547116190195084,-0.08472007513046265,-0.08909603953361511,1.787073922372127,-0.4264994965347949,-0.4157861870140534
1687003320.043148,0.8881617188453674,0.4153550863265991,0.19659411907196045,0.006430685520172119,-0.013118058443069458,0.007492229342460632,-0.3329639434814453,-0.0789431482553482,-0.11202292144298553,1.7886334284496472,-0.4283331153695484,-0.3989322145984887
1687003320.1097488,0.8854579925537109,0.41840022802352905,0.20224973559379578,0.007623434066772461,-0.03195619583129883,0.010869592428207397,-0.2763637602329254,0.0598650723695755,-0.15623299777507782,1.7953565174750785,-0.4316832465627869,-0.3824733762879959
1687003320.112396,0.8813433051109314,0.4222365617752075,0.21201471984386444,0.011936724185943604,0.002171456813812256,-0.027383416891098022,-0.305965393781662,0.05646807700395584,-0.15014128386974335,1.806869431025722,-0.43591119187910626,-0.3644399122090021
1687003320.1203852,0.8776621222496033,0.42653217911720276,0.21858476102352142,0.015892446041107178,0.013622850179672241,-0.05702483654022217,-0.2640339434146881,-0.030631674453616142,-0.15668466687202454,1.8148839063772704,-0.4406552079957983,-0.34789196487241214
1687003320.167201,0.8753212690353394,0.42957207560539246,0.22199146449565887,0.03619283437728882,0.017342567443847656,-0.04697324335575104,-0.34997180104255676,-0.045236051082611084,-0.11739398539066315,1.8191710625943749,-0.4440188492612309,-0.3307867885143718
1687003320.228911,0.8744290471076965,0.43186578154563904,0.22105513513088226,-0.006097376346588135,0.07390198111534119,-0.13124194741249084,0.0064904275350272655,-0.17431120574474335,-0.1317521631717682,1.8184079830693831,-0.446560389929402,-0.3191795999254162
1687003320.286546,0.8734742999076843,0.43947747349739075,0.20952852070331573,-0.0207827091217041,0.05258795619010925,-0.07059729099273682,0.2612861692905426,-0.2500194311141968,-0.1179998591542244,1.8062273046130226,-0.45501688037431426,-0.3260558832410795
1687003320.3752441,0.8744971752166748,0.44541311264038086,0.19199462234973907,0.025252580642700195,-0.02382799983024597,-0.07459351420402527,0.03346259146928787,-0.4500451683998108,-0.07533042132854462,1.7869160179784844,-0.4616356311199515,-0.33073153743739897
1687003320.378973,0.8794462084770203,0.4455755054950714,0.16744260489940643,0.043298542499542236,-0.045520514249801636,0.01738704741001129,-0.03503730893135071,-0.5774243474006653,0.0628194585442543,1.7589399795302159,-0.4618169948782334,-0.3332806877585474
1687003320.436233,0.8856636881828308,0.4411901831626892,0.14474423229694366,-0.01994115114212036,0.03637939691543579,0.055405259132385254,-0.42248740792274475,-0.6344888806343079,0.03692501038312912,1.7327944073896535,-0.45692447967324656,-0.3216646068381458
1687003320.52688,0.8888156414031982,0.4400033950805664,0.1280774176120758,-0.007849454879760742,0.05808931589126587,0.046757712960243225,-0.4215887486934662,-0.5610570907592773,-0.10405021905899048,1.7139101586619871,-0.45560245314165687,-0.29745612182150705
1687003320.530793,0.8898596167564392,0.44264498353004456,0.11052148044109344,0.02765125036239624,0.004941016435623169,-0.02368379384279251,-0.07184286415576935,-0.5798504948616028,-0.03607862442731857,1.694364571089261,-0.4585462384515561,-0.2799203282671758
1687003320.585917,0.8934381008148193,0.4416913688182831,0.08171378821134567,-0.01770561933517456,-0.0797681212425232,0.09730220586061478,-0.1697596311569214,-0.5906579494476318,-0.04238845407962799,1.6620025104526743,-0.457483038790701,-0.2785816890986613
1687003320.6751208,0.893020510673523,0.4447113275527954,0.06889129430055618,4.57763671875e-05,-0.046792685985565186,0.07585357874631882,-0.0539102666079998,-0.2464100420475006,-0.03709142655134201,1.6477879752511178,-0.4608519453490635,-0.2675244990239648
1687003320.677618,0.8932065367698669,0.4450177848339081,0.0643496960401535,-0.04585564136505127,-0.10811901092529297,0.07638203352689743,-0.2526192367076874,-0.07196712493896484,-0.01251124870032072,1.6427155396532618,-0.4611941268642283,-0.2600518780909453
1687003320.737605,0.8944834470748901,0.4423680305480957,0.0648813471198082,0.010744035243988037,0.03503367304801941,0.052351824939250946,-0.1072392612695694,-0.1404828131198883,0.0823926255106926,1.6432045070205126,-0.4582373858583853,-0.24937327331941306
1687003320.8319511,0.895084798336029,0.4410743713378906,0.06539524346590042,-0.027042865753173828,0.038478851318359375,0.031177639961242676,-0.0771145224571228,0.04633741080760956,-0.04015033319592476,1.6437271418547665,-0.45679543387438304,-0.24238850171454743
1687003320.8422031,0.8937353491783142,0.4430772066116333,0.07014027237892151,0.0037102103233337402,0.0613173246383667,0.03589296340942383,-0.08687613159418106,0.07293400168418884,-0.0697292611002922,1.6491157068726685,-0.4590283047228238,-0.2385472263055709
1687003320.885872,0.89141446352005,0.4470300078392029,0.07445885986089706,0.039325714111328125,0.27823546528816223,-0.02293003350496292,-0.28700217604637146,-0.08569052815437317,-0.14623042941093445,1.654131761778888,-0.4634423636840988,-0.22866901136550954
1687003320.9749188,0.8838221430778503,0.4614233076572418,0.07711710780858994,-0.024126708507537842,0.6575189828872681,-0.0348198339343071,-0.9677955508232117,-0.3757602870464325,-0.6983524560928345,1.6578300080792348,-0.47959885048962264,-0.19375933521688365
1687003320.9775162,0.8582644462585449,0.5058019757270813,0.08686961233615875,0.025143086910247803,0.6822625398635864,0.03372049331665039,-1.0705769062042236,-0.28976550698280334,-1.523516058921814,1.671668238775983,-0.5303113858817288,-0.12747531505623402
1687003321.069615,0.8103115558624268,0.5761462450027466,0.10700671374797821,0.2885195016860962,0.6119945049285889,0.027209512889385223,-1.1676024198532104,-0.20915573835372925,-2.0360844135284424,1.7020928882177748,-0.6140058507536426,-0.051726407548786074
1687003321.080903,0.7385817766189575,0.6580178141593933,0.1466614156961441,0.2527053952217102,0.7334006428718567,0.19173265993595123,-1.4626630544662476,0.23998397588729858,-2.7487847805023193,1.7668181012742628,-0.7181833794347164,0.05974961034640081
1687003321.155676,0.6241171360015869,0.7561232447624207,0.19686324894428253,0.560742974281311,0.6024734973907471,0.2546442747116089,-0.38928666710853577,0.6759942173957825,-3.3252787590026855,1.876345346783582,-0.8573687973781042,0.1798496375527976
1687003321.2448459,0.47653719782829285,0.8539512753486633,0.20899595320224762,0.7036689519882202,0.23851686716079712,0.17071890830993652,0.7969801425933838,1.0114662647247314,-3.565765380859375,1.9841063139135675,-1.023532100148818,0.261053775298544
1687003321.2475638,0.305662602186203,0.93548184633255,0.17732442915439606,0.6986860632896423,0.1546974778175354,0.3171670436859131,1.1180912256240845,0.9668059349060059,-3.673780679702759,2.0964783263014812,-1.209620199155043,0.3310603723454973
1687003321.398067,0.11069299280643463,0.9854627251625061,0.1288803368806839,0.9269503951072693,0.05695664882659912,0.22918236255645752,1.7502923011779785,1.1311663389205933,-3.920203924179077,2.431964709541376,-1.4000763636362064,0.619577724440669
1687003321.412201,-0.08247435837984085,0.9963279962539673,0.022981762886047363,0.7903143167495728,0.1853124499320984,0.3859231472015381,1.9944208860397339,1.064695119857788,-3.8372983932495117,-1.8425559242599054,-1.4850727358541727,2.5849750381861005
1687003321.487959,-0.28887808322906494,0.9550400972366333,-0.06668972223997116,1.0742937326431274,0.3100659251213074,0.23262900114059448,1.526953935623169,1.326235055923462,-4.597492694854736,-1.3439135076961621,-1.2697950317359425,3.026770777733649
1687003321.501529,-0.5037139654159546,0.8439517021179199,-0.18443916738033295,1.169744849205017,0.1706661581993103,0.10559695959091187,1.869302749633789,1.2398360967636108,-5.399003028869629,-1.2197995384078608,-1.0046078865872294,3.090448847898706
1687003321.503817,-0.7162961363792419,0.6572845578193665,-0.23430085182189941,1.2479581832885742,-0.03777778148651123,-0.06930333375930786,-0.4601302742958069,0.9083737730979919,-6.4025397300720215,-1.2546657493034248,-0.7172099845949367,2.972079541240167
1687003321.608309,-0.8803415298461914,0.3901735842227936,-0.2697463035583496,1.4078075885772705,-0.11049538850784302,-0.15984967350959778,2.110947370529175,-0.2888701558113098,-6.256127834320068,-1.2734683362273125,-0.400820127665876,2.902546380373107
1687003321.6120691,-0.9623764157295227,0.0810684859752655,-0.25934427976608276,1.0283401012420654,-0.2975907325744629,0.036413341760635376,1.9313791990280151,-1.0293141603469849,-5.755282878875732,-1.307566232121035,-0.08115755157073455,2.9234305632224835
1687003321.696241,-0.9625820517539978,-0.19563381373882294,-0.18751834332942963,0.7650876641273499,-0.5159598588943481,0.13614195585250854,2.2134244441986084,-1.5969643592834473,-4.493288516998291,-1.3783983736577092,0.19690370935497006,2.970011030671251
1687003321.7115011,-0.9176794290542603,-0.38174739480018616,-0.1101498082280159,0.6185616254806519,-0.8086364269256592,0.15255394577980042,-0.7167985439300537,-1.341002345085144,-3.14495587348938,-1.4513370202333997,0.3916861267154212,2.9777004321952423
1687003321.792217,-0.8730491995811462,-0.48126882314682007,-0.0785200446844101,0.32701343297958374,-1.0709620714187622,0.235517680644989,-0.9116783142089844,-1.0474778413772583,-1.5019625425338745,-1.4810999489431527,0.5021016265213675,2.9048222126998557
1687003321.796135,-0.8541485667228699,-0.5155438780784607,-0.06814935058355331,0.263572633266449,-0.8074235916137695,0.260089635848999,-0.17149727046489716,-0.15275317430496216,-0.2959429621696472,-1.4911786911180265,0.5416422537812284,2.8691008885122495
1687003321.877337,-0.8598009943962097,-0.5071937441825867,-0.05913223326206207,0.24990731477737427,-0.43686747550964355,0.1037641167640686,1.3613559007644653,0.38461971282958984,0.6755209565162659,-1.5021301293989164,0.5319255372483597,2.9071712226594153
1687003321.880844,-0.8796148896217346,-0.47347572445869446,-0.04580610245466232,0.12911146879196167,-0.07503193616867065,0.008711934089660645,-0.014774180017411709,0.02720339596271515,0.9163463115692139,-1.5187681458979987,0.4932326898411305,2.9601107112918266
1687003322.025528,-0.897650957107544,-0.436250239610672,-0.06251541525125504,-0.07253319025039673,0.15750274062156677,0.019867070019245148,-0.8427462577819824,0.09188532084226608,0.6969292759895325,-1.5012652481926154,0.4514272355670753,2.9277592370949854
1687003322.0295691,-0.9100261330604553,-0.4065200686454773,-0.08120065927505493,-0.10489678382873535,0.13968971371650696,-0.004034988582134247,-0.3004056513309479,0.33254653215408325,0.547600507736206,-1.481803073841661,0.4186419624564381,2.9044451962782176
1687003322.11805,-0.9175961017608643,-0.38381123542785645,-0.10347162187099457,-0.05492281913757324,0.02258986234664917,0.028535649180412292,-0.4072156548500061,0.27659711241722107,0.44933971762657166,-1.4585068728244779,0.393920106083237,2.8791036776809467
1687003322.1316519,-0.9258503913879395,-0.36024531722068787,-0.11412373930215836,0.037788987159729004,-0.23368778824806213,0.02984941005706787,0.6725862622261047,0.33168846368789673,0.62180495262146,-1.4481512954382565,0.3685308592126334,2.8973000455111726
1687003322.1340652,-0.9386947751045227,-0.3209814429283142,-0.1257895678281784,0.15733808279037476,-0.2287164330482483,0.10955417156219482,-0.09654121845960617,0.33428555727005005,1.0217604637145996,-1.4375851527890005,0.32676558433644987,2.9181699799209886
1687003322.2058039,-0.95281583070755,-0.26513075828552246,-0.14780929684638977,0.1143454909324646,-0.3326781094074249,0.09701275825500488,-0.3303385376930237,0.4335692822933197,1.3273844718933105,-1.4168941255450962,0.2683395283950981,2.9091147216679625
1687003322.299141,-0.9672947525978088,-0.1850995123386383,-0.17343278229236603,0.1604558229446411,-0.4104663133621216,0.07508987188339233,0.06859301775693893,0.6596921682357788,1.9623918533325195,-1.3933846754923511,0.18617313004013541,2.9250981236538753
1687003322.314744,-0.9747824668884277,-0.06964537501335144,-0.2120109498500824,0.2519126534461975,-0.36057621240615845,0.10225445032119751,-0.2801680862903595,0.8991245627403259,2.7053818702697754,-1.356636008290737,0.06970180403909172,2.9328332595573285
1687003322.450532,-0.9643017649650574,0.07550473511219025,-0.2538129389286041,0.3684003949165344,-0.43028688430786133,0.02583134174346924,-0.5658623576164246,0.7782089710235596,3.2322206497192383,-1.3134247781727013,-0.07557665779335165,2.9570006474848882
1687003322.465249,-0.933122456073761,0.24313338100910187,-0.26489323377609253,0.46350282430648804,-0.27473440766334534,0.08758613467216492,-2.441218614578247,0.1462380439043045,2.997584819793701,-1.2941948761968622,-0.24559486699604752,2.9275549426280327
1687003322.545634,-0.879269540309906,0.41252756118774414,-0.23812973499298096,0.43536096811294556,-0.10352194309234619,0.09152324497699738,-0.9835560321807861,0.062199465930461884,3.2570090293884277,-1.3063140538966864,-0.4252269935284761,2.8756120138398313
1687003322.548986,-0.8026189804077148,0.5525739192962646,-0.2246440351009369,0.4405125379562378,-0.09447455406188965,0.041034966707229614,-1.0565800666809082,0.16078010201454163,3.0354318618774414,-1.2978907601545897,-0.5854493066269109,2.8779742331658382
1687003322.5520802,-0.7085040807723999,0.6802647113800049,-0.18778157234191895,0.4935382604598999,-0.03236132860183716,0.06438368558883667,-1.2763899564743042,-0.09331289678812027,3.101977586746216,-1.3117136670354392,-0.7481236983255768,2.8499750009324583
1687003322.625331,-0.5944193005561829,0.7911956310272217,-0.14378796517848969,0.46693217754364014,-0.06782233715057373,0.026569902896881104,-1.072702407836914,0.059130966663360596,3.151604652404785,-1.3334588849725897,-0.9127615854021487,2.824350572432575
1687003322.6281772,-0.45716696977615356,0.8833631873130798,-0.10328520089387894,0.4732191562652588,0.018736422061920166,0.02964620292186737,-0.5383018255233765,-0.022924885153770447,3.4753756523132324,-1.3486021462963282,-1.0829901093375154,2.80881402114178
1687003322.750871,-0.30195677280426025,0.9491652846336365,-0.08892279863357544,0.48693907260894775,0.030052125453948975,0.010904550552368164,-0.22990234196186066,-0.10947402566671371,3.390594720840454,-1.2844035945491485,-1.2505734737959966,2.878391278993837
1687003322.766172,-0.13683302700519562,0.9885424971580505,-0.06372154504060745,0.43221262097358704,0.1791515350341797,0.13243180513381958,-0.9891084432601929,0.05175028368830681,3.2028660774230957,-1.134972806295682,-1.4192742102671114,3.036556361735628
1687003322.870854,0.03108266554772854,0.9977326393127441,-0.05969344824552536,0.38514652848243713,0.3040097951889038,0.05969339981675148,1.042386770248413,0.09488803148269653,3.4438564777374268,0.48007393262575304,-1.5034434391295892,-1.6250262116235092
1687003322.887537,0.18654008209705353,0.9773109555244446,-0.100328728556633,0.4097275733947754,-0.01141446828842163,0.06579799205064774,0.2717857360839844,0.3750182092189789,2.9410414695739746,1.0773368676344592,-1.3573700544163774,-1.0408477368640727
1687003322.959502,0.33928704261779785,0.9341983199119568,-0.11026166379451752,0.2612835466861725,0.22075462341308594,0.10104531049728394,0.39945289492607117,0.4421951472759247,3.1791422367095947,1.2565820831563361,-1.2060052238835424,-0.8666871069116434
1687003322.963664,0.482169508934021,0.8696868419647217,-0.10562726855278015,0.44860124588012695,0.02992546558380127,0.04807109385728836,0.11891457438468933,0.5171109437942505,3.125279188156128,1.3551364447205783,-1.0545675423157,-0.7903228322907635
1687003323.0538359,0.616306483745575,0.7789562940597534,-0.11572913080453873,0.2739827632904053,0.2665300965309143,0.20445895195007324,0.6464622020721436,0.7312755584716797,2.9783501625061035,1.3851793076602144,-0.8929996905895468,-0.7874342074197049
1687003323.069818,0.7210807800292969,0.6856378316879272,-0.09971417486667633,0.3945196270942688,0.3277287483215332,0.023008234798908234,0.7531581521034241,0.9182197451591492,2.5991873741149902,1.433383471635212,-0.755479574393251,-0.7833801640505188
1687003323.170614,0.806031346321106,0.5855835676193237,-0.08605246990919113,0.2795550227165222,0.1789732575416565,-0.01193951815366745,0.4352652132511139,1.2169697284698486,2.317034959793091,1.464438487581196,-0.6255997697074702,-0.8164533804185827
1687003323.186866,0.8709974884986877,0.4881226122379303,-0.05567118152976036,0.17038410902023315,0.4721434414386749,-0.1300283670425415,0.7786024212837219,0.9842108488082886,2.235018014907837,1.5069665752059846,-0.5099374003971313,-0.8298386517149444
1687003323.189425,0.9166691899299622,0.39830347895622253,-0.03273868188261986,0.1733880639076233,0.42872288823127747,-0.2563697099685669,0.28486865758895874,0.6904097199440002,1.7683014869689941,1.5350966729201099,-0.40966652641911266,-0.8675401637316054
1687003323.222178,0.9451560974121094,0.3263859152793884,-0.012335157953202724,0.01417917013168335,0.6116024255752563,-0.2670380473136902,0.13585515320301056,0.39141571521759033,1.2519888877868652,1.55774614671676,-0.3324775742123977,-0.8813736926956026
1687003323.410399,0.9577520489692688,0.2875712811946869,0.0037237657234072685,-0.015766024589538574,0.6196095943450928,-0.1934669017791748,-0.016150634735822678,0.30156171321868896,0.34016236662864685,1.574684333973794,-0.2916900276761117,-0.8761385626142623
1687003323.415145,0.9579913020133972,0.28636911511421204,0.015662498772144318,-0.05480837821960449,0.41974663734436035,-0.1646798849105835,0.9579815864562988,0.3985183835029602,-0.2042953222990036,1.5871441820956065,-0.2904350806371586,-0.899041274635407
1687003323.4679918,0.9531785845756531,0.3018918037414551,0.017652975395321846,0.0372844934463501,0.053271740674972534,-0.08784341812133789,0.4239713251590729,0.14642086625099182,-0.41659829020500183,1.5893143228954663,-0.306676434523654,-0.9423101360210971
1687003323.479591,0.9459994435310364,0.3237111270427704,0.017198001965880394,-0.02281242609024048,-0.009242743253707886,-0.04539632797241211,0.11876370757818222,-0.027679692953824997,-0.4113433361053467,1.5889740406710593,-0.3296491793389669,-0.9484674310992552
1687003323.482342,0.9401704668998718,0.34038734436035156,0.014682887122035027,0.021957039833068848,-0.11327555775642395,0.018611669540405273,-0.12403828650712967,-0.09088210016489029,-0.3432266116142273,1.586412317788605,-0.3473288197594564,-0.9497351506363865
1687003323.524502,0.9347907304763794,0.3549479842185974,0.013351879082620144,-0.013541340827941895,-0.12992659211158752,0.0411372184753418,-0.11302052438259125,-0.011562773957848549,-0.24225549399852753,1.5850786372363495,-0.3628584351979211,-0.9427633568676337
1687003323.649333,0.9321364760398865,0.36174559593200684,0.016168074682354927,0.0288618803024292,-0.08806395530700684,0.03006589226424694,-0.23167307674884796,-0.05596472695469856,-0.10048158466815948,1.5881397660440848,-0.37013960022829995,-0.9339430345290012
1687003323.6663132,0.9311655163764954,0.36416876316070557,0.017657745629549026,-0.015256762504577637,-0.035921692848205566,-0.03757047653198242,-0.1400681883096695,-0.021089568734169006,0.0011321250349283218,1.589757113085948,-0.37274013345845686,-0.9212416698956954
1687003323.767873,0.9316771626472473,0.36282429099082947,0.018331898376345634,0.019372522830963135,-0.029175609350204468,-0.02458810806274414,-0.16164052486419678,-0.07901132106781006,0.017506837844848633,1.5904700232676683,-0.3712969318491788,-0.9160824611649934
1687003323.785907,0.93251633644104,0.36075088381767273,0.016486110165715218,-0.003988683223724365,0.03303268551826477,-0.030875207856297493,-0.05067459121346474,-0.08110164105892181,0.05271515995264053,1.5884736506814987,-0.3690728711157315,-0.907651932321867
1687003323.856382,0.9335113167762756,0.35835233330726624,0.011823588982224464,-0.0006654858589172363,0.005249321460723877,-0.0008983630686998367,-0.029059775173664093,-0.09494621306657791,0.03435026854276657,1.583461365316838,-0.3665024312586115,-0.9088154677316801
1687003323.871347,0.9338530898094177,0.3575934171676636,0.006705731153488159,-0.005340754985809326,0.026348203420639038,-0.0010294923558831215,0.0175048615783453,-0.09496206045150757,0.027013255283236504,1.5779769162107502,-0.36568964766829937,-0.9086847436081986
1687003323.981766,0.9338405728340149,0.35768282413482666,0.0021454982925206423,0.006695806980133057,0.02828824520111084,-0.015481710433959961,0.015027123503386974,-0.09927864372730255,-0.020225094631314278,1.5730938223991555,-0.36578538499143437,-0.9095404312914872
1687003323.998626,0.9331110715866089,0.3595745861530304,-0.0031225038692355156,-0.010656297206878662,0.007170438766479492,-0.010412096977233887,0.009659456089138985,-0.10339894890785217,-0.029540034011006355,1.5674500026013836,-0.3678119429452298,-0.9094337769492951
1687003324.099756,0.9326779246330261,0.36060240864753723,-0.008812238462269306,0.004333674907684326,0.008736580610275269,0.01610589027404785,0.1174427717924118,-0.09270476549863815,-0.019322283565998077,1.561348288973249,-0.36891367172733985,-0.9137420746934604
1687003324.1142921,0.9320140480995178,0.36215534806251526,-0.01389863807708025,-0.0007245540618896484,0.004513382911682129,0.01759117841720581,-0.05310991778969765,-0.10591697692871094,-0.025845162570476532,1.5558849554378202,-0.37057916548570957,-0.9144758850556762
1687003324.116924,0.931523323059082,0.363310843706131,-0.016421929001808167,-0.002736032009124756,0.012284278869628906,0.014331398531794548,-0.049522172659635544,-0.06507913023233414,-0.036348938941955566,1.5531690410303758,-0.3718191308752983,-0.911475188828637
1687003324.2519798,0.9307442307472229,0.36521393060684204,-0.01827426813542843,0.004283785820007324,0.006307095289230347,0.009546160697937012,-0.006715988274663687,-0.06268148124217987,-0.03949785977602005,1.5511648097795956,-0.37386259124408444,-0.9095893583411201
1687003324.268938,0.9299542903900146,0.36712566018104553,-0.020095234736800194,-0.012702703475952148,-0.0064536333084106445,0.010024307295680046,0.012073677964508533,-0.02338707633316517,-0.03559606149792671,1.5491908476913474,-0.3759170223668235,-0.9096974642620803
1687003324.271728,0.929484486579895,0.3682374656200409,-0.02143523469567299,0.015034377574920654,-0.011517494916915894,0.0008205194026231766,0.03387871012091637,-0.03711061179637909,-0.01001506857573986,1.547738992011639,-0.3771125515654609,-0.9111760807183868
1687003324.3373299,0.9295201301574707,0.36804306507110596,-0.023157797753810883,-0.011353254318237305,-0.0030986368656158447,0.0036264676600694656,0.003962022252380848,-0.02702455408871174,0.010097922757267952,1.5458877664445136,-0.37690348608825996,-0.9115492456925338
1687003324.3507118,0.9298053979873657,0.36728447675704956,-0.02374504879117012,0.007297694683074951,0.0034430623054504395,-0.005078909918665886,-0.06124820560216904,-0.02669472247362137,0.0052403174340724945,1.54526422284646,-0.3760877494085181,-0.9101902184588802
1687003324.459289,0.9298737049102783,0.36705589294433594,-0.02458818070590496,-0.015002667903900146,0.008523941040039062,-0.00785207562148571,-0.0076600792817771435,-0.027383150532841682,0.003594750538468361,1.5443599910467898,-0.37584199943957625,-0.9086068508361124
1687003324.464655,0.929837703704834,0.367075115442276,-0.02564087137579918,0.00860816240310669,0.012197345495223999,-0.0035950522869825363,-0.011621730402112007,-0.045422203838825226,-0.009611865505576134,1.5432276716621924,-0.37586265929869855,-0.9081126335622218
1687003324.581132,0.9294084906578064,0.36810538172721863,-0.026428386569023132,-0.0035662055015563965,0.0048957765102386475,-0.004486028105020523,-0.04086883366107941,-0.005048681981861591,-0.021481573581695557,1.5423682809404526,-0.3769704842815613,-0.9065261528058799
1687003324.586543,0.9289001822471619,0.3693698048591614,-0.02664952538907528,-0.007818758487701416,0.0027310550212860107,-0.00276947021484375,-0.01345052383840084,-0.0172819122672081,-0.03341546654701233,1.5421148633726582,-0.3783307783604935,-0.9052606359604285
1687003324.668402,0.9282186031341553,0.37104642391204834,-0.027105577290058136,-0.0020102262496948242,-0.00367581844329834,-0.007684528827667236,-0.023430386558175087,-0.003446657909080386,-0.030607694759964943,1.5416029057499299,-0.38013563949793805,-0.9045299997084456
1687003324.685559,0.9277148246765137,0.3723047375679016,-0.027101293206214905,0.0034832358360290527,-0.007406026124954224,0.0006882548332214355,-0.05071233958005905,-0.03651672601699829,-0.019980616867542267,1.5415916759077766,-0.381491042585364,-0.9025642336703644
1687003324.6886048,0.9275325536727905,0.37267574667930603,-0.028208818286657333,-0.007641434669494629,-0.006205439567565918,-0.0011339150369167328,-0.02126477099955082,-0.015225686132907867,-0.0024921707808971405,1.5403929470276891,-0.38189083057348083,-0.9010511960558545
1687003324.812911,0.9275484681129456,0.3726348280906677,-0.028236253187060356,0.0013913512229919434,0.006652921438217163,0.00539373978972435,-0.02414504624903202,-0.011039063334465027,0.009137321263551712,1.5403639154367035,-0.3818467365345274,-0.8994288859119987
1687003324.946532,0.9276425242424011,0.37241464853286743,-0.02804495207965374,0.0007936358451843262,0.009543389081954956,0.00338667631149292,-0.06691767275333405,-0.015918506309390068,-0.008036073297262192,1.5405730331257101,-0.38160945723112893,-0.8968038427852184
1687003324.9509459,0.9274200797080994,0.37303978204727173,-0.027074363082647324,0.0006498098373413086,0.011969983577728271,-0.002253051847219467,-0.0832231417298317,-0.0014066764852032065,-0.00022688601166009903,1.5416114111564017,-0.382283137408044,-0.8931217727142691
1687003324.954406,0.9272249937057495,0.37356504797935486,-0.02651194855570793,0.016637802124023438,0.02583378553390503,-0.05828118324279785,-0.10258425772190094,-0.06107360124588013,-0.006236042827367783,1.5422113270664364,-0.38284933585157016,-0.8885224455117859
1687003325.031406,0.9268684387207031,0.37431126832962036,-0.028392842039465904,0.036205291748046875,0.13800263404846191,-0.19896316528320312,-0.14289399981498718,-0.19241377711296082,-0.009976452216506004,1.540172814668784,-0.3836539342705358,-0.8796052222837413
1687003325.035468,0.926352858543396,0.3732650578022003,-0.05043436214327812,0.028908371925354004,0.44262242317199707,-0.43774014711380005,0.2729652523994446,-0.6958481669425964,0.00996316783130169,1.5164060174179261,-0.38252597556234635,-0.884197394412743
1687003325.0388808,0.9189282059669495,0.3827002942562103,-0.09545274078845978,0.2482316493988037,0.8447319269180298,-0.5413271188735962,-0.4448167085647583,-1.4424872398376465,-0.5047542452812195,1.4672935299056014,-0.3927173235510851,-0.8842045685454006
1687003325.116143,0.8836379647254944,0.4408990442752838,-0.15745414793491364,0.20739585161209106,1.080509066581726,-0.29544204473495483,-1.2349047660827637,-1.8317561149597168,-2.094404697418213,1.394458572257001,-0.4566000957553322,-0.8490010523660724
1687003325.129487,0.7938858866691589,0.574175238609314,-0.2001691311597824,0.5577985048294067,1.0765204429626465,-0.12821528315544128,-0.23432031273841858,-1.2651374340057373,-3.6464905738830566,1.3238060570171561,-0.6115964153033433,-0.8313501821150505
1687003325.174401,0.6499212980270386,0.7160630822181702,-0.25466811656951904,1.0547447204589844,0.7050489783287048,0.03420913219451904,0.5638006329536438,-1.3123915195465088,-4.329745292663574,1.1973402266524769,-0.7981458725280814,-0.9303293636432513
1687003325.2704701,0.45194530487060547,0.8346505761146545,-0.31480756402015686,1.2316635847091675,0.4532674551010132,0.07260477542877197,0.5623306632041931,-1.4672317504882812,-4.770122051239014,0.962382020734669,-0.9874980321791572,-1.1418726323722037
1687003325.288527,0.21504344046115875,0.9016525149345398,-0.37520501017570496,1.3979783058166504,0.31834858655929565,0.18326470255851746,1.0923229455947876,-1.4471579790115356,-4.973883628845215,0.5204321875154628,-1.1235756089380031,-1.5643744891257136
1687003325.356642,-0.05004198104143143,0.9003804922103882,-0.4322161376476288,1.426811933517456,-0.015279233455657959,0.2746691107749939,1.1605515480041504,-1.558793306350708,-5.307770729064941,-0.11526676663709358,-1.1206431811561728,-2.180500637800967
1687003325.451891,-0.3188423812389374,0.8232337832450867,-0.46970799565315247,1.3900856971740723,-0.27429890632629395,0.4550290107727051,0.9809865355491638,-1.5920073986053467,-5.545569896697998,-0.5963623340231606,-0.9670839913263451,-2.6455780035903795
1687003325.469469,-0.5642126202583313,0.6871065497398376,-0.4577648639678955,1.192142367362976,-0.4019198417663574,0.3573925495147705,0.44538381695747375,-1.4341715574264526,-5.318882942199707,-0.8891825658985907,-0.7574990944453142,-2.926596935602319
1687003325.537033,-0.7494025230407715,0.5026996731758118,-0.43091633915901184,1.0163702964782715,-0.5409382581710815,0.28069353103637695,1.0646238327026367,-1.526421308517456,-4.885633945465088,-1.0489521288903982,-0.5267188886198347,-3.0690572610985045
1687003325.551955,-0.8736318945884705,0.29610756039619446,-0.38611873984336853,0.7634940147399902,-0.5903123021125793,0.31350213289260864,0.853671669960022,-1.742369532585144,-4.089372158050537,-1.1546405251026135,-0.3006148609486209,-3.1284569841143584
1687003325.661718,-0.9406847953796387,0.13371823728084564,-0.3118196725845337,0.44625431299209595,-0.6490075588226318,0.2483583688735962,-0.5537973046302795,-1.3910328149795532,-2.8712258338928223,-1.250713278481583,-0.1341199763320786,3.0972038732057525
1687003325.667636,-0.9687952995300293,0.015776067972183228,-0.24735945463180542,0.42987024784088135,-0.4583267569541931,0.13607704639434814,-1.5161447525024414,-1.3183231353759766,-2.662912607192993,-1.3208104822196733,-0.015776721521089675,3.0055375836475577
1687003325.749409,-0.9779308438301086,-0.08792474865913391,-0.1895267367362976,0.1174878478050232,-0.23447822034358978,0.10374176502227783,-0.3709913492202759,-0.8242151737213135,-2.0309512615203857,-1.3793656771005551,0.08803843556880493,2.9333579354656925
1687003325.768108,-0.9685702919960022,-0.17906339466571808,-0.17264863848686218,0.15666556358337402,-0.21966402232646942,-0.0009811371564865112,0.24780058860778809,-0.26285508275032043,-1.7868283987045288,-1.3943980030672352,0.18003437378253376,2.9142618793201103
1687003325.870934,-0.9530689716339111,-0.2546265125274658,-0.16378267109394073,0.08841454982757568,-0.09066462516784668,0.05358368158340454,0.5164703130722046,0.07049800455570221,-1.3703733682632446,-1.4006109566868583,0.25746146241651285,2.9185831964869386
1687003325.88977,-0.9352279305458069,-0.31599360704421997,-0.15967708826065063,0.04028475284576416,-0.15452641248703003,0.01838064193725586,0.18713824450969696,0.06594134122133255,-1.0426205396652222,-1.4016909223340084,0.32150373245033986,2.9271825843486545
1687003325.956503,-0.9194589257240295,-0.36174046993255615,-0.15407370030879974,0.017359554767608643,-0.20256000757217407,-0.00458720326423645,-0.06737254559993744,-0.274959921836853,-0.8132830262184143,-1.4047688916174057,0.3701341268131729,2.92093387248387
1687003325.97245,-0.9100703597068787,-0.3868092894554138,-0.14883022010326385,0.05730253458023071,-0.1763468086719513,0.019298315048217773,-0.24957850575447083,-0.13580723106861115,-0.4196321666240692,-1.4086942302326528,0.39716904335272085,2.9100173723023373
1687003326.0455608,-0.9040706157684326,-0.39909639954566956,-0.15289926528930664,0.04260528087615967,-0.14645108580589294,0.043432652950286865,-0.11270859837532043,0.08581104874610901,-0.19380566477775574,-1.403258517905507,0.4105311437253828,2.8939895395048842
1687003326.049046,-0.9018523693084717,-0.40371283888816833,-0.1538773626089096,0.033001720905303955,-0.08256950974464417,0.014289915561676025,-0.015796968713402748,0.06346925348043442,-0.024497337639331818,-1.401800066801007,0.41557148585489045,2.8941565802246356
1687003326.1391768,-0.9010069370269775,-0.40393853187561035,-0.15817727148532867,8.231401443481445e-05,-0.07907843589782715,0.02910315990447998,-0.16747038066387177,-0.002377398544922471,0.00653434731066227,-1.3970111262475395,0.4158181791505913,2.8848984295938562
1687003326.1563292,-0.9017851948738098,-0.40046778321266174,-0.16250835359096527,0.021643102169036865,-0.026015400886535645,-0.01803368330001831,-0.04463494196534157,0.07504774630069733,0.07769960910081863,-1.392502520462083,0.41202728010114315,2.882689207215976
1687003326.229352,-0.9035066962242126,-0.39481934905052185,-0.16671352088451385,0.001300215721130371,-0.06700319051742554,0.00886128842830658,0.028399454429745674,0.13365167379379272,0.22271963953971863,-1.388330354154059,0.4058712338527723,2.8814136177610377
1687003326.2332392,-0.9092000126838684,-0.37966078519821167,-0.170918270945549,0.057027220726013184,-0.23595505952835083,0.03496241569519043,-0.012340118177235126,0.10518940538167953,0.5114006996154785,-1.3849774351320747,0.389429596242474,2.8864904550205956
1687003326.318744,-0.9209816455841064,-0.34418025612831116,-0.18257176876068115,0.10816138982772827,-0.34551697969436646,0.08070404827594757,-0.3064131736755371,0.21097148954868317,0.9816393256187439,-1.3750974446125745,0.3513655680660824,2.883375266149228
1687003326.335864,-0.9389008283615112,-0.27983635663986206,-0.200391948223114,0.17414551973342896,-0.2734321057796478,0.07209596037864685,-0.41408923268318176,0.28570792078971863,1.585856318473816,-1.3605188926098217,0.2836236547813955,2.8791930060488
1687003326.376546,-0.9562169313430786,-0.1915358453989029,-0.22127605974674225,0.1818487048149109,-0.2548142671585083,0.061821699142456055,-0.55061936378479,0.34418588876724243,1.9353114366531372,-1.3433912689524963,0.19272672644409405,2.871495988954142
1687003326.467592,-0.9663645029067993,-0.0904327929019928,-0.24075207114219666,0.2197825312614441,-0.1975310891866684,0.04049569368362427,-0.36827734112739563,0.3233417272567749,2.0797698497772217,-1.3266350041481505,0.0905565132808323,2.8733838419599094
1687003326.484658,-0.9656671285629272,0.02280970849096775,-0.2587791979312897,0.23854011297225952,-0.24252104759216309,0.07230150699615479,-0.33145871758461,0.437548965215683,2.431246042251587,-1.308968474320691,-0.022811686825593112,2.885296419441853
1687003326.526167,-0.9480606913566589,0.15388117730617523,-0.2783905863761902,0.292833149433136,-0.2581445574760437,0.08509227633476257,-0.6575032472610474,0.45390745997428894,2.8112120628356934,-1.2851825568784425,-0.15449503664985229,2.899483998068327
1687003326.618916,-0.908409595489502,0.3022588789463043,-0.2888451814651489,0.35898643732070923,-0.1613287627696991,0.008342862129211426,-0.8376966714859009,0.40328434109687805,2.994331121444702,-1.2629377121602443,-0.3070614929978155,2.90465942961097
1687003326.63608,-0.8506413102149963,0.44510018825531006,-0.2798125445842743,0.3949986696243286,-0.12469622492790222,0.015865981578826904,-1.116506576538086,0.05956386774778366,2.86285662651062,-1.2530022162766306,-0.46128615479433094,2.9004494159647707
1687003326.704033,-0.7784686088562012,0.5681657195091248,-0.2667849063873291,0.35599857568740845,-0.01569080352783203,0.059845149517059326,-0.3616810142993927,0.10548728704452515,2.7150354385375977,-1.2406353169633906,-0.6042751195290682,2.9174734209431628
1687003326.720628,-0.6890771985054016,0.6805879473686218,-0.24894315004348755,0.3976648449897766,-0.1218721866607666,0.09356287121772766,-1.268763780593872,0.22230909764766693,2.868119239807129,-1.2241166092190374,-0.7485648163148445,2.927503034794284
1687003326.767313,-0.5772280097007751,0.788488507270813,-0.21235232055187225,0.3935580253601074,0.0009400844573974609,0.027858257293701172,-0.7263634204864502,0.01527310162782669,3.1510958671569824,-1.218279859765498,-0.9083476147102495,2.929452091947012
1687003326.896503,-0.4466918706893921,0.8747093677520752,-0.18801555037498474,0.441641241312027,-0.0009606480598449707,0.031521379947662354,-0.49902933835983276,0.1945006400346756,3.052726984024048,-1.1723979405440315,-1.0648357859919684,2.9742311216795057
1687003326.9018312,-0.3026385009288788,0.9365739226341248,-0.17674620449543,0.417079359292984,-0.013310372829437256,0.038059040904045105,-0.43770620226860046,0.008485767990350723,3.2538022994995117,-1.0422114974858863,-1.2127233868461442,3.1131417099977434
1687003326.980577,-0.1427827626466751,0.9793317914009094,-0.1432557851076126,0.43004468083381653,0.0810166597366333,0.050543367862701416,-0.6876711249351501,0.12997998297214508,3.2804832458496094,-0.7837444369542604,-1.3671307776153518,-2.9066780210360186
1687003326.9867601,0.023498699069023132,0.9913221001625061,-0.1293371170759201,0.3476255238056183,0.21990513801574707,0.06061144173145294,-0.016501374542713165,0.20557498931884766,3.284341812133789,0.17972521780165937,-1.4389593618572782,-1.935669612495125
1687003327.071918,0.1814710795879364,0.9746861457824707,-0.13059456646442413,0.37787026166915894,0.19244325160980225,0.03858400881290436,0.13808980584144592,0.22051027417182922,3.1814723014831543,0.9470077698463675,-1.3453128189077168,-1.1713979389529285
1687003327.089653,0.3327797055244446,0.9327065944671631,-0.13898085057735443,0.23051363229751587,0.2557545304298401,0.11003489792346954,0.29372158646583557,0.4219413995742798,3.0196585655212402,1.1751793775829231,-1.20184655112513,-0.9481226288575166
1687003327.191162,0.46982842683792114,0.8717659711837769,-0.13887180387973785,0.30998721718788147,0.23406904935836792,0.051225289702415466,0.3385157585144043,0.5250207781791687,2.974468231201172,1.283399652541246,-1.0587954682902974,-0.8612235400955827
1687003327.20782,0.5925780534744263,0.7946391701698303,-0.1319078505039215,0.20438838005065918,0.2351764440536499,0.09112101793289185,-0.24086463451385498,0.6651208996772766,2.6059231758117676,1.3517674500920482,-0.9184129718673791,-0.8129167756321004
1687003327.308123,0.6887552738189697,0.7180331349372864,-0.10022278875112534,0.16918528079986572,0.4693905711174011,-0.06977546215057373,-0.18162354826927185,0.21161092817783356,2.24688458442688,1.4262975911513638,-0.8009722325785715,-0.7399842137751078
1687003327.327715,0.7565879225730896,0.645108699798584,-0.10681468993425369,0.06546396017074585,0.3511528968811035,-0.10014033317565918,0.8174411058425903,0.5071303248405457,1.7118560075759888,1.4305437733418283,-0.7011655267439628,-0.7615919585852665
1687003327.435341,0.8038145899772644,0.5844509601593018,-0.1109004020690918,0.11108696460723877,0.37641018629074097,-0.09071402251720428,0.6437783241271973,0.35888826847076416,1.2091572284698486,1.4336942286741032,-0.624203228300429,-0.7930525701531927
1687003327.451468,0.8344172835350037,0.5404052138328552,-0.10821284353733063,0.04769331216812134,0.25090038776397705,-0.08137764036655426,0.4497748613357544,0.4324435591697693,0.8622721433639526,1.4418294025193177,-0.5709186245296414,-0.8155405192378665
1687003327.454792,0.8568708300590515,0.5048877596855164,-0.1042151153087616,0.040071308612823486,0.19979369640350342,-0.013063982129096985,0.576579213142395,0.42219746112823486,0.6993809938430786,1.449767843961349,-0.5292519412694248,-0.8414122541314979
1687003327.516395,0.8759676814079285,0.4725298285484314,-0.09693212062120438,0.030465245246887207,0.11188173294067383,0.0332724004983902,0.4111548066139221,0.4792575538158417,0.6608988642692566,1.4605875111229185,-0.49215910522732326,-0.865955361233754
1687003327.5199661,0.8923426866531372,0.4433235228061676,-0.0847865641117096,-0.005639195442199707,0.14420095086097717,0.01892959326505661,0.3437919020652771,0.4544438123703003,0.5825456976890564,1.4760650234204211,-0.45930307608765314,-0.8829326594294383
1687003327.57554,0.905129611492157,0.41941121220588684,-0.06953024119138718,0.012198150157928467,0.19843241572380066,-0.04555165767669678,0.28091657161712646,0.47046416997909546,0.45235973596572876,1.4941289030726534,-0.43279664774440313,-0.8957472948814534
1687003327.670978,0.9135757088661194,0.40261411666870117,-0.0572814904153347,0.0029585957527160645,0.19859743118286133,-0.12045300006866455,0.49134525656700134,0.36693206429481506,0.22021733224391937,1.5081779802883764,-0.41437085556746167,-0.9161780341298162
1687003327.689693,0.9163768291473389,0.39673981070518494,-0.0533943697810173,-0.010905146598815918,0.16450896859169006,-0.14921188354492188,0.30920982360839844,0.21225008368492126,-0.030516348779201508,1.5125953037666668,-0.4079624422340524,-0.9421308875124227
1687003327.725419,0.9144548773765564,0.40135934948921204,-0.051795605570077896,-0.014674663543701172,0.11885854601860046,-0.12628978490829468,0.08881805092096329,0.012568661011755466,-0.14938227832317352,1.5142158171051043,-0.41300049737596445,-0.9508789136176542
1687003327.851834,0.9110007286071777,0.40886521339416504,-0.0539153590798378,-0.003621697425842285,0.04520583152770996,-0.03386855125427246,-0.11128873378038406,-0.07958856225013733,-0.21634933352470398,1.5116827180923604,-0.4212102515950604,-0.952125124602802
1687003327.870338,0.9048424959182739,0.4220961630344391,-0.05562947317957878,-0.006969749927520752,0.021446317434310913,0.012996315956115723,0.06798994541168213,-0.051586225628852844,-0.3097709119319916,1.5093938804566982,-0.43575631967224177,-0.9485394729924932
1687003327.93666,0.8989288210868835,0.4338802099227905,-0.06062119081616402,0.009167373180389404,-0.06692159175872803,0.06782329082489014,0.15971246361732483,0.037564560770988464,-0.2406109869480133,1.5034611353246483,-0.4487950233733181,-0.9610033386794078
1687003327.952544,0.894250750541687,0.44367071986198425,-0.05892054736614227,0.012594223022460938,-0.06679388880729675,0.03578817844390869,-0.052612241357564926,0.014552049338817596,-0.18008187413215637,1.505003252102334,-0.45969047336417507,-0.9609164327177626
1687003328.025374,0.8918574452400208,0.4487563967704773,-0.056635577231645584,-0.0062833428382873535,-0.10398411750793457,0.03165686875581741,-0.0767984688282013,0.05460452660918236,-0.07090744376182556,1.507378532682783,-0.46537326788249817,-0.9604253757100585
1687003328.0410109,0.8912019729614258,0.450694739818573,-0.05131373181939125,-0.00011932849884033203,-0.071117103099823,0.004499673843383789,-0.08909148722887039,0.07890107482671738,-0.025304540991783142,1.5132817149824467,-0.4675434567096783,-0.9542292683526353
1687003328.112545,0.8921807408332825,0.4491884708404541,-0.04736023396253586,-0.0009150505065917969,-0.06314113736152649,-0.004794415086507797,0.04173603281378746,0.08134771883487701,0.07983706146478653,1.5177624265672616,-0.46585681359228087,-0.9544624509301117
1687003328.115999,0.8947021961212158,0.44454291462898254,-0.043467532843351364,0.01820051670074463,-0.048302680253982544,-0.007985174655914307,-0.09119285643100739,0.06479297578334808,0.107962965965271,1.5222512560721246,-0.46066391226538483,-0.9528704859619845
1687003328.178992,0.8981119394302368,0.4380028545856476,-0.039344970136880875,-0.015559077262878418,-0.013900160789489746,-0.013893000781536102,-0.04698997363448143,0.04536735266447067,0.16871953010559082,1.527015783786633,-0.45337589168048525,-0.9486558407637613
1687003328.3342872,0.9023575186729431,0.42934608459472656,-0.037585027515888214,0.006364285945892334,0.014333724975585938,-0.014249145984649658,-0.0620751827955246,0.011845879256725311,0.18668973445892334,1.5291683524693713,-0.4437686091381897,-0.9461511098382991
1687003328.353234,0.9059227108955383,0.42192259430885315,-0.0358496829867363,-0.01381772756576538,0.03950318694114685,0.0006933212280273438,-0.11009537428617477,0.0001475444296374917,0.14820413291454315,1.531244402876252,-0.43556486973128844,-0.9405777771653797
1687003328.399029,0.9084519743919373,0.41658514738082886,-0.03422883525490761,0.0019788146018981934,0.040674954652786255,0.011905137449502945,-0.13743151724338531,0.003932429011911154,0.09245777875185013,1.5331359399491944,-0.42968576344514486,-0.9350569391370573
1687003328.402611,0.9091402888298035,0.41537347435951233,-0.03047986514866352,-0.008825957775115967,0.08174270391464233,-0.029975537210702896,0.006414660252630711,0.03484120965003967,0.026586351916193962,1.5372828489027464,-0.42835332192549747,-0.9274038170866216
1687003328.406207,0.9091513752937317,0.41536274552345276,-0.03028787486255169,-0.00744861364364624,0.03931865096092224,-0.005692422389984131,0.04081438109278679,0.036267466843128204,-0.035306043922901154,1.5374941957460337,-0.42834154530658153,-0.9328808014386181
1687003328.4468641,0.9075555205345154,0.4189748167991638,-0.028334908187389374,-0.004738867282867432,0.04440408945083618,-0.017914533615112305,0.0005788092967122793,0.052464812994003296,-0.07732060551643372,1.5395853356643439,-0.4323159781164886,-0.9315356039137336
1687003328.507102,0.9052820801734924,0.42400988936424255,-0.026073379442095757,-0.007104098796844482,0.012238889932632446,0.0014761686325073242,-0.03446226567029953,0.05270982161164284,-0.12432246655225754,1.5420028984259475,-0.4378683626606923,-0.9323345598949698
1687003328.632887,0.9023940563201904,0.4302437901496887,-0.023981431499123573,-0.0022171735763549805,-0.012046128511428833,-0.014837026596069336,-0.014623845927417278,0.06128919497132301,-0.13337242603302002,1.5442272386551084,-0.4447628195675413,-0.9316311305612811
1687003328.639279,0.8998830318450928,0.4356193542480469,-0.021117249503731728,-0.000270843505859375,-0.015865355730056763,-0.009949682280421257,-0.036878552287817,0.03918921947479248,-0.10435169190168381,1.5473339733251168,-0.45072622026953874,-0.9305713410967796
1687003328.722413,0.8980564475059509,0.4394526183605194,-0.01938740164041519,0.0050653815269470215,-0.02911323308944702,-0.013266503810882568,-0.024603309109807014,0.023666052147746086,-0.07243823260068893,1.5492115025248188,-0.4549891963241878,-0.92893200428714
1687003328.739681,0.8969735503196716,0.4417513310909271,-0.017146321013569832,-0.006501317024230957,-0.03234279155731201,-0.0028427820652723312,-0.09661778062582016,0.034640807658433914,-0.0577722042798996,1.5516829052858874,-0.4575498647151539,-0.9264743410634941
1687003328.774508,0.8961360454559326,0.44354549050331116,-0.014397729188203812,0.0034762024879455566,-0.021456897258758545,-0.01183223631232977,-0.04812987521290779,0.023563388735055923,-0.02637060545384884,1.554731254437972,-0.45955073144486425,-0.9223399781140219
1687003328.869365,0.8960412740707397,0.443789541721344,-0.012672949582338333,-0.00039631128311157227,-0.018344014883041382,-0.006476937793195248,-0.08941459655761719,0.008881914429366589,-0.008831559680402279,1.556654004700976,-0.4598230630750778,-0.9195008003836683
1687003328.885257,0.8961655497550964,0.4435863792896271,-0.010885373689234257,-0.00019997358322143555,0.0046100914478302,-0.008920610882341862,-0.055605698376894,0.00578745361417532,0.0004008207470178604,1.5586503132642682,-0.4595963611330777,-0.9155138363459787
1687003328.926931,0.896069347858429,0.4437841475009918,-0.010735866613686085,-0.0007599592208862305,0.01892337203025818,-0.016196012496948242,-0.0075773210264742374,-0.028984108939766884,-0.002903096377849579,1.5588158331108348,-0.4598170269577801,-0.9131772082520161
1687003329.049436,0.8961064219474792,0.44372180104255676,-0.010213417001068592,0.018474876880645752,0.0349617600440979,-0.08098846673965454,-0.1569952368736267,-0.05340969190001488,0.026135480031371117,1.55939927169009,-0.459747445159931,-0.9092296240309955
1687003329.056079,0.89765864610672,0.4403059780597687,-0.018426358699798584,0.0063329339027404785,0.14860698580741882,-0.1730715036392212,0.10596941411495209,-0.3155648708343506,0.09535875916481018,1.5502720758110318,-0.4559394370860405,-0.9095203672281436
1687003329.143001,0.8982237577438354,0.43800270557403564,-0.0367056280374527,0.02954089641571045,0.2296455204486847,-0.29201453924179077,-0.04096164554357529,-0.572076678276062,0.06549620628356934,1.529954370196625,-0.45337571821685374,-0.9051721317440348
1687003329.160266,0.8986684679985046,0.43145737051963806,-0.07898997515439987,0.1332985758781433,0.535476803779602,-0.4064379930496216,0.015051359310746193,-1.1946860551834106,0.044592782855033875,1.483124961148684,-0.4461076296295147,-0.9152389336208085
1687003329.225175,0.8800801038742065,0.45620980858802795,-0.13164927065372467,0.1557779312133789,0.8843358755111694,-0.3268011212348938,-1.30830979347229,-1.8464634418487549,-1.1077066659927368,1.4223094982685656,-0.4737312854454643,-0.8731439724819466
1687003329.229049,0.8180364966392517,0.5459961295127869,-0.18084321916103363,0.31775128841400146,1.1264433860778809,-0.20936982333660126,-0.32592442631721497,-1.5275094509124756,-2.709556818008423,1.3532257718437068,-0.5775776339467937,-0.8422560984391783
1687003329.3814049,0.7018158435821533,0.6718424558639526,-0.23681627213954926,0.7015653848648071,0.8011341691017151,-0.03611770272254944,0.3335218131542206,-1.2524535655975342,-3.9358723163604736,1.2453600472118933,-0.736693465519065,-0.9049857972655234
1687003329.387363,0.5298013687133789,0.7944460511207581,-0.29692742228507996,1.029692530632019,0.5256832838058472,-0.11551767587661743,0.9327366352081299,-1.3335283994674683,-4.350491523742676,1.0599651509138204,-0.9180949718309416,-1.0706969422716464
1687003329.469816,0.3222818970680237,0.868415892124176,-0.3768131136894226,1.1317890882492065,0.2938612699508667,0.020291447639465332,1.0913580656051636,-1.8273265361785889,-4.333827018737793,0.7075532090816554,-1.0519984792909158,-1.396566419236961
1687003329.4862351,0.08753211796283722,0.8978150486946106,-0.43158578872680664,1.1803969144821167,0.05633223056793213,0.20657968521118164,0.5980345010757446,-1.9421170949935913,-4.443623065948486,0.20010091619672052,-1.1147825110534813,-1.8579870746366194
1687003329.489781,-0.15037579834461212,0.8762370347976685,-0.4578161835670471,1.1034244298934937,-0.11106985807418823,0.3026648163795471,0.6297739744186401,-1.732466220855713,-4.4127726554870605,-0.31736110078064844,-1.0679969008833339,-2.336273945374165
1687003329.525116,-0.38134482502937317,0.8106991648674011,-0.4442328214645386,0.9912080764770508,-0.2715147137641907,0.35493841767311096,-0.14777657389640808,-1.608658790588379,-4.692235946655273,-0.7093704438106235,-0.9453453352489989,-2.6967434591918975
1687003329.6205158,-0.5850664973258972,0.6985154151916504,-0.4120354950428009,0.8498218059539795,-0.26409780979156494,0.2621178925037384,0.3190443217754364,-1.306152582168579,-4.446927547454834,-0.9572209303015714,-0.7733207448559917,-2.929176237608988
1687003329.6352038,-0.7443983554840088,0.5504054427146912,-0.37805378437042236,0.7507919073104858,-0.333837628364563,0.22300925850868225,0.07674002647399902,-1.353672981262207,-4.0887603759765625,-1.1008766294121648,-0.582849813621677,-3.0512725492304162
1687003329.7398028,-0.8592832088470459,0.3970147669315338,-0.3225083649158478,0.5367735028266907,-0.3202173411846161,0.1695084571838379,-0.07558280229568481,-1.1263575553894043,-3.54072642326355,-1.2117429168319969,-0.4082619904016807,3.1388130431180588
1687003329.758397,-0.9288792610168457,0.2507084906101227,-0.2726326882839203,0.4504857659339905,-0.35408684611320496,0.1232948899269104,-0.27605557441711426,-1.0432511568069458,-3.056368827819824,-1.2853068805108259,-0.25341204963485114,3.0748437340607144
1687003329.825635,-0.9661509990692139,0.12153168767690659,-0.22755715250968933,0.3160198926925659,-0.29307103157043457,0.12184423208236694,-0.15416382253170013,-0.7388723492622375,-2.4828948974609375,-1.339482550213944,-0.12183286214648914,3.026466263129365
1687003329.840167,-0.9812822341918945,0.006275869905948639,-0.19247278571128845,0.28946399688720703,-0.25093531608581543,0.017362862825393677,0.04165933281183243,-0.7725543975830078,-2.257946729660034,-1.3771110305013299,-0.006275911326352213,3.0026992431212136
1687003329.950413,-0.9827152490615845,-0.0969783365726471,-0.15768837928771973,0.1847875714302063,-0.0737370029091835,0.045429423451423645,-0.05284906178712845,-0.5515636801719666,-1.9748433828353882,-1.411690700222338,0.09713099092799016,2.981399024156382
1687003329.955872,-0.972115695476532,-0.19408570230007172,-0.13161198794841766,0.17142605781555176,-0.18335571885108948,-0.04699218273162842,-0.1242653876543045,-0.5673640966415405,-1.963536024093628,-1.4362273788547004,0.19532533755245443,2.9613189203146977
1687003330.071579,-0.9522146582603455,-0.284877210855484,-0.11014677584171295,0.13879913091659546,-0.04211866855621338,0.019936785101890564,0.5963991284370422,-0.24863430857658386,-1.7791635990142822,-1.4556338431064364,0.28887833254689504,2.959351813047146
1687003330.0907269,-0.9262526035308838,-0.3669295012950897,-0.08613131195306778,0.10137790441513062,-0.2138504981994629,0.03135222941637039,0.4164315462112427,-0.3005529046058655,-1.5010735988616943,-1.4780739561276697,0.3757061373791689,2.9801504722902923
1687003330.1981292,-0.9009199142456055,-0.4286009967327118,-0.06815079599618912,0.07209300994873047,-0.3266327977180481,0.07027172297239304,0.05166935548186302,-0.336860716342926,-1.048579454421997,-1.495294334459785,0.44294378201684415,2.9860457589853797
1687003330.202318,-0.8848131895065308,-0.46186789870262146,-0.0615086555480957,0.12985432147979736,-0.30006441473960876,0.056717343628406525,-0.42708173394203186,-0.23259088397026062,-0.5663955211639404,-1.501392000674741,0.4801000209316241,2.9733078761331653
1687003330.20628,-0.8781800866127014,-0.47343167662620544,-0.06827773153781891,0.06522250175476074,-0.25406157970428467,0.11394722014665604,-0.38604992628097534,0.06065203621983528,-0.010842778719961643,-1.4932033023129798,0.4931826579415292,2.944337452965587
1687003330.279222,-0.88089519739151,-0.46722808480262756,-0.0756419450044632,0.07805395126342773,-0.2361716330051422,0.06766151636838913,-0.10846099257469177,0.0866190493106842,0.2768673002719879,-1.485137050006595,0.4861530102572905,2.9348088911866226
1687003330.283259,-0.889735758304596,-0.44860339164733887,-0.08441032469272614,0.0573078989982605,-0.10637402534484863,0.05135977268218994,-0.13031575083732605,0.18176035583019257,0.48538827896118164,-1.476208199466497,0.465202051065782,2.9315972462497064
1687003330.372854,-0.9015167951583862,-0.4218706786632538,-0.0963989794254303,-0.003329455852508545,-0.04875621199607849,0.041558846831321716,-0.1337297409772873,0.23712094128131866,0.6764929890632629,-1.4642713301534185,0.435507595135638,2.9237071487693576
1687003330.391045,-0.9149112105369568,-0.38785043358802795,-0.11184508353471756,0.04357349872589111,-0.22613269090652466,0.022962577641010284,-0.27036920189857483,0.24180437624454498,0.832426130771637,-1.449152963807772,0.3982983200606565,2.9185693959518133
1687003330.427933,-0.9361639618873596,-0.32710736989974976,-0.12883228063583374,0.12454909086227417,-0.36584001779556274,0.059816718101501465,-0.33053866028785706,0.2952830493450165,1.7037272453308105,-1.4340381227591161,0.3332409200059682,2.911014377193964
1687003330.520688,-0.9623091816902161,-0.2255033403635025,-0.15201717615127563,0.21275174617767334,-0.5176149606704712,0.08873891830444336,-1.0531330108642578,0.3258337676525116,2.5279886722564697,-1.4141198046323935,0.22745965225316842,2.8924969343633666
1687003330.537179,-0.981417179107666,-0.08071092516183853,-0.1740858256816864,0.30583441257476807,-0.43267107009887695,0.07134836912155151,-0.7375527024269104,0.3377254605293274,3.1512515544891357,-1.3952403023983286,0.08079880979922247,2.8719962145842337
1687003330.609452,-0.9762266278266907,0.09396810829639435,-0.19532383978366852,0.4325103163719177,-0.31317591667175293,0.03519810736179352,-0.018476907163858414,0.49590909481048584,3.711519241333008,-1.3733234368309581,-0.09410694912050424,2.8853721827191534
1687003330.613142,-0.9373016357421875,0.27532997727394104,-0.21367935836315155,0.47248852252960205,-0.3073735237121582,0.03451062738895416,-0.1934824138879776,0.2428041249513626,3.7878894805908203,-1.3466540513650664,-0.27893292748599574,2.922724074490507
1687003330.6639462,-0.8616282939910889,0.4514070153236389,-0.23200882971286774,0.5122326612472534,-0.24689355492591858,0.05142106115818024,-0.04486357420682907,0.5956829786300659,3.886779546737671,-1.3077669751599827,-0.4683415088773797,2.9650683727264844
1687003330.729677,-0.754044771194458,0.6068612933158875,-0.25126826763153076,0.5499432682991028,-0.212604820728302,0.048341572284698486,0.002371715847402811,0.5084831118583679,3.7718820571899414,-1.2491412751385014,-0.6521056275102409,3.028087846957705
1687003330.8206449,-0.6225533485412598,0.7333835363388062,-0.2730853259563446,0.6040445566177368,-0.04847770929336548,0.056380003690719604,0.04041144251823425,0.5770838260650635,3.5727946758270264,-1.1574179685023416,-0.8232858565430758,3.1225120053288
1687003330.837716,-0.48496687412261963,0.8272436261177063,-0.28368109464645386,0.5763059854507446,0.07650375366210938,0.05395999550819397,-0.13050004839897156,0.5069273114204407,3.186366319656372,-1.0415169290638093,-0.9741839015323662,-3.045606289975074
1687003330.969051,-0.34703052043914795,0.8945870995521545,-0.2815733551979065,0.5202025175094604,0.11205035448074341,0.0670042335987091,-0.4218304455280304,0.5194246768951416,2.9607555866241455,-0.8891552657740958,-1.1075063519461004,-2.8980250192951686
1687003331.059389,-0.19691140949726105,0.940647304058075,-0.2764205038547516,0.40067726373672485,0.19555246829986572,0.04987326264381409,-0.07288016378879547,0.6517012119293213,3.1973156929016113,-0.6189743842251615,-1.2245325075576994,-2.634765599929453
1687003331.065598,-0.04451772943139076,0.9628787636756897,-0.2662377953529358,0.4711534380912781,0.16743117570877075,0.032061100006103516,-0.44818851351737976,0.6225806474685669,2.937368154525757,-0.16567767252303672,-1.2974717042737345,-2.1995766053877723
1687003331.070672,0.10840384662151337,0.9588422775268555,-0.2624307870864868,0.27645325660705566,0.3736313581466675,0.08240756392478943,0.28292375802993774,0.9765376448631287,2.7459559440612793,0.39172768619753595,-1.2828963109871552,-1.6574767963347519
1687003331.179066,0.24433378875255585,0.9333141446113586,-0.2631074786186218,0.3119863271713257,0.2103777527809143,-0.009338229894638062,0.09363970905542374,0.7585467100143433,2.600238084793091,0.7484182846367967,-1.2035348320220267,-1.3282921757562296
1687003331.184706,0.36977097392082214,0.8918923139572144,-0.2603795826435089,0.21872994303703308,0.22721773386001587,0.022144079208374023,0.3184559941291809,1.0482004880905151,2.3182578086853027,0.9572809027080386,-1.1015123499413075,-1.149561259092395
1687003331.240758,0.4787585437297821,0.8417419195175171,-0.24952112138271332,0.20868030190467834,0.20246273279190063,0.008111774921417236,0.1180754154920578,0.858303964138031,2.1981353759765625,1.090345774253846,-1.000501655579056,-1.0512607189447953
1687003331.255281,0.5754470825195312,0.7846667766571045,-0.23056168854236603,0.15685266256332397,0.19059866666793823,0.021409451961517334,0.06131572648882866,1.0554300546646118,1.8831989765167236,1.1897165105072214,-0.9021584251956402,-0.9882505593559952
1687003331.258463,0.6559537053108215,0.7271593809127808,-0.20239588618278503,0.1400820016860962,0.184644877910614,-0.04827556014060974,0.2702656090259552,0.9002713561058044,1.8910337686538696,1.2715121580975803,-0.8141747737642931,-0.9448553977704783
1687003331.296803,0.7301056385040283,0.6585318446159363,-0.1824321448802948,0.16988813877105713,0.20322352647781372,-0.021776258945465088,0.40410536527633667,1.1234345436096191,1.705622673034668,1.3259391916654937,-0.7188661663597607,-0.940488127405417
1687003331.421071,0.7893960475921631,0.5939950942993164,-0.15499533712863922,0.14076435565948486,0.2833089828491211,-0.03422898054122925,0.48329681158065796,1.008002519607544,1.5732169151306152,1.376915978346961,-0.6360159158606483,-0.939612449962178
1687003331.514694,0.8372652530670166,0.5322867035865784,-0.1251305639743805,0.14491236209869385,0.18797391653060913,-0.07228773832321167,0.43428632616996765,1.0685017108917236,1.3047406673431396,1.4224428328173908,-0.5612994106513247,-0.9535508245035997
1687003331.520829,0.8737221956253052,0.4770255386829376,-0.09516299515962601,0.05450034141540527,0.2747597396373749,-0.11258548498153687,0.7814556360244751,1.053623914718628,1.134946346282959,1.4623072116259301,-0.4972672487239993,-0.9775764456376441
1687003331.52563,0.8993582129478455,0.43126243352890015,-0.07188649475574493,0.031046509742736816,0.24058210849761963,-0.1994759440422058,0.740077018737793,0.8229855298995972,0.7745308876037598,1.4910350230056852,-0.44589155291429416,-1.0178407958472344
1687003331.5680761,0.9155814051628113,0.39843690395355225,-0.05439310520887375,0.01593703031539917,0.23169007897377014,-0.20570826530456543,0.5271806716918945,0.5257644653320312,0.5384541749954224,1.5114577985897333,-0.4098119974191803,-1.0554093243055984
1687003331.631239,0.9245904088020325,0.37879619002342224,-0.040568266063928604,0.013016283512115479,0.24241963028907776,-0.20268744230270386,0.14886687695980072,0.36224624514579773,0.22952614724636078,1.5269474356158312,-0.3884952163773399,-1.0707363766750557
1687003331.718596,0.9260087609291077,0.37620213627815247,-0.031300682574510574,-0.007673859596252441,0.1897311508655548,-0.1628827452659607,0.12570875883102417,0.14406263828277588,-0.07612936943769455,1.5370074809644478,-0.38569389068277693,-1.0749391341061993
1687003331.7234979,0.9229229688644409,0.3836963474750519,-0.03146883472800255,0.004994451999664307,0.11637994647026062,-0.10961401462554932,0.18475058674812317,-0.006816488690674305,-0.2375190556049347,1.5367126076480955,-0.3937957110636427,-1.084256484832445
1687003331.838688,0.9166367650032043,0.3982357680797577,-0.034428417682647705,0.0031325221061706543,0.03416788578033447,-0.04243016615509987,-0.022915929555892944,-0.06855042278766632,-0.38841697573661804,1.5332544742114576,-0.4095927070586958,-1.0893831070894544
1687003331.857435,0.9080223441123962,0.41717201471328735,-0.03824634477496147,0.010892331600189209,-0.0061917901039123535,-0.0111616849899292,0.05845549330115318,-0.09227652847766876,-0.42414915561676025,1.528700721178532,-0.43033140362315836,-1.089955926407757
1687003331.927024,0.8996588587760925,0.4344249665737152,-0.04345853254199028,0.0059958696365356445,-0.0589824914932251,0.03195333853363991,0.08600090444087982,-0.06222448870539665,-0.3317180275917053,1.522528276381435,-0.4493997641476116,-1.0967372036422556
1687003331.9421701,0.8943542242050171,0.44489818811416626,-0.046860840171575546,-0.004309177398681641,-0.07552865147590637,0.03897196054458618,-0.05716165155172348,-0.06789927929639816,-0.12833745777606964,1.518447911774564,-0.46106056312732335,-1.0966979881188044
1687003332.0159268,0.8929730653762817,0.4475945234298706,-0.04752182587981224,0.008348405361175537,-0.07733994722366333,0.03345315903425217,-0.04708491638302803,-0.04209325090050697,-0.011343719437718391,1.5176289440098591,-0.4640735410947278,-1.0941403469868238
1687003332.019897,0.8943280577659607,0.4448259174823761,-0.04803186282515526,-0.001994192600250244,-0.0697953999042511,0.027020394802093506,0.00029757944867014885,-0.0005374206230044365,0.12018714845180511,1.517140665199321,-0.46097988957685787,-1.0929184556465696
1687003332.204431,0.8984853625297546,0.4363735318183899,-0.04797854274511337,-0.0066397786140441895,-0.04847985506057739,0.018071234226226807,0.001443071523681283,0.009511351585388184,0.2189086675643921,1.5174476380978255,-0.4515642642943845,-1.0921940810582889
1687003332.221492,0.9038017392158508,0.4254019558429718,-0.04664196819067001,0.01131349802017212,-0.016161233186721802,0.0005908608436584473,-0.04153275862336159,0.0030236251186579466,0.28106921911239624,1.519235651738496,-0.4394059922366161,-1.0887985025593583
1687003332.2591991,0.9100771546363831,0.4119768738746643,-0.045103494077920914,-0.003445863723754883,0.008631616830825806,-0.005540486425161362,-0.03451180085539818,0.024600690230727196,0.274436354637146,1.5212767641504652,-0.4246225346495439,-1.08736830037799
1687003332.262776,0.9151005148887634,0.40089160203933716,-0.04332328960299492,-0.011093616485595703,0.036516934633255005,-0.02018386498093605,0.050615344196558,0.05994456633925438,0.20083485543727875,1.5234889955399378,-0.4124898644009907,-1.086149651913128
1687003332.266096,0.9179337024688721,0.39440786838531494,-0.04289489611983299,-0.012385725975036621,0.03976571559906006,-0.019681453704833984,0.07317644357681274,0.034878358244895935,0.11595484614372253,1.5241004547943335,-0.4054234046687727,-1.0894623232965575
1687003332.315936,0.9193686842918396,0.39105290174484253,-0.04288028925657272,0.017475128173828125,0.04212886095046997,-0.028027355670928955,0.12129350751638412,0.019618181511759758,0.06785310059785843,1.5241890853829354,-0.40177532360697094,-1.0942512089941374
1687003332.448722,0.9206374883651733,0.3875257670879364,-0.04743723198771477,-0.0007462501525878906,0.0410783588886261,-0.010118961334228516,0.18173880875110626,-0.05670974776148796,0.09727171063423157,1.51931535181963,-0.397946112220529,-1.1031994088276666
1687003332.45311,0.9221304655075073,0.3835195004940033,-0.05087008327245712,-0.022915005683898926,0.04015597701072693,0.013272352516651154,0.06999503821134567,0.03617531806230545,0.06716174632310867,1.5156863674835241,-0.3936042206903515,-1.108624158131655
1687003332.530922,0.9218088388442993,0.3841550052165985,-0.05189602077007294,0.04988598823547363,0.04890468716621399,-0.0015556178987026215,0.11998463422060013,-0.06633627414703369,-0.07428246736526489,1.5145576623396104,-0.3942924173015838,-1.1137523626024652
1687003332.5374699,0.9192739129066467,0.3895256221294403,-0.05661327391862869,-0.04035252332687378,0.01355057954788208,0.01987004280090332,0.11362919956445694,-0.0042711724527180195,-0.12783224880695343,1.5092892370853006,-0.40011646837482895,-1.1201248338457888
1687003332.618988,0.9169321656227112,0.3949328064918518,-0.057123661041259766,-0.018571197986602783,-0.019459813833236694,0.02117384597659111,0.006549283396452665,0.035155195742845535,-0.1206614226102829,1.5085780574033312,-0.4059947042093971,-1.1254977990832806
1687003332.6239982,0.9146780371665955,0.40045469999313354,-0.05477343127131462,0.012629032135009766,-0.0078002214431762695,0.004205696284770966,0.09930112212896347,0.08789177983999252,-0.10458098351955414,1.510985009357795,-0.4120130233343271,-1.127207124169789
1687003332.770061,0.9130080342292786,0.4044996201992035,-0.05287935212254524,0.007875025272369385,-0.02949962019920349,-0.006233274936676025,0.033485159277915955,0.06889558583498001,-0.08162374049425125,1.5129432287716675,-0.4164316383985915,-1.1321815715187784
1687003332.8347158,0.9125165343284607,0.4057939052581787,-0.051426783204078674,-0.003626883029937744,-0.02000594139099121,-0.01885533332824707,0.04630202427506447,0.04998021572828293,-0.004413375165313482,1.5144987849767122,-0.41784730546938775,-1.1347091486624672
1687003332.8409219,0.9131966233253479,0.4043232202529907,-0.05093676224350929,-0.004505336284637451,-0.023799508810043335,-0.011548101902008057,0.0062135918997228146,0.007976572960615158,0.020935392007231712,1.5150755417887116,-0.41623874067316274,-1.1362681603629767
1687003332.846024,0.9138117432594299,0.4029015898704529,-0.051169682294130325,0.006293118000030518,-0.01805967092514038,-0.020119428634643555,0.005953934043645859,-0.0037242923863232136,0.02151489444077015,1.5148588724668888,-0.41468495181607634,-1.1375833361074699
