Timestamp,gravityX,gravityY,gravityZ,accelerationX,accelerationY,accelerationZ,rotationRateX,rotationRateY,rotationRateZ,attitudeRoll,attitudePitch,attitudeYaw
1687094911.314327,0.8950871229171753,0.3763674199581146,0.2390957474708557,-0.000693202018737793,0.013021618127822876,-0.028768539428710938,0.12666502594947815,0.06325753033161163,0.03315203636884689,1.831821994045875,-0.385872284855666,-2.8376952820414605
1687094911.314821,0.8951048254966736,0.3767204284667969,0.23847226798534393,0.01947641372680664,-0.027202606201171875,-0.008339181542396545,-0.011191646568477154,0.005542566534131765,0.001434587873518467,1.8311667907315763,-0.38625333066825396,-2.842161469008673
1687094911.459447,0.8951208591461182,0.3765372633934021,0.23870214819908142,0.008245348930358887,-0.006053805351257324,-0.0004818141460418701,-0.18522582948207855,-0.06550244987010956,-0.041083309799432755,1.8314021166850003,-0.3860556103677215,-2.8359508010092354
1687094911.461777,0.8952469229698181,0.37553268671035767,0.23980826139450073,-0.016630709171295166,0.019517332315444946,-0.0008861124515533447,-0.10620810836553574,-0.0059136864729225636,-0.009031634777784348,1.8325202298338743,-0.38497145350104933,-2.8267708195238876
1687094911.584319,0.8948279023170471,0.37526652216911316,0.24178121984004974,0.007012307643890381,0.005913287401199341,0.0022220611572265625,-0.0320928655564785,0.0005553981754928827,-0.009050277061760426,1.834693217500688,-0.38468430679612287,-2.8232820979985305
1687094911.587593,0.8944368362426758,0.3760293126106262,0.24204348027706146,0.00033867359161376953,0.015709668397903442,-0.0063256919384002686,0.15253576636314392,0.058985549956560135,0.036040499806404114,1.8350765544281373,-0.38550736129948965,-2.8267759623556534
1687094911.588167,0.8943214416503906,0.37674468755722046,0.2413555532693863,0.0114402174949646,-0.013570249080657959,-0.0051647573709487915,0.08257000148296356,0.018567288294434547,0.015077696181833744,1.8343922334805436,-0.3862795176541234,-2.835471569204333
1687094911.669128,0.8947095274925232,0.3766036629676819,0.24013417959213257,-0.0024518966674804688,0.008757054805755615,-0.029578104615211487,0.09363649785518646,0.019804326817393303,0.036355551332235336,1.8330101780127879,-0.38612727327683216,-2.8379726871009687
1687094911.670232,0.8955291509628296,0.3751771152019501,0.23931041359901428,0.01763296127319336,-0.02736833691596985,-0.010321766138076782,-0.09361095726490021,-0.04865023121237755,0.009973746724426746,1.8319226603148828,-0.3845878551422532,-2.83876244530446
1687094911.764464,0.896270751953125,0.37370991706848145,0.23882988095283508,0.003814697265625,0.008614301681518555,-0.0027000904083251953,-0.16935524344444275,-0.08370701968669891,-0.0210890956223011,1.8312157490254812,-0.3830055433796931,-2.831274060887151
1687094911.76667,0.8966701030731201,0.3725709617137909,0.2391100972890854,-0.006350278854370117,0.01849651336669922,0.006510600447654724,-0.12334481626749039,-0.050342801958322525,-0.025016194209456444,1.8313967168936331,-0.38177791030076974,-2.823047747702078
1687094911.879607,0.8968266844749451,0.3729085326194763,0.23799395561218262,-0.005225121974945068,0.03431802988052368,-0.003908872604370117,0.08024472743272781,-0.013329259119927883,-0.006074727512896061,1.8301909400229759,-0.38214170577783424,-2.82119859880337
1687094911.881997,0.8969503045082092,0.373443067073822,0.23668712377548218,0.007224619388580322,-0.013701796531677246,-0.012138694524765015,-0.014163535088300705,-0.029389185830950737,0.023304466158151627,1.8287951311344832,-0.38271783527404807,-2.823268422439722
1687094911.97471,0.8970666527748108,0.37286651134490967,0.23715415596961975,0.009000241756439209,-0.003069758415222168,-0.014467358589172363,-0.2004486620426178,-0.06756599992513657,-0.03053745999932289,1.8292497937733383,-0.3820964135534831,-2.81890087082182
1687094911.9776301,0.8967777490615845,0.37320566177368164,0.237712562084198,-0.006320595741271973,0.05875539779663086,-0.031123757362365723,-0.40973636507987976,-0.13751791417598724,-0.17683741450309753,1.8299113057749896,-0.38246194438061165,-2.8009752744423673
1687094911.9797091,0.8925500512123108,0.38229501247406006,0.23917622864246368,-0.06993335485458374,0.12666195631027222,0.028615623712539673,-1.063286542892456,-0.1963435560464859,-0.6228132843971252,1.8326147049514159,-0.39227869829039097,-2.75999356674414
1687094912.0603561,0.8809622526168823,0.4029860198497772,0.2480079084634781,-0.032253146171569824,0.26803451776504517,-0.010275959968566895,-1.521328330039978,-0.41396641731262207,-1.0772818326950073,1.8452133489238935,-0.41477717699606353,-2.6850411332822164
1687094912.158074,0.8589815497398376,0.43495628237724304,0.2701178789138794,-0.08890104293823242,0.43041542172431946,0.13100513815879822,-2.4753661155700684,-0.38861337304115295,-1.7656702995300293,1.8754684954968022,-0.44998971473787536,-2.55586469088348
1687094912.1595721,0.813751757144928,0.48317059874534607,0.32303890585899353,0.049743056297302246,0.43745312094688416,0.17172735929489136,-3.309422492980957,-0.2427404820919037,-2.4212186336517334,1.9486920159528403,-0.5042724577363632,-2.3645933341714866
1687094912.2721229,0.749107837677002,0.5243485569953918,0.4048411548137665,-0.00022166967391967773,0.5915267467498779,0.11082965135574341,-2.6544671058654785,0.5223594903945923,-2.641235828399658,2.0662632872062354,-0.5519498966248598,-2.139557416119103
1687094912.276613,0.6597909331321716,0.5670652985572815,0.49306535720825195,0.1882469654083252,0.49586206674575806,0.0941234827041626,-2.090888500213623,0.818702220916748,-2.6680874824523926,2.212570684031364,-0.6029385158924194,-1.9387094782611265
1687094912.361692,0.5494565367698669,0.6053796410560608,0.5758585929870605,0.27471643686294556,0.4724249243736267,0.025002002716064453,-1.124640941619873,1.296884298324585,-2.7170023918151855,2.379652094111828,-0.650242784042876,-1.7488344422620645
1687094912.364042,0.4195423722267151,0.6496719717979431,0.6339643001556396,0.3225994110107422,0.39067232608795166,0.024528801441192627,-0.46711039543151855,1.4501243829727173,-2.6938703060150146,2.5569835210630307,-0.7071528803998167,-1.5798120255391659
1687094912.450914,0.28220102190971375,0.6920245885848999,0.6644282341003418,0.39139825105667114,0.3012768626213074,0.09433037042617798,0.016846179962158203,1.4113320112228394,-2.7511584758758545,2.7399527568521855,-0.7642899268799774,-1.4133122583872593
1687094912.4565392,0.1379445344209671,0.7288080453872681,0.6706789135932922,0.4307352900505066,0.1565679907798767,0.15552347898483276,0.543354332447052,1.599056363105774,-2.7158470153808594,2.9387425693841287,-0.8165795392365667,-1.236054577762893
1687094912.546109,-0.020349128171801567,0.754737377166748,0.6557117104530334,0.5940337777137756,0.027336716651916504,0.2050214409828186,0.4144175946712494,1.7268046140670776,-2.705353260040283,-3.1105689575643276,-0.8552537262444813,-1.0361472134159666
1687094912.5483809,-0.17412082850933075,0.7632228136062622,0.6222319602966309,0.5172604918479919,0.006506681442260742,0.17754215002059937,0.840566873550415,1.7348036766052246,-2.647794246673584,-2.8687391388022756,-0.8682863370201769,-0.8291619267915994
1687094912.55038,-0.32326021790504456,0.7456262111663818,0.582704484462738,0.5929135084152222,-0.18990111351013184,0.19964420795440674,0.2137306183576584,1.5649676322937012,-2.4814107418060303,-2.635103505508269,-0.8414740726349164,-0.630580273561866
1687094912.601359,-0.45815885066986084,0.7047447562217712,0.5416870713233948,0.4938798248767853,-0.14927923679351807,0.15144336223602295,0.1812615543603897,1.6779425144195557,-2.3890199661254883,-2.4395420099824174,-0.7820633378770884,-0.4743703817459493
1687094912.662463,-0.5817371606826782,0.6455948948860168,0.49476149678230286,0.4332539439201355,-0.14634263515472412,0.17027753591537476,-0.0517086461186409,1.9649099111557007,-2.318147659301758,-2.2755746639765264,-0.7018020283216626,-0.3619970360365451
1687094912.722317,-0.6990439295768738,0.575620710849762,0.42426177859306335,0.42839890718460083,-0.10265940427780151,0.0704433023929596,0.45534616708755493,2.1939404010772705,-2.1752796173095703,-2.116286485116497,-0.6133629897450299,-0.2726138804478455
1687094912.7830482,-0.8044329881668091,0.5032355189323425,0.31566089391708374,0.43607044219970703,-0.08482420444488525,0.14678719639778137,0.6773369312286377,2.5101511478424072,-2.2229325771331787,-1.9447353509528311,-0.5273388967447065,-0.1812565396282969
1687094912.906224,-0.8873763680458069,0.4195042550563812,0.19125746190547943,0.3277297616004944,-0.058176130056381226,0.14593136310577393,0.923117995262146,2.4749245643615723,-2.208024501800537,-1.7830803368348322,-0.43289912067045194,-0.09949269741352812
1687094912.91135,-0.9430352449417114,0.3277378976345062,0.05720710754394531,0.3105430603027344,0.023900896310806274,0.11176872998476028,1.7844974994659424,2.355334758758545,-2.1777217388153076,-1.631384824875168,-0.3339082425161155,-0.012828877562727268
1687094912.991734,-0.9726629257202148,0.21731683611869812,-0.08185380697250366,0.3104926347732544,0.0793750137090683,0.060155875980854034,2.8512496948242188,2.1909019947052,-2.3848605155944824,-1.4868398034166819,-0.2190647675585695,0.09949752188021121
1687094912.9987822,-0.9750200510025024,0.06896336376667023,-0.2111400067806244,0.33117544651031494,0.037619270384311676,-0.024852454662322998,3.6168055534362793,1.9298454523086548,-2.6104719638824463,-1.3575396980343104,-0.0690181421406028,0.24607932676906005
1687094913.083631,-0.9525383710861206,-0.11733990162611008,-0.28089529275894165,0.28618699312210083,0.05157452076673508,-0.005496859550476074,3.873628616333008,1.0798028707504272,-2.9277191162109375,-1.28403295668748,0.11761085510927677,0.4045721390489199
1687094913.086035,-0.9101124405860901,-0.28979694843292236,-0.2961638867855072,0.2072468400001526,0.06581318378448486,0.03636777400970459,2.619502544403076,0.8135043382644653,-2.7065176963806152,-1.2561894855147628,0.2940146773298532,0.50576148430801
1687094913.1736012,-0.8527327179908752,-0.4394189417362213,-0.28241485357284546,0.2699231505393982,-0.19366827607154846,0.011464565992355347,1.7975223064422607,0.49527794122695923,-2.465709686279297,-1.250977803922602,0.4549517046910116,0.5777524005342197
1687094913.1803188,-0.7922760844230652,-0.5449308753013611,-0.274497389793396,0.27211934328079224,-0.10335397720336914,-0.056419938802719116,1.3487026691436768,0.4333084225654602,-1.8936530351638794,-1.2372725480300202,0.5763066400686832,0.6059941578252934
1687094913.2636518,-0.7429522275924683,-0.6195868849754333,-0.2532474398612976,0.23512446880340576,-0.34011465311050415,-0.09721642732620239,0.6786797046661377,0.13993899524211884,-1.181013822555542,-1.2422814419109254,0.6682163086406147,0.640399146082381
1687094913.3535662,-0.7145791053771973,-0.6566530466079712,-0.24121224880218506,0.17193084955215454,-0.23746609687805176,-0.09318409860134125,0.48569542169570923,-0.013768679462373257,-0.5107126235961914,-1.24524796325516,0.7163723711997931,0.6534231413041037
1687094913.361594,-0.7059943675994873,-0.6720510125160217,-0.22342689335346222,0.0868842601776123,-0.18678998947143555,0.006233304738998413,0.257785439491272,-0.07170761376619339,-0.052033431828022,-1.2642976746918424,0.736975035977431,0.6769536842327291
1687094913.474971,-0.7111455798149109,-0.6679774522781372,-0.21926705539226532,0.036752939224243164,-0.06033974885940552,-0.03288440406322479,-0.2616123557090759,-0.2522992193698883,0.19989362359046936,-1.2717155331474665,0.7314876816792553,0.6742370210081073
1687094913.481653,-0.7182679772377014,-0.6625592708587646,-0.21238240599632263,0.06238424777984619,0.02712225914001465,-0.008671626448631287,0.27760326862335205,-0.11204797774553299,0.08021248877048492,-1.2833012181768833,0.7242304649052509,0.6795585936724281
1687094913.482954,-0.7195835113525391,-0.6624151468276978,-0.20834073424339294,-0.013296127319335938,0.043869614601135254,0.04935944080352783,-0.014611145481467247,0.07901252061128616,-0.017092224210500717,-1.2889728594956662,0.724038096315304,0.688561956235079
1687094913.5610719,-0.7172391414642334,-0.6625099182128906,-0.21598292887210846,0.0059812068939208984,-0.013896942138671875,0.03687530755996704,-0.24969130754470825,0.1360529065132141,-0.030545983463525772,-1.2783022633424093,0.7241645864750602,0.6794448279387146
1687094913.653373,-0.7160191535949707,-0.6623814105987549,-0.22038082778453827,0.018112599849700928,0.0026676058769226074,0.026609480381011963,0.11832892894744873,0.1170392632484436,0.015830837190151215,-1.272211595740351,0.7239930285863466,0.6795633413980591
1687094913.6623302,-0.7139217257499695,-0.6640804409980774,-0.2220657914876938,-0.017218470573425293,0.002886533737182617,0.012348979711532593,-0.04512085020542145,0.12701572477817535,-0.06325305998325348,-1.269232434297329,0.7262632140691385,0.6830425128873245
1687094913.74233,-0.7112844586372375,-0.6645969152450562,-0.2288781702518463,0.0025900602340698242,-0.024703562259674072,-0.001407429575920105,-0.08372670412063599,0.09562239795923233,-0.009312865324318409,-1.2594782082519655,0.7269542490455233,0.6764143146573893
1687094913.749999,-0.7112497091293335,-0.6629947423934937,-0.23358486592769623,0.017722487449645996,-0.04252594709396362,0.003024578094482422,-0.05969393253326416,0.09430625289678574,0.0686490461230278,-1.2534790466403556,0.7248120011630843,0.6733489990360298
1687094913.833262,-0.7139380574226379,-0.6581598520278931,-0.23899362981319427,0.057108283042907715,-0.08393603563308716,-0.013981804251670837,-0.16526809334754944,0.05921764671802521,0.1940767467021942,-1.2477677079675624,0.7183719591231933,0.6709561528606071
1687094913.836262,-0.7218672037124634,-0.6469123959541321,-0.2457883507013321,0.050144851207733154,-0.07435524463653564,-0.010635524988174438,-0.1228870153427124,0.05468001961708069,0.3597831428050995,-1.2426189301544694,0.7035284949873964,0.6677169577298856
1687094913.9520721,-0.7348384261131287,-0.629199206829071,-0.2532211244106293,0.07192033529281616,-0.07000428438186646,-0.021833837032318115,-0.05355614796280861,0.10924924910068512,0.5331038236618042,-1.2389453989183878,0.6805224716465421,0.6693111403901578
1687094913.959244,-0.751484751701355,-0.6069806218147278,-0.2585441768169403,0.10399335622787476,-0.09272634983062744,-0.022583693265914917,0.11151722818613052,0.23398879170417786,0.6785089373588562,-1.2394368919816943,0.6522557661231898,0.6840236282772414
1687094914.042924,-0.770740270614624,-0.5791845321655273,-0.265527606010437,0.09695780277252197,-0.09775644540786743,0.001001209020614624,0.10025405883789062,0.3688294291496277,0.8416193127632141,-1.2390208706814287,0.6177280216413241,0.7063178920164702
1687094914.0516539,-0.7919899821281433,-0.5437470078468323,-0.2776526212692261,0.1327187418937683,-0.09628278017044067,0.004871279001235962,0.032074201852083206,0.3650195300579071,1.033458948135376,-1.2336085335179934,0.5748954241416417,0.7289348875902437
1687094914.1270041,-0.8138651847839355,-0.5003886222839355,-0.29535555839538574,0.18201398849487305,-0.07920122146606445,-0.011101961135864258,0.07498165220022202,0.49018073081970215,1.1441831588745117,-1.222671630904681,0.5240476007575243,0.7521320774175512
1687094914.133926,-0.8354764580726624,-0.44875144958496094,-0.31717735528945923,0.1838955283164978,-0.07811933755874634,0.04808858036994934,-0.07646366208791733,0.5512952208518982,1.3691879510879517,-1.2079670004572676,0.4653677389022991,0.7763849982804691
1687094914.222667,-0.8566446900367737,-0.3855714201927185,-0.34277474880218506,0.17564493417739868,-0.057238638401031494,0.059953153133392334,-0.14260093867778778,0.6125973463058472,1.506950855255127,-1.190172341788646,0.39582705932905715,0.7991621882803878
1687094914.2320871,-0.8747175931930542,-0.31009891629219055,-0.37243494391441345,0.2016524076461792,-0.07426998019218445,0.09049832820892334,-0.40516844391822815,0.5265438556671143,1.836266279220581,-1.1682674414038487,0.3152970792026879,0.8196483251346786
1687094914.3441339,-0.8901724219322205,-0.21522916853427887,-0.40158364176750183,0.17909759283065796,-0.03486238420009613,0.036532431840896606,-0.5541874170303345,0.45682692527770996,2.035367727279663,-1.147002935997797,0.2169264874548905,0.8383430847530056
1687094914.41012,-0.8967012763023376,-0.1072922945022583,-0.42943593859672546,0.14877647161483765,0.046806447207927704,0.03632378578186035,-0.5332329869270325,0.5057931542396545,2.1462924480438232,-1.124165575138133,0.10749921954626429,0.854396054382767
1687094914.4122992,-0.8923833966255188,0.0018310731975361705,-0.4512743353843689,0.1769140362739563,0.024414027109742165,0.09263178706169128,-0.6872870326042175,0.47089695930480957,2.189908266067505,-1.1026026400696232,-0.0018310741926384983,0.8787208226621076
1687094914.414311,-0.8745434284210205,0.11757034063339233,-0.4704796075820923,0.211991548538208,0.037321627140045166,0.10526049137115479,-0.9307229518890381,0.48907673358917236,2.1788856983184814,-1.077234769010673,-0.11784289989549697,0.8915172410460313
1687094914.462498,-0.8410751223564148,0.2259036749601364,-0.4914877414703369,0.1934310793876648,0.07692223787307739,0.12071442604064941,-0.43028804659843445,0.7151816487312317,2.146519422531128,-1.0419587940500186,-0.2278705991130158,0.9155405098842119
1687094914.5584679,-0.7904275059700012,0.3276936411857605,-0.5175338983535767,0.14559108018875122,0.059070855379104614,0.11444246768951416,-0.6414828300476074,0.9544517397880554,2.1375784873962402,-0.9910878600913234,-0.3338614016988892,0.9502524403560013
1687094914.643714,-0.7250781655311584,0.42548897862434387,-0.5414987206459045,0.19475895166397095,0.06679007411003113,0.13624054193496704,-0.7040011882781982,1.0198719501495361,2.157801628112793,-0.929337219300919,-0.43950216057963276,0.9878629439312511
1687094914.653333,-0.6435081958770752,0.5210579633712769,-0.5607101321220398,0.2143547534942627,0.07377535104751587,0.11417698860168457,-0.6910175085067749,1.0485526323318481,2.2938666343688965,-0.8540467913271628,-0.5480900365866531,1.0337699162206864
1687094914.763665,-0.5429096221923828,0.6092942357063293,-0.5779356956481934,0.1598377227783203,0.08519428968429565,0.12615346908569336,-0.8081846833229065,1.3746633529663086,2.311368227005005,-0.7541586620925658,-0.6551702421498873,1.1018164292413846
1687094914.766912,-0.42540958523750305,0.6925855875015259,-0.5825391411781311,0.24491333961486816,0.09319627285003662,0.08682692050933838,-0.928199827671051,1.3864424228668213,2.4416937828063965,-0.6307524119914908,-0.7650673403721774,1.182409816278802
1687094914.883693,-0.2915691137313843,0.7612639665603638,-0.5791931748390198,0.07500109076499939,0.141568124294281,0.04660046100616455,-0.7953106164932251,1.6321663856506348,2.4489216804504395,-0.4663684158420932,-0.8652601004903697,1.3053937308913832
1687094914.887219,-0.1477520763874054,0.8148345947265625,-0.5605478882789612,0.2120983898639679,0.1450958251953125,0.05822861194610596,-1.0600680112838745,1.5944799184799194,2.556929111480713,-0.2577232222322338,-0.9524437900740794,1.4685630193461308
1687094914.94538,0.002075559925287962,0.8471925854682922,-0.5312818884849548,0.09435997158288956,0.21901535987854004,-0.06460428237915039,-0.6406524181365967,1.568608045578003,2.462689161300659,0.0039066819593508145,-1.0106786007883395,1.6866957522985389
1687094914.947482,0.1437363475561142,0.8566381335258484,-0.4954906702041626,0.17555378377437592,0.1663110852241516,-0.029289573431015015,-0.8055285215377808,1.5214680433273315,2.397501230239868,0.2823394343694141,-1.0287176617953753,1.9230150817488854
1687094914.9493032,0.28034573793411255,0.8482720851898193,-0.44926705956459045,0.07449740171432495,0.25904303789138794,-0.07253772020339966,-0.5462986826896667,1.6823490858078003,2.182293653488159,0.5578848244139092,-1.012713754314662,2.1528033390070442
1687094915.004101,0.4027521014213562,0.8264341950416565,-0.39344269037246704,0.2086522877216339,0.17399299144744873,0.004358857870101929,-0.758319079875946,1.61663818359375,2.0466926097869873,0.7970900000682298,-0.9727447652266992,2.339569689983844
1687094915.0649319,0.514897346496582,0.786959707736969,-0.33996349573135376,0.14432811737060547,0.227658212184906,-0.10853809118270874,-0.04089774563908577,1.5584701299667358,1.9556690454483032,0.9872457912219453,-0.905865904873444,2.47257552958641
1687094915.128831,0.612379252910614,0.735460638999939,-0.2899819314479828,0.09102046489715576,0.1611306071281433,-0.003276735544204712,-0.4781334400177002,1.6940680742263794,1.7921805381774902,1.1285454140609297,-0.8263462935625399,2.555216670831974
1687094915.1861792,0.6921913623809814,0.6946536898612976,-0.1957736313343048,0.09113377332687378,0.11217004060745239,-0.08095972239971161,-1.9397382736206055,1.4277693033218384,1.5565413236618042,1.2951637493841794,-0.7679383521527865,2.675823658149806
1687094915.2729778,0.7527750730514526,0.6551188826560974,-0.0644117072224617,0.07380872964859009,0.09826850891113281,-0.0155596062541008,-3.4136335849761963,1.015689730644226,1.5362712144851685,1.4854385571387003,-0.7143399365973061,2.873623571850392
1687094915.284586,0.7997280955314636,0.5950176119804382,0.0799318253993988,0.07743865251541138,0.20965462923049927,-0.1276918649673462,-3.669081211090088,0.4032007157802582,1.4853039979934692,1.670414236855106,-0.6372875812456695,3.1102761881973
1687094915.3362808,0.8383705615997314,0.514131486415863,0.18111872673034668,0.1019982099533081,0.23333561420440674,-0.08726190030574799,-3.1975152492523193,-0.2320638746023178,1.3161269426345825,1.7835630736138082,-0.5399947527653486,-2.9777969436179026
1687094915.422888,0.8724108934402466,0.43472713232040405,0.22340865433216095,-0.025746583938598633,0.33910706639289856,0.04226216673851013,-1.74436354637146,-0.2765357494354248,1.30923593044281,1.821490908838798,-0.44973525539965625,-2.853207895847314
1687094915.4332042,0.8916027545928955,0.38567349314689636,0.23727764189243317,0.05471682548522949,0.8175888657569885,-0.5904117822647095,-0.9799153208732605,-0.698948323726654,0.36538031697273254,1.8308927892100904,-0.39593767293369875,-2.8018964250149816
1687094915.516449,0.8936285972595215,0.3889903724193573,0.2238619476556778,-0.24020159244537354,-0.050596266984939575,-0.01496914029121399,0.9495342373847961,0.6528725028038025,-0.602438747882843,1.8162539262332438,-0.3995354024025466,-2.791740213371947
1687094915.603905,0.8961566686630249,0.3948068916797638,0.2025604546070099,0.03379017114639282,-0.4442759156227112,0.3592681586742401,-0.40233635902404785,-0.31366685032844543,0.15386541187763214,1.793093230101335,-0.40585764560895876,-2.8192484088008096
1687094915.608819,0.898727536201477,0.3827458322048187,0.21399666368961334,0.06719958782196045,-0.045450299978256226,-0.07083868980407715,-0.8489008545875549,-0.17729835212230682,0.11040022224187851,1.8045541674408585,-0.3927666395627462,-2.7789110435142867
1687094915.692535,0.9015654921531677,0.371933251619339,0.22100989520549774,-0.030975282192230225,0.2880551517009735,-0.17588961124420166,-0.8618072867393494,-0.219780832529068,-0.018660826608538628,1.8111958116893223,-0.38109082718635173,-2.728998955740989
1687094915.6957169,0.9012536406517029,0.3706047832965851,0.2244858294725418,0.057852745056152344,-0.04885798692703247,0.028855904936790466,-0.7845757007598877,-0.4862738847732544,-0.10514884442090988,1.8149105575376945,-0.37966009683120405,-2.6894376082667844
1687094915.817929,0.9050354957580566,0.36470240354537964,0.2188667356967926,-0.03157681226730347,0.027570515871047974,0.010686472058296204,-0.7194064855575562,-0.2701478898525238,-0.031641606241464615,1.8080730096857418,-0.37331316170592344,-2.6391549628519337
1687094915.8212051,0.9038257598876953,0.36518165469169617,0.223027303814888,0.07362163066864014,-0.053353071212768555,0.02871224284172058,-0.7148664593696594,-0.19953881204128265,-0.1172071099281311,1.8127224868414331,-0.3738279320181889,-2.6105611082107902
1687094915.90541,0.9064705967903137,0.3560991883277893,0.22694525122642517,-0.03835248947143555,0.08344542980194092,0.01826353371143341,-0.7640642523765564,-0.24198360741138458,-0.011832747608423233,1.8161151078532165,-0.3640900965617346,-2.555678544267416
1687094915.918042,0.9048294425010681,0.35736319422721863,0.23146387934684753,0.05140841007232666,0.00504833459854126,-0.02386796474456787,-0.13874967396259308,-0.032624658197164536,-0.08792245388031006,1.8212351568502145,-0.36544311154200776,-2.546139070101564
1687094915.9987268,0.9051904678344727,0.3544310927391052,0.23453940451145172,0.011160790920257568,0.012359678745269775,0.02595864236354828,-0.22219063341617584,-0.08301033824682236,0.018282275646924973,1.8243258974326488,-0.362305586299376,-2.5227405561062346
1687094916.002172,0.9050599932670593,0.3549385666847229,0.23427578806877136,0.005492985248565674,0.007427185773849487,-0.0258406400680542,0.17284317314624786,0.05121844261884689,0.0056144194677472115,1.8240879347851957,-0.36284834170563596,-2.5329073258124537
1687094916.0853271,0.904827892780304,0.3559983968734741,0.23356235027313232,0.01842021942138672,0.03397044539451599,-0.015422746539115906,0.13351860642433167,-0.009595505893230438,0.019745416939258575,1.8234110854451866,-0.36398222686478043,-2.5357400497748794
1687094916.088903,0.9053906798362732,0.35588160157203674,0.23155157268047333,0.013371527194976807,-0.024628549814224243,-0.008590102195739746,0.07745306938886642,-0.046454720199108124,0.050670839846134186,1.8211772151050032,-0.3638572574066826,-2.5436880791767233
1687094916.20504,0.9057169556617737,0.3558456003665924,0.23032762110233307,0.0010518431663513184,0.016606181859970093,0.007373809814453125,0.07676584273576736,0.031117035076022148,0.019730504602193832,1.8198218765497027,-0.36381873691876615,-2.547990125348158
1687094916.21786,0.9058615565299988,0.3561479449272156,0.22928890585899353,-0.0004355907440185547,0.051811009645462036,-0.013010755181312561,0.16437923908233643,0.00496705761179328,0.008887444622814655,1.818706427300031,-0.36414228107524504,-2.552757718291749
1687094916.2962809,0.9054333567619324,0.3579029142856598,0.2282455712556839,0.009849846363067627,-0.02338448166847229,-0.010395780205726624,0.04708963632583618,0.012352002784609795,-0.003770560957491398,1.8177357652960258,-0.36602106708909676,-2.558832016228566
1687094916.308501,0.9056887030601501,0.3570537865161896,0.22856232523918152,0.011395037174224854,-0.034299880266189575,-0.035935282707214355,-0.251996785402298,-0.07606068253517151,0.0033342214301228523,1.8179977475667417,-0.3651118622708934,-2.5548589358718314
1687094916.384598,0.9074615240097046,0.35289809107780457,0.22798317670822144,-0.02113962173461914,0.044730693101882935,-0.04460301995277405,-0.2699153423309326,-0.16016358137130737,0.007967854849994183,1.8169339878288768,-0.3606666640089434,-2.538698396092274
1687094916.389017,0.9100030660629272,0.35081419348716736,0.22096127271652222,0.002442002296447754,0.04313725233078003,-0.07932913303375244,-0.7649277448654175,-0.4808129668235779,-0.16087016463279724,1.8090001167432312,-0.3584404049168131,-2.517189036271975
1687094916.47786,0.9116597771644592,0.35093042254447937,0.21383251249790192,0.010856091976165771,0.18570592999458313,-0.07392466068267822,-1.9012290239334106,-0.8434144854545593,-0.5347707867622375,1.8011846182021374,-0.35856453930135174,-2.4410851261818114
1687094916.490257,0.9089863300323486,0.35725027322769165,0.21474654972553253,-0.006581604480743408,0.26089853048324585,0.06441305577754974,-2.860044479370117,-1.010374903678894,-0.8724332451820374,1.8027910049983065,-0.3653222107226823,-2.3106885105813517
1687094916.59581,0.9008426666259766,0.3706994950771332,0.22597478330135345,-0.06040370464324951,0.3885473906993866,0.24764278531074524,-2.926513910293579,-0.766604483127594,-1.1301692724227905,1.8165731523187008,-0.37976204723666057,-2.141634896130608
1687094916.66044,0.8817169666290283,0.39510101079940796,0.2578183114528656,-0.1137574315071106,0.46305325627326965,0.3906954228878021,-2.2365524768829346,0.14206911623477936,-1.4577497243881226,1.8552705931702438,-0.4061778117462357,-1.990238144047791
1687094916.671742,0.8419613242149353,0.4347558617591858,0.3195132315158844,0.1830783486366272,0.4425329566001892,0.3878690004348755,-1.716871976852417,0.8543548583984375,-1.6560354232788086,1.9334948306156712,-0.44976714661715783,-1.8622656870874508
1687094916.674099,0.7777055501937866,0.48163145780563354,0.4039868414402008,0.20543348789215088,0.42867738008499146,0.3125354051589966,-1.0797502994537354,1.6327409744262695,-1.9572956562042236,2.0498903633910746,-0.5025153771760023,-1.7449598977476763
1687094916.712452,0.6789790391921997,0.5476873517036438,0.48890307545661926,0.37563222646713257,0.3345301151275635,0.2310829758644104,-0.17373254895210266,2.2358038425445557,-2.3206777572631836,2.1948563855269656,-0.579597691997,-1.6530256069472409
1687094916.7689838,0.5544542670249939,0.6141769289970398,0.5615758299827576,0.4654432535171509,0.24699866771697998,0.14586752653121948,0.002961789257824421,2.263282537460327,-2.3428292274475098,2.3625755525950747,-0.6613425533436208,-1.55285604550367
1687094916.8954911,0.40677741169929504,0.6812192797660828,0.608664333820343,0.5814579725265503,0.07592177391052246,0.17862814664840698,0.4015321433544159,2.332533836364746,-2.3710803985595703,2.552452110909566,-0.749426849898129,-1.4412834529990166
1687094916.95892,0.2460261583328247,0.7295809984207153,0.638108491897583,0.6165226697921753,-0.07819861173629761,0.10043209791183472,0.12029454112052917,2.3298213481903076,-2.418102502822876,2.7736002149459393,-0.8177091007977809,-1.2976885387452162
1687094916.971802,0.07716717571020126,0.7612087726593018,0.643899142742157,0.5597041249275208,-0.03389871120452881,0.15926235914230347,0.8276757001876831,2.6781420707702637,-2.461570978164673,3.0223179355313774,-0.8651749730894727,-1.1288129340130737
1687094916.974334,-0.09526526182889938,0.7779285907745361,0.621088981628418,0.5512741804122925,-0.1838276982307434,0.16728681325912476,0.13938680291175842,2.6871719360351562,-2.4091837406158447,-2.9893945884183513,-0.8913624510237994,-0.9436930528564009
1687094917.012741,-0.2651371657848358,0.7691338658332825,0.5814942717552185,0.5109104514122009,-0.08845454454421997,0.12428581714630127,0.7359548211097717,2.8052964210510254,-2.3658621311187744,-2.7137948302675956,-0.8774848075418945,-0.7589477325174072
1687094917.108016,-0.4403201937675476,0.7438811659812927,0.5027512907981873,0.5758335590362549,-0.17004388570785522,0.09893327951431274,0.45000919699668884,3.026554584503174,-2.525946855545044,-2.4222977822256073,-0.8388591162017124,-0.5701566864582052
1687094917.193718,-0.5994958877563477,0.6890226602554321,0.40725016593933105,0.5750359892845154,-0.13267195224761963,0.104636549949646,0.6789938807487488,3.2070746421813965,-2.424025297164917,-2.167508551966842,-0.7601396083011354,-0.4299660767535537
1687094917.207721,-0.7340811491012573,0.6202614307403564,0.27640700340270996,0.570461094379425,-0.20078206062316895,0.08620285987854004,0.7230126857757568,3.0758211612701416,-2.454385280609131,-1.9309117916762344,-0.6690759764178594,-0.3084783229057738
1687094917.28962,-0.8346768617630005,0.5387599468231201,0.11424709856510162,0.5356808304786682,0.021191895008087158,-0.037098631262779236,2.1537086963653564,3.157346487045288,-2.5717625617980957,-1.7068268585864252,-0.5689644652473382,-0.19363668372198908
1687094917.303659,-0.9033325910568237,0.4226679503917694,-0.07308975607156754,0.5064056515693665,-0.09179636836051941,-0.056716740131378174,2.6157419681549072,2.8096067905426025,-2.829484224319458,-1.4900609644566314,-0.43638713440139043,-0.05169787197013517
1687094917.4071631,-0.9313680529594421,0.258037805557251,-0.2568465769290924,0.42787379026412964,0.08040213584899902,-0.1354263424873352,4.726526260375977,2.3387222290039062,-2.9778032302856445,-1.3017111833301052,-0.26099067756033734,0.10987524891124224
1687094917.417932,-0.9243960380554199,0.03996681421995163,-0.3793346583843231,0.36374223232269287,-0.17688393592834473,-0.06420785188674927,4.2790327072143555,1.4239364862442017,-2.976081371307373,-1.1813914072022371,-0.03997746199288293,0.2843526320864608
1687094917.49439,-0.8887448310852051,-0.17391720414161682,-0.424128919839859,0.23135042190551758,-0.029818162322044373,-0.052601397037506104,4.37163782119751,1.0021114349365234,-2.693648338317871,-1.1255363132389404,0.17480611085568049,0.4195483453214556
1687094917.507056,-0.8420069217681885,-0.35784783959388733,-0.4036945104598999,0.22379708290100098,-0.26785409450531006,0.0336536169052124,2.286935567855835,0.3874346613883972,-2.231888771057129,-1.1237289721752033,0.36596208457120716,0.5308339649438566
1687094917.586093,-0.7934486865997314,-0.4738050699234009,-0.3820311427116394,0.14621669054031372,-0.08355268836021423,-0.030780106782913208,1.3305227756500244,0.10886376351118088,-1.8809300661087036,-1.122072703495016,0.49360662452624804,0.5615657962219369
1687094917.590726,-0.7498552799224854,-0.555189311504364,-0.3598357141017914,0.08258849382400513,-0.1532151699066162,0.011614948511123657,0.9206417798995972,0.11677081882953644,-1.3207509517669678,-1.123379140978101,0.5885905886373326,0.576528180944459
1687094917.67692,-0.7158445119857788,-0.609386146068573,-0.3409031927585602,0.09220260381698608,-0.1767008900642395,-0.004570990800857544,0.6383560299873352,0.05282646045088768,-0.8088734149932861,-1.126348828681218,0.6552861455598968,0.5929604034531757
1687094917.6910892,-0.6977930665016174,-0.6351792216300964,-0.3311075270175934,0.09250742197036743,-0.1580030918121338,0.03630778193473816,0.06247112154960632,-0.021649107336997986,-0.31309378147125244,-1.1277505197019027,0.6882405488940437,0.5998095615816004
1687094917.7338161,-0.6964649558067322,-0.634777843952179,-0.3346547484397888,0.023598134517669678,-0.002139270305633545,-0.006928503513336182,-0.13677960634231567,-0.1794348657131195,-0.029361672699451447,-1.1228661833974056,0.6877210102438494,0.5810417844115777
1687094917.826133,-0.6967880129814148,-0.6376237273216248,-0.32851579785346985,0.04175865650177002,-0.07720476388931274,0.029962360858917236,0.1324005424976349,-0.02365047298371792,-0.004168969579041004,-1.1302307137502836,0.6914096540657033,0.584802912552405
1687094917.841157,-0.7005869150161743,-0.6340405344963074,-0.3273691236972809,0.006891846656799316,-0.03435546159744263,0.01901954412460327,-0.10340540111064911,-0.02085908129811287,0.1588367372751236,-1.1336669543960587,0.6867671659098684,0.5870746991818843
1687094917.882668,-0.7039545774459839,-0.6286576986312866,-0.33051106333732605,0.009237110614776611,0.013881087303161621,0.010045945644378662,-0.15288399159908295,0.003563971258699894,0.05841398239135742,-1.131839943585593,0.6798259738834224,0.5838814621237479
1687094917.97734,-0.7055066823959351,-0.6252181529998779,-0.33371061086654663,-0.007292389869689941,0.014973342418670654,0.02255338430404663,-0.05916436389088631,0.007767904084175825,0.058192141354084015,-1.1289741943962406,0.6754109897193451,0.57999636868849
1687094917.991777,-0.7071031928062439,-0.6224217414855957,-0.3355536162853241,0.0037645697593688965,0.01574760675430298,-0.008989781141281128,-0.02366402931511402,-0.0212461706250906,0.02616283670067787,-1.1277177346680922,0.6718330584234392,0.5780734267532749
1687094918.03164,-0.709041953086853,-0.6181731820106506,-0.33929529786109924,-0.003940105438232422,-0.00409543514251709,0.009781807661056519,-0.15432429313659668,-0.010160496458411217,0.06536616384983063,-1.1244746917517794,0.6664164813983491,0.5716558617425271
1687094918.12681,-0.7100121974945068,-0.6146600246429443,-0.3436213731765747,0.05528813600540161,-0.03962153196334839,-0.006094783544540405,-0.09091230481863022,0.05024319142103195,0.08292625099420547,-1.1200584426878268,0.6619548824240007,0.5674363418579687
1687094918.141883,-0.7156619429588318,-0.6065550446510315,-0.3462931513786316,0.09559053182601929,-0.14347541332244873,-0.01599624752998352,-0.032826635986566544,0.08860043436288834,0.3620010316371918,-1.120129215640967,0.6517203670526804,0.5714708784587248
1687094918.1830568,-0.7269330620765686,-0.5901120901107788,-0.35119208693504333,0.1733899712562561,-0.20059829950332642,-0.03133043646812439,0.029743734747171402,0.2652972936630249,0.6194344162940979,-1.1207479402518818,0.6311977004293142,0.5870753606831068
1687094918.276083,-0.7460529804229736,-0.5560158491134644,-0.36640310287475586,0.1822713017463684,-0.20989900827407837,-0.012670964002609253,-0.4023618698120117,0.3433114290237427,1.0990281105041504,-1.1142762409866551,0.589584623378403,0.6020556249974554
1687094918.2925282,-0.7748097777366638,-0.49506500363349915,-0.3931671380996704,0.19026082754135132,-0.16998928785324097,0.014382988214492798,-0.7710562944412231,0.3189810514450073,1.5088127851486206,-1.101216839196337,0.5179096428558378,0.6058439273982335
1687094918.397037,-0.8064576387405396,-0.4123166799545288,-0.42381712794303894,0.18487566709518433,-0.0895601212978363,0.011509478092193604,-0.6410205364227295,0.31224682927131653,1.8642033338546753,-1.0869344738267122,0.42499549419282995,0.610953771560272
1687094918.4835591,-0.8357813954353333,-0.3193632662296295,-0.4466279149055481,0.18319356441497803,-0.0711548924446106,0.05668959021568298,-0.5619403123855591,0.3487617075443268,2.084733009338379,-1.0800216190603202,0.32505749202299317,0.6353580156104532
1687094918.494995,-0.8575592637062073,-0.2099168300628662,-0.4696032702922821,0.216644287109375,-0.03249956667423248,0.03436160087585449,-0.9552130699157715,0.2349386066198349,2.2233102321624756,-1.0697941539429636,0.21148988669986618,0.653966861945477
1687094918.4985662,-0.8725024461746216,-0.08078253269195557,-0.4818854331970215,0.26607245206832886,-0.07806145399808884,0.13088759779930115,-1.5815833806991577,-0.06032233312726021,2.4076409339904785,-1.0661869511798727,0.08087065024864441,0.656694440112518
1687094918.605406,-0.877467691898346,0.07462925463914871,-0.4737944006919861,0.29751157760620117,-0.06306309252977371,0.14009994268417358,-2.1130967140197754,-0.38270318508148193,2.6231322288513184,-1.0756967161828914,-0.0746987005076083,0.6342454229353002
1687094918.610987,-0.8681617379188538,0.23895017802715302,-0.4349692165851593,0.302884578704834,-0.028302595019340515,0.1827872395515442,-2.11064076423645,-0.6302346587181091,2.7003705501556396,-1.106330429581413,-0.2412845652238678,0.6002249944784936
1687094918.697999,-0.8366392254829407,0.3951944410800934,-0.37928375601768494,0.2636869549751282,0.002617448568344116,0.15676486492156982,-1.7508792877197266,-0.5492174625396729,2.736541271209717,-1.1451666084132368,-0.40627950630441567,0.5680103926669149
1687094918.714376,-0.7809597253799438,0.5328342318534851,-0.32586750388145447,0.28196680545806885,0.010409116744995117,0.17242518067359924,-1.3221619129180908,-0.38337457180023193,2.8008477687835693,-1.1754951140643248,-0.5619463405349263,0.5512123434508722
1687094918.783842,-0.699794590473175,0.6547695994377136,-0.28559496998786926,0.21136069297790527,0.05461156368255615,0.15742117166519165,-0.785737931728363,-0.06737585365772247,2.8723158836364746,-1.1833159482288418,-0.7138777161907721,0.5591562068108648
1687094918.79782,-0.5964241623878479,0.7589536905288696,-0.26128050684928894,0.2552986741065979,0.055651962757110596,0.14213994145393372,-0.7155199646949768,0.0538664236664772,2.96901798248291,-1.1579005406873808,-0.8617046970055372,0.5940494886564976
1687094918.8736901,-0.4718327522277832,0.8505269885063171,-0.2323310822248459,0.2149968147277832,0.08930760622024536,0.14074784517288208,-0.6984155774116516,0.2555809020996094,3.1069533824920654,-1.1132460997586144,-1.0169865269561287,0.642065421852697
1687094918.877561,-0.3327219486236572,0.9187761545181274,-0.21247698366641998,0.22165322303771973,0.11877572536468506,0.06788474321365356,-0.4790284037590027,0.017205214127898216,3.1714160442352295,-1.0024753573648044,-1.1649691323789062,0.7569423222919058
1687094918.933618,-0.18084479868412018,0.9676196575164795,-0.1760888695716858,0.19886542856693268,0.05604666471481323,0.11656440794467926,-1.12848699092865,0.23704183101654053,3.233816385269165,-0.7987217696132233,-1.3156233427426394,0.9650114602875997
1687094919.05985,-0.018493399024009705,0.9909118413925171,-0.13323558866977692,0.1925198882818222,0.2543731927871704,0.04169817268848419,-0.5109132528305054,0.1729961335659027,3.2877302169799805,-0.13792102719977167,-1.4358742229173156,1.6233129992550506
1687094919.075655,0.14450542628765106,0.9837398529052734,-0.10664907842874527,0.18239885568618774,0.13787269592285156,0.12038201838731766,-0.8570873141288757,0.25204089283943176,3.252072334289551,0.9350013142980822,-1.3902170996659677,2.697438235057874
1687094919.142096,0.30115368962287903,0.9524600505828857,-0.046112701296806335,0.21547836065292358,0.25319790840148926,0.04586857929825783,-1.3168153762817383,0.09190475195646286,3.1930434703826904,1.4188562769141924,-1.2612111662749552,-3.0977263344090424
1687094919.1558208,0.4426210820674896,0.8966299295425415,0.011880568228662014,0.2492123544216156,0.28223347663879395,0.06778562068939209,-1.113407850265503,0.024540092796087265,2.964064359664917,1.5976312807431023,-1.1120987364531616,-2.909334465544948
1687094919.235882,0.5687718391418457,0.8207576274871826,0.05343811586499214,0.1966395378112793,0.2539188861846924,0.01684391498565674,-0.8827646970748901,-0.2507074475288391,2.8443126678466797,1.6644748476606008,-0.9627360070065205,-2.8258742423577354
1687094919.240731,0.6752722263336182,0.7334233522415161,0.07808879017829895,0.1400812268257141,0.24046891927719116,0.033102042973041534,-0.8303205370903015,-0.254081130027771,2.5805089473724365,1.6859254112014574,-0.8233443984180159,-2.7817737324158416
1687094919.319906,0.7591931819915771,0.6440800428390503,0.09373713284730911,0.09937310218811035,0.3144923448562622,0.035184383392333984,-0.4289880096912384,-0.1046365350484848,2.1824512481689453,1.6936439920081936,-0.6998200555183809,-2.753901954929753
1687094919.32442,0.816164493560791,0.5674357414245605,0.10905197262763977,0.09184026718139648,0.17112016677856445,0.022158384323120117,-0.7308580279350281,0.038377877324819565,1.4980649948120117,1.7036247747156203,-0.6033883470236215,-2.740498111038135
1687094919.3804312,0.8557459115982056,0.49827101826667786,0.13937343657016754,0.012585997581481934,0.19147205352783203,0.07342565059661865,-1.0522856712341309,0.08398731052875519,1.4800082445144653,1.7322465177748632,-0.5216034569831554,-2.689323044975321
1687094919.512,0.8855648040771484,0.4338596761226654,0.16595368087291718,0.023034989833831787,0.2050258219242096,0.027863487601280212,-0.8053939938545227,0.13407723605632782,1.3858537673950195,1.7560463933518986,-0.44877223070926986,-2.6541540748355255
1687094919.525635,0.9146428108215332,0.3637344241142273,0.17642569541931152,-0.04772984981536865,0.3682907521724701,0.02277781069278717,0.4173573851585388,0.23029617965221405,1.4618366956710815,1.7613463580596564,-0.3722738034710119,-2.653499506286928
1687094919.596257,0.9285934567451477,0.3279517590999603,0.17367282509803772,-0.032627761363983154,1.1522576808929443,-0.43238556385040283,0.3986752927303314,-0.29471325874328613,0.2795194685459137,1.7556881096940806,-0.33413460909422726,-2.680841358522106
1687094919.611402,0.9244310259819031,0.34614047408103943,0.1600440889596939,-0.14569872617721558,-0.12179046869277954,0.16251146793365479,0.8130064606666565,0.4517263174057007,-0.646219789981842,1.7422241940361178,-0.35345411793330384,-2.728999442821491
1687094919.742214,0.9194448590278625,0.35961952805519104,0.15904398262500763,0.02420443296432495,-0.35710179805755615,0.28539884090423584,-0.07946132123470306,0.16131845116615295,-0.07146970927715302,1.7420796620248726,-0.36786009942535314,-2.7447852905865924
1687094919.747661,0.9176214337348938,0.357942670583725,0.1727660894393921,0.0419122576713562,-0.040956586599349976,-0.08832395076751709,0.017837075516581535,0.18113383650779724,0.13293883204460144,1.7568938216025727,-0.36606366075060803,-2.7364997135063
1687094919.8074431,0.9167385101318359,0.35814449191093445,0.1769840270280838,0.026086926460266113,0.12790903449058533,-0.21125517785549164,0.1055927574634552,0.020176637917757034,-0.06867099553346634,1.7615084051938579,-0.3662797932589736,-2.747831725038474
1687094919.811156,0.9166841506958008,0.36015668511390686,0.17313992977142334,-0.0008668899536132812,-0.04927408695220947,0.0010086297988891602,-0.26162028312683105,-0.18407955765724182,-0.07562877237796783,1.7574735132389254,-0.368435838330122,-2.737177601915711
1687094919.814497,0.9170022010803223,0.36014002561569214,0.17148134112358093,-0.004419982433319092,-0.042253732681274414,0.07091972231864929,-0.1777101755142212,-0.019907932728528976,-0.003996396437287331,1.7556632436547086,-0.3684180023394722,-2.7271937081092323
1687094919.866191,0.9174090623855591,0.35854092240333557,0.17265266180038452,0.0035045742988586426,0.05091339349746704,-0.03518618643283844,-0.07601791620254517,-0.04813211411237717,0.02229299768805504,1.7568164973177829,-0.36670444075388114,-2.719811169797628
1687094919.927827,0.9175740480422974,0.3590633273124695,0.17068064212799072,-0.016435563564300537,0.05007064342498779,-0.02317391335964203,-0.04037882760167122,-0.09218958020210266,-0.04159517213702202,1.754707336729708,-0.36726409802024645,-2.7169962893645794
1687094919.986607,0.9172265529632568,0.36181914806365967,0.16668106615543365,-0.009664177894592285,0.01617160439491272,0.014501824975013733,-0.08879949152469635,-0.12872761487960815,-0.08417272567749023,1.7505575935434259,-0.3702185249282908,-2.712607909300847
1687094920.0528212,0.9159342050552368,0.36622869968414307,0.16413787007331848,-0.007395386695861816,0.05885067582130432,-0.005156517028808594,-0.11129241436719894,-0.05736928805708885,-0.14160804450511932,1.7481168665709288,-0.374952882799474,-2.7050888072554655
1687094920.057702,0.9139583706855774,0.37126436829566956,0.16383850574493408,-0.019167721271514893,0.08999356627464294,-0.05850708484649658,-0.444854736328125,-0.15814583003520966,-0.21761146187782288,1.7481748687752234,-0.38037034101488054,-2.69255068438349
1687094920.105514,0.910081148147583,0.3793644607067108,0.16683900356292725,0.011519312858581543,0.32644617557525635,-0.05097900331020355,-0.9444687962532043,-0.38534581661224365,-0.4768315851688385,1.7521063071376195,-0.3891093047249565,-2.647946908472759
1687094920.166652,0.9009780287742615,0.40310803055763245,0.1604451835155487,-0.07027429342269897,0.6644731760025024,-0.051543235778808594,-0.45013996958732605,-0.41925904154777527,-0.981849730014801,1.747027839025702,-0.41491049480959036,-2.6048718625317293
1687094920.225937,0.8731028437614441,0.4618614912033081,0.1561259627342224,0.06468701362609863,0.6802741289138794,-0.02087201178073883,-1.1415090560913086,-0.4807913899421692,-1.855060338973999,1.7477435295472663,-0.4800928132187167,-2.552487131360977
1687094920.3194408,0.8156450390815735,0.552440881729126,0.17184856534004211,0.13120847940444946,0.833133339881897,-0.048038750886917114,-0.9503365159034729,-0.00046392675722017884,-2.9408445358276367,1.778449656329856,-0.5852897266341759,-2.461729137126584
1687094920.324692,0.7141484618186951,0.6712139844894409,0.19865575432777405,0.4323207139968872,0.5982105135917664,0.04612579941749573,-0.45530232787132263,0.3336654305458069,-3.535163640975952,1.842108663779974,-0.7358452984869276,-2.370784774982377
1687094920.3720179,0.5768957138061523,0.7844364643096924,0.2277076095342636,0.5635004043579102,0.3506648540496826,0.058333635330200195,-0.40256527066230774,0.5182202458381653,-3.792262077331543,1.9467357155045506,-0.9017869966441793,-2.255061808591057
1687094920.46437,0.41445931792259216,0.875603437423706,0.24807687103748322,0.665420413017273,0.059714555740356445,0.047608017921447754,0.029119223356246948,0.5532561540603638,-3.6700477600097656,2.1101529539598247,-1.066683695287894,-2.089954109715701
1687094920.483042,0.25097405910491943,0.9348779916763306,0.25102803111076355,0.6381708383560181,-0.07408398389816284,0.08480271697044373,0.1290426254272461,0.41526177525520325,-3.3669559955596924,2.3563019824535303,-1.2079152764350585,-1.8440646847510378
1687094920.521265,0.09674552828073502,0.9645424485206604,0.24555714428424835,0.5519360899925232,-0.1630898118019104,0.10391497611999512,0.3057094216346741,0.36302921175956726,-3.016021728515625,2.766283414895225,-1.3037042256633689,-1.4317973716615597
1687094920.583545,-0.04969695955514908,0.9737510681152344,0.2221245914697647,0.5177755355834961,-0.11307895183563232,0.10516121983528137,0.6651358604431152,0.4580988585948944,-2.786851406097412,-2.9214829400852156,-1.3411680795083765,-0.8412794613878948
1687094920.680583,-0.18839751183986664,0.9623176455497742,0.19608928263187408,0.5031100511550903,-0.23476338386535645,0.11242817342281342,0.20772066712379456,0.49846184253692627,-2.6452503204345703,-2.3761970967677475,-1.2954005370276995,-0.3046481849321314
1687094920.69803,-0.31003671884536743,0.9335543513298035,0.17987030744552612,0.3280573785305023,-0.12917214632034302,0.11540244519710541,0.21878889203071594,0.6794886589050293,-2.5322775840759277,-2.096498409751225,-1.2042044165176724,-0.033874581612026396
1687094920.730672,-0.4245162904262543,0.8905459046363831,0.16344380378723145,0.3770767152309418,-0.23522675037384033,0.01018594205379486,0.017416097223758698,0.5019550919532776,-2.1415281295776367,-1.9383155001665926,-1.0985438272009105,0.10336338329898676
1687094920.822123,-0.5205219984054565,0.8418652415275574,0.1425488144159317,0.275221586227417,-0.17967945337295532,0.028334394097328186,0.2623509466648102,0.7589537501335144,-2.0264980792999268,-1.8381000087428334,-1.0007301387498404,0.18090216168785478
1687094920.827095,-0.6071367859840393,0.7880852818489075,0.1015213280916214,0.2361193299293518,-0.16348201036453247,0.01613914966583252,0.6128383278846741,0.9505153298377991,-1.9756083488464355,-1.7364767905654284,-0.9076922398697979,0.2530258692820102
1687094920.8866758,-0.6828730702400208,0.72891765832901,0.04861695319414139,0.23051100969314575,-0.15006023645401,0.046292781829833984,0.37105512619018555,0.8730565309524536,-1.8208658695220947,-1.6418711178266503,-0.8167396534426424,0.3146417789029859
1687094921.0094671,-0.7447642087936401,0.6672622561454773,0.00936534721404314,0.17272734642028809,-0.07758629322052002,0.029819250106811523,0.2509230673313141,0.8845921158790588,-1.632398247718811,-1.5833705793147184,-0.7305270074486953,0.33386872824792957
1687094921.01477,-0.7943217754364014,0.6065272688865662,-0.034317996352910995,0.11818957328796387,-0.08946794271469116,0.03796488046646118,0.2870387136936188,0.8462713956832886,-1.5594239234924316,-1.5276190277689572,-0.6516854289379356,0.35527055375322586
1687094921.0994859,-0.8373183012008667,0.541871964931488,-0.07261410355567932,0.1331099271774292,-0.018037796020507812,0.043912358582019806,0.05154457315802574,0.9177508354187012,-1.658471703529358,-1.4842905296306068,-0.5726628033278104,0.3562891682539656
1687094921.1173,-0.8751820921897888,0.46805423498153687,-0.12239915877580643,0.13851827383041382,0.029443293809890747,0.0587700679898262,0.4481954574584961,1.1072630882263184,-1.7427653074264526,-1.431841963526416,-0.4870876466106415,0.3582312476569094
1687094921.1843371,-0.9043427109718323,0.3848695456981659,-0.184499129652977,0.13264459371566772,0.002245992422103882,0.05069480836391449,0.6651744246482849,1.1136090755462646,-1.7576637268066406,-1.3695435553982753,-0.3950664775438662,0.37371175609824914
1687094921.2003589,-0.9224510788917542,0.29493585228919983,-0.24919238686561584,0.13927847146987915,0.0004590153694152832,0.033845141530036926,0.8201064467430115,1.1017820835113525,-1.8019542694091797,-1.3069525391344479,-0.2993883881654969,0.3917681532784706
1687094921.273943,-0.9307160973548889,0.19587442278862,-0.30887022614479065,0.13318496942520142,0.022875547409057617,0.020784348249435425,1.156924843788147,1.0001684427261353,-1.906602382659912,-1.250369653104469,-0.19714907303081355,0.4113570507051205
1687094921.2775788,-0.9276157021522522,0.08413303643465042,-0.36393794417381287,0.1442752480506897,0.011005505919456482,-0.004042983055114746,1.3493083715438843,0.9126284122467041,-1.9992401599884033,-1.196913413824864,-0.0842326043798915,0.4366729163755636
1687094921.334439,-0.9147137403488159,-0.033695120364427567,-0.40269532799720764,0.11184197664260864,-0.011974457651376724,-0.01940852403640747,1.3645180463790894,0.767689049243927,-1.9599223136901855,-1.1560867789289195,0.033701499181071064,0.4603053851998922
1687094921.4259381,-0.8912152051925659,-0.15455631911754608,-0.42643633484840393,0.09842950105667114,-0.06320187449455261,-0.02978616952896118,1.6008327007293701,0.6078944802284241,-1.8641281127929688,-1.1245054135805956,0.15517835430834473,0.4929582153475974
1687094921.431829,-0.8608603477478027,-0.25623390078544617,-0.43961775302886963,0.09834814071655273,-0.09137657284736633,-0.04767167568206787,1.1197131872177124,0.5685200095176697,-1.5695055723190308,-1.0986471729817675,0.259124017188191,0.5129077892185513
1687094921.485783,-0.8289507031440735,-0.34706246852874756,-0.43862098455429077,0.12281978130340576,-0.09603750705718994,-0.05336812138557434,1.2634974718093872,0.32343292236328125,-1.4052727222442627,-1.0841188134753281,0.35443706095034816,0.5344915235924462
1687094921.5778232,-0.8011195659637451,-0.4184475541114807,-0.4279123544692993,0.07460290193557739,-0.1287478804588318,-0.05296829342842102,0.8084539175033569,0.13326896727085114,-1.0443803071975708,-1.0802089068807228,0.43173535783142064,0.5503086752645716
1687094921.5839481,-0.7801439166069031,-0.47033312916755676,-0.4125075042247772,0.0761185884475708,-0.12248608469963074,-0.03704690933227539,0.8011815547943115,-0.014821028336882591,-0.6675367951393127,-1.0844077001860433,0.4896682221806571,0.5684237724057105
1687094921.668288,-0.7700609564781189,-0.4997829496860504,-0.3965137004852295,0.05102109909057617,-0.22632181644439697,-0.02453729510307312,0.37184619903564453,-0.0866953507065773,-0.17210790514945984,-1.095290331936383,0.5233481550967584,0.5876909424661058
1687094921.759262,-0.774297833442688,-0.5017569661140442,-0.38562023639678955,0.06455045938491821,-0.033948659896850586,-0.045516788959503174,0.19641534984111786,-0.2475554645061493,0.093208447098732,-1.1087293715017188,0.5256287049091475,0.5954349332982098
1687094921.764931,-0.7794416546821594,-0.5027033090591431,-0.3738452196121216,-0.024574458599090576,0.03013855218887329,0.05795776844024658,0.24672244489192963,0.04042039066553116,0.021261289715766907,-1.1235754248978493,0.5267230816689361,0.6070903807458643
1687094921.849268,-0.7761996984481812,-0.5100398063659668,-0.370639443397522,-0.017089486122131348,0.03355354070663452,0.018008828163146973,0.20238648355007172,0.13124682009220123,-0.12314941734075546,-1.1253059284546998,0.5352310539780939,0.6205766086325355
1687094921.8674011,-0.7731342911720276,-0.5131717920303345,-0.37271732091903687,0.019304275512695312,-0.009655296802520752,-0.014596521854400635,-0.03902261331677437,-0.006232866086065769,-0.018770549446344376,-1.12158224823799,0.5388762536502913,0.6223158943254307
1687094921.933909,-0.773691713809967,-0.5116959810256958,-0.3735886216163635,-0.010426938533782959,0.0144120454788208,0.006340086460113525,-0.079132080078125,-0.013287579640746117,-0.015441331081092358,-1.1209504540199666,0.5371575890838564,0.6184904635830015
1687094921.949817,-0.7726390957832336,-0.5130627751350403,-0.37389206886291504,-0.031102299690246582,0.016053617000579834,0.008764594793319702,-0.015339786186814308,0.02195003442466259,-0.04273660108447075,-1.1200988770036269,0.5387492432615557,0.61588191368153
1687094922.058972,-0.7717472314834595,-0.5133399963378906,-0.3753507435321808,-0.011486411094665527,-0.040859222412109375,-0.013824641704559326,-0.08722855895757675,0.015617971308529377,0.01005816925317049,-1.1181162116311048,0.5390722181049139,0.6144645428750841
1687094922.063929,-0.7725765705108643,-0.5101587772369385,-0.3779729902744293,0.015099704265594482,-0.0006444454193115234,-0.02058655023574829,-0.11227346211671829,-0.059702616184949875,0.023461859673261642,-1.1157961904930882,0.535369421525289,0.609595566228456
1687094922.148597,-0.7738950252532959,-0.5063103437423706,-0.380442351102829,0.0044248104095458984,0.0036553144454956055,0.011835813522338867,-0.15077976882457733,-0.040474459528923035,0.031428173184394836,-1.1138959211274695,0.5309008008122462,0.60149547030284
1687094922.154527,-0.7739655375480652,-0.5049095153808594,-0.3821568489074707,0.0064789652824401855,0.003032684326171875,0.003067493438720703,-0.022086039185523987,0.021095028147101402,0.0015291301533579826,-1.1121494261003826,0.5292771529643163,0.5985642279977726
1687094922.2701101,-0.7730759978294373,-0.5039758682250977,-0.38517770171165466,-0.003840506076812744,0.0021905899047851562,-0.02159106731414795,-0.046642713248729706,0.059775978326797485,0.0070573193952441216,-1.1085573873344754,0.5281958441167715,0.5964569273546222
1687094922.289213,-0.7727905511856079,-0.500609278678894,-0.39010924100875854,-0.00479733943939209,0.013884425163269043,-0.017941296100616455,-0.1253981739282608,0.04151801019906998,0.0220586396753788,-1.1033113793317835,0.524302424974528,0.5912660383122021
1687094922.359007,-0.7721061706542969,-0.4982421100139618,-0.3944704830646515,-0.015506744384765625,0.024243056774139404,-0.006316840648651123,0.019986044615507126,0.07896818220615387,0.010088530369102955,-1.0984653106251947,0.5215701347284941,0.5873833648529003
1687094922.36253,-0.771242082118988,-0.4989182651042938,-0.3953051269054413,-0.0053691864013671875,0.007249593734741211,-0.02154967188835144,0.003649883670732379,0.02051246166229248,-0.009236698970198631,-1.097154075101416,0.5223501456674962,0.589104667111962
1687094922.441035,-0.7713268995285034,-0.49793487787246704,-0.3963783383369446,-0.007481694221496582,-0.006276547908782959,-0.02172774076461792,-0.046291377395391464,-0.00792756862938404,0.008342561312019825,-1.0960973632586484,0.5212158211592686,0.5873481786320021
1687094922.444244,-0.7712948322296143,-0.49632200598716736,-0.39845797419548035,0.018410921096801758,-0.0019690096378326416,-0.027109622955322266,-0.07989567518234253,-0.008121446706354618,0.0226658396422863,-1.0939498493421733,0.5193569641387914,0.5844791716291801
1687094922.535121,-0.771363377571106,-0.49474143981933594,-0.40028664469718933,0.017396092414855957,0.01309773325920105,-0.01649188995361328,-0.016752060502767563,-0.0036195064894855022,-0.006773540750145912,-1.0921165601770115,0.5175372837731826,0.5818009888029368
1687094922.554225,-0.7710890173912048,-0.49501392245292664,-0.4004785418510437,0.007340848445892334,0.004520148038864136,-0.013126194477081299,0.01069188117980957,0.005059868562966585,-0.006381257437169552,-1.0917750637795833,0.5178508680717949,0.5814607518138105
1687094922.623177,-0.7706137895584106,-0.4953107237815857,-0.4010259509086609,0.0017844438552856445,-0.011738866567611694,-0.00011235475540161133,0.014541746117174625,0.0337170772254467,0.007558527402579784,-1.0909637331544981,0.5181924652379278,0.5816724489444162
1687094922.626982,-0.7702746987342834,-0.49570411443710327,-0.40119102597236633,0.014842629432678223,-0.019615650177001953,-0.007195115089416504,0.038609132170677185,0.03306007757782936,0.03067290037870407,-1.0906148521419663,0.5186453644316362,0.5843577178801034
1687094922.717922,-0.7734490036964417,-0.49162283539772034,-0.4001045823097229,0.04613882303237915,-0.10717782378196716,-0.0258597731590271,0.05856606364250183,0.012975050136446953,0.2606384754180908,-1.0934053048343892,0.5139523734748167,0.5916695729190141
1687094922.735637,-0.7818583846092224,-0.47804075479507446,-0.4002178907394409,0.10609245300292969,-0.14467042684555054,-0.01624014973640442,0.0833781361579895,0.08126449584960938,0.5127364993095398,-1.0976897251648967,0.4984227264633456,0.6052336901811759
1687094922.775408,-0.7941180467605591,-0.45474424958229065,-0.4032175540924072,0.13425159454345703,-0.13444343209266663,0.014621913433074951,0.17001096904277802,0.18266448378562927,0.7654364109039307,-1.100963837247587,0.47208501980126455,0.6276949230539303
1687094922.862191,-0.8085761666297913,-0.4223070740699768,-0.40970900654792786,0.15704113245010376,-0.15441414713859558,0.029231131076812744,0.1817174255847931,0.31801727414131165,1.0319207906723022,-1.1017996828174281,0.4359889772668242,0.659016939635034
1687094922.867074,-0.823667049407959,-0.37823963165283203,-0.4225015342235565,0.1627935767173767,-0.15648940205574036,0.044297218322753906,0.056141652166843414,0.4628945589065552,1.2863655090332031,-1.096840999145424,0.3878938945865813,0.694380618295187
1687094922.926536,-0.8393242955207825,-0.3168012499809265,-0.4417824447154999,0.16110163927078247,-0.1455400586128235,0.05405667424201965,-0.23789949715137482,0.41380488872528076,1.601131796836853,-1.0862877748172832,0.32235511490195895,0.7268978868049453
1687094923.0193958,-0.8539375066757202,-0.23237352073192596,-0.4656107723712921,0.15932685136795044,-0.11700700223445892,0.0620463490486145,-0.7713220119476318,0.39770954847335815,1.8236870765686035,-1.0716060465882482,0.23451729143146827,0.7454351678110577
1687094923.037839,-0.8649370670318604,-0.12866954505443573,-0.4851062297821045,0.20618462562561035,-0.08304615318775177,0.07595711946487427,-1.0441259145736694,0.14347846806049347,2.019940137863159,-1.0596556326235334,0.12902726178718033,0.7527306916336864
1687094923.074589,-0.8707438111305237,-0.00780497258529067,-0.4916749596595764,0.22381693124771118,-0.06816855072975159,0.11795678734779358,-1.4103257656097412,-0.053221412003040314,2.1563403606414795,-1.0567668675728892,0.007805051990157227,0.7508588831327346
1687094923.160695,-0.8671631217002869,0.12519767880439758,-0.4820306599140167,0.22633981704711914,-0.05631951987743378,0.1410883665084839,-1.6723610162734985,-0.08757858723402023,2.2159390449523926,-1.0634569505902427,-0.1255270691311429,0.7349881787707376
1687094923.164027,-0.8469239473342896,0.2601303160190582,-0.4637371599674225,0.23542797565460205,-0.029768377542495728,0.15749329328536987,-1.58745539188385,0.001201347797177732,2.2406563758850098,-1.069832470141748,-0.2631571746115302,0.7180487944740316
1687094923.225385,-0.8131809234619141,0.3902246057987213,-0.4318118393421173,0.28008460998535156,-0.038189083337783813,0.1569858193397522,-1.767952799797058,-0.1610420197248459,2.231175422668457,-1.0826451472263505,-0.4008755278265449,0.6963929490613713
1687094923.287405,-0.7653222680091858,0.5154951214790344,-0.3854176700115204,0.2524133324623108,-0.010322391986846924,0.12643027305603027,-1.6001325845718384,-0.1873423308134079,2.306154727935791,-1.1042714207041038,-0.5415853656303894,0.6699732289935149
1687094923.4386091,-0.6990288496017456,0.6317958235740662,-0.33495181798934937,0.2813500165939331,-0.015050828456878662,0.11493539810180664,-1.610533356666565,-0.18923704326152802,2.514458656311035,-1.1239532856242829,-0.6838678037499122,0.65062910973193
1687094923.4572759,-0.6101773977279663,0.7450074553489685,-0.26953184604644775,0.27338534593582153,-0.013974130153656006,0.12211674451828003,-1.6822377443313599,-0.21388672292232513,2.8565356731414795,-1.1548434630968782,-0.8405460372726714,0.6210065101263961
1687094923.529264,-0.4942812919616699,0.8436200618743896,-0.20974086225032806,0.26010462641716003,0.04402947425842285,0.11121487617492676,-1.2848832607269287,-0.08730268478393555,3.015249252319336,-1.1694890495713983,-1.0039899868365278,0.6099057054854621
1687094923.533406,-0.35541296005249023,0.923197865486145,-0.1462445855140686,0.27896642684936523,0.08044904470443726,0.10529005527496338,-1.1852260828018188,-0.10473787039518356,3.3148975372314453,-1.1804345125185818,-1.176319726885463,0.6034452348356414
1687094923.536973,-0.19560427963733673,0.9743996262550354,-0.11083558201789856,0.20292846858501434,0.1493491530418396,0.10215330123901367,-0.514661431312561,0.01791241578757763,3.3969006538391113,-1.0552738071143126,-1.3440350582928897,0.7368507675832225
1687094923.587614,-0.029998213052749634,0.9969995021820068,-0.07135872542858124,0.24754273891448975,0.11661744117736816,0.11403757333755493,-1.2255120277404785,-0.06117960810661316,3.328842878341675,-0.39795611795950003,-1.4933112354290163,1.4002876581562433
1687094923.679932,0.13689036667346954,0.9905319213867188,-0.010374996811151505,0.21604539453983307,0.24971777200698853,0.1168050765991211,-1.009069561958313,-0.14836522936820984,3.364183187484741,1.495150393287146,-1.4330786008768774,-2.9773106302198267
1687094923.684839,0.29650941491127014,0.9546208381652832,0.027950482442975044,0.23641905188560486,0.2684473991394043,0.10464835166931152,-0.6403989195823669,0.11884289234876633,3.180213689804077,1.6647836690522044,-1.268384062165526,-2.8057657917810923
1687094923.733768,0.4383907914161682,0.8964174389839172,0.06518785655498505,0.2602633833885193,0.27377909421920776,0.11832964420318604,-1.0634018182754517,-0.08958633989095688,2.942995309829712,1.7184127427494182,-1.1116190780402546,-2.7470027471147267
1687094923.824723,0.5606284141540527,0.8216390609741211,0.10298056155443192,0.22481769323349,0.32849210500717163,0.09320174902677536,-0.7003582119941711,-0.20224978029727936,2.715244770050049,1.7524589563807427,-0.9642805923681805,-2.6976528671031894
1687094923.8309,0.6631932258605957,0.7396945357322693,0.1141338124871254,0.16708314418792725,0.32896995544433594,0.013887383043766022,-0.30417418479919434,-0.17113487422466278,2.438838005065918,1.74122424149515,-0.8326162788839997,-2.7034962216502354
1687094923.9557729,0.7413229942321777,0.658359706401825,0.13039495050907135,0.15970849990844727,0.20565396547317505,0.037299156188964844,-0.7977375984191895,-0.14518901705741882,2.1158430576324463,1.7449101873868103,-0.7186374851098493,-2.688852887302857
1687094923.960686,0.802014946937561,0.5790113210678101,0.14669173955917358,0.057634949684143066,0.2521960735321045,0.03909936547279358,-0.6317371129989624,-0.06069011241197586,1.6756576299667358,1.751700708109791,-0.617515534458003,-2.6641507853112394
1687094923.96484,0.8486283421516418,0.5033581852912903,0.1626681238412857,0.041874706745147705,0.18963509798049927,0.08254064619541168,-0.6551458835601807,-0.019517378881573677,1.7201741933822632,1.7601827036284838,-0.5274808124801921,-2.640326829844728
1687094924.069514,0.8869016766548157,0.4286375939846039,0.17226478457450867,-0.006591677665710449,0.28240668773651123,0.0407785028219223,0.27091994881629944,0.32607501745224,1.5908132791519165,1.7626397303238455,-0.4429842887569057,-2.651436070813479
1687094924.0858788,0.9117224216461182,0.36616918444633484,0.1862320601940155,0.042150259017944336,0.25921228528022766,0.04884481430053711,0.2659972906112671,0.4732150733470917,1.3307620286941528,1.7722885011039824,-0.3748889441804665,-2.6796434949025976
1687094924.1216211,0.9232412576675415,0.335877388715744,0.18657952547073364,-0.13907688856124878,1.0410451889038086,-0.43801379203796387,0.35130980610847473,0.07508475333452225,-0.1126919835805893,1.7702024689860472,-0.3425365641955513,-2.710881025865062
1687094924.216414,0.9178930521011353,0.35024434328079224,0.18655076622962952,-0.12307804822921753,0.052694499492645264,-0.07566513121128082,1.1729373931884766,0.6493899822235107,-0.276848703622818,1.7713034218070234,-0.3578319504759964,-2.753314520594804
1687094924.234173,0.9109262228012085,0.36934128403663635,0.1838490068912506,-0.052543044090270996,-0.09962692856788635,0.17044484615325928,1.1888811588287354,0.43700677156448364,-0.16874326765537262,1.7699474672566524,-0.3783000920103802,-2.8140169727358435
1687094924.270767,0.9034541845321655,0.38327842950820923,0.19201098382472992,0.08726847171783447,-0.31667378544807434,0.2052820920944214,-0.3902082145214081,0.16209515929222107,-0.07851430773735046,1.7802102818428214,-0.3933431886053141,-2.835941939277432
1687094924.395872,0.9009011387825012,0.3811952769756317,0.20752687752246857,-0.03447657823562622,0.06423929333686829,0.022514700889587402,1.1642416715621948,0.6523463726043701,0.3330724537372589,1.797201625798763,-0.3910888560650774,-2.8421878125668916
1687094924.402237,0.8996812105178833,0.3832972049713135,0.20894211530685425,-0.05304741859436035,0.13566944003105164,-0.03978314995765686,2.666982889175415,1.1528266668319702,0.45229098200798035,1.7989912772944154,-0.39336350018896205,-2.9608887155248076
1687094924.489011,0.8946852087974548,0.3941797614097595,0.21014553308486938,0.03925967216491699,0.06543031334877014,-0.11131426692008972,2.2852253913879395,0.9532408118247986,0.2568381428718567,1.8014965582389697,-0.4051751717002694,-3.0959914687717256
1687094924.506144,0.889275312423706,0.4089549779891968,0.20480552315711975,0.0014259815216064453,0.04658094048500061,-0.015565991401672363,2.46864914894104,0.9086693525314331,0.15548141300678253,1.7971554012002076,-0.42130860384180824,3.0607392474132786
1687094924.574415,0.8836053609848022,0.42891865968704224,0.18780487775802612,0.0025031566619873047,-0.010583639144897461,0.03254738450050354,2.5091352462768555,0.6647825241088867,0.09909110516309738,1.7802236698141647,-0.4432953946176536,2.9243824739297337
1687094924.590736,0.8803423047065735,0.4459821283817291,0.1615457981824875,-0.019731521606445312,-0.0504133403301239,0.0787343680858612,2.1640403270721436,0.542149007320404,0.07027517259120941,1.7522806120699495,-0.46227126912999383,2.793775451783108
