Timestamp,gravityX,gravityY,gravityZ,accelerationX,accelerationY,accelerationZ,rotationRateX,rotationRateY,rotationRateZ,attitudeRoll,attitudePitch,attitudeYaw
1687101498.163708,0.9517782330513,0.15833987295627594,-0.26276686787605286,0.0034218430519104004,0.0030218511819839478,-0.0016525685787200928,-0.11814174801111221,-0.020822688937187195,-0.004725581966340542,1.3014263955770258,-0.1590090925684305,0.9385265954285791
1687101498.252769,0.9511429071426392,0.16052693128585815,-0.2637389600276947,-0.00212252140045166,0.002269148826599121,-0.004769802093505859,-0.11270495504140854,-0.031498394906520844,-0.01380866952240467,1.300305726138197,-0.1612244857080595,0.9438826319864566
1687101498.27367,0.9506666660308838,0.16223840415477753,-0.26440754532814026,-0.00631558895111084,-0.0074226707220077515,0.0022616684436798096,-0.09436620771884918,-0.017578210681676865,0.006764759309589863,1.2995238453786597,-0.16295868673814798,0.9491801644001095
1687101498.3095179,0.9506579041481018,0.16251824796199799,-0.26426780223846436,-0.0022478103637695312,-0.001797303557395935,0.009415596723556519,-0.050547681748867035,-0.007119871210306883,0.019153939560055733,1.2996579176626286,-0.1632422966046686,0.9530508927245467
1687101498.401644,0.9507009387016296,0.16274817287921906,-0.26397109031677246,-0.006853342056274414,-0.003309011459350586,0.006830096244812012,-0.098410964012146,-0.0056630689650774,-0.010679146274924278,1.2999593286544295,-0.16347533141261017,0.9562786416611186
1687101498.4217901,0.9508438110351562,0.16484257578849792,-0.2621503472328186,-0.0026627779006958008,-0.00041379034519195557,0.0018965303897857666,-0.10601978003978729,0.007008037995547056,-0.01277460902929306,1.3017767884106335,-0.16559840755221897,0.961914070341167
1687101498.45889,0.9506368041038513,0.16698597371578217,-0.2615435719490051,-0.0025779008865356445,-0.009362593293190002,0.00708809494972229,-0.15149511396884918,-0.01199574675410986,-0.0291108600795269,1.3023142667710124,-0.16777192045388412,0.967446875824306
1687101498.551836,0.9500252604484558,0.1705886870622635,-0.2614412009716034,0.001085519790649414,-0.01598656177520752,-0.0018185973167419434,-0.2084573209285736,-0.04009454697370529,-0.0434826985001564,1.302249825294144,-0.1714270872300006,0.9756935672926471
1687101498.570452,0.9487293362617493,0.17623703181743622,-0.2623986303806305,0.002488255500793457,-0.02912697196006775,0.004723548889160156,-0.3303621709346771,-0.09301688522100449,-0.0562724843621254,1.3009627068911946,-0.17716233606296447,0.9882439822439419
1687101498.611125,0.9468380212783813,0.18374378979206085,-0.2640754282474518,0.015518486499786377,-0.03873942792415619,0.011008530855178833,-0.45203471183776855,-0.12364637851715088,-0.05534756928682327,1.2988056958556438,-0.1847937455485351,1.0069457160224813
1687101498.7025928,0.9447158575057983,0.192823588848114,-0.26519960165023804,0.01388692855834961,-0.04934513568878174,0.0199604332447052,-0.506600022315979,-0.11646905541419983,-0.0564299002289772,1.2971211052496516,-0.19403892742364828,1.0297516193771115
1687101498.720683,0.9430999159812927,0.201952263712883,-0.2641543745994568,0.026565492153167725,-0.06643889844417572,0.026834577322006226,-0.5993525385856628,-0.09032250940799713,-0.0018440866842865944,1.2977026856809029,-0.20335084720349408,1.0567481287359992
1687101498.7594562,0.9423964023590088,0.20806340873241425,-0.26191285252571106,0.01301729679107666,-0.05536864697933197,0.01012769341468811,-0.6253931522369385,-0.06934185326099396,0.07151003926992416,1.299715432012609,-0.20959462272567556,1.0868127337989875
1687101498.855383,0.9427164196968079,0.2119521200656891,-0.25760820508003235,0.006731152534484863,-0.05150589346885681,-0.0018826723098754883,-0.8290841579437256,-0.055971674621105194,0.16432273387908936,1.3040470146423062,-0.21357203798576718,1.1245168198798285
1687101498.859119,0.9441126585006714,0.21252323687076569,-0.2519623935222626,0.009012281894683838,-0.011458128690719604,-0.023016154766082764,-0.7343159914016724,-0.08936873078346252,0.24581649899482727,1.3099971358877853,-0.21415646320310477,1.1672953780465325
1687101498.9097261,0.9452501535415649,0.20757198333740234,-0.25182557106018066,0.0038770437240600586,0.036751747131347656,-0.02554863691329956,-0.338081955909729,-0.1432170867919922,0.2576892673969269,1.3104321236689669,-0.20909223294703286,1.1974923434332283
1687101499.00579,0.9459686279296875,0.1989792138338089,-0.2560286223888397,-0.004760682582855225,0.016078203916549683,-0.002333134412765503,-0.34628063440322876,-0.14348550140857697,0.23025357723236084,1.3064765692836084,-0.2003162010830128,1.2147865859939901
1687101499.0115771,0.9463531374931335,0.19455461204051971,-0.25800007581710815,-0.006945908069610596,0.013499006628990173,0.010166972875595093,-0.4613924026489258,-0.10612405091524124,0.17172197997570038,1.3046389493216992,-0.19580336830167877,1.2384147392381086
1687101499.06066,0.9465975761413574,0.1920810043811798,-0.25895562767982483,-0.00014066696166992188,0.03249788284301758,0.014570951461791992,-0.37164685130119324,-0.1016937866806984,0.15796011686325073,1.303765040216821,-0.19328220289557754,1.2606179294307092
1687101499.183852,0.9469446539878845,0.19060729444026947,-0.2587752342224121,-0.011992931365966797,0.015706807374954224,0.017274439334869385,-0.4802617132663727,-0.06656067073345184,0.13519170880317688,1.3040355946208593,-0.19178073967705728,1.2833418108607526
1687101499.2017732,0.9473593831062317,0.19038251042366028,-0.2574194371700287,-0.008760690689086914,0.035493433475494385,0.010455995798110962,-0.4833831489086151,-0.06937973201274872,0.1340768188238144,1.3054791678342215,-0.19155176435722548,1.3084670569466883
1687101499.269279,0.9467199444770813,0.19192767143249512,-0.2586212456226349,-0.01185983419418335,0.017606034874916077,-0.03485092520713806,-0.8373866081237793,-0.15736864507198334,0.11365494132041931,1.3041265735027032,-0.19312596399168347,1.3384062185784515
1687101499.273413,0.941875696182251,0.20833468437194824,-0.2635655999183655,0.13943839073181152,-0.011709898710250854,-0.21351557970046997,-1.6326128244400024,-0.7924256920814514,-0.15914307534694672,1.297944755007362,-0.20987196859141322,1.3950839064765308
1687101499.364402,0.9155932068824768,0.28383633494377136,-0.2848261296749115,-0.1326189637184143,0.07097622752189636,-0.22158238291740417,-4.442440509796143,-0.9943704009056091,-1.9369559288024902,1.2692022582137796,-0.28779262705333164,1.5355597272070278
1687101499.382731,0.8543410897254944,0.43632060289382935,-0.282357394695282,0.3739151358604431,0.4550520181655884,-0.39118069410324097,-2.076695442199707,-1.9099457263946533,-2.4794845581054688,1.2516004192506731,-0.4515054465973043,1.688064444128356
1687101499.454046,0.7607499957084656,0.5602420568466187,-0.3277014493942261,0.09842664003372192,0.2602840065956116,-0.09914779663085938,-0.09458298981189728,-1.6525758504867554,-2.6808784008026123,1.1640561807565373,-0.5946779891822467,1.6802449091208238
1687101499.458832,0.660493016242981,0.6427481770515442,-0.3881027102470398,0.02290242910385132,-0.09756696224212646,0.12223362922668457,0.20210658013820648,-1.3672367334365845,-1.9980019330978394,1.0395477244080285,-0.6980802554241775,1.6052746897738859
1687101499.510126,0.5886160731315613,0.6883751153945923,-0.42387568950653076,-0.040611982345581055,-0.24667906761169434,0.2828387916088104,-0.06281952559947968,-0.7821945548057556,-0.9988714456558228,0.9466926230767261,-0.7592465438135164,1.5463491605885895
1687101499.6019912,0.5633255839347839,0.701269268989563,-0.43690451979637146,-0.04115450382232666,-0.32219523191452026,0.3829342722892761,0.22749070823192596,-0.11554323136806488,0.06402654200792313,0.9111234903539422,-0.7771763850862988,1.5270375619141596
1687101499.6202369,0.5799596309661865,0.6752107739448547,-0.4557819068431854,0.03483229875564575,-0.2638643980026245,0.38423359394073486,1.078167200088501,0.34844163060188293,0.7444634437561035,0.904721158303505,-0.7412503754102239,1.509788557261934
1687101499.660063,0.62393718957901,0.6170610785484314,-0.47951847314834595,0.08733606338500977,-0.25350522994995117,0.3155628442764282,1.2172868251800537,0.7856093645095825,1.074660301208496,0.9155370717369592,-0.6650024754546339,1.481521814632003
1687101499.753954,0.6786407828330994,0.5649798512458801,-0.46930190920829773,0.15348201990127563,-0.2982868552207947,0.19073763489723206,-0.2366052269935608,0.8338902592658997,1.1771178245544434,0.9657761196111276,-0.6004088533522222,1.4931079378662728
1687101499.771929,0.7272027730941772,0.5560265779495239,-0.4025053083896637,0.15646427869796753,-0.3010522723197937,-0.07726144790649414,-3.211893320083618,0.3452763855457306,1.4066776037216187,1.0652714590874084,-0.589597589684789,1.6149369656508965
1687101499.809144,0.7690675258636475,0.5774611830711365,-0.273995965719223,0.07678830623626709,-0.08982080221176147,-0.2365935742855072,-4.485908031463623,-0.37028029561042786,1.365444302558899,1.228546397296376,-0.6156155549139642,1.8937112997019596
1687101499.9025521,0.7817429304122925,0.5899153351783752,-0.20218245685100555,-0.02318274974822998,0.5264937877655029,-0.498668909072876,-2.86897349357605,-0.6957103610038757,0.06029003486037254,1.3177116095883472,-0.6309539922140232,2.1190662153622055
1687101499.9209828,0.7480885982513428,0.630484402179718,-0.20700885355472565,0.14850258827209473,0.6598901748657227,-0.741355299949646,-0.9177436232566833,-1.987227201461792,-1.253021478652954,1.3008345042548386,-0.6821771298503965,2.206420159567495
1687101499.95837,0.6793279051780701,0.7001592516899109,-0.2197512537240982,0.1738826036453247,0.3021446466445923,-0.3076840043067932,-2.270533800125122,-2.381417989730835,-1.365347146987915,1.257936807497208,-0.7756205570779431,2.300663475312407
1687101500.0539,0.6157042384147644,0.751624345779419,-0.23657771944999695,-0.03689253330230713,0.166451096534729,0.03769463300704956,-0.7411690950393677,-2.1539413928985596,-0.6934388875961304,1.2039502308737555,-0.8505212625785554,2.3863239456452603
1687101500.071238,0.5856172442436218,0.7574695944786072,-0.2886035144329071,0.15237408876419067,-0.3072134852409363,0.3043506443500519,0.036715053021907806,-1.663446068763733,0.37584200501441956,1.1129097173164444,-0.8594285427658657,2.397767185563044
1687101500.109211,0.5909658670425415,0.7220773100852966,-0.3596716523170471,0.17131757736206055,-0.3719187378883362,0.4512701630592346,1.4874675273895264,-1.1707030534744263,0.9311811327934265,1.0240651214858223,-0.806800350984981,2.380825230789057
1687101500.208675,0.6038640737533569,0.6568235158920288,-0.4515869915485382,0.14140576124191284,-0.31705623865127563,0.45460832118988037,1.6201882362365723,-0.6470856666564941,0.7731481194496155,0.9286862005537367,-0.7165984016918565,2.3050547004797415
1687101500.214071,0.6125720739364624,0.6340489983558655,-0.4719504117965698,0.0813518762588501,-0.4134070873260498,0.4292410910129547,-0.8274208903312683,-0.16984598338603973,0.35726308822631836,0.914341051583609,-0.686778093557462,2.3144520133627893
1687101500.258877,0.6206211447715759,0.6477100253105164,-0.44192883372306824,-0.05055266618728638,-0.09715777635574341,0.22725290060043335,-0.7972642183303833,0.22930970788002014,0.14779682457447052,0.9520121832055263,-0.7045749315217172,2.3710726948338943
1687101500.384285,0.6292370557785034,0.6582512259483337,-0.4132384657859802,-0.009074032306671143,0.09667718410491943,0.025878846645355225,-0.5564810633659363,0.15725448727607727,0.14827704429626465,0.9897049973645705,-0.7184933565893872,2.4120053974553195
1687101500.402458,0.6402153968811035,0.6589832305908203,-0.3947977125644684,-0.056841373443603516,0.11359959840774536,-0.017479509115219116,-0.48878946900367737,0.11651019006967545,0.3788985013961792,1.0182140188687392,-0.719466137257568,2.4464454130583246
1687101500.46749,0.6560003757476807,0.6516202092170715,-0.38086047768592834,-0.03454035520553589,0.13483291864395142,-0.03483474254608154,-0.004120259545743465,0.07620538026094437,0.4078686237335205,1.0447788595830558,-0.709718404110711,2.479718295914507
1687101500.471174,0.6693852543830872,0.6350052952766418,-0.38560542464256287,-0.018201112747192383,0.09174013137817383,-0.042144209146499634,0.27805107831954956,0.06124353036284447,0.3396061062812805,1.048166505463067,-0.6880153610563446,2.4789485753458615
1687101500.564928,0.6779555082321167,0.6241775751113892,-0.38830238580703735,-0.010627508163452148,0.04810929298400879,-0.010608136653900146,0.02791021764278412,0.0986470952630043,0.07355362176895142,1.0506508640868364,-0.6740784251235484,2.4765281968574286
1687101500.5833778,0.6796282529830933,0.6261838674545288,-0.382098525762558,0.002134561538696289,0.02173471450805664,-0.019924819469451904,-0.1851397305727005,0.07492418587207794,-0.03543759882450104,1.0586219034128903,-0.6766490279028161,2.482704556598916
1687101500.648333,0.670879065990448,0.6410514116287231,-0.3727925717830658,0.04497182369232178,0.19731205701828003,0.12488299608230591,-0.13261421024799347,0.40517666935920715,-0.9530349373817444,1.0636044467669952,-0.6958674147303225,2.4804038852805204
1687101500.6620378,0.6302070617675781,0.6935620903968811,-0.34901389479637146,0.042873501777648926,0.44723063707351685,0.28343164920806885,0.07813360542058945,1.1037633419036865,-2.1896486282348633,1.0650339691671085,-0.7664219630214175,2.4300045850392253
1687101500.709251,0.5599319934844971,0.7583293318748474,-0.3337852358818054,0.1365554928779602,0.4618242383003235,0.3540641963481903,1.7559295892715454,1.990493893623352,-3.1897034645080566,1.033236536610255,-0.8607464446183368,2.2867487309834758
1687101500.8013902,0.4396924376487732,0.8122951984405518,-0.383206307888031,0.46878546476364136,0.5966097116470337,0.4688234329223633,3.299736261367798,2.3918776512145996,-4.712705612182617,0.8539335175850272,-0.9480766119728985,1.9109601780914838
1687101500.818645,0.27253785729408264,0.8528630137443542,-0.44536226987838745,0.7041009664535522,0.1548578143119812,0.4809916317462921,0.9944184422492981,1.7518725395202637,-5.567939281463623,0.54915738844919,-1.0214442848698104,1.424597285051679
1687101500.858603,0.06181710213422775,0.903361976146698,-0.4244002401828766,0.7395135760307312,-0.08718472719192505,0.32767489552497864,-0.9318332672119141,1.3962359428405762,-5.397702217102051,0.1446403817020643,-1.1275448813219693,0.8851985229696581
1687101500.9550362,-0.13521915674209595,0.9098738431930542,-0.39223137497901917,0.4868885278701782,-0.20734381675720215,0.18512386083602905,-0.9118683934211731,1.8312932252883911,-4.670257091522217,-0.33198419075814845,-1.1429798811568344,0.2696331683036025
1687101500.959122,-0.28034642338752747,0.8875499963760376,-0.3655964434146881,0.497173935174942,-0.4279400110244751,-0.13278603553771973,-0.8209178447723389,1.273276686668396,-2.935349941253662,-0.6541788630149461,-1.0919998047026716,-0.1734422914485032
1687101501.0099149,-0.3441599905490875,0.8781645894050598,-0.3322359025478363,0.2881755530834198,-0.5947783589363098,-0.647118866443634,-1.6907933950424194,1.2521734237670898,-1.0454319715499878,-0.8030252041745521,-1.0720116960355763,-0.41625610414681785
1687101501.133038,-0.3262998163700104,0.8926612734794617,-0.31094107031822205,0.10669535398483276,-0.3293067216873169,-0.6339592933654785,-0.10833683609962463,1.9835742712020874,0.42669180035591125,-0.8094954619346725,-1.1032154224382735,-0.5199876693872729
1687101501.1519551,-0.27982568740844727,0.8958531618118286,-0.34517303109169006,0.20182287693023682,-0.061258554458618164,-0.457011878490448,0.48311492800712585,0.6667128801345825,0.43525269627571106,-0.6812206978548205,-1.110347475430581,-0.45874071065723104
1687101501.219933,-0.26463428139686584,0.8910179734230042,-0.368856817483902,-0.10940432548522949,0.0971105694770813,-0.06754443049430847,0.15552394092082977,-0.05889561027288437,0.14030180871486664,-0.6223379779367241,-1.0995826882085713,-0.3996094815506179
1687101501.234515,-0.26650288701057434,0.8932542204856873,-0.36204028129577637,-0.16387125849723816,0.1186019778251648,0.12060055136680603,-0.27421513199806213,-0.030503224581480026,-0.21566234529018402,-0.634554626696249,-1.1045326601633392,-0.41458994841414065
1687101501.310215,-0.27782946825027466,0.895257830619812,-0.34831586480140686,-0.01770266890525818,-0.03669160604476929,0.02386835217475891,-0.24578140676021576,-0.046175554394721985,-0.1603173017501831,-0.6732981776676522,-1.1090094987275576,-0.45089181940817047
1687101501.314009,-0.28093087673187256,0.89573734998703,-0.3445756137371063,0.08976882696151733,-0.015549421310424805,-0.011121898889541626,-0.0816705971956253,0.26698416471481323,-0.052137330174446106,-0.6839980014872777,-1.110086892875327,-0.47066974268018164
1687101501.403851,-0.27721846103668213,0.8967806100845337,-0.3448686897754669,0.1031157374382019,-0.04646933078765869,-0.05654418468475342,0.06572971493005753,0.05710268393158913,0.06421320885419846,-0.6770766642251993,-1.112439180791423,-0.47134782168639316
1687101501.421421,-0.2716843783855438,0.8956649303436279,-0.3520963490009308,-0.06123185157775879,-0.01176905632019043,0.02206408977508545,0.08085279166698456,0.20229066908359528,0.07735290378332138,-0.6571945806472508,-1.109924091746422,-0.45878902042425307
1687101501.45782,-0.26719406247138977,0.8959805369377136,-0.35471999645233154,0.018597900867462158,0.030853629112243652,-0.005951881408691406,0.012057804502546787,-0.03573133051395416,0.021971585229039192,-0.6455800535009955,-1.1106342266287683,-0.45064922329704815
1687101501.554461,-0.2668038308620453,0.8961634635925293,-0.3545514643192291,-0.0019034147262573242,0.003754138946533203,0.01934647560119629,0.019300004467368126,0.01597500778734684,0.03716174513101578,-0.645106116158809,-1.1110463767065966,-0.4489970379521807
1687101501.572906,-0.2667173147201538,0.8970123529434204,-0.3524635434150696,0.07692858576774597,0.020742714405059814,-0.08290007710456848,0.02329341694712639,-0.17795558273792267,-0.024859678000211716,-0.6477900614634583,-1.1129631792147212,-0.44905257828358736
1687101501.6079578,-0.2711760699748993,0.8951200246810913,-0.35386931896209717,0.0033538639545440674,0.028647005558013916,-0.00028702616691589355,0.024966146796941757,-0.08728747069835663,-0.034725580364465714,-0.6538624496464023,-1.1087004153201059,-0.4456435327081757
1687101501.704329,-0.277764230966568,0.8953172564506531,-0.3482154607772827,0.003960549831390381,0.09275037050247192,-0.018529415130615234,-0.1681414693593979,-0.00016758288256824017,-0.31666266918182373,-0.6733241944485541,-1.1091429336891094,-0.46511588491914796
1687101501.7226,-0.31119096279144287,0.8730482459068298,-0.37542906403541565,-0.18195778131484985,0.25985580682754517,-0.3335399627685547,1.5356916189193726,-0.10092738270759583,-1.3701099157333374,-0.6921127107697552,-1.0614188460834106,-0.48762173205101916
1687101501.7577791,-0.38394245505332947,0.8013923764228821,-0.45864835381507874,-0.8243246078491211,-0.05764847993850708,-0.4557192027568817,2.475032091140747,-0.8865172863006592,-0.7358728647232056,-0.6969672726194301,-0.9296193994363828,-0.4383251857317979
1687101501.8542871,-0.39938515424728394,0.7694283127784729,-0.4984690248966217,-0.6440565586090088,-0.3288918733596802,-0.13481637835502625,0.030040109530091286,-0.6264749765396118,0.7311610579490662,-0.6754866208316028,-0.8779456736688993,-0.3821623361625116
1687101501.872535,-0.34360718727111816,0.8006911277770996,-0.49074193835258484,-0.5345360040664673,-0.2025923728942871,0.08403429388999939,1.1878482103347778,-0.4014979600906372,2.4543368816375732,-0.6108460689870372,-0.9284479742256592,-0.2832173912252506
1687101501.9740481,-0.219680055975914,0.79172283411026,-0.570013701915741,-0.06253117322921753,0.17998743057250977,0.5253207683563232,0.21702660620212555,1.273141860961914,3.7784066200256348,-0.3678522346539944,-0.9136241089147119,0.021539907873832857
1687101501.97897,-0.011908859014511108,0.8485375642776489,-0.5290008783340454,0.8472818732261658,-0.1700097918510437,0.07013875246047974,1.2906887531280518,-0.17086166143417358,3.960700750350952,-0.022508181665370317,-1.0132153665870067,0.3564772014376352
1687101502.067085,0.09396510571241379,0.7196828126907349,-0.6879150867462158,0.6729264259338379,0.19088542461395264,0.39952409267425537,2.65419602394104,0.6307148933410645,3.429535150527954,0.13575391373791879,-0.8033454000205246,0.6594356034796459
1687101502.086331,0.1324823945760727,0.6844262480735779,-0.7169442772865295,0.44603943824768066,-0.13488095998764038,0.06617224216461182,-1.346725344657898,-0.9598730802536011,-0.9520598649978638,0.18272636347222126,-0.7538164906147964,0.7369515825143659
1687101502.150385,0.08305136859416962,0.7540621757507324,-0.6515310406684875,-0.15562206506729126,0.04702425003051758,0.1264457106590271,-0.2985915243625641,0.05344642698764801,-1.042961835861206,0.12678732634292714,-0.854225094508389,0.6837059923685976
1687101502.164983,0.057648248970508575,0.737491250038147,-0.6728916764259338,0.13580277562141418,-0.24591416120529175,0.04274958372116089,0.897700846195221,-0.26711806654930115,-0.023857930675148964,0.08546372074023172,-0.8293480918643987,0.6260265494770069
1687101502.208157,0.07434629648923874,0.714645504951477,-0.6955245733261108,-0.14691701531410217,-0.20758062601089478,0.09437412023544312,0.24532866477966309,0.37186482548713684,0.27025967836380005,0.10648805486258987,-0.7961171620359557,0.6494362673520578
1687101502.30249,0.08096224814653397,0.7353401780128479,-0.672844648361206,0.1007089614868164,-0.11586380004882812,-0.04422682523727417,-1.1830065250396729,-0.042181823402643204,0.027337344363331795,0.11975255520762433,-0.826168530810231,0.6592423450868257
1687101502.3195372,0.07928337156772614,0.7528101801872253,-0.6534454226493835,-0.06436017155647278,0.13050591945648193,-0.004330337047576904,0.2523512840270996,0.06592946499586105,-0.1721549779176712,0.12074110347003042,-0.8523209305500561,0.6586594642752043
1687101502.364375,0.07176617532968521,0.747132420539856,-0.6607894897460938,0.008815586566925049,1.4185905456542969e-05,0.017585813999176025,-0.22338812053203583,0.08658280968666077,-0.4045400619506836,0.10818269445738424,-0.843737335842044,0.6366822120314547
1687101502.481468,0.05838431417942047,0.7600094676017761,-0.647284209728241,0.025798529386520386,-0.06065338850021362,-0.021828889846801758,-0.372230589389801,0.11139228940010071,-0.4746268391609192,0.08995545586788209,-0.8633277277940153,0.6073165808598351
1687101502.5005121,0.023588016629219055,0.7953709363937378,-0.6056638956069946,0.11818146705627441,-0.2113407850265503,-0.035205185413360596,-2.2098488807678223,0.23542086780071259,-1.9236146211624146,0.038926048965487244,-0.9196193306574149,0.5327152030526381
1687101502.570162,-0.12130504846572876,0.8750097155570984,-0.46866098046302795,0.6772438287734985,-0.04041498899459839,-0.09281659126281738,-3.168215036392212,0.7981058955192566,-5.685997009277344,-0.25327488967814243,-1.0654558767124875,0.1492588900065175
1687101502.585209,-0.3252159059047699,0.8387518525123596,-0.43672624230384827,1.1401269435882568,-0.003928244113922119,0.09354093670845032,0.5171735882759094,-0.640926718711853,-3.820028781890869,-0.6400796653657284,-0.9949869123160242,-0.2862778174107505
1687101502.659653,-0.47478654980659485,0.7757737040519714,-0.41563522815704346,0.7488040328025818,-0.3184373378753662,0.270127534866333,-1.3492588996887207,0.47337430715560913,-3.057476043701172,-0.8517314050428053,-0.8879403466839851,-0.5545005129263616
1687101502.6638908,-0.5543363690376282,0.7402204275131226,-0.3805059790611267,0.4514312148094177,-0.14451724290847778,0.2978339195251465,-0.9316616058349609,-0.32105135917663574,-0.755875825881958,-0.9692446640834307,-0.8333981287706462,-0.7011553824805798
1687101502.7543368,-0.5241773724555969,0.7920422554016113,-0.31290125846862793,-0.6520006060600281,-0.3545421361923218,0.09668430685997009,-2.0297131538391113,0.0180751234292984,1.6108595132827759,-1.03263148812754,-0.9141471317531892,-0.8005566349078953
1687101502.773065,-0.43871334195137024,0.8659732937812805,-0.24004299938678741,-1.2526317834854126,-0.09725081920623779,0.059394314885139465,-2.063739776611328,0.21589015424251556,2.525179147720337,-1.0701421030756615,-1.0470933395228168,-0.8257643460619847
1687101502.8089151,-0.3367903530597687,0.9244771003723145,-0.17864619195461273,-0.8975235223770142,0.15224409103393555,-0.5363805294036865,-0.07559455186128616,0.17774154245853424,1.440845251083374,-1.0830963534990932,-1.1796616635175736,-0.8547176191815066
1687101502.934221,-0.30283474922180176,0.934410035610199,-0.1875333935022354,-0.6275697946548462,0.21025842428207397,-0.41907966136932373,0.32752037048339844,0.07603126019239426,-0.05651438981294632,-1.0163354373688172,-1.2065992305751154,-0.7934846472416065
1687101502.952414,-0.33056384325027466,0.9143217206001282,-0.2339727282524109,-0.15156805515289307,0.2924653887748718,-0.13071221113204956,1.504316806793213,-0.3501712381839752,-0.7563276290893555,-0.9548553771010131,-1.1538299147970614,-0.7174483953832139
1687101503.019895,-0.36509236693382263,0.8884781002998352,-0.2780543863773346,0.1877090334892273,0.043040454387664795,0.14075589179992676,0.6513373851776123,-0.11222434788942337,-0.6479873061180115,-0.9199123943120768,-1.0940181825725648,-0.6686711340075324
1687101503.034523,-0.38958415389060974,0.8727276921272278,-0.2942289412021637,0.33343181014060974,-0.07595938444137573,0.18123766779899597,0.10265418142080307,-0.1420799195766449,-0.26176977157592773,-0.9239510213390475,-1.0607618561474967,-0.6625865912387457
1687101503.110467,-0.3887914717197418,0.874871015548706,-0.28886300325393677,0.2697424292564392,-0.15931010246276855,0.15763753652572632,-0.05561162531375885,0.0110291987657547,0.2928074896335602,-0.9318052674926295,-1.0651694181260087,-0.6692462231073886
1687101503.114183,-0.3652704358100891,0.8831526637077332,-0.2943107485771179,0.1509150266647339,-0.10776203870773315,0.0940849781036377,-0.08117317408323288,0.27516525983810425,0.6870315670967102,-0.8925689172487573,-1.0825411477125915,-0.6324990428420667
1687101503.204443,-0.3217533826828003,0.9034632444381714,-0.2832472324371338,0.01653185486793518,-0.016851186752319336,-0.22668614983558655,-0.09935532510280609,0.3389446437358856,0.8805692791938782,-0.8489588911985382,-1.1277810950736529,-0.6067181392886285
1687101503.222076,-0.2714956998825073,0.9097530841827393,-0.31406885385513306,0.05788800120353699,-0.14203768968582153,-0.5059993267059326,1.606785774230957,-1.0149180889129639,1.6197763681411743,-0.7128214094365014,-1.1426889319551186,-0.4411843303428331
1687101503.2594628,-0.1941101849079132,0.898703396320343,-0.393259733915329,-0.02525007724761963,-0.41631215810775757,-0.20694488286972046,2.188992977142334,-1.397999882698059,3.0177979469299316,-0.4585087513909601,-1.116803933086841,-0.08563064677101848
1687101503.353544,-0.044001586735248566,0.8875972032546997,-0.45851394534111023,-0.005329996347427368,-0.6689082384109497,0.05958825349807739,0.8044522404670715,-0.8387484550476074,4.720630168914795,-0.09567266767786047,-1.0921021753715274,0.3825682820679925
1687101503.37293,0.17638196051120758,0.8621724247932434,-0.474918931722641,0.1482183337211609,-0.3559316396713257,0.09225910902023315,0.5033702850341797,-0.42383813858032227,5.814137935638428,0.35560536547282573,-1.039542323541534,0.9362282504990116
1687101503.444248,0.4101714491844177,0.7501001954078674,-0.5187573432922363,0.3491060733795166,0.050986289978027344,-0.1020769476890564,1.0278310775756836,-0.2273413985967636,6.020805835723877,0.6690325635806119,-0.8482135370566597,1.3217317866197071
1687101503.535884,0.6100159883499146,0.5935240983963013,-0.5249851942062378,0.4502410292625427,-0.09239506721496582,-0.15796750783920288,-0.7537508010864258,-0.36187902092933655,6.451539039611816,0.8601753972127434,-0.6354305828004151,1.6338626369276863
1687101503.554751,0.7368891835212708,0.43250930309295654,-0.5195478200912476,1.1811864376068115,0.4348001778125763,-0.34402328729629517,-2.4060540199279785,-1.9927517175674438,5.06568717956543,0.9566854242665729,-0.4472740001148867,1.8984951193467428
1687101503.620353,0.7567288875579834,0.322503924369812,-0.5686410665512085,0.4909670948982239,0.7123317718505859,0.10471290349960327,-1.4281448125839233,-1.639653205871582,3.290998935699463,0.9263702573140853,-0.3283735721101026,2.125337354425927
1687101503.636163,0.7523745894432068,0.2506745755672455,-0.609175443649292,0.08563816547393799,0.6520504951477051,0.2847888469696045,0.35388824343681335,-0.9979162216186523,1.5290676355361938,0.8901865409462342,-0.2533770091177852,2.212108843593678
1687101503.742532,0.7410129904747009,0.21600589156150818,-0.6357995867729187,0.03292804956436157,0.3502018451690674,0.32145339250564575,-0.27293699979782104,-0.6866537928581238,0.1613321751356125,0.8616680250196804,-0.21772193069110543,2.243454086234896
1687101503.749105,0.7249475717544556,0.20521694421768188,-0.6575233340263367,-0.09697210788726807,0.27850180864334106,0.3269417881965637,1.1181445121765137,-0.07725214213132858,-0.07554427534341812,0.8341303879420973,-0.20668537059411687,2.229899351537695
1687101503.894875,0.7283122539520264,0.1950257122516632,-0.6569065451622009,-0.05771899223327637,0.10340557992458344,0.3666844367980957,-0.036525655537843704,0.5217502117156982,-0.5538151264190674,0.8369009339935106,-0.19628365816873353,2.1850763564017073
1687101503.9009871,0.7361658215522766,0.20829829573631287,-0.6439500451087952,0.053507089614868164,-0.4309088885784149,0.10772573947906494,-2.3800153732299805,0.3306340277194977,0.08080845326185226,0.8521164145593345,-0.20983477405320242,2.1998282476421287
1687101503.9823089,0.7483149766921997,0.28213420510292053,-0.6003540754318237,-0.07940012216567993,0.10127323865890503,0.04974067211151123,-0.3500087857246399,0.2539162039756775,0.2654964327812195,0.8946700003070377,-0.286017977946407,2.2733844312029508
1687101504.002378,0.7482534646987915,0.3153402507305145,-0.5836756825447083,-0.06642967462539673,-0.10707315802574158,-0.11825907230377197,-1.8629217147827148,-0.006503189913928509,-0.020886708050966263,0.9083384984430373,-0.3208151617539185,2.3247445590679923
1687101504.005588,0.7475191950798035,0.3462591767311096,-0.566850483417511,0.026742100715637207,0.16371983289718628,0.011216819286346436,-0.03778022155165672,-0.021585363894701004,-0.043690025806427,0.9219986935172331,-0.35358066950557404,2.3798281954353793
1687101504.068901,0.7449777722358704,0.32306942343711853,-0.5836387276649475,-0.006955921649932861,0.09703540802001953,0.037267327308654785,0.8925116658210754,-0.028241295367479324,-0.07584134489297867,0.906240367632843,-0.32897105255648373,2.344234517989661
1687101504.072527,0.7454732656478882,0.3177459239959717,-0.5859240293502808,0.02117401361465454,-0.05405893921852112,0.08766359090805054,-0.36109068989753723,0.003399721346795559,0.11451900750398636,0.9046653601857132,-0.3233512539064256,2.3388871670353573
1687101504.163271,0.7462693452835083,0.32789361476898193,-0.5792819857597351,-0.0186997652053833,0.06201407313346863,0.04562115669250488,-0.13773083686828613,0.051305193454027176,-0.1473127007484436,0.9107138185460727,-0.3340730703284373,2.3521735903290515
1687101504.182088,0.7460993528366089,0.33319753408432007,-0.576467752456665,0.03437250852584839,0.13930600881576538,0.16188651323318481,0.1834009438753128,0.23940537869930267,-0.2514674961566925,0.9129610694266651,-0.3396928748483415,2.341552250611802
1687101504.2818751,0.7449541091918945,0.3683652877807617,-0.5561926960945129,-0.05556201934814453,0.26522529125213623,0.20661389827728271,-0.5699353814125061,0.6788482666015625,-1.5943474769592285,0.9294662139507686,-0.3772500516892289,2.3227169863318085
1687101504.299803,0.7179427146911621,0.46058645844459534,-0.5219371318817139,0.14892441034317017,0.4625396132469177,0.26064568758010864,0.22369025647640228,1.2348250150680542,-3.36238956451416,0.9421849989823927,-0.4786558046652973,2.2559076091857424
1687101504.3706079,0.6303414702415466,0.6141812205314636,-0.47481682896614075,0.46664345264434814,0.7024232745170593,0.4025055170059204,0.39570799469947815,2.4110286235809326,-6.259162902832031,0.9252062046747457,-0.6613480238105103,2.05781353823976
1687101504.385539,0.4434237480163574,0.8014230728149414,-0.401368111371994,1.3906980752944946,0.36813247203826904,0.3634348213672638,-0.4210813343524933,1.9397979974746704,-7.192632675170898,0.8351393459143748,-0.9296707346829597,1.7588889959765888
1687101504.461547,0.15355710685253143,0.915057361125946,-0.37294793128967285,0.8607710003852844,0.6303985118865967,0.23845705389976501,0.5327457189559937,2.8400168418884277,-8.160369873046875,0.39058480885485036,-1.155650059809214,1.1248302194699833
1687101504.466401,-0.1729201376438141,0.9037550687789917,-0.39156776666641235,1.3741378784179688,-0.2918165922164917,-0.005862593650817871,-0.1638016402721405,1.348410964012146,-7.2829742431640625,-0.4158547131202823,-1.1284623320970373,0.137125905922278
1687101504.58249,-0.403890460729599,0.7976400852203369,-0.4479314982891083,0.8044032454490662,-0.8767569661140442,-0.38698357343673706,1.2026580572128296,1.6030714511871338,-4.927187442779541,-0.7337419826985048,-0.9233722268899993,-0.3303655704439632
1687101504.601149,-0.5011723041534424,0.7420356273651123,-0.44520726799964905,0.5098240375518799,-1.5468757152557373,-0.6226179599761963,-2.257558584213257,1.1292155981063843,-1.1907098293304443,-0.8444652886834284,-0.8361018593713089,-0.5530776753319874
1687101504.705859,-0.4475177526473999,0.8172214031219482,-0.36314842104911804,0.35982561111450195,-0.5273503065109253,-0.4729720652103424,-2.4723641872406006,0.5493626594543457,1.5277754068374634,-0.8890989141512129,-0.9565732025269595,-0.6787950029890215
1687101504.711619,-0.4197804033756256,0.8355531096458435,-0.35445061326026917,0.0776631236076355,0.3766202926635742,-0.08304929733276367,1.5956122875213623,-0.4142110049724579,0.3627915382385254,-0.869578991166361,-0.98913876719675,-0.628077314007524
1687101504.7942538,-0.40322282910346985,0.8271970152854919,-0.39135193824768066,-0.39177531003952026,-0.05455297231674194,0.19755017757415771,-0.8088975548744202,0.6715496182441711,0.15226203203201294,-0.8003369659288498,-0.9741009234038056,-0.578635898053641
1687101504.800488,-0.38626331090927124,0.8504188656806946,-0.3571951985359192,-0.013593226671218872,0.00170820951461792,-0.06344372034072876,-0.44010016322135925,0.5077428221702576,0.14364999532699585,-0.8244767549815265,-1.0167809521595597,-0.6314980488016502
1687101504.9138088,-0.37241101264953613,0.851763904094696,-0.368521511554718,0.08301287889480591,0.07499384880065918,-0.14533334970474243,0.10489346832036972,0.2745535671710968,-0.0715768113732338,-0.7906475909512319,-1.0193428983054116,-0.6256255295589659
1687101504.932312,-0.37675410509109497,0.842972993850708,-0.38399577140808105,-0.022202134132385254,0.03967159986495972,-0.13178163766860962,0.45397794246673584,0.212782621383667,-0.21407243609428406,-0.7758793079710565,-1.00278595911357,-0.6152796728289216
1687101505.004879,-0.38907909393310547,0.8224062919616699,-0.41504839062690735,-0.39537519216537476,-0.004642069339752197,-0.2037259042263031,0.8198836445808411,0.38722530007362366,-0.7941856384277344,-0.7531143709820738,-0.9656279190459994,-0.6078740061628561
1687101505.00949,-0.4059309959411621,0.7873632311820984,-0.4639818072319031,-0.5113205909729004,-0.1331426501274109,-0.14644595980644226,0.8309574723243713,0.25687941908836365,-0.45286598801612854,-0.7187651903836709,-0.9065201730040087,-0.5874982959970793
1687101505.013187,-0.4123327434062958,0.7746819257736206,-0.4794262647628784,-0.5232751369476318,-0.2369469404220581,-0.28130051493644714,0.5184102058410645,-0.34817540645599365,0.15806080400943756,-0.710302359557142,-0.8862119083058889,-0.5798572500076185
1687101505.059828,-0.4028235375881195,0.7540158629417419,-0.5188384652137756,-0.4516381025314331,0.12908673286437988,0.10624086856842041,0.2951907813549042,0.021164603531360626,1.0472439527511597,-0.6601809706142173,-0.8541545377937262,-0.49057464429364445
1687101505.185574,-0.3315398097038269,0.7927321195602417,-0.5115242004394531,-0.14104008674621582,-0.024970948696136475,0.004535794258117676,1.1982018947601318,-0.2772636413574219,2.331024169921875,-0.5750672710344815,-0.9152781100576269,-0.3832957975831505
1687101505.190429,-0.2128961831331253,0.7805438041687012,-0.5877299904823303,-0.09423266351222992,-0.012752056121826172,0.3907848596572876,0.14437568187713623,1.2029743194580078,3.835338830947876,-0.3475324793997444,-0.8955353382836899,-0.09350882985034085
1687101505.274973,-0.0490204282104969,0.8078433275222778,-0.5873551964759827,0.9234864711761475,0.16768163442611694,-0.04100155830383301,1.2503571510314941,-0.6644076108932495,3.1755292415618896,-0.08326661894830197,-0.9404837204757711,0.18931429633133728
1687101505.281153,0.03872109204530716,0.7662970423698425,-0.6413186192512512,0.6314144730567932,-0.02038639783859253,0.2403329610824585,0.1361815184354782,0.04694804921746254,2.022845983505249,0.06030410224388217,-0.873057714803577,0.43892864556531946
1687101505.364524,0.0359530933201313,0.7568142414093018,-0.6526404023170471,0.34573033452033997,0.019339323043823242,0.03401869535446167,0.8741885423660278,-0.8709894418716431,-0.8476605415344238,0.05503305005772393,-0.8584252855643474,0.46845234861054325
1687101505.381973,0.016156859695911407,0.7316474318504333,-0.6814916133880615,-0.20538100600242615,-0.36796945333480835,0.19212710857391357,0.07532258331775665,0.2920016944408417,-0.11791960150003433,0.02370364110445559,-0.8207355787948489,0.42439939142354793
1687101505.450716,0.012432117946445942,0.7499614953994751,-0.6613646745681763,0.2015877366065979,-0.21861988306045532,0.006411731243133545,-0.39150482416152954,-0.225149467587471,0.1711759865283966,0.018795461219386623,-0.8480038367189866,0.42502424721652793
1687101505.465935,0.02131057158112526,0.742926836013794,-0.6690333485603333,-0.12793892621994019,0.031899213790893555,0.04533040523529053,0.36766836047172546,0.23035867512226105,0.043154723942279816,0.03184201357300263,-0.83743231943086,0.43322195622369514
1687101505.5109901,0.02818298153579235,0.7485564947128296,-0.6624717712402344,0.060592710971832275,-0.09586179256439209,-0.050159335136413574,-0.4572767913341522,-0.08811815828084946,0.1838247925043106,0.04251652371810745,-0.8458824149039109,0.44450229657076507
1687101505.6023378,0.027114884927868843,0.7570348978042603,-0.652811586856842,-0.021804749965667725,0.07025092840194702,-0.025365173816680908,-0.16284070909023285,0.24192973971366882,-0.5981996655464172,0.041511682390819114,-0.8587629811250368,0.43904679623416426
1687101505.619447,-0.021294845268130302,0.759166955947876,-0.6505475044250488,0.22377902269363403,0.1000249981880188,-0.16538560390472412,0.058498065918684006,0.16613377630710602,-2.4969377517700195,-0.03272204284452712,-0.8620323019100722,0.3229815017758687
1687101505.658894,-0.13562153279781342,0.7441359758377075,-0.6541165709495544,0.5026717185974121,-0.048701345920562744,-0.05373859405517578,-0.060866788029670715,0.12468215078115463,-3.5274200439453125,-0.20443880614556692,-0.8392404914737415,0.09221983942101236
1687101505.7544432,-0.25633594393730164,0.7140110731124878,-0.6515212655067444,0.8627356290817261,-0.013510584831237793,0.11538857221603394,0.1270965039730072,-0.2984215319156647,-2.9893784523010254,-0.37484034267228117,-0.7952106461572226,-0.1454911112450511
1687101505.7729821,-0.37035074830055237,0.657225489616394,-0.6564258933067322,0.42282575368881226,0.025773227214813232,0.19873863458633423,-0.12688948214054108,0.11575577408075333,-3.154691457748413,-0.5136744293386979,-0.7171316086509789,-0.33387510989028196
1687101505.807598,-0.4583524167537689,0.6446281671524048,-0.6118558645248413,0.6993345022201538,-0.03145366907119751,0.32106924057006836,-2.1370458602905273,-0.604254961013794,-2.080240488052368,-0.6429365534782044,-0.7005368303011756,-0.5330456217498395
1687101505.903566,-0.5397307276725769,0.6549267768859863,-0.5289250612258911,0.1364104151725769,0.10670053958892822,0.3664953112602234,-1.6426541805267334,-0.9522094130516052,-1.1441912651062012,-0.7955092742033452,-0.7140856949666003,-0.6927910741591992
1687101505.9215012,-0.5875152349472046,0.673285722732544,-0.44890087842941284,-0.9986815452575684,-0.13475728034973145,0.24101528525352478,-0.8003731369972229,-1.1989377737045288,0.42532867193222046,-0.9183531029733254,-0.7386437106028862,-0.7726281953684327
1687101505.959358,-0.5759475231170654,0.7308988571166992,-0.36615729331970215,-0.7166549563407898,-0.6656675338745117,-0.2486344575881958,-1.6988885402679443,-1.4216234683990479,1.3322700262069702,-1.0045056359870024,-0.8196380942557894,-0.8201951035576582
1687101506.08419,-0.5296493172645569,0.7945900559425354,-0.2968134582042694,-0.8784774541854858,-0.4658852219581604,-0.4826206564903259,-0.8009127378463745,0.028156893327832222,1.316645622253418,-1.0600064437450394,-0.9183320760672338,-0.8443908925908098
1687101506.103267,-0.49593284726142883,0.8081149458885193,-0.3178061842918396,-0.3479239046573639,0.3312588334083557,-0.31163400411605835,1.2260808944702148,0.6484420895576477,0.24897463619709015,-1.000898027048654,-0.9409447533418356,-0.8008186165578793
1687101506.1708698,-0.4899905323982239,0.7937657833099365,-0.36034026741981506,0.17370638251304626,0.1794397234916687,-0.04986166954040527,-0.023942487314343452,0.354547381401062,-0.3622434139251709,-0.9367032543898223,-0.9169757137284911,-0.7513151330659253
1687101506.1865811,-0.5038067698478699,0.7809847593307495,-0.3691091537475586,0.34522223472595215,0.14879435300827026,0.10381996631622314,0.6246367692947388,-0.20372086763381958,-0.27900561690330505,-0.9384982956781336,-0.8962409847401791,-0.7540389449936943
1687101506.26026,-0.49530836939811707,0.7730936408042908,-0.3962269723415375,0.10851338505744934,-0.16738075017929077,0.08563441038131714,0.07426653057336807,0.5954810976982117,0.4051629900932312,-0.8960796899019596,-0.8837041138180273,-0.7197802156409414
1687101506.264525,-0.4655281603336334,0.7895641922950745,-0.3998398184776306,0.24662566184997559,-0.1897411346435547,-0.5301527380943298,0.7212455868721008,-0.8261321187019348,1.3069703578948975,-0.861160863721766,-0.910098476480635,-0.6692554476716612
1687101506.3549619,-0.415458083152771,0.796888530254364,-0.4385923743247986,0.11913245916366577,-0.30085575580596924,-0.5801147818565369,2.4026241302490234,-1.554267168045044,2.760037899017334,-0.7583170301068127,-0.9221272185459801,-0.46108604128565644
1687101506.361013,-0.30595144629478455,0.8035472631454468,-0.5105932354927063,0.07175964117050171,-0.465381920337677,-0.4283105134963989,2.4118452072143555,-1.689380407333374,4.455237865447998,-0.5398367877405295,-0.9332308822685726,-0.08884156220043757
1687101506.444066,-0.14925894141197205,0.8134443163871765,-0.562165379524231,0.1555304378271103,-0.355726420879364,-0.2533556818962097,1.4257230758666992,-1.6247717142105103,5.245675086975098,-0.25951955528504705,-0.9500495061724256,0.3569275962982141
1687101506.5328212,0.02070077508687973,0.7983421087265015,-0.6018482446670532,0.19566896557807922,-0.18272626399993896,0.05422568321228027,-0.47569236159324646,-1.431024432182312,5.790576457977295,0.03438178610089101,-0.9245371267794181,0.8422879332672332
1687101506.551549,0.22841128706932068,0.8097449541091919,-0.540501058101654,0.46783214807510376,-0.10222548246383667,0.15163087844848633,-1.0152384042739868,-1.8917447328567505,6.399928092956543,0.39982907273565577,-0.9437173604779596,1.3722890150765077
1687101506.654557,0.4167900085449219,0.7147843837738037,-0.5615774989128113,0.6739236116409302,0.29287540912628174,0.35292887687683105,-1.5521847009658813,-1.160191535949707,5.765715599060059,0.6384756430819308,-0.7963157534935559,1.7955736040157142
1687101506.673142,0.5319918990135193,0.6337661743164062,-0.56153804063797,1.00917649269104,0.4450453519821167,0.29429566860198975,0.24728167057037354,-2.2243385314941406,4.3228983879089355,0.7583856431228193,-0.6864124188948785,2.129976961813705
1687101506.740757,0.5950233936309814,0.49235230684280396,-0.6352450251579285,0.11396104097366333,0.5683470368385315,0.37747836112976074,1.8877195119857788,-0.3785713315010071,2.3161466121673584,0.7527164262184166,-0.5147902529689105,2.210388902827352
1687101506.7447438,0.6265392899513245,0.4267624020576477,-0.6521674394607544,0.0029163360595703125,0.11039263010025024,0.3289099931716919,-0.9016642570495605,-0.2065170854330063,0.9015086889266968,0.7653586222328689,-0.4409097608924237,2.2617387711113626
1687101506.8647509,0.6293560266494751,0.45153146982192993,-0.6324794292449951,-0.06075245141983032,0.29935339093208313,0.18316912651062012,-0.47185811400413513,0.02462357096374035,0.005741040222346783,0.7829228840041553,-0.4684810105374333,2.3157088888608914
1687101506.883322,0.6356228590011597,0.43639808893203735,-0.6368204355239868,-0.08162194490432739,0.2151215374469757,0.11448162794113159,0.7893208861351013,0.28933560848236084,0.14073941111564636,0.7844569873407219,-0.4515915432321283,2.3017166309213577
1687101507.043786,0.6506940722465515,0.4140342175960541,-0.6365319490432739,-0.02688419818878174,0.058820247650146484,0.057155728340148926,0.2820058763027191,0.3935090899467468,0.18918529152870178,0.7963998047291456,-0.42688156695147056,2.2908879576803423
1687101507.049981,0.6656814217567444,0.40061384439468384,-0.6295846104621887,0.011793553829193115,0.06102544069290161,-0.029793381690979004,0.09669487178325653,0.31907641887664795,0.022517424076795578,0.8132592282269118,-0.41218669344704517,2.284960051563909
1687101507.0548902,0.6729038953781128,0.40980610251426697,-0.6158403158187866,0.015053927898406982,0.007124900817871094,-0.02321302890777588,-0.32281628251075745,0.2558903098106384,-0.11708350479602814,0.8296476949348156,-0.4222414969451875,2.291687633097895
1687101507.132561,0.6780094504356384,0.4131389856338501,-0.6079633831977844,-0.008438408374786377,0.03340935707092285,-0.044151484966278076,0.2557118237018585,0.2414785921573639,-0.09922534227371216,0.8398137144404929,-0.42589828443052097,2.286894074628189
1687101507.1481318,0.6823092103004456,0.4136402904987335,-0.6027899384498596,0.02171611785888672,0.09684234857559204,0.012305378913879395,-0.041924841701984406,0.2211313098669052,-0.21509915590286255,0.8471972897142866,-0.4264488207340482,2.2768669075221113
1687101507.151177,0.6784932613372803,0.43708720803260803,-0.5904249548912048,0.024311363697052002,0.47624272108078003,0.12498617172241211,-0.0049555860459804535,0.48178595304489136,-1.226670265197754,0.8546912822163502,-0.4523575778810475,2.2557044891681994
1687101507.222903,0.6440713405609131,0.5100691914558411,-0.5700889825820923,0.01379615068435669,0.6316238045692444,0.16840142011642456,0.1911870688199997,0.8300098776817322,-3.184180498123169,0.8462558311857475,-0.5352652279903614,2.174920417237225
1687101507.2266521,0.5595325827598572,0.6116853952407837,-0.5592533349990845,0.2945934534072876,0.6394741535186768,0.2547489404678345,0.8355665802955627,1.1339772939682007,-4.591270923614502,0.7856477812516776,-0.6581892926846777,1.983968789008137
1687101507.315373,0.42358314990997314,0.7259274125099182,-0.5418549180030823,0.6382303237915039,0.3603304624557495,0.28204357624053955,0.11233268678188324,1.3953454494476318,-5.510585308074951,0.6634997494161544,-0.8123818581446322,1.7027893297000043
1687101507.333164,0.23537571728229523,0.8219445943832397,-0.5186572074890137,0.876517117023468,0.24211174249649048,0.21656382083892822,0.2855674922466278,1.3575507402420044,-6.000948905944824,0.42602401570612114,-0.964816766120823,1.3083148331986
1687101507.437849,0.009763285517692566,0.8451705574989319,-0.5344075560569763,0.9696375131607056,0.1446366310119629,0.2367544174194336,0.6061553955078125,1.433692216873169,-6.4203691482543945,0.01826733151446971,-1.0068841564673554,0.7413077285402704
1687101507.456835,-0.20837919414043427,0.8156222701072693,-0.5397577285766602,1.0283713340759277,-0.2951449155807495,0.12757211923599243,-0.4370358884334564,0.9458889365196228,-5.586126804351807,-0.3684322112548737,-0.9538038500953273,0.20291289909800767
1687101507.555502,-0.3835066258907318,0.7523236274719238,-0.5356600880622864,0.865592896938324,-0.29330873489379883,-0.014403939247131348,-0.5078750848770142,0.4172448515892029,-4.276998043060303,-0.6213516485457327,-0.8515821157916413,-0.1735726651205187
1687101507.5605721,-0.5176790356636047,0.7022626399993896,-0.48870810866355896,0.843774676322937,-0.3422313928604126,-0.07571440935134888,-1.7666000127792358,-0.274034708738327,-2.974059820175171,-0.814177267256974,-0.7785707268437865,-0.4270158381143464
1687101507.675706,-0.5968982577323914,0.68809974193573,-0.4125905930995941,0.13147473335266113,-0.713215708732605,-0.6127846837043762,-2.0413870811462402,0.23551033437252045,-1.1861354112625122,-0.965984399284903,-0.7588669877880441,-0.6301956023854064
1687101507.680691,-0.5954614281654358,0.6911749839782715,-0.4095151424407959,-0.5364812016487122,-0.433621883392334,-0.6611939668655396,-0.5223355889320374,1.8068047761917114,0.05534374713897705,-0.9683545905746087,-0.7631136587019627,-0.7282818561119907
1687101507.736104,-0.5586657524108887,0.690251886844635,-0.45983126759529114,-0.07918208837509155,-0.11288982629776001,-0.3207930028438568,0.8781326413154602,0.8800665140151978,-0.17385651171207428,-0.8821348034644884,-0.7618371316263578,-0.7177227377499853
1687101507.741057,-0.563103973865509,0.6754096150398254,-0.47616758942604065,-0.11611038446426392,-0.09350043535232544,-0.0253276526927948,-0.15766283869743347,-0.3324364125728607,-0.019924510270357132,-0.8688551508091112,-0.7415199751700751,-0.6836753657840386
1687101507.7449121,-0.5771386027336121,0.6742250919342041,-0.46079444885253906,0.013158559799194336,0.1750180721282959,0.052225202322006226,-0.25619861483573914,-0.3324863910675049,-0.29175812005996704,-0.8970243595438262,-0.7399149366246157,-0.7103390050820064
1687101507.788708,-0.5962033271789551,0.6694285273551941,-0.44317829608917236,0.15339332818984985,0.053075194358825684,0.040880441665649414,-0.07791666686534882,-0.21060092747211456,-0.43400630354881287,-0.931575057580887,-0.7334392264540636,-0.7373107270064868
1687101507.852227,-0.6039119958877563,0.6659131646156311,-0.4380069673061371,0.12159699201583862,-0.08873409032821655,-0.04893147945404053,-0.21239842474460602,0.16218137741088867,-0.1243583932518959,-0.9433028332948572,-0.7287171518275781,-0.7544666574025229
1687101507.944273,-0.6098499894142151,0.6476718783378601,-0.4567319452762604,-0.16552531719207764,-0.022885501384735107,-0.19724440574645996,1.0161858797073364,0.20871776342391968,-0.6123173832893372,-0.9279835463084434,-0.7045248794929547,-0.7557257940187525
1687101508.0342832,-0.628788948059082,0.5841391086578369,-0.5132306814193726,-1.0162609815597534,-0.3761770725250244,-0.15843051671981812,1.774106502532959,0.4983867108821869,-0.4358673691749573,-0.886242549566534,-0.6238189916664003,-0.6978812971008381
1687101508.053679,-0.6102408170700073,0.5685911774635315,-0.5516431331634521,-0.7499886155128479,-0.6365232467651367,-0.0286027193069458,0.5488167405128479,0.32179293036460876,1.269407868385315,-0.8357888153012523,-0.6047922672901016,-0.6386250253221687
1687101508.122195,-0.5411427617073059,0.6261874437332153,-0.5612963438034058,-0.2595010995864868,-0.17303192615509033,-0.04801744222640991,-0.8003758788108826,-0.014623860828578472,2.7940187454223633,-0.7671193016802722,-0.6766536370828349,-0.5432984389466999
1687101508.12579,-0.4288721978664398,0.7306621074676514,-0.531226396560669,-0.06169784069061279,0.11142468452453613,0.1864694356918335,0.5475677847862244,-0.03528913855552673,3.4824416637420654,-0.6791912786704353,-0.8192912532192315,-0.4201133007412959
1687101508.2137089,-0.26978054642677307,0.7935777902603149,-0.5453922748565674,0.39494845271110535,-0.13482528924942017,0.16927844285964966,-2.017282724380493,0.9546009302139282,4.142147541046143,-0.4593617919460578,-0.9166666452537339,-0.14963471655474134
1687101508.2335901,-0.10442511737346649,0.8432132601737976,-0.5273393392562866,1.247873067855835,0.5391873121261597,-0.20854616165161133,3.493173122406006,-1.4482669830322266,3.4379725456237793,-0.19549350774132898,-1.0032327248240995,0.14902661428449882
1687101508.299574,-0.011060109362006187,0.7744256854057312,-0.6325681209564209,0.3948339819908142,-0.21470284461975098,0.19555652141571045,0.5511734485626221,0.24037812650203705,1.658837914466858,-0.017482674495590364,-0.8858068200845793,0.3941712161380963
1687101508.394281,0.009543700143694878,0.7927913069725037,-0.6094184517860413,-0.030951708555221558,-0.11606395244598389,0.02682274580001831,-0.981773853302002,0.051828932017087936,-0.0263369120657444,0.015659059993534313,-0.915375145307786,0.4582388553519887
1687101508.400591,-0.011897437274456024,0.8102616667747498,-0.5859474539756775,0.0916094183921814,0.00031572580337524414,-0.17145293951034546,-0.12141337990760803,-0.16957950592041016,-1.2814525365829468,-0.020301824989838645,-0.9445984492183175,0.40079500996525536
1687101508.485135,-0.07496533542871475,0.8142180442810059,-0.575698733329773,0.21392720937728882,-0.16381216049194336,-0.0122528076171875,-0.40237176418304443,-0.16048386693000793,-1.3683924674987793,-0.1294876619269879,-0.9513810604169082,0.2781493775439305
1687101508.505591,-0.14780505001544952,0.8318963050842285,-0.534885048866272,0.269371896982193,-0.15060663223266602,-0.11124825477600098,-1.7066313028335571,0.397291898727417,-2.9054877758026123,-0.269602726439926,-0.9825161634999684,0.10046012062684952
1687101508.571804,-0.31480923295021057,0.8138307929039001,-0.48844096064567566,1.1971945762634277,0.36948829889297485,-0.07814830541610718,0.5389654040336609,-0.37586578726768494,-4.2150139808654785,-0.572512127729847,-0.9507143429672121,-0.2831597150258315
1687101508.575972,-0.47668617963790894,0.7105392217636108,-0.5175946950912476,0.7307603359222412,0.00337374210357666,0.27456802129745483,0.6933302879333496,-0.5365546345710754,-3.854475736618042,-0.7442775485617148,-0.790264263876054,-0.44870856889828553
1687101508.6977072,-0.5898244976997375,0.6392020583152771,-0.4934852123260498,0.6241720914840698,-0.2703055143356323,0.22435081005096436,-1.0271449089050293,-0.9052426815032959,-1.9836488962173462,-0.8740953563142612,-0.6934602682644752,-0.6188966194979685
1687101508.717278,-0.6394163966178894,0.6440613865852356,-0.4199184477329254,-0.08961790800094604,-0.1662629246711731,0.28702977299690247,-2.1480162143707275,-0.6560141444206238,0.15423454344272614,-0.9897105116243823,-0.6997956488149293,-0.735563701952908
1687101508.782908,-0.6514014005661011,0.6788043975830078,-0.33897000551223755,-1.1358299255371094,0.10897642374038696,0.14928805828094482,-0.21129432320594788,-0.9434444904327393,0.7559497952461243,-1.0909855285138639,-0.7461331959913724,-0.7914566822791131
1687101508.798036,-0.6433618068695068,0.7096053957939148,-0.2873072922229767,-1.0273840427398682,-0.39301609992980957,-0.23599275946617126,-0.20567722618579865,-0.6174463033676147,0.2885760962963104,-1.1507968635663994,-0.7889380517947814,-0.8073705989919052
1687101508.871417,-0.6386817097663879,0.7060037851333618,-0.3060135841369629,-0.9607750177383423,-0.41613250970840454,-0.25456371903419495,0.428062379360199,0.48933184146881104,0.1025354266166687,-1.1239810969390778,-0.7838395356820396,-0.7815982328467407
1687101508.8751411,-0.619175910949707,0.7079191207885742,-0.33981096744537354,-0.14649474620819092,0.015591621398925781,-0.021089762449264526,0.16406278312206268,0.8709504008293152,0.24345150589942932,-1.0688659059488874,-0.7865476358449545,-0.7561831675392064
1687101508.994968,-0.60783451795578,0.7087851166725159,-0.3579954504966736,0.3944404721260071,0.25058066844940186,-0.015249699354171753,0.15003643929958344,0.10026565194129944,-0.29015055298805237,-1.0385276222726134,-0.7877745198022343,-0.7538964371466403
1687101509.000206,-0.6215659379959106,0.6862541437149048,-0.3777710795402527,0.4500114321708679,0.1891273856163025,0.11055922508239746,0.46912941336631775,-0.04615989699959755,-0.22751575708389282,-1.0246808733320667,-0.7563265062600136,-0.7317448843355993
1687101509.083609,-0.6250523328781128,0.6893477439880371,-0.36620914936065674,0.27069753408432007,-0.1537032127380371,0.046446025371551514,-0.47662848234176636,-0.10213816165924072,0.12837396562099457,-1.0408197174738059,-0.7605883345052739,-0.7472507182142173
1687101509.1045089,-0.6183251738548279,0.6948683857917786,-0.3671947121620178,-0.11571407318115234,-0.10844248533248901,-0.37410768866539,0.9166256785392761,-0.39807718992233276,0.45407602190971375,-1.0349083933132033,-0.7682368400840247,-0.7280354300129548
1687101509.169116,-0.5999447107315063,0.695198118686676,-0.3959365487098694,-0.05107146501541138,-0.21350866556167603,-0.6920455694198608,2.000559091567993,-1.23762845993042,1.43752920627594,-0.9874546408059873,-0.7686954951602302,-0.6046873768762681
1687101509.1849542,-0.5738059878349304,0.6790364384651184,-0.4578823745250702,-0.0625464916229248,-0.21045422554016113,-0.6589540839195251,4.240929126739502,-1.650217890739441,2.463327646255493,-0.8972918321273858,-0.7464492807152497,-0.3582573194207703
1687101509.256311,-0.4833533465862274,0.6709767580032349,-0.5622805953025818,0.036362528800964355,-0.5181447863578796,-0.20332902669906616,3.6122612953186035,-1.0546995401382446,4.605147838592529,-0.7100583359459134,-0.7355253393054701,0.011131095812549192
1687101509.259995,-0.3290248215198517,0.6994906663894653,-0.6343936920166016,0.20921295881271362,-0.45228296518325806,0.07345014810562134,1.2343882322311401,-0.3560997545719147,5.683044910430908,-0.4784517195873261,-0.7746845582046382,0.411485899161286
1687101509.3202438,-0.11773135513067245,0.7546177506446838,-0.6455163359642029,0.391413152217865,-0.27465248107910156,0.22405338287353516,0.3707306385040283,-0.27676451206207275,6.150099754333496,-0.18040040596933124,-0.8550713559048815,0.8275316156696378
1687101509.413676,0.11024139076471329,0.7482568025588989,-0.6541853547096252,0.43976178765296936,0.1863439679145813,0.4092513918876648,-1.0767823457717896,0.8652364611625671,5.4659318923950195,0.16694851582014175,-0.8454305562859995,1.2871271299776168
1687101509.433382,0.30445507168769836,0.6944020986557007,-0.6520067453384399,0.9422796964645386,0.35691314935684204,0.10093563795089722,1.8060896396636963,-1.2130004167556763,5.321457386016846,0.4368604502088832,-0.7675886597483891,1.6683358846254128
1687101509.469315,0.45792192220687866,0.521952211856842,-0.7196341156959534,0.2198125422000885,0.3441823124885559,0.40902626514434814,1.1467573642730713,1.0620403289794922,4.508460998535156,0.5667024340231281,-0.5491380846302396,1.877437542592159
1687101509.623997,0.5649558305740356,0.44383156299591064,-0.6955850124359131,0.4342203140258789,0.0880591869354248,0.24671721458435059,-2.1149539947509766,0.037074167281389236,3.367435932159424,0.682137297654348,-0.4598699465241323,2.0894706578052817
1687101509.630564,0.61289381980896,0.44634756445884705,-0.6520237326622009,-0.11969918012619019,0.6504082679748535,-0.0015101432800292969,-1.0647296905517578,0.03621481731534004,0.3694841265678406,0.7544732834798875,-0.4626796031377624,2.2362952697423477
1687101509.683659,0.6123581528663635,0.4735412001609802,-0.633068859577179,-0.025886476039886475,0.4547728896141052,0.02805793285369873,-0.20281551778316498,0.07958013564348221,-0.40178635716438293,0.7687702718890163,-0.49330703251165897,2.2497614427096417
1687101509.699554,0.6033037304878235,0.48101699352264404,-0.6361188292503357,-0.012849748134613037,0.26329123973846436,0.0022228360176086426,0.518324077129364,0.12242043763399124,-0.5732844471931458,0.7589282393676839,-0.5018143564455425,2.2223900561069985
1687101509.702454,0.5960792303085327,0.4751872420310974,-0.6472144722938538,0.04520195722579956,0.03714171051979065,0.018048882484436035,0.769797682762146,0.22114066779613495,-0.42799878120422363,0.744292470796524,-0.4951768196388281,2.1737348845951825
1687101509.7406049,0.5914876461029053,0.4749685823917389,-0.6515728235244751,0.029438316822052002,-0.08059000968933105,-0.03878051042556763,0.0014323783107101917,0.16602058708667755,-0.5373299717903137,0.7370992578733024,-0.49492831932024084,2.1356181291624297
1687101509.7995958,0.5834061503410339,0.5023459196090698,-0.6381894946098328,0.00334012508392334,-0.09821701049804688,0.006246805191040039,-0.47987043857574463,0.1058669239282608,-0.3824487328529358,0.7405824733803817,-0.5263097691544021,2.1322660738780033
1687101509.8603492,0.5751886963844299,0.5206699967384338,-0.6309204697608948,0.02472585439682007,-0.04398554563522339,-0.06767261028289795,-0.2696712911128998,-0.03482889011502266,-0.40223440527915955,0.7392231293337622,-0.5476354967046342,2.1253057713343586
1687101509.921371,0.5674352049827576,0.5484870076179504,-0.614149272441864,-0.022925198078155518,-0.10112988948822021,0.12068003416061401,-0.5709905028343201,0.14564229547977448,-0.36734092235565186,0.7458836105140947,-0.5805536941481878,2.1306766897691123
1687101510.014668,0.567317008972168,0.5668160319328308,-0.5973867177963257,-0.007929742336273193,0.02858179807662964,0.27771514654159546,0.6402624845504761,0.7103987336158752,-0.654405415058136,0.7595864547779704,-0.6026358906016775,2.1144449898507043
1687101510.035043,0.5733093023300171,0.5451894402503967,-0.6116247177124023,0.03409743309020996,-0.06676554679870605,0.2885351777076721,1.6806479692459106,1.0944892168045044,-0.7597113251686096,0.7530739354433866,-0.5766151102133322,2.0263782990886567
1687101510.0671139,0.5982253551483154,0.5196720361709595,-0.6099732518196106,0.05604112148284912,-0.19557547569274902,0.35007035732269287,1.1656618118286133,1.5245932340621948,-0.5160390138626099,0.7756749706240367,-0.5464670698943086,1.9380851112571589
1687101510.194833,0.6451109647750854,0.49609631299972534,-0.5811370015144348,0.013778865337371826,-0.1489437222480774,0.38275760412216187,1.1073912382125854,2.2127327919006348,-0.040845125913619995,0.8375213905934384,-0.519097032519108,1.8770204137733368
1687101510.2011108,0.7106069326400757,0.4594156742095947,-0.5328929424285889,0.07482397556304932,-0.1250956654548645,0.11626708507537842,1.2477245330810547,2.189563274383545,0.43798625469207764,0.9273512949673182,-0.4773372308384164,1.8362815840365576
1687101510.2828789,0.7852272987365723,0.3931146264076233,-0.47841301560401917,0.07838976383209229,0.03094235062599182,0.14981502294540405,2.003884792327881,2.653038263320923,0.8581442832946777,1.0235907762808227,-0.4040165003584699,1.780181554265671
1687101510.302762,0.8565369248390198,0.3028622269630432,-0.41787418723106384,0.19544976949691772,0.03122889995574951,-0.11242961883544922,2.6288976669311523,2.351180076599121,0.8649497032165527,1.1169039319279654,-0.307694491003469,1.693979501139287
1687101510.369853,0.9116657376289368,0.22172954678535461,-0.34597882628440857,0.16224771738052368,0.03980603814125061,-0.06828191876411438,2.0766539573669434,2.3154115676879883,0.6145093441009521,1.2080846802097034,-0.22358780763652253,1.590407468537388
1687101510.385786,0.9462180733680725,0.18139299750328064,-0.26789531111717224,0.2285255789756775,-0.03294023871421814,-0.3107941746711731,1.3141041994094849,1.7298574447631836,0.032015807926654816,1.2948947926468717,-0.18240275695911862,1.5170760240594354
1687101510.458318,0.9631649255752563,0.17727823555469513,-0.20220254361629486,0.12477147579193115,0.041883766651153564,-0.3718940019607544,1.761770248413086,1.4992599487304688,-0.36455219984054565,1.3638658715986756,-0.17822018982460047,1.4465952334924732
1687101510.461564,0.9698189496994019,0.18011173605918884,-0.1643494963645935,0.1125936508178711,0.10794366896152496,-0.47879308462142944,2.9504470825195312,0.9739978909492493,-0.6026620864868164,1.4029270570220447,-0.18110004505358918,1.323450411531503
1687101510.519027,0.9682018756866455,0.18481193482875824,-0.16861030459403992,0.09113943576812744,0.011721298098564148,-0.4847709536552429,3.4711995124816895,0.17015068233013153,-0.7443330883979797,1.3983775756727055,-0.1858804940263436,1.1551068942733813
1687101510.611047,0.9612194299697876,0.18883328139781952,-0.20099540054798126,0.0740436315536499,-0.12561601400375366,-0.12580201029777527,1.9414873123168945,-0.34849125146865845,-0.4045119881629944,1.3646618742513605,-0.18997392178354822,1.0073638606414215
1687101510.6161242,0.954076886177063,0.188910573720932,-0.23248620331287384,0.010675191879272461,-0.04581362009048462,-0.02113005518913269,1.0466856956481934,-0.4838983714580536,-0.22318527102470398,1.3317779120353594,-0.19005262070313064,0.9347739470180132
1687101510.6698651,0.946648359298706,0.18858136236667633,-0.2613305449485779,0.014029622077941895,-0.07200415432453156,0.044259101152420044,-0.09813431650400162,-0.5553596019744873,-0.04539667069911957,1.3014460976143374,-0.18971738563073812,0.9080527954749218
1687101510.796406,0.9387314915657043,0.19714048504829407,-0.2826988697052002,0.008152604103088379,-0.013516128063201904,0.11056458950042725,-0.646430492401123,-0.4935162365436554,-0.06300263106822968,1.2782849272558197,-0.19844029928204027,0.9297142849391092
1687101510.816771,0.9306576251983643,0.21272419393062592,-0.29769912362098694,0.008825957775115967,0.011335968971252441,0.1464846134185791,-0.7516827583312988,-0.4154641628265381,-0.17747633159160614,1.261201896478095,-0.21436212585675513,0.962676538534024
1687101510.878602,0.9229849576950073,0.23498186469078064,-0.3047657012939453,0.0084114670753479,0.012241080403327942,0.17982688546180725,-0.5079346895217896,-0.19816812872886658,-0.33423513174057007,1.2518722590643516,-0.23719991624197212,0.9908207285633042
1687101510.882366,0.9173566102981567,0.2574174106121063,-0.3036327064037323,0.0007492899894714355,-0.0071274638175964355,0.18304261565208435,-0.12045848369598389,0.09059635549783707,-0.41848552227020264,1.251159360956329,-0.2603485775629065,1.000349459377095
1687101510.972393,0.9147409796714783,0.27442920207977295,-0.29654237627983093,0.009590566158294678,-0.007018864154815674,0.15101942420005798,0.5360219478607178,0.3298860490322113,-0.44037386775016785,1.2573046580209448,-0.2779960636174952,0.9835941162420687
1687101510.977261,0.9154801964759827,0.2818678319454193,-0.28713521361351013,0.0013899803161621094,-0.04117557406425476,0.1271163523197174,0.9067901968955994,0.547954797744751,-0.36278900504112244,1.2668692339533678,-0.28574032532355537,0.9390822952154815
1687101511.0702028,0.919015109539032,0.28264886140823364,-0.27481019496917725,0.021506011486053467,-0.06443288922309875,0.058990031480789185,1.0347334146499634,0.5589277148246765,-0.2731240689754486,1.2802325668848116,-0.2865544585819011,0.8844670374606981
1687101511.0896401,0.9233626127243042,0.28057894110679626,-0.26206231117248535,0.019157350063323975,-0.08650234341621399,0.01245918869972229,0.778626024723053,0.554746687412262,-0.17097270488739014,1.294255336806037,-0.2843972302830553,0.8345819437289402
1687101511.1165571,0.9282671213150024,0.27764010429382324,-0.24745936691761017,0.03384530544281006,-0.10231652855873108,-0.05751800537109375,0.4871639311313629,0.42478424310684204,-0.05838366225361824,1.3102729067560492,-0.2813367768378524,0.8013024368998451
1687101511.210174,0.9324156045913696,0.27395594120025635,-0.23568861186504364,0.03454899787902832,-0.10699418187141418,-0.09821939468383789,0.12472625076770782,0.2471068650484085,0.05591559410095215,1.3232103720470874,-0.2775039466106573,0.785814925721945
1687101511.214404,0.9358622431755066,0.2683110237121582,-0.22840958833694458,0.03366589546203613,-0.08526653051376343,-0.12394630908966064,-0.05498013645410538,0.05654118210077286,0.17224252223968506,1.3314129386348343,-0.27163934052700783,0.7860864795271872
1687101511.3352442,0.9382737278938293,0.2585870325565338,-0.2297283262014389,0.02257215976715088,-0.04619985818862915,-0.10044127702713013,0.03542906790971756,-0.12391397356987,0.25579357147216797,1.3306786082286235,-0.26155920265627214,0.7905893257304693
1687101511.354312,0.9397649168968201,0.24425145983695984,-0.23912934958934784,0.01621335744857788,-0.03328339755535126,-0.06296406686306,-0.03705807402729988,-0.2321445196866989,0.3460512161254883,1.3216276763954997,-0.24674769993936552,0.7916952304881087
1687101511.421134,0.9411234259605408,0.2291596233844757,-0.248540461063385,0.0029682517051696777,-0.02360840141773224,-0.012110099196434021,-0.24667851626873016,-0.24372826516628265,0.3718957304954529,1.3126018933218768,-0.2312142389012879,0.8044506944843568
1687101511.437077,0.9418238997459412,0.21695953607559204,-0.2567024528980255,0.018274307250976562,-0.002527683973312378,0.026126980781555176,-0.4449218809604645,-0.24990588426589966,0.33296993374824524,1.3047010260465037,-0.21869873087250807,0.8269262647650014
1687101511.508996,0.9417650103569031,0.21017524600028992,-0.2624976933002472,0.0066449642181396484,0.027572035789489746,0.046616435050964355,-0.43053537607192993,-0.1878855973482132,0.20978285372257233,1.2989661348672796,-0.21175420493603633,0.8531668704568732
1687101511.512429,0.9411975145339966,0.20843882858753204,-0.26589587330818176,0.001734614372253418,0.039470821619033813,0.058788418769836426,-0.2835448682308197,-0.10777851939201355,0.0675073117017746,1.2954634124348963,-0.20997845166290766,0.8730814508704129
