Timestamp,gravityX,gravityY,gravityZ,accelerationX,accelerationY,accelerationZ,rotationRateX,rotationRateY,rotationRateZ,attitudeRoll,attitudePitch,attitudeYaw
1687103345.059552,0.9588157534599304,0.21885183453559875,-0.1810419261455536,-0.00141829252243042,0.05449405312538147,-0.014804542064666748,-0.1741100400686264,-0.07917778193950653,0.21912559866905212,1.3841751926740207,-0.22063763023187194,1.785889429921796
1687103345.1495209,0.9603511095046997,0.20959046483039856,-0.1838410645723343,-0.000847935676574707,0.059299856424331665,-0.019589006900787354,-0.08376123756170273,-0.12352579832077026,0.19887006282806396,1.3816535033847526,-0.21115609888488576,1.7928232348800153
1687103345.170625,0.960462212562561,0.203996941447258,-0.189466655254364,-0.02442699670791626,0.06207053363323212,0.004164010286331177,-0.1374892294406891,-0.1520068645477295,0.06334184110164642,1.376030878341424,-0.20543899261270746,1.7996044884995666
1687103345.210907,0.9587026238441467,0.20635417103767395,-0.19572211802005768,-0.022179245948791504,0.07402601838111877,0.03497081995010376,-0.11890456825494766,-0.1273338496685028,-0.0740039199590683,1.36941061028561,-0.20784746491155173,1.8066363323348797
1687103345.307883,0.9559354186058044,0.2148076742887497,-0.20011276006698608,0.005017280578613281,0.053518056869506836,0.052041590213775635,-0.0427863672375679,-0.12243097275495529,-0.1696750521659851,1.3644391059278247,-0.21649490828660325,1.8090946732712923
1687103345.313861,0.9533289670944214,0.22545935213565826,-0.20082806050777435,-0.025579333305358887,0.03824296593666077,0.0564190149307251,0.10430779308080673,0.03349859640002251,-0.22309134900569916,1.3631723166713945,-0.22741449492010324,1.8066354431495226
1687103345.359693,0.9517859816551208,0.23449978232383728,-0.19777049124240875,-0.007923126220703125,0.01740749180316925,0.05719137191772461,0.2992403209209442,0.12464810907840729,-0.1930675357580185,1.3659228535809376,-0.236703969628606,1.7955096202965986
1687103345.452558,0.9520556330680847,0.23836944997310638,-0.19175511598587036,-0.003935515880584717,0.01591821014881134,0.05535691976547241,0.6432668566703796,0.2912290394306183,-0.13824602961540222,1.3720437623674793,-0.24068656374013955,1.770666107725854
1687103345.4710798,0.9534152150154114,0.23848716914653778,-0.1847248375415802,0.013427376747131348,-0.06604763865470886,-0.01859837770462036,0.35091909766197205,0.23704224824905396,-0.09338299185037613,1.3794168939988247,-0.24080776868938591,1.7370673289533582
1687103345.50979,0.9537134766578674,0.24533715844154358,-0.17389674484729767,-0.010659396648406982,-0.12467074394226074,-0.02803795039653778,-0.5456392168998718,0.18538059294223785,-0.18778502941131592,1.3904411703661672,-0.24786746411501537,1.7419199896228916
1687103345.6036239,0.9518882632255554,0.262186735868454,-0.15864023566246033,-0.009337663650512695,-0.07241326570510864,-0.04504925012588501,-0.7850295305252075,0.07419770956039429,-0.23221103847026825,1.4056556401776128,-0.26528752865195665,1.7790676964170908
1687103345.621716,0.9486790895462036,0.27591726183891296,-0.15452422201633453,0.04421031475067139,0.007835149765014648,-0.08448940515518188,-0.303435742855072,-0.137952521443367,-0.1810341775417328,1.4093307579425656,-0.27954387819381243,1.8038381445404708
1687103345.657861,0.9457470774650574,0.28299957513809204,-0.15960416197776794,0.04051995277404785,0.022893279790878296,-0.0595577210187912,0.0438188835978508,-0.16719482839107513,-0.08188361674547195,1.4036117044349312,-0.28692010492403364,1.8098358591657076
1687103345.722121,0.943290650844574,0.2852260172367096,-0.16984936594963074,0.015235960483551025,0.00250890851020813,-0.0284995436668396,-0.0036424286663532257,-0.17689421772956848,-0.049492720514535904,1.3926448160932272,-0.28924222038215003,1.8069447127320322
1687103345.819412,0.9403389692306519,0.28855758905410767,-0.1802695244550705,0.004897177219390869,0.010697722434997559,0.0025963187217712402,-0.07764581590890884,-0.27069687843322754,-0.0958477035164833,1.3813874114377582,-0.29271998850319914,1.8082530657680875
1687103345.836806,0.9358431696891785,0.29608792066574097,-0.19112643599510193,-0.016867399215698242,0.005562961101531982,0.020258620381355286,-0.2255624234676361,-0.2418530285358429,-0.1661062240600586,1.369337626334633,-0.30059432196476255,1.8145821457459688
1687103345.8998132,0.9301581382751465,0.30901071429252625,-0.19828835129737854,-0.0007300376892089844,0.0047404468059539795,0.0507817268371582,-0.3543555736541748,-0.23515598475933075,-0.2412545531988144,1.360763237952312,-0.31415265695753236,1.828564062744091
1687103345.913024,0.9236210584640503,0.3256097137928009,-0.20224353671073914,0.006157994270324707,0.0038579702377319336,0.0325658917427063,-0.38893553614616394,-0.21224874258041382,-0.3012363314628601,1.355230516279638,-0.33165652709264615,1.8447290754045187
1687103345.957561,0.9162585735321045,0.3448643386363983,-0.20381011068820953,-0.013518214225769043,-0.031525224447250366,0.037382572889328,-0.49575474858283997,-0.17887434363365173,-0.32433974742889404,1.3519224041916271,-0.35209426170641345,1.8656840384473463
1687103346.054078,0.9104338884353638,0.36030977964401245,-0.20319156348705292,-0.013430774211883545,0.015773534774780273,0.011953234672546387,-0.1104143038392067,-0.018812384456396103,-0.17851443588733673,1.3512138969715852,-0.36859995740830265,1.8808208049924555
1687103346.177328,0.9092597961425781,0.36358657479286194,-0.20261090993881226,0.009380221366882324,-0.011001825332641602,-0.00010201334953308105,0.11539341509342194,0.06639699637889862,-0.016663335263729095,1.351547692687967,-0.3721150835862885,1.8762969267599374
1687103346.18261,0.9101934432983398,0.3624572455883026,-0.20043058693408966,0.004677712917327881,-0.029312223196029663,0.004950359463691711,0.06489870697259903,0.028852498158812523,0.017005478963255882,1.3540489935319693,-0.37090308629617813,1.8710577433748954
1687103346.235002,0.9107927083969116,0.361593097448349,-0.19926568865776062,-0.0010180473327636719,-0.01746174693107605,0.00026066601276397705,0.007831800729036331,0.04432498663663864,0.015223557129502296,1.3554074230718376,-0.369976048854382,1.8701568339590924
1687103346.25032,0.9123924970626831,0.3584311008453369,-0.19765405356884003,-0.0067681074142456055,0.00878685712814331,0.009894788265228271,0.128557950258255,0.0884128212928772,0.08048829436302185,1.3574601277553267,-0.3665867740166751,1.8680309396769277
1687103346.2532868,0.9140854477882385,0.35441258549690247,-0.19707663357257843,0.016288578510284424,-0.024136215448379517,-0.006216078996658325,-0.13083377480506897,0.09123438596725464,0.03614004701375961,1.358446948744777,-0.3622858048478428,1.8640414190928254
1687103346.2879272,0.9117031693458557,0.36476799845695496,-0.18905478715896606,0.21335792541503906,-0.15169432759284973,-0.5035263299942017,-2.7846310138702393,-0.9924917817115784,-0.31150326132774353,1.366329742533186,-0.37338362322303625,1.9112873447963217
1687103346.381769,0.879859983921051,0.441933274269104,-0.17476031184196472,0.1404341459274292,-0.07762980461120605,-0.4493393301963806,-4.148997783660889,-1.982188105583191,-1.3954458236694336,1.3747252801933099,-0.45775267422572463,2.1189930405560826
1687103346.475076,0.8179569840431213,0.5443075895309448,-0.18621373176574707,0.15743064880371094,0.032337188720703125,-0.33388203382492065,-4.231186866760254,-2.722184658050537,-1.7411667108535767,1.346954234306764,-0.5755634818903548,2.3255352668307228
1687103346.479638,0.7282541990280151,0.6695681810379028,-0.1460278332233429,0.22116291522979736,-0.15467584133148193,-0.1543567031621933,-6.776420593261719,-3.5031893253326416,-2.4516758918762207,1.3729030622079332,-0.7336272534897917,2.6191187134033163
1687103346.593523,0.6197682619094849,0.7845775485038757,0.018035709857940674,0.10360521078109741,-0.12268197536468506,0.0015259962528944016,-5.836084842681885,-2.7978994846343994,-2.424368143081665,1.599888849956234,-0.9020144899972127,-3.1341099973651048
1687103346.598649,0.5584577918052673,0.8241259455680847,0.09455887973308563,0.07038760185241699,-0.10732913017272949,0.10639931261539459,-2.25586199760437,-1.3060264587402344,-1.0852644443511963,1.7385269051272532,-0.9686573366319361,-2.8368929552953146
1687103346.711306,0.5264313220977783,0.8356558084487915,0.15668287873268127,0.2923707365989685,-0.442635178565979,0.16475869715213776,-2.3276004791259766,-1.6199673414230347,-0.9960473775863647,1.8600793822350947,-0.9893256495639515,-2.601726598219835
1687103346.7173219,0.49841558933258057,0.8379728198051453,0.22222352027893066,0.12630987167358398,-0.5002806782722473,0.21063756942749023,-1.8008215427398682,-1.0880422592163086,-0.7179703712463379,1.9902019942372686,-0.9935578163639289,-2.3660341069733315
1687103346.8069339,0.48428472876548767,0.8384442925453186,0.24995921552181244,0.030424892902374268,-0.2229200005531311,0.2909952700138092,-0.6678234338760376,0.35232189297676086,-0.45739656686782837,2.047273200169752,-0.9944223636499562,-2.277559182447401
1687103346.823844,0.4224419891834259,0.8675201535224915,0.26258620619773865,0.08387526869773865,0.5692320466041565,1.477724313735962,1.8073289394378662,4.429423809051514,-1.574212670326233,2.1269405911729047,-1.050194857880755,-2.2792173458158387
1687103346.8902311,0.29726848006248474,0.9400033950805664,0.1674061119556427,0.7579989433288574,0.44653207063674927,1.9530161619186401,8.348016738891602,7.50293493270874,-0.3438294231891632,2.0836777967494275,-1.2226402814497102,-2.70911090345632
1687103346.894805,0.2243570238351822,0.9651210904121399,-0.13492737710475922,0.19211652874946594,-0.22053790092468262,1.1711517572402954,6.514695167541504,7.6342363357543945,-2.932239294052124,1.029351109125033,-1.3059054372766985,2.082466985342831
1687103346.98404,0.10210006684064865,0.9651625752449036,-0.24090804159641266,0.5870784521102905,-0.8424056768417358,0.14697498083114624,-1.3101615905761719,4.468346118927002,-4.601048946380615,0.4008651817368197,-1.306063993837717,1.1369331534425153
1687103347.00122,-0.07754364609718323,0.9832844734191895,-0.1647375226020813,1.4069199562072754,0.8581156134605408,-0.3859063386917114,1.3690155744552612,3.123159170150757,-3.3731000423431396,-0.4399424980898233,-1.3876991577538569,0.07633019302710446
1687103347.070898,-0.20399001240730286,0.9387538433074951,-0.27772167325019836,1.2812148332595825,-0.5494868755340576,0.006069540977478027,1.6739674806594849,1.7728639841079712,-2.571885347366333,-0.6335151421716436,-1.218995861978171,-0.2538960537087155
1687103347.0852752,-0.25967925786972046,0.8988046646118164,-0.35315269231796265,0.9141745567321777,-1.1881113052368164,-0.4971737265586853,-0.7291074395179749,-0.987708568572998,-0.5509180426597595,-0.6340377141306545,-1.1170349803582533,-0.28901836883120385
1687103347.158144,-0.2497747540473938,0.9340695142745972,-0.25519898533821106,-0.09315121173858643,-0.7057370543479919,-0.2682231664657593,-0.6679657697677612,-0.363911896944046,1.1319005489349365,-0.7746569782223907,-1.20564444127339,-0.4060570919931605
1687103347.1618829,-0.2132461667060852,0.9413418769836426,-0.26153650879859924,-0.12070761620998383,0.46066612005233765,0.029099494218826294,-0.49126136302948,0.30541038513183594,0.20955808460712433,-0.684036355384034,-1.2265850189582606,-0.30960986498321735
1687103347.221055,-0.21371695399284363,0.9443232417106628,-0.2501572072505951,-0.1235022246837616,0.46261340379714966,-0.10795122385025024,0.4136718809604645,0.41834378242492676,-0.22789764404296875,-0.707002830690615,-1.2355315428467661,-0.3508479312625523
1687103347.3134608,-0.22025269269943237,0.9376128911972046,-0.26901817321777344,0.01729559898376465,-0.04569089412689209,-0.12475001811981201,0.07777854800224304,0.06940817832946777,-0.2462737262248993,-0.6860565834545406,-1.215699640928465,-0.34572810082979927
1687103347.3200269,-0.22936466336250305,0.932901918888092,-0.2776431739330292,0.012110084295272827,-0.049418091773986816,-0.04324907064437866,0.3331657946109772,-0.008619669824838638,-0.07020097225904465,-0.6904620024644353,-1.202388543434469,-0.35018206494052845
1687103347.3716822,-0.23002712428569794,0.9303289651870728,-0.2856142222881317,0.037842750549316406,-0.11586058139801025,0.05290251970291138,0.1321885883808136,0.08945022523403168,0.014567642472684383,-0.6780110300856328,-1.1953087830917417,-0.34064151034300466
1687103347.46383,-0.22149890661239624,0.927680492401123,-0.30057793855667114,0.041460514068603516,-0.022574901580810547,0.0737256407737732,0.445353627204895,-0.0029895873740315437,0.34268540143966675,-0.6350707852874592,-1.188151763562964,-0.2963118454338953
1687103347.482496,-0.20343372225761414,0.932304859161377,-0.2990352511405945,-0.1345636248588562,-0.080940842628479,0.07804235816001892,-0.7072643041610718,0.2112288624048233,0.3742617964744568,-0.5973818301274516,-1.2007341827341236,-0.26123460736576865
1687103347.520805,-0.19016200304031372,0.9315416216850281,-0.30994942784309387,-0.4932332932949066,0.18386059999465942,-0.36287152767181396,0.9972458481788635,-0.31013476848602295,0.11804589629173279,-0.5503057016770336,-1.1986295861922427,-0.2046250178161359
1687103347.61312,-0.19534192979335785,0.9363364577293396,-0.2917456030845642,-0.8670207262039185,-0.5517844557762146,-0.22030878067016602,-1.7109960317611694,0.3511015772819519,-0.08045321702957153,-0.5900047848534549,-1.2120463107860282,-0.24924595327585655
1687103347.618582,-0.18462008237838745,0.942766547203064,-0.2776803970336914,-0.5292470455169678,0.25124889612197876,-0.35018810629844666,-0.12395446002483368,-0.3908403217792511,0.6372910141944885,-0.586754491525331,-1.2308319430041679,-0.24113611176665764
1687103347.672827,-0.12588314712047577,0.9492224454879761,-0.28832313418388367,-0.5876330137252808,0.18876278400421143,-0.03143996000289917,2.7288379669189453,0.23119208216667175,1.7646404504776,-0.41165844022045,-1.2507550174565238,-0.06400835183309013
1687103347.764522,0.002311181044206023,0.9202075004577637,-0.39142388105392456,0.0675283670425415,-0.48366886377334595,0.3584955632686615,-0.09243381768465042,2.064946413040161,2.451601982116699,0.005904479146197136,-1.1686102158137892,0.34030045377977086
1687103347.7835932,0.05352741479873657,0.9361042976379395,-0.34762564301490784,2.477386951446533,1.199409008026123,0.3661652207374573,-1.3983949422836304,-3.249657392501831,0.6399750709533691,0.15278012546046538,-1.2113857369655703,0.5024352164562593
1687103347.820086,0.022134700790047646,0.9509992003440857,-0.30839958786964417,0.061315715312957764,-0.16361528635025024,0.048389941453933716,1.1999645233154297,0.311117947101593,-0.4032488167285919,0.07164993861244143,-1.256451563940322,0.48619936474846437
1687103347.8818622,0.0454755574464798,0.9234582185745239,-0.38099437952041626,0.13944578170776367,-0.8590204119682312,-0.09457620978355408,0.2958197593688965,-0.3636978566646576,0.9121081829071045,0.11879813787579065,-1.176997821951299,0.533276521228082
1687103347.896,0.058993637561798096,0.9329734444618225,-0.355077862739563,0.08771967887878418,0.16213464736938477,0.22957444190979004,-0.39332184195518494,-0.1682930588722229,-0.03429659083485603,0.16463893593392734,-1.2025870967859549,0.5995590629888233
1687103347.938745,0.06715134531259537,0.9308956265449524,-0.35905981063842773,-0.07824442535638809,-0.20874297618865967,0.07501760125160217,0.3129768967628479,0.1610519289970398,0.5693738460540771,0.18488415513260895,-1.1968570164054682,0.620396599629048
1687103347.999913,0.07971019297838211,0.9296114444732666,-0.35981762409210205,-0.008741505444049835,0.08032196760177612,0.05270412564277649,-0.40797948837280273,0.010156255215406418,-0.05965112894773483,0.21800864616529475,-1.1933570675835232,0.6531183866091144
1687103348.059917,0.07916140556335449,0.9318379759788513,-0.35413452982902527,-0.07328671962022781,0.1266641616821289,-0.06754198670387268,0.0679105818271637,0.08667297661304474,0.02834450826048851,0.21991944140956257,-1.1994453215329002,0.6543776093062694
1687103348.126347,0.07948414236307144,0.9317212700843811,-0.3543693423271179,-0.01672467589378357,0.06652390956878662,-0.048004865646362305,-0.09899728745222092,0.018705321475863457,-0.05635244771838188,0.2206456477580527,-1.19912394311106,0.651949473456727
1687103348.2137651,0.0729513168334961,0.9325789213180542,-0.3535175621509552,0.00848492980003357,0.1008073091506958,-0.008314013481140137,-0.0239618681371212,0.040210507810115814,-0.19608627259731293,0.2035018555001365,-1.2014926506869097,0.6327823974409211
1687103348.234149,0.07038448750972748,0.9319631457328796,-0.35565510392189026,0.011555276811122894,0.022931814193725586,-0.02839323878288269,0.15025973320007324,0.05356040224432945,-0.0849214643239975,0.19537645149402097,-1.199790430319931,0.6232621944601756
1687103348.268052,0.061177220195531845,0.9291645884513855,-0.3645685911178589,0.19657433032989502,0.06316012144088745,0.011602431535720825,0.33258602023124695,0.3096086382865906,-0.6046556234359741,0.1662581374152953,-1.1921465039615242,0.5754148402931255
1687103348.3630528,0.02091507986187935,0.9208340048789978,-0.38939350843429565,0.38914966583251953,-0.0490078330039978,0.060337841510772705,0.4880496859550476,1.0951398611068726,-1.707375168800354,0.05366037297402684,-1.1702137701927275,0.428555497518172
1687103348.369382,-0.0441962368786335,0.9172755479812622,-0.3957929313182831,1.0126715898513794,-0.38616299629211426,0.25333699584007263,0.04658180847764015,0.4663863480091095,-1.826055884361267,-0.11120437105801355,-1.1611847333924554,0.19525633955890773
1687103348.420383,-0.1138891726732254,0.9255796074867249,-0.3610145151615143,0.9040350914001465,-0.33205854892730713,0.45807579159736633,-1.615243911743164,1.1064822673797607,-2.0344583988189697,-0.3055881506798756,-1.1825638097170073,-0.07105334595711574
1687103348.512793,-0.1780812293291092,0.9367742538452148,-0.3012327253818512,0.9417836666107178,0.16736698150634766,0.28348684310913086,-1.1494687795639038,-0.4783228635787964,-0.680491030216217,-0.5339051953391671,-1.2132953056973845,-0.3349262093641015
1687103348.519137,-0.17968939244747162,0.9588077068328857,-0.21999844908714294,-0.2537822127342224,-0.22847634553909302,-0.1333034485578537,-1.845420241355896,-5.111871719360352,3.6433956623077393,-0.6848866485409022,-1.2827746313832877,-0.33868811406073435
1687103348.5698318,-0.09535909444093704,0.9794946908950806,-0.17747293412685394,-2.8841636180877686,1.1389591693878174,-0.1962452381849289,1.0698604583740234,-0.2778926193714142,0.35280686616897583,-0.4930531102611604,-1.3679379731771673,-0.056251135585076134
1687103348.6633658,-0.09957583993673325,0.9724366664886475,-0.21083533763885498,-1.2522001266479492,0.06754136085510254,-0.33114153146743774,0.5662659406661987,1.52346670627594,-0.8673182129859924,-0.4412365172595537,-1.335462928023159,-0.015015054091024308
1687103348.669608,-0.1295488476753235,0.9571737051010132,-0.2589121460914612,-0.06497010588645935,0.06498205661773682,-0.09161263704299927,0.7498379945755005,0.9098734855651855,-0.7312499284744263,-0.4639342558200979,-1.2770769974468943,-0.11542467143895313
1687103348.720701,-0.15351265668869019,0.9509027004241943,-0.2687334716320038,0.41336995363235474,-0.04526317119598389,0.13743171095848083,0.11248651891946793,-0.4115675985813141,-0.3556677997112274,-0.5190077727856796,-1.256139715041692,-0.1666013516215977
1687103348.814297,-0.16756947338581085,0.9421733021736145,-0.29022353887557983,0.15252438187599182,-0.005985617637634277,0.15591579675674438,0.348574161529541,-0.06849866360425949,-0.11041735112667084,-0.5236216065320227,-1.2290573963458984,-0.16951743755404186
1687103348.834656,-0.16812953352928162,0.9413248896598816,-0.29264265298843384,0.12114781141281128,-0.06405138969421387,0.1326848268508911,0.08525681495666504,-0.02243220806121826,0.08435007184743881,-0.5214746919468344,-1.2265347203010752,-0.16229153035123137
1687103348.8679051,-0.1595235913991928,0.9374241828918457,-0.30949661135673523,0.05541294813156128,-0.0465245246887207,0.016955196857452393,0.4648033380508423,-0.060661882162094116,0.34500357508659363,-0.4759146799177919,-1.2151573768257085,-0.1114812573395731
1687103348.9618049,-0.14297528564929962,0.9364842176437378,-0.32024264335632324,-0.01071116328239441,-0.11455428600311279,-0.008416295051574707,0.14174985885620117,0.12417890876531601,0.3566664457321167,-0.4199055302297928,-1.2124674022033606,-0.05314283699806878
1687103348.9664268,-0.12318678945302963,0.9271811842918396,-0.35377928614616394,0.1661098450422287,-0.01223379373550415,-0.3892931044101715,1.1005488634109497,-0.45744001865386963,0.9044188261032104,-0.3350724631693984,-1.1868167847891056,0.046924277587033346
1687103349.019609,-0.0798674002289772,0.9303685426712036,-0.35782042145729065,0.28016960620880127,-0.7313939332962036,-0.2376232147216797,-1.4721870422363281,-2.197603702545166,1.813433289527893,-0.21960552133972958,-1.1954168082432624,0.23445792863343695
1687103349.11414,-0.027701586484909058,0.9770635366439819,-0.21113811433315277,0.4446938633918762,-0.7850469946861267,-0.566480278968811,-3.6888773441314697,-3.1430046558380127,2.0151190757751465,-0.13045611756679484,-1.3562051148069265,0.4666403652253996
1687103349.1344218,0.07630384713411331,0.9970753788948059,0.004278026055544615,0.5707757472991943,-0.6506399512290955,-0.12839293479919434,-4.631915092468262,-4.366343021392822,2.721027135848999,1.626803357905247,-1.4942970936029911,2.4184075684232913
1687103349.167937,0.24311885237693787,0.9494364857673645,0.1986539214849472,0.6615290641784668,-0.35704463720321655,0.1164705753326416,-4.561305522918701,-5.336084365844727,2.847991466522217,2.2558811655226907,-1.2514362256295473,-2.981936879561339
1687103349.2670999,0.4411512017250061,0.8613532185554504,0.25190460681915283,0.997981607913971,0.04092925786972046,0.38351699709892273,-2.7835874557495117,-6.675017833709717,2.623652458190918,2.0896317523829397,-1.0379274854560043,-2.8250959656118666
1687103349.284056,0.6188815832138062,0.7687342762947083,0.16134801506996155,1.1409757137298584,0.12575101852416992,0.8953840732574463,-2.0377554893493652,-6.143320560455322,2.5865797996520996,1.8258283999133038,-0.8768597356944884,-2.7360191562035494
1687103349.318202,0.7195453643798828,0.6923853754997253,0.053447261452674866,0.4667643904685974,0.43084436655044556,1.1831554174423218,-1.5302058458328247,-3.7443034648895264,1.1562527418136597,1.6449393768449831,-0.7647898341997407,-2.6312881475394128
1687103349.4768891,0.7294461131095886,0.6829333901405334,0.038859669119119644,-0.3861843943595886,0.4308664798736572,0.9896588325500488,-0.7526118159294128,-0.2089049369096756,-0.3189266622066498,1.6240188595876643,-0.7517707933933209,-2.544514648074991
1687103349.4822621,0.7278546690940857,0.6843702793121338,0.04318368807435036,-0.19690978527069092,0.061250269412994385,0.4161515235900879,-0.064702108502388,-0.4351919889450073,0.24264885485172272,1.6300569539861856,-0.753739692368524,-2.529554149556818
1687103349.536587,0.7327866554260254,0.6795422434806824,0.03529495373368263,-0.12304550409317017,0.1462632417678833,0.39462125301361084,0.08224765956401825,-0.04320022836327553,-0.046094391494989395,1.6189245221426871,-0.7471384664979323,-2.512853273379627
1687103349.55274,0.7281749844551086,0.6844000220298767,0.03684670105576515,-0.07172662019729614,0.050722479820251465,0.2653076648712158,0.09617982804775238,0.5725942850112915,-0.21259252727031708,1.6213546395001819,-0.7537804796656268,-2.531714715415096
1687103349.555691,0.7210216522216797,0.6906436085700989,0.05602577328681946,0.04507637023925781,-0.04470878839492798,-0.04392576590180397,0.02847886085510254,0.4829665720462799,-0.09617145359516144,1.6483438233384329,-0.7623786557715012,-2.5297362832390298
1687103349.5873551,0.7172048687934875,0.6933903694152832,0.06947576254606247,0.04913735389709473,-0.09130924940109253,-0.14377093315124512,0.007245905697345734,0.1928502768278122,-0.06498932093381882,1.6673651909633866,-0.7661836652945531,-2.524820217428902
1687103349.6491508,0.717115044593811,0.6932962536811829,0.07131680846214294,0.02072376012802124,-0.07439994812011719,-0.13103985786437988,0.2131069153547287,0.07168656587600708,0.07681149244308472,1.6699200097708244,-0.7660529984871269,-2.530734232852583
1687103349.709099,0.7172202467918396,0.6936673521995544,0.06648486107587814,0.017581939697265625,-0.01767277717590332,-0.01619209349155426,-0.018897388130426407,0.11106987297534943,-0.09197092056274414,1.6632301400060747,-0.7665681276998159,-2.546910030237877
1687103349.8044019,0.7109147310256958,0.7008461952209473,0.058438654989004135,-0.042869508266448975,0.22653722763061523,0.1493401676416397,1.1764789819717407,0.4730602204799652,-0.4180510938167572,1.6528139819905983,-0.7765831077309525,-2.568889179934631
1687103349.893938,0.665525496006012,0.7458324432373047,0.028449954465031624,-0.19187748432159424,0.7901017665863037,0.8224257230758667,3.5965940952301025,3.3030407428741455,-2.2420196533203125,1.6135184211522708,-0.8417836259076765,-2.7421287611969873
1687103349.8997378,0.5485135316848755,0.8360931873321533,0.009005698375403881,0.31330299377441406,0.49512916803359985,1.0783660411834717,2.3531973361968994,3.769495964050293,-3.2961833477020264,1.5872132227811404,-0.9901225388888224,-3.0062714606889993
1687103349.983253,0.3982703387737274,0.9172679781913757,-0.0006133286515250802,0.557891309261322,-0.0028087496757507324,0.541659414768219,2.436493158340454,3.792896032333374,-3.6927506923675537,1.569256347251463,-1.1611656032346112,3.029796149010361
1687103350.002485,0.23264601826667786,0.9725340604782104,-0.007286673411726952,0.3748369812965393,0.23562616109848022,0.879280686378479,1.553056240081787,5.724822521209717,-3.499762535095215,1.5394857030645224,-1.3358810984772311,2.739424362710668
1687103350.070668,0.06972312927246094,0.9905276298522949,-0.11829466372728348,0.9452306032180786,0.1435818076133728,0.6311578750610352,3.45417857170105,4.435996055603027,-4.133994102478027,0.532590544996352,-1.433047589614485,1.4653464098350935
1687103350.086215,-0.09778818488121033,0.9817042350769043,-0.16338317096233368,1.1336464881896973,-0.5909572839736938,0.49135565757751465,-1.2567567825317383,4.9724273681640625,-4.188411235809326,-0.5393309809343223,-1.3792143453418375,0.13440068841087904
1687103350.159731,-0.22635968029499054,0.9615839123725891,-0.15529784560203552,1.3690752983093262,-0.2778528928756714,-0.24439077079296112,0.34783241152763367,3.8225810527801514,-1.9724087715148926,-0.9694828912135712,-1.2927149459429264,-0.5302778349428535
1687103350.163424,-0.27285829186439514,0.9316865801811218,-0.23980900645256042,1.0364387035369873,-0.7496645450592041,-0.8189830183982849,-0.19370658695697784,1.0966556072235107,-0.670808732509613,-0.8497744365998358,-1.1990284269568396,-0.5502512143243993
1687103350.2198,-0.27667954564094543,0.9418766498565674,-0.19056981801986694,0.5081707239151001,-0.2988255023956299,-0.8218812942504883,-0.2742934823036194,0.3014478087425232,0.1698615998029709,-0.9676440714387932,-1.2281731573439796,-0.7168655985382394
1687103350.313805,-0.2629047930240631,0.9477867484092712,-0.1805025041103363,0.11402490735054016,-0.4037805199623108,-0.4135373830795288,-0.6448378562927246,-0.9126406908035278,0.8539413809776306,-0.9691408975808027,-1.2462225563992944,-0.6877145761874016
1687103350.319958,-0.2311069220304489,0.9555882811546326,-0.18286776542663574,-0.4363429546356201,0.22849375009536743,-0.11458693444728851,0.4079555869102478,0.20081567764282227,0.26917579770088196,-0.9014018487922332,-1.2716494507448253,-0.5983427749179228
1687103350.371323,-0.23994861543178558,0.9513945579528809,-0.19306203722953796,-0.05407288670539856,0.26476144790649414,0.08429747819900513,0.09139294922351837,-0.33372047543525696,-0.42432570457458496,-0.8932583503090813,-1.2577327391667752,-0.582844788364786
1687103350.461927,-0.2605450451374054,0.9449480175971985,-0.19796358048915863,0.0016492009162902832,-0.04086470603942871,0.1587943732738495,0.10058687627315521,0.05550205707550049,-0.3093825578689575,-0.9210491104974547,-1.2374356951468934,-0.6089155302864638
1687103350.4679852,-0.26586654782295227,0.942188024520874,-0.2039521187543869,0.12093865871429443,-0.13490664958953857,0.09233416616916656,0.04480723291635513,0.1818309724330902,0.04763107746839523,-0.9164268099288899,-1.2291013020872241,-0.6071004029755466
1687103350.521244,-0.25395017862319946,0.9453232884407043,-0.2046290636062622,0.14152351021766663,-0.02984178066253662,0.06708647310733795,-0.03039851412177086,0.09499290585517883,0.33680230379104614,-0.8925383204976475,-1.2385844941722222,-0.5898752812001891
1687103350.613828,-0.24233238399028778,0.9487422704696655,-0.20288628339767456,-0.05332180857658386,0.009677410125732422,-0.026285380125045776,0.019598178565502167,-0.2874031662940979,0.23124510049819946,-0.8737667986421368,-1.2492323049929432,-0.5666745722647205
1687103350.620163,-0.24198593199253082,0.9460515975952148,-0.21547353267669678,-0.5259888172149658,0.1222008466720581,-0.4409746825695038,0.8098872303962708,-0.29345473647117615,-0.2077861875295639,-0.8432891345749655,-1.2408249120767065,-0.5159416017264826
1687103350.669217,-0.26842886209487915,0.9328092932701111,-0.24044296145439148,-0.7579687833786011,0.01727926731109619,-0.34851571917533875,0.3851068615913391,-0.11057846993207932,-0.7428235411643982,-0.8403388000897417,-1.2021314186597611,-0.502427756231507
1687103350.760288,-0.29953107237815857,0.9219632148742676,-0.24548877775669098,-0.635664701461792,-0.08738380670547485,0.00206543505191803,0.288256973028183,-0.039138272404670715,-0.3480616807937622,-0.8842316758168444,-1.1731194856049674,-0.5548498640606547
1687103350.7668009,-0.29309383034706116,0.9174619913101196,-0.26899710297584534,-0.6241424083709717,-0.25228559970855713,0.1270751953125,0.46918877959251404,0.6677254438400269,0.7549645304679871,-0.8282417745566895,-1.1616531018126397,-0.5033852964591611
1687103350.856859,-0.20453600585460663,0.9325081706047058,-0.297646164894104,-0.009437859058380127,-0.7026651501655579,0.04493024945259094,0.5178140997886658,0.4322625994682312,3.2282681465148926,-0.6020689090989676,-1.2012967691613805,-0.28101052353560124
1687103350.942888,-0.015936514362692833,0.942569375038147,-0.333629846572876,0.8962008953094482,-0.36925095319747925,0.29752764105796814,-0.5547381639480591,1.0175586938858032,3.6458041667938232,-0.04773077459742127,-1.2302410671449675,0.2658326466628211
1687103350.948616,0.03299253061413765,0.9549061059951782,-0.29506880044937134,1.7304657697677612,1.3512461185455322,0.6003667116165161,-1.014428734779358,-2.270172595977783,-0.6195856928825378,0.11135051588523776,-1.2693434304107234,0.5081581631768557
1687103351.033763,0.00031740881968289614,0.9527510404586792,-0.3037519156932831,-0.18809199333190918,-0.4888533353805542,-0.18272870779037476,1.3517343997955322,0.10129202157258987,0.18168415129184723,0.0010449603110504007,-1.2621677421193565,0.4270576298263052
1687103351.052722,0.02075045369565487,0.9484115839004517,-0.31636157631874084,0.0256516020745039,-0.3979966640472412,-0.033171385526657104,-0.7243218421936035,-0.31059011816978455,0.1713113784790039,0.06549712210707381,-1.2481876306591837,0.4930637746668325
1687103351.123983,0.027680208906531334,0.951622486114502,-0.30601999163627625,-0.018479080870747566,0.18892616033554077,0.0875142514705658,0.3288525938987732,0.029509499669075012,0.17457140982151031,0.09020681084055789,-1.2584737204078376,0.5322537243009743
1687103351.127717,0.03005419485270977,0.9500088691711426,-0.31077250838279724,0.0254573505371809,-0.04545271396636963,0.08579710125923157,-0.09012006223201752,0.04285411909222603,-0.030724890530109406,0.0964082121021948,-1.2532643622988084,0.5381436477067003
1687103351.218641,0.02320476435124874,0.9500325918197632,-0.311286985874176,0.052494168281555176,0.08794647455215454,0.0287247896194458,0.15864239633083344,0.2514679431915283,-0.38552647829055786,0.07440698247470916,-1.2533402926294306,0.5066868294598458
1687103351.237205,-0.0059001874178647995,0.9479203820228577,-0.3184528052806854,0.2627514600753784,-0.011625826358795166,0.03610426187515259,0.27565649151802063,0.6361112594604492,-1.0230284929275513,-0.018525546567639203,-1.2466418072070509,0.38876535726545774
1687103351.268719,-0.058495789766311646,0.9384286403656006,-0.3404848575592041,0.5308927297592163,-0.031369924545288086,0.14827001094818115,0.39649373292922974,1.1570022106170654,-1.8106437921524048,-0.1701404683692125,-1.2180534367879057,0.1801918601983333
1687103351.361062,-0.1345786601305008,0.9289796948432922,-0.344797283411026,0.9425468444824219,-0.12278163433074951,0.21735596656799316,-0.23623737692832947,0.9420979619026184,-2.1029090881347656,-0.3721272156396287,-1.1916467019143127,-0.09882230147455036
1687103351.366311,-0.203627809882164,0.9151402711868286,-0.3479279577732086,0.7675011157989502,-0.1996709108352661,0.17673969268798828,0.25650468468666077,0.43837282061576843,-1.2050656080245972,-0.5295096585591627,-1.1558557843868582,-0.3022537126873646
1687103351.454143,-0.2382216602563858,0.9196137189865112,-0.3123475909233093,0.4555373787879944,-0.36895453929901123,0.12377959489822388,-2.1956143379211426,-2.16569185256958,0.586639940738678,-0.6515678460422776,-1.1670960320704047,-0.3940575077734256
1687103351.543476,-0.18755179643630981,0.9651018977165222,-0.1827637404203415,-0.8892151117324829,0.12104916572570801,-0.05225205421447754,-1.2283923625946045,-2.9138643741607666,1.976878046989441,-0.7983271039348745,-1.305832283807947,-0.41791943978974033
1687103351.5491838,-0.11462581157684326,0.9850589632987976,-0.12852859497070312,-1.7287120819091797,0.21188610792160034,0.00557340681552887,-1.069216012954712,-0.43957415223121643,1.041094422340393,-0.7282835878634549,-1.3977160269997144,-0.2628663432230358
1687103351.6338081,-0.10050217062234879,0.9893417954444885,-0.10536658018827438,-0.9123609066009521,0.5579910278320312,-0.17273999750614166,0.33596280217170715,1.1629290580749512,-0.6162379384040833,-0.7617738880355794,-1.4246649995841898,-0.31558610203145515
1687103351.6533232,-0.1335259974002838,0.9797150492668152,-0.1494293212890625,-0.2193029224872589,0.31250596046447754,-0.16111743450164795,0.882244884967804,1.3594735860824585,-0.9752442240715027,-0.7292529018229995,-1.3690344583156018,-0.35262047849260264
1687103351.720109,-0.1608736664056778,0.9684547185897827,-0.19030186533927917,0.18695104122161865,0.04703277349472046,0.027063459157943726,0.6381424069404602,0.7658235430717468,-0.5975162386894226,-0.7017943942420032,-1.318952973745958,-0.37748000093469924
1687103351.723779,-0.1843910813331604,0.9577266573905945,-0.22081544995307922,0.3042794466018677,-0.04157376289367676,0.06393992900848389,0.4254576563835144,0.01803111657500267,-0.46621260046958923,-0.6957482698163475,-1.278993038998017,-0.39136073419972733
1687103351.813953,-0.19804289937019348,0.9523394107818604,-0.23200975358486176,0.17982394993305206,-0.23908263444900513,0.0074615031480789185,0.3453557789325714,-0.10191904008388519,-0.08041111379861832,-0.7065787777514368,-1.260815541735738,-0.403583018122206
1687103351.833533,-0.2000143826007843,0.9448487162590027,-0.25933629274368286,0.3216575086116791,-0.27840572595596313,-0.5067158937454224,0.8474793434143066,-1.6259534358978271,0.5634551644325256,-0.6569660586918975,-1.2371323149576314,-0.3103567781590524
1687103351.8685498,-0.1850600242614746,0.9560254812240601,-0.22752617299556732,0.4768691956996918,-0.6239026784896851,-0.8419165015220642,-2.1572697162628174,-3.5100083351135254,1.1160842180252075,-0.6828326115740709,-1.2731366854346085,-0.19741801367305006
1687103351.9612179,-0.1689642071723938,0.9851892590522766,-0.029208533465862274,0.5656623244285583,-0.2126978635787964,-0.5386930108070374,-3.13252592086792,-4.512665748596191,0.6023600101470947,-1.3996198848792185,-1.3984741881577318,-0.7398842609735169
1687103351.9659781,-0.09699825942516327,0.9871857762336731,0.12670989334583282,0.6312239170074463,-0.17903459072113037,-0.1868295669555664,-1.4709856510162354,-5.404436111450195,1.7035338878631592,-2.4882359713474878,-1.4105360201743087,-1.586421593069489
1687103352.020226,0.034323800355196,0.9754178524017334,0.21767345070838928,0.6528711915016174,-0.34245288372039795,0.16938090324401855,-1.6705775260925293,-5.534889221191406,1.811722755432129,2.9851955815216407,-1.348609343820963,-2.1414152074031447
1687103352.114219,0.20120397210121155,0.9539004564285278,0.22268958389759064,0.8141007423400879,0.06877392530441284,0.11362932622432709,-0.4627293646335602,-5.670042991638184,2.3561511039733887,2.4068374558215075,-1.2659744581748207,-2.4468967758361937
1687103352.134718,0.3641808331012726,0.9136067628860474,0.18081697821617126,0.9353188276290894,0.1288277506828308,0.5440211296081543,-0.47425609827041626,-5.58845853805542,2.101008653640747,2.0316426483623746,-1.1520679961210671,-2.5467993312077946
1687103352.169028,0.4871181547641754,0.8683162331581116,0.09350013732910156,0.5286442041397095,0.01805126667022705,0.6553094387054443,-0.2172020673751831,-4.089849472045898,2.0969486236572266,1.760435312615452,-1.0517975371724622,-2.579728254657334
1687103352.263091,0.5801220536231995,0.8136411905288696,-0.03803185001015663,0.2544422745704651,0.3957398533821106,1.139060139656067,0.7419356107711792,-2.6598877906799316,1.4952749013900757,1.5053316471184748,-0.9503881082913967,-2.659560218601415
1687103352.26854,0.6148989200592041,0.784245491027832,-0.08281306177377701,-0.1940462589263916,0.19385790824890137,0.970798134803772,0.3893415033817291,-0.5352066159248352,0.669253945350647,1.4369243148871977,-0.9014791128441868,-2.6640668284681084
1687103352.353719,0.6340427398681641,0.7677112817764282,-0.0927836149930954,-0.27002912759780884,0.10240566730499268,0.6437325477600098,-0.08443181961774826,0.22769801318645477,0.27988821268081665,1.4254911498693716,-0.8752617834301881,-2.674701978433535
1687103352.443857,0.6435710787773132,0.761967658996582,-0.07226047664880753,-0.08320724964141846,0.13735473155975342,0.2600807547569275,0.04122176766395569,0.49991554021835327,0.19876833260059357,1.4589841341587106,-0.8663460098228252,-2.6620978564109596
1687103352.449553,0.648841142654419,0.7590752243995667,-0.05300797522068024,0.013878583908081055,0.11261343955993652,0.03001284971833229,-0.017088143154978752,0.7063382863998413,-0.09714919328689575,1.4892809713547783,-0.8618914012449864,-2.669387118012401
1687103352.536679,0.6470566391944885,0.7615571618080139,-0.03671792149543762,0.03955841064453125,0.013680696487426758,-0.22422277927398682,0.32432475686073303,0.4887177348136902,0.07655744254589081,1.514111050714983,-0.8657124131113914,-2.6816810545686924
1687103352.555019,0.6497828364372253,0.7592810988426208,-0.035697877407073975,0.005933225154876709,-0.024921536445617676,-0.21370714902877808,-0.08538059145212173,0.1991976946592331,-0.04225784167647362,1.5159133318143114,-0.862207673437042,-2.6936595017651617
1687103352.6213489,0.6480714678764343,0.7608798742294312,-0.03263985738158226,-0.0013580322265625,-0.021713674068450928,-0.1499927043914795,-0.06522728502750397,-0.03809068724513054,-0.03339764103293419,1.520474249586543,-0.864668028042931,-2.690536639880976
1687103352.636444,0.6422080397605896,0.7654982209205627,-0.03976650536060333,-0.01658231019973755,0.18736732006072998,0.07899665832519531,0.5967814922332764,-0.010051491670310497,-0.36189034581184387,1.508953754638714,-0.8718153114442817,-2.696810686463919
1687103352.71076,0.6083211898803711,0.7906787991523743,-0.06908096373081207,-0.19569295644760132,0.5962839126586914,0.7160229682922363,1.9232892990112305,1.830141544342041,-1.559316635131836,1.4577207100721852,-0.9119169389829705,-2.809868078545166
1687103352.714464,0.5319707989692688,0.8409674763679504,-0.09889788925647736,0.018383324146270752,0.5791984796524048,1.1083581447601318,3.01658296585083,3.924679756164551,-2.7118983268737793,1.3869862828584134,-0.999068764717113,-3.0720696132289067
1687103352.769592,0.39214402437210083,0.9177489280700684,-0.06292887032032013,0.6167978048324585,0.16940927505493164,0.7955337762832642,-0.49906501173973083,3.7231667041778564,-4.234291076660156,1.4116790455987847,-1.1623749418012168,3.0116186716694826
1687103352.864983,0.18670354783535004,0.9823313355445862,-0.012909887358546257,0.8363678455352783,0.5256030559539795,0.6531533598899841,2.0498998165130615,5.724170684814453,-4.509243488311768,1.5017597642159837,-1.3825362117629099,2.8566754759972417
1687103352.8826299,-0.01676911860704422,0.9927719831466675,-0.11883750557899475,1.5185850858688354,0.21695995330810547,0.8390218019485474,2.200730800628662,5.159212589263916,-4.598783016204834,-0.14018410018443042,-1.4504905349393549,0.9198775342735951
1687103352.923161,-0.19890639185905457,0.9661258459091187,-0.16442853212356567,1.149788498878479,-0.6762242317199707,0.583419680595398,-0.8882867097854614,4.7099809646606445,-3.7971365451812744,-0.8800076319298239,-1.309770817267253,-0.07266912631391674
1687103353.012244,-0.2846742570400238,0.9354633092880249,-0.2094487100839615,1.0445010662078857,-0.4878315329551697,-0.19402407109737396,0.9585171937942505,4.990332126617432,-2.1121675968170166,-0.9364785872967234,-1.2095677799150484,-0.4125022560618467
1687103353.017277,-0.31717798113822937,0.9024195075035095,-0.29161152243614197,0.9562771320343018,-0.9221643209457397,-1.3054343461990356,-0.7357266545295715,0.5598672032356262,-0.8854405879974365,-0.8273690571399956,-1.125352454021153,-0.4336117014127312
1687103353.0706248,-0.3277963101863861,0.9227279424667358,-0.2027868777513504,0.4278940260410309,-0.4440445303916931,-0.9499688148498535,-1.154121994972229,0.26504722237586975,0.43730029463768005,-1.0167858529291005,-1.1750988982134618,-0.6391487320398378
1687103353.19449,-0.3003373146057129,0.9291642308235168,-0.21552535891532898,0.5106950998306274,0.4363294839859009,-0.32756537199020386,0.7716633081436157,-1.118571400642395,0.7827724814414978,-0.9483484560125354,-1.192145505663563,-0.5449969114719239
1687103353.2007542,-0.2814914286136627,0.9367126226425171,-0.20816335082054138,-0.3014705181121826,0.1421600580215454,0.06878966093063354,-0.26454946398735046,0.23301537334918976,0.3138220012187958,-0.9340481372444961,-1.2131193161723999,-0.5021822335361833
1687103353.313524,-0.2789824306964874,0.9392384886741638,-0.19999928772449493,0.01073300838470459,0.3392038345336914,0.286287784576416,-0.35315123200416565,-0.3665037155151367,-0.1415197253227234,-0.9488255355192168,-1.220405137623794,-0.5264827218665883
1687103353.318677,-0.28319820761680603,0.9415990114212036,-0.18218129873275757,-0.2669115662574768,-0.1534825563430786,0.48134517669677734,-0.9107117056846619,2.014126777648926,-0.15426479279994965,-0.9991458109186032,-1.2273477945494211,-0.5945745835547853
1687103353.4032202,-0.2729819118976593,0.9430232048034668,-0.19023138284683228,0.17395249009132385,-0.0009761452674865723,-0.30587756633758545,0.6515023708343506,0.23829978704452515,0.31220725178718567,-0.9621778841726758,-1.2316024912599863,-0.6173820930436759
1687103353.42341,-0.252731055021286,0.9478165507316589,-0.1943468600511551,-0.21144121885299683,-0.5568559169769287,-0.48683595657348633,0.5266169309616089,0.24339191615581512,0.3417888283729553,-0.9152539905830944,-1.2463160331733014,-0.5778023598406081
1687103353.4887419,-0.24043191969394684,0.9455521702766418,-0.21937057375907898,0.09001085162162781,0.009434342384338379,-0.17378729581832886,0.7006869912147522,-0.28241798281669617,0.14121927320957184,-0.8311713756831585,-1.2392870435834642,-0.4744120561024911
1687103353.503837,-0.25221943855285645,0.935858428478241,-0.24607722461223602,-0.0020224153995513916,0.2379237413406372,0.07299688458442688,0.33241719007492065,-0.47839513421058655,-0.4123251140117645,-0.797723956996927,-1.210687365104203,-0.4308954708152986
1687103353.578751,-0.2701364755630493,0.9277122616767883,-0.2576354444026947,0.0045878589153289795,-0.1401909589767456,0.17468875646591187,0.15891793370246887,-0.3202771246433258,-0.05784694477915764,-0.809080164749625,-1.1882369964109847,-0.4164413307538276
1687103353.5823631,-0.2665972113609314,0.9296570420265198,-0.2542901933193207,0.05123478174209595,-0.21211254596710205,0.25648751854896545,-0.004923302214592695,0.05703897029161453,0.22941184043884277,-0.8090207922854004,-1.1934809024356383,-0.41055980712153917
1687103353.674279,-0.24970288574695587,0.9347788095474243,-0.2526600658893585,-0.03613990545272827,0.046010375022888184,0.18813073635101318,-0.1942211091518402,0.5650895237922668,0.21160690486431122,-0.7795116751021852,-1.2076358035342423,-0.39926747828728615
1687103353.6792421,-0.2403838038444519,0.9381216764450073,-0.24928519129753113,-0.578875720500946,0.1201515793800354,-0.19485227763652802,0.14255446195602417,0.10195925831794739,-0.07322072982788086,-0.7672217831404248,-1.2171660075341184,-0.3987286633476435
1687103353.7664828,-0.2716916799545288,0.9274625182151794,-0.2568987011909485,-1.3819795846939087,0.12739288806915283,-0.5718671083450317,-0.6103098392486572,0.9183823466300964,-1.3941357135772705,-0.8133765775262086,-1.187568469757896,-0.4768022423508883
1687103353.785301,-0.2908695340156555,0.9263997077941895,-0.2391204684972763,-0.6999751329421997,-0.7048724889755249,-0.32147207856178284,0.21940690279006958,-0.2101094275712967,0.43217790126800537,-0.8827311841316936,-1.1847359568974192,-0.5631740483857816
1687103353.818778,-0.20556126534938812,0.9454233050346375,-0.2528226375579834,-0.03616839647293091,-0.761753261089325,-0.10401928424835205,0.03772754222154617,-0.4323556125164032,3.540625810623169,-0.6826568522908966,-1.2388912084478643,-0.335040082410044
1687103353.90699,-0.0449330173432827,0.978580117225647,-0.2009022831916809,0.7363851070404053,-0.13293814659118652,0.6888631582260132,-2.9232265949249268,1.3905645608901978,2.3338892459869385,-0.22003491845957945,-1.3634474251142372,0.11284317650580224
1687103353.9115071,0.0468624010682106,0.9784592986106873,-0.2010500729084015,1.6963474750518799,1.3452558517456055,0.45468175411224365,1.0574440956115723,-1.8839597702026367,1.6423063278198242,0.2289994531811649,-1.3628613903017575,0.6420231671934516
1687103353.972207,0.059737589210271835,0.9690491557121277,-0.23953109979629517,0.14846864342689514,-0.1486755609512329,-0.17707952857017517,0.8909518718719482,-0.5075187087059021,0.09514936804771423,0.24440810677170893,-1.3213495102555857,0.6844027091880198
1687103354.032614,0.07231318950653076,0.9623070359230042,-0.26217541098594666,-0.08406239748001099,-0.44068533182144165,0.04693502187728882,-0.4266436994075775,0.11997489631175995,0.11518113315105438,0.2691283059100649,-1.295361436525881,0.7337712025551456
1687103354.1261349,0.07179839164018631,0.9611728191375732,-0.26644277572631836,0.16095924377441406,0.13350796699523926,0.1881042718887329,0.6624589562416077,-0.13670508563518524,0.23151451349258423,0.2632179782446912,-1.291221404832538,0.7262770958020484
1687103354.1309009,0.08427315205335617,0.9546298980712891,-0.2856215834617615,-0.0867144763469696,-0.19098860025405884,-0.05913543701171875,-0.008425465784966946,0.07945101708173752,0.1851259171962738,0.2869109483569865,-1.2684145099957842,0.7508646457743962
1687103354.244973,0.08425285667181015,0.9561845064163208,-0.28037917613983154,0.02593093365430832,0.10227185487747192,0.002684563398361206,0.03219716623425484,-0.003045140765607357,-0.05710678920149803,0.2919119097879016,-1.2736792902566947,0.7590559762052295
1687103354.250896,0.07765643298625946,0.9555561542510986,-0.28439709544181824,0.03940906375646591,0.012659668922424316,-0.002590090036392212,-0.16929206252098083,0.20465196669101715,-0.36578717827796936,0.26655829534932357,-1.2715405251022012,0.7306619501919612
1687103354.3338342,0.04196665808558464,0.9599751234054565,-0.2769228518009186,0.2937725782394409,0.1389932632446289,-0.07529565691947937,-0.10417745262384415,0.5262535810470581,-1.389893651008606,0.150401970674781,-1.2869133812948201,0.5959320191723124
1687103354.353101,-0.041308943182229996,0.9583727717399597,-0.28251543641090393,0.7854802012443542,0.022202670574188232,0.11256316304206848,0.595158040523529,0.8308743834495544,-2.206916570663452,-0.14518948446561675,-1.2812474664197462,0.24210398570491906
1687103354.423543,-0.1339370161294937,0.9368836879730225,-0.32296985387802124,0.8888046145439148,-0.205072283744812,0.2950921356678009,0.9441644549369812,1.0577424764633179,-2.190664529800415,-0.393117986868181,-1.2136083182655366,-0.06829693731115499
1687103354.4274678,-0.19958321750164032,0.9219866991043091,-0.3318236470222473,0.6697676181793213,-0.45901983976364136,0.3968566954135895,-0.8226946592330933,0.650755763053894,-1.1828449964523315,-0.5415024630196046,-1.1731801711054985,-0.2641056856521893
1687103354.514306,-0.2322208136320114,0.9243549108505249,-0.3027231693267822,0.4834873378276825,0.2632823586463928,0.06900441646575928,-0.6814216375350952,-1.2486464977264404,-0.08865883201360703,-0.6543594525010005,-1.17934135009374,-0.38908182204602304
1687103354.5344272,-0.20817887783050537,0.9600247144699097,-0.18712009489536285,-0.6736722588539124,-0.48782628774642944,-0.1251051276922226,-1.9347208738327026,-3.451662540435791,2.886375904083252,-0.8386209022374446,-1.2870904373119867,-0.4107308494895763
1687103354.5655708,-0.11190789192914963,0.9849861264228821,-0.13144879043102264,-1.748809814453125,0.014632344245910645,-0.3262385129928589,-0.23533116281032562,-0.21024715900421143,1.7768479585647583,-0.7052727212211126,-1.3972935227272707,-0.23823032213552459
1687103354.662349,-0.08213499933481216,0.9894652366638184,-0.11921455711126328,-0.9843169450759888,0.8841460943222046,-0.12986980378627777,0.22644732892513275,1.9463557004928589,-1.0186865329742432,-0.6032834197428155,-1.425515015318439,-0.1911499042443869
1687103354.667447,-0.13409873843193054,0.976991593837738,-0.1658458262681961,0.05295255780220032,0.4406108856201172,-0.1635913848876953,0.9048278331756592,0.5843522548675537,-1.2547281980514526,-0.6799475675229278,-1.3558676135429422,-0.33189299717254944
1687103354.7214031,-0.18207862973213196,0.963215708732605,-0.1976427286863327,0.14709033071994781,-0.21301746368408203,0.05889466404914856,0.4343002438545227,0.48734989762306213,-0.9262588620185852,-0.7444328846126917,-1.2987225587432403,-0.42814504515339397
1687103354.8145719,-0.20688068866729736,0.9528382420539856,-0.22203505039215088,0.22181914746761322,-0.2056916356086731,0.10631252825260162,0.32860469818115234,0.2426200658082962,-0.3737115263938904,-0.7500810478397907,-1.2624548799465445,-0.45029817328707455
1687103354.834536,-0.21983970701694489,0.944513201713562,-0.24405986070632935,0.37911105155944824,-0.09684175252914429,-0.4490705132484436,1.0915400981903076,-1.0481923818588257,0.08543407171964645,-0.7332356112712977,-1.2361094068371994,-0.4222314511010308
1687103354.8690991,-0.2220180481672287,0.9432334303855896,-0.24701951444149017,0.6615628004074097,-0.5689048171043396,-1.055226445198059,-0.8857221007347107,-3.183871269226074,1.0460162162780762,-0.7321447972958002,-1.2322348142897612,-0.2929484858475803
1687103354.962013,-0.19319528341293335,0.9756113290786743,-0.10420159250497818,0.6670113801956177,-0.6668803095817566,-0.7527014017105103,-3.049544334411621,-4.479915142059326,1.473759412765503,-1.076159573015298,-1.349488945649145,-0.45766619046093765
1687103354.967084,-0.09963199496269226,0.9914341568946838,0.08445026725530624,0.8156049847602844,-0.34908485412597656,-0.35491228103637695,-2.75297474861145,-5.7956719398498535,2.165640354156494,-2.2739082046842922,-1.4398145504105637,-1.4054309668620641
1687103355.053148,0.0679275169968605,0.9725263714790344,0.22266173362731934,0.973759651184082,-0.4139937162399292,0.08579468727111816,-2.5252492427825928,-6.9009246826171875,2.617586851119995,2.845490585359277,-1.335847888661083,-2.271903511992278
1687103355.1442041,0.2855691611766815,0.9241946935653687,0.25360313057899475,1.2016746997833252,-0.11425817012786865,0.4016702473163605,-0.9512313604354858,-6.784616470336914,3.05908465385437,2.296976600431571,-1.1789216664962372,-2.486754535070733
1687103355.149976,0.5041086077690125,0.8496972322463989,0.1545601785182953,1.4003865718841553,0.12845200300216675,0.9634969234466553,-0.8857448697090149,-6.4378814697265625,3.01615047454834,1.8682979746586903,-1.0154108148989,-2.579194835344992
1687103355.294605,0.6191582083702087,0.7845784425735474,0.032856591045856476,0.47984081506729126,0.5238625407218933,1.3661301136016846,-0.8032231330871582,-3.6753885746002197,1.101574420928955,1.6238131526927029,-0.9020159205485143,-2.548973261472849
1687103355.3003368,0.6328597664833069,0.7742644548416138,-0.0016981498338282108,-0.3036208748817444,0.3649565577507019,1.0832715034484863,-0.2260284125804901,-0.47178593277931213,-0.044122323393821716,1.5681130376673738,-0.8855520010008079,-2.5201947582337922
1687103355.380351,0.6392145156860352,0.7687956690788269,-0.018916869536042213,-0.24222654104232788,0.19769591093063354,0.6096607446670532,0.24512386322021484,-0.15770140290260315,0.3002029359340668,1.5412110305163675,-0.8769557207181928,-2.5433081386776415
1687103355.386282,0.6475549340248108,0.7618070244789124,-0.017968904227018356,-0.11674731969833374,0.19794028997421265,0.45440059900283813,0.2906900942325592,0.15365450084209442,0.13180072605609894,1.5430545975015975,-0.8660980064675561,-2.5339637440528238
1687103355.39095,0.6482992172241211,0.7612982392311096,-0.0115286810323596,-0.041609764099121094,0.07399821281433105,0.23969316482543945,0.15058772265911102,0.6810242533683777,-0.0786256194114685,1.5530152380338507,-0.8653130102501416,-2.559375941155884
1687103355.4745178,0.6413809657096863,0.7671706080436707,0.00892266072332859,0.027564406394958496,0.038096606731414795,-0.03927254676818848,-0.06325499713420868,0.5932245254516602,-0.25176748633384705,1.5847070691478022,-0.8744184495856786,-2.558194299525261
1687103355.4795,0.6330822706222534,0.7737939357757568,0.021208569407463074,0.04877203702926636,-0.04353892803192139,-0.1715383529663086,0.2283984273672104,0.38754886388778687,-0.09937223792076111,1.6042842963204504,-0.8848088655557196,-2.5676411408843904
1687103355.569453,0.6301245093345642,0.7760311961174011,0.026808274909853935,0.058962464332580566,-0.1374661922454834,-0.137984037399292,-0.048864077776670456,0.18133312463760376,0.002431639935821295,1.6133150940459,-0.888348483846689,-2.5737243706546002
1687103355.5892038,0.6316670179367065,0.7746255397796631,0.030852533876895905,0.023453950881958008,-0.08402818441390991,-0.061782240867614746,-0.01575528457760811,0.19877474009990692,0.06658706068992615,1.6196005782661231,-0.8861227522781567,-2.5765270041623807
1687103355.64659,0.6367692351341248,0.7704344987869263,0.030915267765522003,0.023966968059539795,-0.02676689624786377,-0.01388668641448021,0.4939766824245453,0.2894383370876312,0.22881251573562622,1.6193084266492521,-0.8795223900067634,-2.590435704260878
1687103355.747147,0.6541232466697693,0.7563273906707764,-0.009565054439008236,-0.05442225933074951,0.1289721131324768,0.16816473007202148,3.2956035137176514,0.951134979724884,0.8822928071022034,1.556174659727574,-0.8576808346283042,-2.7100055141193446
1687103355.753259,0.7058919668197632,0.6903516054153442,-0.15852750837802887,-0.16269433498382568,0.32724159955978394,0.5508918762207031,8.015559196472168,2.409719228744507,1.53458571434021,1.3498839947958237,-0.7619749406389971,-3.1102978792661946
1687103355.757856,0.780318021774292,0.5199366211891174,-0.3475189805030823,0.0002452731132507324,0.13834255933761597,0.8321229219436646,9.529607772827148,2.264977216720581,0.9639116525650024,1.1518113980857982,-0.5467767800585827,2.6466293505917164
1687103355.799811,0.8296241760253906,0.35581550002098083,-0.43025436997413635,-0.0574074387550354,-0.14480185508728027,0.7840752601623535,6.05103874206543,2.4620983600616455,-0.478078693151474,1.0923689916642383,-0.3637865187409669,2.255336863035685
1687103355.928297,0.8700182437896729,0.3077484667301178,-0.38517388701438904,-0.09799987077713013,-0.20542317628860474,0.4278223216533661,1.318052053451538,2.6876509189605713,-0.9642284512519836,1.1540134868725365,-0.3128257534504826,2.049086586777253
1687103355.933424,0.9056259393692017,0.34305012226104736,-0.24931538105010986,-0.09176790714263916,-0.009157389402389526,0.27188318967819214,-0.09573714435100555,3.2533693313598633,-0.565862774848938,1.3021547499834212,-0.35016213865087087,2.039536325986624
1687103356.014018,0.9258488416671753,0.3462376594543457,-0.1514045000076294,0.31020456552505493,0.21256962418556213,-0.030174970626831055,2.5990872383117676,2.0356976985931396,0.013608438894152641,1.4087006300635867,-0.35355772077234254,1.9639042923421925
1687103356.019783,0.939869225025177,0.3210456967353821,-0.11651318520307541,0.30691105127334595,0.26888951659202576,-0.05115031450986862,5.0373311042785645,2.1626181602478027,-0.2220427244901657,1.4474581321435662,-0.3268334299341216,1.7706383805870174
1687103356.070467,0.9360644817352295,0.32631924748420715,-0.13152532279491425,0.5177013278007507,-0.02839142084121704,0.028086066246032715,5.220254898071289,1.1318120956420898,-1.4597508907318115,1.4312013752626633,-0.332407037951928,1.4741562471982337
1687103356.165405,0.9032613039016724,0.3891133666038513,-0.18085822463035583,0.6084573864936829,-0.42089739441871643,-0.148243248462677,3.165893793106079,-0.24831406772136688,-2.560760974884033,1.373181531151742,-0.39966890939537164,1.2245151435403534
1687103356.1856,0.8391046524047852,0.486429899930954,-0.24349331855773926,0.315146267414093,-0.7474162578582764,0.0918058305978775,0.20659060776233673,-0.7729600667953491,-2.439040422439575,1.2883707701744398,-0.507998986685683,1.1097588608545843
1687103356.218631,0.7770207524299622,0.5700215101242065,-0.267046719789505,0.13516473770141602,-0.6414784789085388,-0.013547033071517944,-0.27793022990226746,-0.7330665588378906,-1.470186710357666,1.2397625855290328,-0.6065320567278972,1.0849162985542748
1687103356.3441129,0.7443020939826965,0.6017690896987915,-0.2896345257759094,0.010443329811096191,-0.6013571619987488,0.005042999982833862,-0.36815783381462097,-0.7124941945075989,0.08237960189580917,1.1996906476112483,-0.6457142935328951,1.0843857981855312
1687103356.34952,0.7623659372329712,0.5801398754119873,-0.28676778078079224,-0.17111843824386597,-0.5207984447479248,0.1330508589744568,-0.6563315391540527,-0.020444264635443687,1.3799335956573486,1.2110134072217955,-0.6189003842473068,1.133675124937139
1687103356.433896,0.8168764114379883,0.5147834420204163,-0.260213166475296,-0.07426172494888306,-0.39808422327041626,0.12511199712753296,-0.6904968023300171,0.44723615050315857,2.373818874359131,1.2624123869448733,-0.5407550588891514,1.2086280008073216
1687103356.454005,0.8884086608886719,0.4044647514820099,-0.21711312234401703,0.11661136150360107,-0.18930059671401978,0.11822101473808289,-0.8126218318939209,0.6879580616950989,3.1055212020874023,1.3311099747514787,-0.4163934933224252,1.2906102780718538
1687103356.519444,0.9477464556694031,0.2681442201137543,-0.1728438138961792,0.2836834192276001,0.03591763973236084,0.12250520288944244,-0.8350414633750916,0.5508795976638794,3.0592496395111084,1.3904053675248718,-0.27146619288392115,1.3705954607378499
1687103356.522479,0.9791866540908813,0.14200152456760406,-0.14501401782035828,0.27789342403411865,0.258526474237442,0.05001288652420044,-0.2979748249053955,0.35973986983299255,2.2447280883789062,1.4237686092113793,-0.14248313361931728,1.422371730299611
1687103356.580216,0.9894929528236389,0.06260662525892258,-0.1303219497203827,0.12238430976867676,0.3087007403373718,0.05817849934101105,-0.4501246213912964,0.23905915021896362,1.053031086921692,1.4398442479276201,-0.06264759956801391,1.4495897849918704
1687103356.673764,0.9925087094306946,0.040625132620334625,-0.11522161215543747,0.01434248685836792,0.30399462580680847,0.029177367687225342,-0.5739547610282898,0.21456734836101532,0.10291541367769241,1.4552223894254503,-0.04063631676624496,1.4789177341678592
1687103356.679359,0.9930068850517273,0.044107697904109955,-0.10950657725334167,0.01001429557800293,0.30255672335624695,0.0009251832962036133,-0.387624591588974,0.04601960629224777,-0.05456220358610153,1.4609623631747366,-0.044122012120126515,1.503464274915751
1687103356.7294378,0.9935911297798157,0.0455755814909935,-0.10343853384256363,-0.07127368450164795,0.2941766381263733,-0.019211530685424805,-0.1167801171541214,0.21359513700008392,0.06376625597476959,1.4670642660396969,-0.04559137300718558,1.516837627827927
1687103356.826024,0.995159924030304,0.04120489954948425,-0.08921152353286743,-0.080502450466156,0.30056145787239075,-0.07910805195569992,0.11482760310173035,0.27503201365470886,0.04878990724682808,1.481389897066738,-0.04121656981029448,1.5154618007958898
1687103356.831764,0.9961438775062561,0.04555494338274002,-0.07497908174991608,-0.05545496940612793,0.3095628619194031,-0.07724248617887497,0.2523176968097687,0.3280235528945923,-0.3087283670902252,1.4956686603732718,-0.04557071365561558,1.5080162254810447
1687103356.9150991,0.9952958226203918,0.0699925422668457,-0.06698538362979889,0.0870252251625061,0.2799677848815918,-0.12373410910367966,0.6015764474868774,0.001180337043479085,-0.7205389142036438,1.5035956831775108,-0.07004981517432028,1.4842724044737658
1687103356.9340749,0.9903337955474854,0.11635659635066986,-0.07549659162759781,0.10868030786514282,0.16574789583683014,-0.09740065783262253,0.5632725358009338,-0.23144513368606567,-1.243980050086975,1.4947100119146048,-0.1166207664683812,1.4494891064337287
1687103356.968453,0.9777688980102539,0.18645069003105164,-0.09593844413757324,0.1294698715209961,0.046703606843948364,-0.07920181751251221,0.5445724129676819,-0.3898460566997528,-1.6352874040603638,1.4729896501280713,-0.18754823719579206,1.4173747576776126
1687103357.030602,0.9563673734664917,0.26325246691703796,-0.12672609090805054,0.13959509134292603,-0.040626734495162964,-0.04560655355453491,0.8269084692001343,-0.5468142628669739,-1.6309739351272583,1.4390560353676147,-0.2663920534582428,1.3717078355109142
1687103357.124518,0.9296282529830933,0.33156058192253113,-0.16080689430236816,0.11250126361846924,-0.10476917028427124,0.050455451011657715,0.6710189580917358,-0.38377076387405396,-1.4375481605529785,1.3995115082300578,-0.3379572458775575,1.3232349295505266
1687103357.1277962,0.9017404317855835,0.3842308223247528,-0.19806818664073944,0.0896536111831665,-0.05752488970756531,0.048638999462127686,1.5496788024902344,-0.32886239886283875,-1.2528671026229858,1.3545789381511266,-0.39437455741864663,1.2521872589538263
