Timestamp,gravityX,gravityY,gravityZ,accelerationX,accelerationY,accelerationZ,rotationRateX,rotationRateY,rotationRateZ,attitudeRoll,attitudePitch,attitudeYaw
1687104363.724726,0.701238751411438,0.7101473212242126,0.06288846582174301,0.010599076747894287,-0.0013461112976074219,-0.01738690584897995,-0.04871499910950661,-0.09429046511650085,0.0007959103677421808,1.6602390052515936,-0.7897074648468791,-2.200134186069249
1687104363.7308722,0.7021083831787109,0.7092981934547424,0.062766894698143,0.008600175380706787,-0.010003328323364258,-0.006446965038776398,-0.17329789698123932,-0.14033235609531403,0.007136497646570206,1.6599570326297974,-0.7885021360233785,-2.191593963124704
1687104363.8140311,0.703127384185791,0.7083043456077576,0.06258351355791092,0.00024175643920898438,-0.0013190507888793945,-0.007835149765014648,-0.07369247078895569,-0.14209511876106262,0.01343161053955555,1.6595697567495853,-0.7870932545871419,-2.182459368253639
1687104363.831627,0.7042976021766663,0.707381010055542,0.05980716645717621,-0.0008826851844787598,-0.001662135124206543,0.0027383528649806976,-0.030608486384153366,-0.11603479832410812,0.022018995136022568,1.655510560384929,-0.7857860192325812,-2.179724033924053
1687104363.899574,0.7051778435707092,0.7065948843955994,0.058716971427202225,0.003058791160583496,0.0009398460388183594,0.013258576393127441,-0.1008530855178833,-0.08305501192808151,0.01255347765982151,1.6538701696741336,-0.7846744594386074,-2.1749770429944566
1687104363.904255,0.7060064077377319,0.7056990265846252,0.05953051149845123,0.0011774301528930664,0.00870215892791748,0.01911306381225586,-0.12554581463336945,-0.05444489046931267,0.00010020378977060318,1.6549174152141763,-0.7834092375739132,-2.1675647161454226
1687104363.960042,0.7056751847267151,0.7058203220367432,0.06196705996990204,0.0003947615623474121,0.007253170013427734,0.021803494542837143,-0.12039387226104736,-0.018504571169614792,-0.028710495680570602,1.6583841011938516,-0.7835805201686308,-2.1594342488349536
1687104364.053866,0.7039570808410645,0.706405758857727,0.07372228056192398,0.005439281463623047,0.003677070140838623,0.039009444415569305,-0.44999372959136963,0.06382326781749725,-0.06041094660758972,1.6751415002882777,-0.7844072639291904,-2.138463741795684
1687104364.0599241,0.6999917030334473,0.7081800699234009,0.09215272963047028,-0.016184449195861816,0.044017016887664795,0.029673203825950623,-0.4196806252002716,0.1533287614583969,-0.14447703957557678,1.7016919051270225,-0.786917137806126,-2.1079216843738147
1687104364.108903,0.6936911344528198,0.7104825377464294,0.11835039407014847,-0.0031546354293823242,-0.0014373064041137695,0.031200751662254333,-0.7869858145713806,0.11317766457796097,-0.173492893576622,1.7397789430681743,-0.7901837066937202,-2.064043511213127
1687104364.205583,0.6865670084953308,0.7103562951087952,0.15498290956020355,0.012026190757751465,-0.017393767833709717,0.0401005893945694,-1.1311701536178589,0.06082428619265556,-0.1503143012523651,1.7928112163752719,-0.7900043353551894,-1.994080961237638
1687104364.211155,0.681254506111145,0.7062621116638184,0.19257709383964539,-0.00850975513458252,-5.4895877838134766e-05,-0.016719698905944824,-0.898112952709198,-0.016590239480137825,-0.13771949708461761,1.8462885542896368,-0.7842043308606775,-1.9217799392595116
1687104364.295247,0.6787426471710205,0.7009017467498779,0.21919196844100952,0.0006397366523742676,0.005274951457977295,-0.0395047664642334,-0.790604829788208,-0.2170741707086563,-0.11041834205389023,1.8831623261129797,-0.7766609460802852,-1.8625264639254493
1687104364.3834782,0.6791000366210938,0.6962403059005737,0.23253458738327026,-0.00576019287109375,0.03402996063232422,-0.03902280330657959,-0.3743159770965576,-0.24243280291557312,-0.06658157706260681,1.9006987020198058,-0.7701464014466036,-1.819889945247234
1687104364.4014611,0.6804080605506897,0.6950604915618896,0.23224066197872162,0.010189533233642578,0.007591426372528076,-0.036958903074264526,-0.30789273977279663,-0.28620490431785583,-0.05666496604681015,1.8997225566861922,-0.7685040376648345,-1.801459435644256
1687104364.468658,0.6807852387428284,0.6930215358734131,0.2371758371591568,0.0053719282150268555,0.0028554797172546387,-0.0202418714761734,-0.32425203919410706,-0.20292772352695465,-0.07229434698820114,1.9060322850965805,-0.7656718568364815,-1.7745725514168258
1687104364.47335,0.6788358092308044,0.6938793063163757,0.24023637175559998,-0.010226130485534668,0.012755155563354492,-0.012255042791366577,-0.09124834835529327,0.0006895752158015966,-0.09371590614318848,1.9109365559929838,-0.7668624454557748,-1.7603343619023823
1687104364.591889,0.6761458516120911,0.694568932056427,0.24576535820960999,0.019334495067596436,-0.04442256689071655,0.0005875676870346069,-0.3066246807575226,-0.03934231773018837,-0.0516899973154068,1.919429055717018,-0.767820551504478,-1.7474372055104217
1687104364.609055,0.6758164763450623,0.691550076007843,0.25501105189323425,-0.0039414167404174805,-0.024679899215698242,-0.010596007108688354,-0.33775752782821655,-0.0849543884396553,-0.03143692761659622,1.9316149445017419,-0.7636327675198109,-1.7244325685211366
1687104364.681931,0.6780499219894409,0.6877804398536682,0.2592410147190094,0.011509954929351807,-0.008337199687957764,-0.0310613214969635,-0.22778435051441193,-0.1800367832183838,0.009211653843522072,1.9359805691328478,-0.7584270212915306,-1.7081975966491165
1687104364.697308,0.6813784837722778,0.6838541626930237,0.260895699262619,0.0026271939277648926,0.0012806057929992676,-0.016572266817092896,-0.13263030350208282,-0.14506252110004425,0.05354665219783783,1.9364696974220543,-0.7530320796363258,-1.6968117041409394
1687104364.770166,0.683867335319519,0.6815931797027588,0.26030024886131287,-0.009672939777374268,0.02438521385192871,-0.0011452138423919678,-0.05053569748997688,-0.0376332588493824,0.008955813944339752,1.93449352220092,-0.7499377025644107,-1.6921393619568228
1687104364.7751188,0.6842452883720398,0.681421160697937,0.25975698232650757,-0.0046035051345825195,0.02036106586456299,-0.0004188716411590576,0.028578510507941246,0.02004052884876728,0.0029732217080891132,1.9336160778648541,-0.7497026463454122,-1.6912680710885466
1687104364.864129,0.6832137703895569,0.6828582286834717,0.2586957514286041,7.480382919311523e-05,0.009677112102508545,-0.0008072853088378906,-0.031888507306575775,0.00650384183973074,-0.03414130210876465,1.9327591019072228,-0.751667955989952,-1.6925897963604108
1687104364.880311,0.6820648908615112,0.6842602491378784,0.2580220401287079,0.007815539836883545,0.020665228366851807,-0.010540008544921875,0.09788098931312561,-0.019463149830698967,-0.028729291632771492,1.9324530283126247,-0.7535887782731813,-1.6931663311410856
1687104364.951765,0.6809597015380859,0.6857635974884033,0.2569478452205658,0.0008640885353088379,-0.014621078968048096,0.013834387063980103,-0.07219471037387848,0.0052690403535962105,-0.03397061675786972,1.9316098677697453,-0.7556523706550166,-1.6932892289451862
1687104364.9566221,0.6785030961036682,0.6876086592674255,0.2585102617740631,-0.003515303134918213,0.022138535976409912,0.010547727346420288,0.04194379597902298,0.09863664209842682,-0.07362516969442368,1.9348176066651126,-0.7581904166875281,-1.691464572793829
1687104365.074809,0.675896942615509,0.6899870038032532,0.2589995265007019,0.007223725318908691,0.0111846923828125,0.006716668605804443,0.06212832033634186,0.1230979934334755,-0.05374232307076454,1.936731193413337,-0.7614711093700652,-1.695572894626442
1687104365.164853,0.6713771820068359,0.6944400668144226,0.2588535249233246,-0.030050337314605713,0.11522156000137329,-0.04265207052230835,0.6157737970352173,0.27932387590408325,-0.11303680390119553,1.9387893436460357,-0.7676414705713734,-1.709767681204398
1687104365.182878,0.6625434756278992,0.7158952355384827,0.22029538452625275,-0.00199049711227417,0.3138745427131653,-0.16234268248081207,2.7353203296661377,0.3255024552345276,-0.0683370903134346,1.8917962500774195,-0.7979054502932856,-1.796052042094622
1687104365.186285,0.6598714590072632,0.7513700127601624,0.003549583489075303,-0.08495080471038818,0.5709564089775085,-0.37719178199768066,11.594121932983398,1.0835559368133545,0.19049087166786194,1.5761754795578822,-0.8501358199074128,-2.2633765235570174
1687104365.251368,0.7235375642776489,0.5125059485435486,-0.46241846680641174,-0.019619226455688477,0.6419737935066223,1.0668646097183228,20.511903762817383,4.807560920715332,0.956562340259552,1.0021163633423973,-0.5381006360637265,2.9681866088054174
1687104365.25575,0.8972887992858887,0.02060484141111374,-0.44096270203590393,-0.022182047367095947,0.1839696615934372,1.9584951400756836,15.443286895751953,8.213997840881348,-2.129397392272949,1.1140209427999916,-0.020606299894883925,2.1144949099431054
1687104365.3724809,0.9950948357582092,0.07147801667451859,-0.06839063763618469,0.7651896476745605,-0.02109351009130478,1.3166817426681519,3.6533281803131104,6.226710319519043,-4.7441277503967285,1.5021764722890236,-0.07153902459117678,1.6278998183867417
1687104365.378263,0.940676748752594,0.29546961188316345,0.16680829226970673,0.7047547101974487,-0.20649561285972595,-0.10528481006622314,-1.0600261688232422,4.078071117401123,-4.259326934814453,1.7462998935500735,-0.2999470251829928,1.6081781095312493
1687104365.46347,0.8215615153312683,0.44924890995025635,0.3510156571865082,0.39630335569381714,0.03170806169509888,-0.6233696937561035,-2.4173827171325684,2.310974597930908,-3.7158517837524414,1.9745747832324,-0.46592445389917264,1.7623906172659876
1687104365.479998,0.7071792483329773,0.5297694802284241,0.46823224425315857,0.25833576917648315,0.0040743350982666016,-1.072098970413208,-3.2372024059295654,-0.20199903845787048,-3.196233034133911,2.15563943902747,-0.5583287755480772,2.00536387819361
1687104365.5220861,0.6642488837242126,0.5524070262908936,0.503606915473938,-0.035876691341400146,-0.2706230878829956,-1.406454086303711,-2.8602466583251953,-2.97304105758667,-3.02555775642395,2.219499364383951,-0.5852491087740237,2.2847878552773904
1687104365.5249538,0.6289454102516174,0.6293107271194458,0.45650342106819153,0.3149174451828003,-0.2906268239021301,1.2408537864685059,4.620015621185303,4.422455310821533,1.9147286415100098,2.1986441500821585,-0.6806660019017127,2.307677157354851
1687104365.578198,0.6506758332252502,0.593720018863678,0.47341006994247437,0.8117416501045227,0.5171501636505127,-0.42572644352912903,-1.7156263589859009,-1.4861940145492554,-0.0689687430858612,2.1997848705118384,-0.6356740593578794,2.089018074495209
1687104365.640368,0.6841724514961243,0.5718256831169128,0.45268484950065613,-0.34661751985549927,-0.015383481979370117,0.24166637659072876,-1.0527578592300415,0.21431146562099457,-0.30821189284324646,2.1553199918869743,-0.6087295285894009,2.169965536674625
1687104365.703285,0.6698245406150818,0.5601127743721008,0.4874510169029236,0.05554765462875366,-0.17868894338607788,-0.1781095266342163,0.08497355133295059,-0.5952651500701904,0.2641567885875702,2.199891237743532,-0.5945219240567662,2.196520164214331
1687104365.763558,0.6751851439476013,0.5682706832885742,0.4703115224838257,-0.06364357471466064,0.08321839570999146,0.06923919916152954,0.08169429749250412,0.3563331365585327,-0.06744464486837387,2.1792143722456485,-0.6044026960285037,2.186578675348101
1687104365.854636,0.6760011911392212,0.5545831918716431,0.4852423071861267,0.07935464382171631,-0.07025396823883057,-0.04441577196121216,-0.6781898140907288,-0.19275669753551483,0.0907830148935318,2.1933774356539932,-0.5878619630314318,2.204999403586047
1687104365.860194,0.6838573217391968,0.5231756567955017,0.5085529685020447,0.05829960107803345,-0.25555193424224854,-0.0937122106552124,-0.8917806148529053,-0.24725812673568726,0.9333272576332092,2.210223328835107,-0.5505730460910567,2.2405206400500584
1687104365.909995,0.7695226073265076,0.4410024583339691,0.4619002640247345,0.3989955186843872,-0.4555899202823639,-1.0801100730895996,-1.0720360279083252,-4.017522811889648,2.02677059173584,2.111394227591795,-0.4567152888034886,2.2411960319996442
1687104366.005175,0.9227126836776733,0.31985482573509216,0.21516010165214539,0.2295699119567871,-0.2904665470123291,-1.0974538326263428,-0.051924481987953186,-7.735989093780518,2.4216463565826416,1.7998848559573288,-0.32557624964605475,2.2059250588307853
1687104366.01067,0.9580690264701843,0.21496368944644928,-0.1894581913948059,1.149780035018921,-0.20260420441627502,0.3855489492416382,-4.099954128265381,-8.960131645202637,2.7005627155303955,1.3755651234657114,-0.21665464662153164,2.2680573298532027
1687104366.0593948,0.8142750859260559,0.3302917182445526,-0.47735026478767395,1.3358408212661743,0.47093185782432556,1.605966567993164,-14.25615119934082,-9.184660911560059,-1.1891483068466187,1.0405653857974253,-0.3366126134095105,2.7097970372296167
1687104366.15406,0.6295886039733887,0.7501757144927979,-0.20212511718273163,-0.1657671332359314,0.030051827430725098,1.703269362449646,-18.841697692871094,-1.2201149463653564,-1.0288606882095337,1.2601473972338817,-0.848327757599364,-2.627581174633235
1687104366.159628,0.5512549877166748,0.8028795719146729,0.2269405722618103,-0.16357499361038208,1.3089519739151,-0.6656156778335571,-1.774027705192566,-0.6344543695449829,-1.9204928874969482,1.9613308015823543,-0.9321099472375838,-1.737933281209878
1687104366.210511,0.4952015280723572,0.8431318998336792,0.2095329910516739,0.1597362756729126,-0.3284987807273865,-0.0495448112487793,0.36542531847953796,1.73123300075531,-0.8271105289459229,1.971079197211018,-1.0030814116241336,-1.774761257253376
1687104366.307033,0.47133201360702515,0.8395935893058777,0.27005329728126526,0.4562193751335144,-0.2969299554824829,-0.3167301118373871,-1.9431554079055786,0.13145221769809723,-0.13315299153327942,2.0910943958025223,-0.9965346317036564,-1.6582953009380208
1687104366.3125591,0.4598666727542877,0.8275277018547058,0.3220565915107727,-0.03306299448013306,-0.11216521263122559,-0.29689502716064453,0.9496694803237915,0.6070169806480408,0.18913477659225464,2.1817410677774665,-0.974689631891735,-1.5887220256444345
1687104366.3595018,0.4632642865180969,0.8523826599121094,0.24254857003688812,0.06270623207092285,0.0002783536911010742,-0.26479601860046387,2.3570361137390137,0.4129869043827057,0.2983599305152893,2.053117071912927,-1.0205249498745521,-1.7722612515815899
1687104366.455226,0.48762378096580505,0.8629158139228821,0.1326628476381302,0.05415487289428711,-0.054306864738464355,-0.3051025867462158,4.347408771514893,0.29901331663131714,0.8491633534431458,1.8364270613809615,-1.0410115020802344,-2.039361134925688
1687104366.460392,0.5329207181930542,0.8204553723335266,-0.2069987952709198,-0.03870368003845215,0.5879613161087036,-0.12346097826957703,13.771175384521484,2.3696415424346924,1.2906190156936646,1.200309545069966,-0.96220711061383,-2.849486068260689
1687104366.511636,0.666151225566864,0.3946799635887146,-0.6328272223472595,-0.17378056049346924,0.5679053068161011,1.1877588033676147,19.142305374145508,5.764821529388428,0.06581989675760269,0.8110465688515923,-0.4057195024703346,2.5323737618186044
1687104366.605484,0.8650131821632385,-0.03321234881877899,-0.5006487965583801,0.12129974365234375,0.5572143793106079,1.4440083503723145,11.475110054016113,6.820766448974609,-4.676715850830078,1.0461289690744995,0.033218458014898845,1.834323711908876
1687104366.611195,0.9675401449203491,0.10288312286138535,-0.2308274358510971,0.8841903209686279,0.05824972689151764,0.7567064762115479,0.9000522494316101,4.619534969329834,-5.438730716705322,1.3366025478496355,-0.10306549163576224,1.4719705904619882
1687104366.659668,0.9292183518409729,0.36924538016319275,-0.014522030018270016,0.47607022523880005,-0.024839311838150024,-0.06491512060165405,-3.293250799179077,3.7308924198150635,-4.703855991363525,1.5551693783121,-0.3781968892604572,1.5354474781434013
1687104366.755271,0.8057237267494202,0.5518672466278076,0.21506188809871674,0.4305890202522278,0.08598053455352783,-0.5330854654312134,-3.5159854888916016,2.6193320751190186,-4.389115810394287,1.8316330228245405,-0.5846016898570932,1.7461441944931528
1687104366.760915,0.6744204759597778,0.6334936022758484,0.37926560640335083,0.3317439556121826,-0.1413673758506775,-1.0283591747283936,-3.961209774017334,0.3929881751537323,-3.036566734313965,2.083077748944656,-0.6860601035142294,2.0447084208894397
1687104366.8096561,0.6018795967102051,0.6550008058547974,0.4568530023097992,0.22093528509140015,-0.09892487525939941,-1.543843388557434,-1.7965885400772095,-1.9090783596038818,-2.931187629699707,2.2200604073244774,-0.7141836545041288,2.34338491864199
1687104366.931766,0.574048638343811,0.7079828381538391,0.411373108625412,0.9398977756500244,-1.556829571723938,1.269565463066101,2.2725889682769775,2.640406847000122,3.9455184936523438,2.1925878922705584,-0.7866378612043611,2.2835153116416422
1687104366.951068,0.6266888380050659,0.6378410458564758,0.44768232107162476,0.02600574493408203,0.6532506942749023,-0.035542428493499756,-0.7831646203994751,-2.1534488201141357,-0.45921945571899414,2.191095961479651,-0.6916917818832532,2.226684193196355
1687104367.0225492,0.6236822605133057,0.6505613327026367,0.4333477318286896,-0.3483222723007202,-0.038897573947906494,0.3874835968017578,-0.20747418701648712,1.345164179801941,-0.31039828062057495,2.1780381897841194,-0.7083233059834652,2.2596002262412465
1687104367.026694,0.6244460940361023,0.6335166692733765,0.4568627178668976,0.32231593132019043,-0.09421020746231079,-0.047698259353637695,-0.5234897136688232,-0.8171206712722778,0.3191189169883728,2.2024357958421983,-0.6860899271779985,2.2731744452409766
1687104367.144014,0.6341065764427185,0.6269042491912842,0.45265862345695496,-0.120358407497406,0.12875670194625854,0.008324682712554932,-0.02934124879539013,0.2822279632091522,0.059589140117168427,2.1907589403693097,-0.677573297415784,2.2735329524255707
1687104367.163415,0.6326316595077515,0.6229085326194763,0.460176020860672,0.023114681243896484,0.05813688039779663,-0.02279806137084961,-0.2017897665500641,-0.04803641885519028,-0.043991491198539734,2.199675589164025,-0.6724551810117364,2.284891315282219
1687104367.22982,0.6326686143875122,0.6146159172058105,0.4711451530456543,0.05243575572967529,-0.12259632349014282,0.014252245426177979,-0.5245459675788879,0.3233078122138977,0.3610955476760864,2.21089357299315,-0.6618989665394679,2.288690860205605
1687104367.2442908,0.6543616652488708,0.5568680167198181,0.5115748047828674,0.11205673217773438,-0.39938217401504517,-0.19249820709228516,-1.7545374631881714,-0.270662784576416,1.6857575178146362,2.234335880111088,-0.5906103030500219,2.3140768347164604
1687104367.318644,0.7442285418510437,0.4772498905658722,0.46728643774986267,0.32811349630355835,0.01713484525680542,-1.008225679397583,0.7701858878135681,-3.2926313877105713,1.9334096908569336,2.1314641834309476,-0.49752254359600484,2.2992825163451207
1687104367.322348,0.8703774213790894,0.420268714427948,0.25654903054237366,0.01644819974899292,0.009952783584594727,-1.0475798845291138,3.1193463802337646,-5.730967998504639,2.1064510345458984,1.857435266901013,-0.4337414252101715,2.1558410749056987
1687104367.444902,0.939688503742218,0.32722800970077515,-0.09953348338603973,0.8266992568969727,0.1346248984336853,-0.3201441764831543,0.21528665721416473,-7.870477676391602,2.3409042358398438,1.4652680279606092,-0.33336858575905515,2.0339511473478042
1687104367.463776,0.8539016842842102,0.2651635408401489,-0.4478170871734619,1.3267624378204346,-0.22555187344551086,1.1131919622421265,-7.063610076904297,-8.451221466064453,2.6827855110168457,1.0877912777021688,-0.2683735265402495,2.2109361804736776
1687104367.529289,0.6761255860328674,0.540138840675354,-0.5011029839515686,0.6849431395530701,0.41600722074508667,1.8676953315734863,-17.928964614868164,-7.156124591827393,-1.405148983001709,0.9329904898901357,-0.5706021027558886,2.827730580730454
1687104367.543906,0.5270109176635742,0.8490262031555176,0.03760761022567749,-0.6100948452949524,0.6396517753601074,0.6227773427963257,-14.268026351928711,0.2894650399684906,-2.4841573238372803,1.642035779455605,-1.0141394287585836,-2.283587429482245
1687104367.621553,0.4312552213668823,0.8256220817565918,0.36382269859313965,-0.04349881410598755,0.4788212776184082,-0.7325515747070312,-2.6345837116241455,-0.759668231010437,-1.9104952812194824,2.2715844828109306,-0.9713038094556884,-1.5231372679807567
1687104367.625321,0.3930714428424835,0.8177325129508972,0.42048564553260803,0.35164907574653625,-0.159285306930542,-0.44935551285743713,-0.7615368962287903,-0.10424120724201202,-0.4536931812763214,2.389878469407413,-0.9574605352745065,-1.3769518444128888
1687104367.7139559,0.3934951722621918,0.8168577551841736,0.42178797721862793,0.22192242741584778,-0.2608274221420288,-0.18605512380599976,-0.10666820406913757,0.086082823574543,0.09380683302879333,2.390883623465611,-0.9559425177186941,-1.3511395980459489
1687104367.732199,0.3974789083003998,0.8199427723884583,0.4119513928890228,0.03672516345977783,-0.19443941116333008,-0.27096039056777954,1.0529183149337769,-0.29679813981056213,0.29959163069725037,2.3740723955256153,-0.9613110897651236,-1.372883006046776
1687104367.800333,0.4141535758972168,0.8362735509872437,0.3593372106552124,0.0049138665199279785,-0.09713786840438843,-0.0880666971206665,1.1346224546432495,-0.14816755056381226,0.4591299295425415,2.2854439951225536,-0.9904513493641385,-1.4715166352499203
1687104367.803986,0.44728395342826843,0.8556949496269226,0.26023635268211365,0.035961925983428955,0.07599133253097534,-0.20881441235542297,4.150969982147217,0.027270106598734856,0.8310826420783997,2.097736905655739,-1.0268923171123063,-1.6805130206423862
1687104367.8581,0.48363977670669556,0.8737044930458069,-0.05227643623948097,-0.02677634358406067,0.3096296787261963,-0.050186511129140854,11.8270845413208,1.7648886442184448,1.3651076555252075,1.463124735964964,-1.062766300363012,-2.4527776317790146
1687104367.955688,0.6036649942398071,0.5684635639190674,-0.5589613318443298,-0.15314918756484985,0.7821985483169556,0.9223188161849976,18.978235244750977,5.512392520904541,0.6586092114448547,0.8238297958307692,-0.604637097260671,2.7793250960222897
1687104367.961038,0.8193187713623047,0.02823610231280327,-0.5726425647735596,0.006670057773590088,0.006309717893600464,1.4444383382797241,14.642562866210938,7.377958297729492,-2.0308969020843506,0.960792032717051,-0.0282398558902691,2.041203515846231
1687104368.0444689,0.9476383328437805,-0.00749577023088932,-0.3192574977874756,0.6445704698562622,-0.19430172443389893,0.6368693113327026,2.284372091293335,3.746917963027954,-3.854231119155884,1.245840974656306,0.007495840283531527,1.6060609384329494
1687104368.1336188,0.9763025045394897,0.1533905565738678,-0.15265905857086182,0.24694883823394775,-0.3058258593082428,-0.13248181343078613,-1.2118233442306519,3.1135177612304688,-2.9404654502868652,1.4156878077307045,-0.15399852472433148,1.5821840406561016
1687104368.154029,0.9516392350196838,0.30707940459251404,0.009204438887536526,0.35420775413513184,0.1692999303340912,-0.3149752616882324,-0.6528440117835999,3.098039388656616,-2.7974607944488525,1.5804682190256611,-0.31212264934366585,1.6108873867896314
1687104368.218751,0.8834683895111084,0.43548208475112915,0.17273829877376556,0.4315338134765625,0.2654149830341339,-0.27700164914131165,-3.0181875228881836,2.507056951522827,-3.356180429458618,1.7638832937191622,-0.45057373674272055,1.7304403865733122
1687104368.222601,0.7760819792747498,0.526890218257904,0.34653037786483765,0.45238780975341797,0.006343245506286621,-0.5683931112289429,-4.461923599243164,1.4052201509475708,-2.795130729675293,1.9907463493357507,-0.5549375548448253,1.9727588348486416
1687104368.314188,0.7032055854797363,0.5004622340202332,0.5050143599510193,0.04998350143432617,0.0014755725860595703,-1.11112380027771,-5.532078266143799,-0.8662915229797363,-2.5941107273101807,2.1936067519752096,-0.5241325918142024,2.3219040043238515
1687104368.333552,0.6653504967689514,0.5408320426940918,0.5145961046218872,-0.26724880933761597,0.2996066212654114,-1.2997372150421143,1.063334345817566,-1.6787049770355225,-5.973446846008301,2.229119193173146,-0.5714259809137813,2.5944411810025665
1687104368.40176,0.660503089427948,0.5989567041397095,0.4527541399002075,0.4036448001861572,-1.412982702255249,0.18845069408416748,1.6943609714508057,3.91070294380188,4.04872989654541,2.17170294102942,-0.6421976263275249,2.289001320379722
1687104368.4056501,0.6739851832389832,0.5656743049621582,0.4751386046409607,0.2789262533187866,0.16445869207382202,0.28336066007614136,-1.6754200458526611,-3.079178810119629,-0.2964169979095459,2.184849361394861,-0.6012507025700891,2.373059358456057
1687104368.460003,0.6834183931350708,0.543724536895752,0.48713696002960205,-0.21387511491775513,-0.006722211837768555,0.051009923219680786,-0.5270193815231323,1.11394464969635,0.28523871302604675,2.1900577899891336,-0.5748686037025116,2.429958517602487
1687104368.551684,0.689369261264801,0.5376610159873962,0.48547932505607605,0.055320560932159424,0.24805957078933716,-0.07935136556625366,0.5443437099456787,-0.49686193466186523,-0.3762054741382599,2.184360268718016,-0.5676606121668153,2.4224470404956953
1687104368.557919,0.6839655041694641,0.5452449321746826,0.48466387391090393,-0.02390080690383911,-0.15573394298553467,-0.012511074542999268,-0.4303675591945648,0.48349031805992126,0.3921961188316345,2.187276581818258,-0.5766812681509291,2.4061769688518706
1687104368.609525,0.6923309564590454,0.5139727592468262,0.5064677596092224,0.024053871631622314,0.040607750415802,-0.09818840026855469,-0.47783851623535156,-0.054526060819625854,0.47809305787086487,2.202377964030564,-0.5398097292188063,2.42844482268007
1687104368.702965,0.715871274471283,0.5108997225761414,0.47593024373054504,0.19935083389282227,-0.08041888475418091,-0.6125726699829102,1.1633696556091309,-1.5451942682266235,0.6776863932609558,2.1575239518030944,-0.5362310853575906,2.402598590421204
1687104368.708714,0.7978253364562988,0.5088332891464233,0.32336223125457764,0.02794969081878662,-0.25147873163223267,-0.5861643552780151,3.8685474395751953,-2.9614806175231934,1.966265082359314,1.9558671956529816,-0.5338289792504,2.2387090099429487
1687104368.761148,0.8881058692932129,0.451055645942688,0.08841154724359512,-0.06854110956192017,-0.27091050148010254,-0.23640644550323486,3.4473178386688232,-3.3510653972625732,3.1327948570251465,1.6700200938088643,-0.46794779895954763,1.9830719491104127
1687104368.85538,0.9505637288093567,0.28329160809516907,-0.12717795372009277,0.48853832483291626,0.05319508910179138,-0.12765894830226898,-0.30347833037376404,-5.10755729675293,3.5770533084869385,1.4377940267374592,-0.28722460456796517,1.8974190544219147
1687104368.8602982,0.9053094387054443,0.17222784459590912,-0.388268381357193,0.9825537204742432,0.06515303254127502,0.5676660537719727,-6.1677775382995605,-6.641356468200684,2.7684097290039062,1.1656445494138588,-0.17309086291515124,2.0815539718182166
1687104368.9093919,0.7655734419822693,0.3293913006782532,-0.5526288151741028,0.6350308656692505,-0.07763668894767761,1.2166759967803955,-12.03549861907959,-5.932394504547119,0.9811847805976868,0.945556261259611,-0.33565883284736897,2.545679413487962
1687104369.005955,0.6552760601043701,0.6581392884254456,-0.37076371908187866,-0.21196246147155762,0.17503613233566284,0.9864405393600464,-13.472258567810059,-2.443115711212158,-1.352890133857727,1.0558937333874931,-0.7183447108083307,-3.103866158881863
1687104369.011728,0.5899273753166199,0.8072404265403748,-0.018670333549380302,-0.0825115442276001,0.28797435760498047,0.22017771005630493,-6.323127746582031,-0.36093074083328247,-0.8174678087234497,1.5391583564750353,-0.9394615262529606,-2.372244799753101
1687104369.059801,0.5632357597351074,0.8185546398162842,0.11284308135509491,-0.018451213836669922,0.1635313630104065,-0.19345545768737793,-0.4349910318851471,0.8501318097114563,-0.26134562492370605,1.768526347726393,-0.9588903608919329,-2.1161894199681455
1687104369.1557322,0.5570018291473389,0.8217992186546326,0.11997772753238678,0.17146801948547363,-0.16992872953414917,-0.24207879602909088,-0.08122196793556213,0.02640085108578205,0.17984656989574432,1.7829539786407889,-0.9645616002076854,-2.124277043062855
1687104369.161234,0.5676264762878418,0.8102537393569946,0.1459076851606369,0.09680229425430298,-0.11402583122253418,-0.11427640914916992,-0.4839108884334564,0.2235718071460724,0.32490015029907227,1.8223980309370134,-0.9445849146039202,-2.0910277870011056
1687104369.2115169,0.5831074714660645,0.7984755039215088,0.14974039793014526,-0.020332753658294678,0.02859640121459961,-0.12779845297336578,0.46963441371917725,0.41115137934684753,0.3210770785808563,1.8221621074982792,-0.9247587222443168,-2.104517064020003
1687104369.270899,0.5927930474281311,0.793582022190094,0.13719846308231354,0.024211347103118896,-0.03993546962738037,-0.10579611361026764,0.5279770493507385,0.14285826683044434,0.4295596480369568,1.7982358442843547,-0.9166736226397991,-2.1527997192809964
1687104369.363659,0.6093682646751404,0.7832832336425781,0.12303487956523895,0.0067054033279418945,-0.011127591133117676,-0.026538491249084473,0.44448861479759216,0.20995721220970154,0.44009819626808167,1.7700235363521413,-0.8999297423077287,-2.200358251628391
1687104369.383764,0.6268904209136963,0.7719370722770691,0.10545919835567474,0.02804744243621826,-0.013819396495819092,-0.024786219000816345,0.5117331147193909,-0.038993656635284424,0.48156824707984924,1.7374616985165356,-0.8818826894772033,-2.245305783069637
1687104369.4829412,0.6461025476455688,0.7596725225448608,0.07381686568260193,-0.027221262454986572,-0.016554415225982666,0.014455080032348633,1.5616382360458374,0.26008060574531555,0.5560368299484253,1.6845525426945518,-0.862809436924544,-2.3231640479342754
1687104369.50194,0.6722419261932373,0.7403311729431152,0.0006131799309514463,0.026580095291137695,-0.01399773359298706,0.11330878734588623,3.441504716873169,1.0464550256729126,0.9356272220611572,1.5717084682571203,-0.8335628851811783,-2.512075430937506
1687104369.5677562,0.7031354308128357,0.7019565105438232,-0.11339164525270462,0.0017749667167663574,0.04462540149688721,0.16768227517604828,5.081603050231934,1.484108567237854,0.6957370638847351,1.4109071759621068,-0.7781408358587555,-2.823246314651022
1687104369.583457,0.7512430548667908,0.6268620491027832,-0.2065860480070114,-0.03780299425125122,-0.05598515272140503,0.26929959654808044,4.446782112121582,2.419161319732666,0.9035763144493103,1.3024372885068582,-0.6775191683295774,-3.1365853376866157
1687104369.6588259,0.789030134677887,0.568896472454071,-0.2319229543209076,0.05832099914550781,-0.03802812099456787,0.19411158561706543,2.772000312805176,1.9544066190719604,0.3847511410713196,1.2849137308935108,-0.6051634341019684,2.9380399218304305
1687104369.67373,0.8300358653068542,0.5185330510139465,-0.20533791184425354,0.03284859657287598,-0.0023589730262756348,0.01773110032081604,1.938616156578064,2.055450439453125,0.5321186184883118,1.3282809357287104,-0.5451344436474657,2.822727663314738
1687104369.749199,0.8552529811859131,0.4860980808734894,-0.17958535254001617,0.032411813735961914,0.016999274492263794,-0.01227867603302002,2.1558120250701904,1.97601318359375,0.38861820101737976,1.3638240361246443,-0.5076192600280248,2.7100377678535077
1687104369.7528691,0.8790690898895264,0.4551474153995514,-0.14169785380363464,0.05537915229797363,0.10246962308883667,-0.13613420724868774,2.0788652896881104,1.7509608268737793,0.05875423923134804,1.4109802093434418,-0.4725377709971698,2.5930829024215587
1687104369.842845,0.8916008472442627,0.4386212229728699,-0.11251304298639297,0.026139020919799805,-0.0380171537399292,-0.14000463485717773,1.110741138458252,1.3430650234222412,0.16775447130203247,1.4452676713599166,-0.45406385012153255,2.502035809673132
1687104369.933961,0.898455023765564,0.4313349425792694,-0.08202840387821198,0.022016167640686035,0.047653526067733765,-0.14920324087142944,0.9037778973579407,1.0448613166809082,0.08523553609848022,1.4797493390210605,-0.4459719179479623,2.4540066353497227
1687104369.954936,0.9005141854286194,0.4303797781467438,-0.062027860432863235,0.009703099727630615,0.08196443319320679,-0.16715914011001587,1.1530113220214844,0.911486804485321,-0.11731759458780289,1.5020244612827471,-0.44491347558957534,2.393601749544799
1687104370.018575,0.8994150757789612,0.4338524639606476,-0.05314597859978676,0.02201741933822632,0.02685600519180298,-0.16160619258880615,1.4285775423049927,0.6931526064872742,-0.2160041481256485,1.511775465413446,-0.44876423225177836,2.3229333310212934
1687104370.0222569,0.8979706764221191,0.43669137358665466,-0.05430631712079048,0.01494741439819336,-0.054901331663131714,-0.12232935428619385,1.2035211324691772,0.5095189213752747,-0.07880786061286926,1.5103931809772566,-0.45191753452003147,2.2410700960480656
1687104370.114454,0.8978314399719238,0.43657708168029785,-0.05743694677948952,0.030101299285888672,-0.1110919713973999,-0.056302011013031006,0.11099215596914291,0.09032294899225235,0.10744239389896393,1.5069104113670158,-0.45179047936671685,2.209141993756296
1687104370.132935,0.9006392359733582,0.4301852583885193,-0.06155737489461899,0.055674731731414795,-0.038629621267318726,-0.03905903920531273,-0.05744793266057968,-0.2266010344028473,0.1832859367132187,1.5025539250439905,-0.4446979800806394,2.209268832742704
1687104370.20347,0.9048426747322083,0.4200805127620697,-0.06922496855258942,-0.008571863174438477,-0.03200387954711914,0.013927161693572998,0.07527187466621399,-0.15371906757354736,0.24168938398361206,1.4944400850117918,-0.433534044993693,2.2120182854146746
1687104370.207417,0.9099210500717163,0.40712231397628784,-0.07934273779392242,0.021277189254760742,-0.003832578659057617,0.02888195961713791,0.2752123773097992,-0.11358112841844559,0.29272449016571045,1.483818936114168,-0.4193012217293287,2.2022226271390593
1687104370.260458,0.9148654937744141,0.3935356140136719,-0.09028089046478271,0.0012568831443786621,0.0057714879512786865,0.04574055224657059,0.3861914575099945,-0.04636102169752121,0.23741790652275085,1.472432652677952,-0.4044743800663122,2.1854174870392
1687104370.356878,0.9192216396331787,0.3809911906719208,-0.0993838757276535,0.015104532241821289,0.002843499183654785,0.05792582035064697,0.331413596868515,-0.04031943157315254,0.20325103402137756,1.4630972461019631,-0.39086811766281054,2.166212984062939
1687104370.361953,0.9221336245536804,0.37215831875801086,-0.10567723214626312,0.017533063888549805,0.009524911642074585,0.06226605176925659,0.171603724360466,-0.022967442870140076,0.10305838286876678,1.4566933248987184,-0.3813332972227784,2.153767764697428
1687104370.414892,0.9230191707611084,0.3692646026611328,-0.10806974023580551,0.023315608501434326,0.011182665824890137,0.05350441485643387,0.04893672466278076,0.020376726984977722,-0.01103147678077221,1.4542441004581301,-0.3782175584482745,2.1481663163415026
1687104370.503912,0.9216440320014954,0.37365785241127014,-0.10465224087238312,0.0020925402641296387,0.012709856033325195,0.035148561000823975,0.022674068808555603,0.10559367388486862,-0.17382019758224487,1.4577310773186893,-0.3829493848117598,2.1466298895846143
1687104370.50991,0.9178255200386047,0.38470250368118286,-0.09798064827919006,0.012960612773895264,-0.002729356288909912,0.021061182022094727,0.0021462636068463326,0.129823699593544,-0.2856829762458801,1.4644460782219526,-0.3948854978189635,2.1447149838247626
1687104370.560207,0.9129806756973267,0.3978465497493744,-0.09046880900859833,0.02805948257446289,-0.022129476070404053,0.0015864297747612,-0.11725320667028427,0.1018386110663414,-0.2766807973384857,1.4720270605809287,-0.4091684515154336,2.1461446726678934
1687104370.657395,0.9080010652542114,0.4106752872467041,-0.08294372260570526,0.015353977680206299,-0.03649941086769104,-0.007983319461345673,-0.207206591963768,0.04815312474966049,-0.24174751341342926,1.4797015335510935,-0.42319457526352433,2.1550696120597803
1687104370.6623511,0.9037579894065857,0.4208425283432007,-0.07818681746721268,0.007817447185516357,-0.02751678228378296,-0.01966775208711624,-0.0761868879199028,0.03384656831622124,-0.18679502606391907,1.4844981941775954,-0.43437390801220166,2.1613930993116304
1687104370.709467,0.9011269807815552,0.4267646372318268,-0.07643095403909683,0.013698279857635498,-0.04811796545982361,-0.024414286017417908,-0.10349798202514648,-0.033376991748809814,-0.07177207618951797,1.4861817698532092,-0.4409122269669805,2.1654874231143295
1687104370.804813,0.9008356928825378,0.4270944893360138,-0.07800669968128204,0.010541141033172607,-0.03764459490776062,-0.03176497668027878,-0.12449567764997482,-0.09687793999910355,-0.009312650188803673,1.4844180949769403,-0.4412769917026533,2.1706715062659128
1687104370.810155,0.9016183018684387,0.4247588515281677,-0.0816354751586914,0.006462752819061279,-0.033309996128082275,-0.02230733633041382,-0.14503775537014008,-0.1556522101163864,0.05260888487100601,1.4804992686248657,-0.43869549722501905,2.178294058751177
1687104370.860646,0.902821958065033,0.4209171533584595,-0.08798254281282425,-0.00409466028213501,-0.0159948468208313,-0.0193171426653862,-0.15959422290325165,-0.21704520285129547,0.08139011263847351,1.473650267309197,-0.4344561618386042,2.1856588757770945
