Timestamp,gravityX,gravityY,gravityZ,accelerationX,accelerationY,accelerationZ,rotationRateX,rotationRateY,rotationRateZ,attitudeRoll,attitudePitch,attitudeYaw
1687086298.535376,0.8469372987747192,0.40617528557777405,-0.34310194849967957,0.0014971494674682617,-0.0016648173332214355,0.04024547338485718,0.1236497238278389,0.07552606612443924,0.04487283527851105,1.1858933878838227,-0.4182646378083026,1.603989448231205
1687086298.626175,0.8496303558349609,0.40476369857788086,-0.3380748927593231,0.004785478115081787,0.015280216932296753,0.010575473308563232,0.032620638608932495,0.10956653952598572,0.004262913949787617,1.1920945289161544,-0.4167203964134487,1.6020884263456276
1687086298.631974,0.8522144556045532,0.405231773853302,-0.3309345841407776,-0.019496560096740723,0.0476643443107605,-0.006803452968597412,0.12985455989837646,0.1467079371213913,-0.06520189344882965,1.200396556151731,-0.4172323270735195,1.5988796493410913
1687086298.71743,0.852769136428833,0.4076451361179352,-0.32651209831237793,-0.0012372136116027832,0.02817636728286743,-0.01821446418762207,0.045311398804187775,0.11561217904090881,-0.05648314952850342,1.2051311895444172,-0.4198737103864139,1.5940794036279724
1687086298.804574,0.8524628281593323,0.4097723066806793,-0.3246440589427948,-0.01133739948272705,0.03438049554824829,-0.03779798746109009,0.018548067659139633,0.058831773698329926,-0.06860656291246414,1.2069235854663651,-0.422204425952902,1.5900481986545008
1687086298.810729,0.849952220916748,0.41518816351890564,-0.32434529066085815,0.011528372764587402,0.06434974074363708,-0.07230696082115173,0.04359706863760948,0.013953302055597305,-0.15854980051517487,1.2062483446969297,-0.4281496322471539,1.586132576812938
1687086298.89541,0.8462800979614258,0.42121702432632446,-0.32616904377937317,0.004580557346343994,0.022401779890060425,-0.09537026286125183,-0.017887970432639122,-0.07943928241729736,-0.10858786851167679,1.2029261101633304,-0.43478677234715896,1.5816147470755102
1687086298.909388,0.8404073119163513,0.42839106917381287,-0.3319587707519531,0.02787882089614868,-0.015228867530822754,-0.048625946044921875,-0.04444069787859917,-0.1487521380186081,-0.21487261354923248,1.194609878750424,-0.4427114329147201,1.5808610581045
1687086298.984809,0.8324100375175476,0.43978288769721985,-0.3371712565422058,0.017473995685577393,-0.06316548585891724,0.0016610026359558105,-0.10023824125528336,-0.10157787799835205,-0.2574542164802551,1.185940410532239,-0.4553569258118139,1.5779376965021117
1687086298.999271,0.8261472582817078,0.4498201310634613,-0.3393264412879944,0.01714491844177246,-0.09665548801422119,0.047669947147369385,-0.12544575333595276,-0.11264325678348541,-0.09240195900201797,1.1810712223452846,-0.4665639304241262,1.5815809343698661
1687086299.074528,0.8252965807914734,0.44982022047042847,-0.3413904011249542,-0.012735486030578613,-0.03742089867591858,0.032735615968704224,0.06709057092666626,-0.049012403935194016,0.06707343459129333,1.1785716779099407,-0.4665640361452867,1.5827516882401713
1687086299.080212,0.8283416032791138,0.4423867464065552,-0.3437209129333496,0.0007294416427612305,-0.004337489604949951,0.01391744613647461,-0.05636708065867424,-0.11261449009180069,0.18485671281814575,1.177468224709833,-0.4582582747705756,1.5827725416276497
1687086299.132627,0.8296328783035278,0.4399057626724243,-0.34379106760025024,-0.015454411506652832,0.06485497951507568,0.008219778537750244,-0.12763629853725433,-0.05739576369524002,-0.01100669801235199,1.177947176073096,-0.45549371801745103,1.592320603459895
1687086299.224015,0.8272172808647156,0.4446737766265869,-0.3434772491455078,-0.03755980730056763,0.08418053388595581,-0.0481242835521698,0.0721527561545372,-0.02150098793208599,-0.10101544111967087,1.177238414010266,-0.46081000163371716,1.593834254787896
1687086299.230206,0.8229932188987732,0.44835013151168823,-0.34880393743515015,0.028233468532562256,0.04254031181335449,-0.07072117924690247,-0.18982824683189392,-0.22321678698062897,-0.11633844673633575,1.1699225282930716,-0.46491869241438794,1.5924359925432539
1687086299.2819219,0.8137357234954834,0.4610212445259094,-0.3539680242538452,-0.0010985136032104492,0.11113753914833069,-0.0583549439907074,0.01292261853814125,-0.1273726224899292,-0.29362016916275024,1.160493423565088,-0.479145682524268,1.5948566669161095
1687086299.407623,0.8027991056442261,0.4685802459716797,-0.3687087893486023,0.048946499824523926,0.1932239532470703,-0.2671402096748352,0.09362173080444336,-0.45674440264701843,-0.2753109335899353,1.1402528143452877,-0.48768297992460913,1.5777460539604011
1687086299.412619,0.7815068960189819,0.48731082677841187,-0.38958293199539185,-0.0005317330360412598,0.12882369756698608,-0.19569844007492065,-0.23352470993995667,-0.708014965057373,-0.5691379308700562,1.1083476591517039,-0.5090075265976945,1.5738424088395464
1687086299.4944649,0.7489199042320251,0.5171537399291992,-0.4143316447734833,0.0819668173789978,0.2574586272239685,-0.28606200218200684,-0.17988774180412292,-0.925083577632904,-0.7174538373947144,1.0654698254305133,-0.543522100114846,1.5654332866852574
1687086299.507457,0.7025752067565918,0.5539525747299194,-0.4466816484928131,0.09486430883407593,0.2172265648841858,-0.274524986743927,-0.38364726305007935,-1.253096103668213,-1.0056226253509521,1.0044842621669736,-0.5871043452674743,1.5565677501200563
1687086299.585614,0.6387621760368347,0.6005006432533264,-0.4810216724872589,0.198838472366333,0.2561582326889038,-0.1396753191947937,-0.2765261232852936,-1.355155348777771,-1.2685600519180298,0.9253442791504493,-0.6441270617302806,1.5319839681777196
1687086299.600146,0.5610025525093079,0.6471344828605652,-0.516229510307312,0.1627064347267151,0.37979716062545776,-0.1524868607521057,0.21248100697994232,-1.2926586866378784,-1.6539217233657837,0.8269372981134683,-0.7038197834554367,1.478266116128771
1687086299.671956,0.46158650517463684,0.6826205849647522,-0.5665394067764282,0.27492472529411316,0.28112441301345825,-0.015522301197052002,0.6175577044487,-1.385158896446228,-2.1276426315307617,0.6836687758729308,-0.7513427374813523,1.3637238972173136
1687086299.6776872,0.34079819917678833,0.7231975197792053,-0.6007012128829956,0.36598896980285645,0.13660472631454468,0.009255290031433105,-0.5268831849098206,-1.4956883192062378,-2.3616747856140137,0.516053943187511,-0.8084209173757798,1.2265173842501869
1687086299.732283,0.20227482914924622,0.7543034553527832,-0.6245888471603394,0.3543200194835663,0.3597254753112793,0.08143699169158936,1.462669849395752,-1.2219219207763672,-2.8351714611053467,0.31319391843588124,-0.8545924851741707,1.0482047623417636
1687086299.853094,0.049293696880340576,0.7236865758895874,-0.6883660554885864,0.5103986859321594,0.022132456302642822,0.14966976642608643,0.49294111132621765,-1.5634136199951172,-2.9514076709747314,0.07148768638979965,-0.8091293317222542,0.8122805121250346
1687086299.8657742,-0.11368172615766525,0.7188534736633301,-0.6858032941818237,0.47284314036369324,0.07071256637573242,0.15917670726776123,0.3209019601345062,-1.4867454767227173,-3.074366331100464,-0.16427060065406296,-0.8021515758229725,0.5942707686654674
1687086299.9448981,-0.2732419967651367,0.6639347076416016,-0.6960815787315369,0.496401846408844,-0.04149824380874634,0.1508849859237671,0.6397178173065186,-1.5355019569396973,-3.1453213691711426,-0.3740615092649098,-0.7260683589425874,0.40073122753752816
1687086299.959538,-0.42327386140823364,0.5853736400604248,-0.6915033459663391,0.5208081007003784,-0.03045731782913208,0.06874638795852661,0.9969646334648132,-1.598010778427124,-2.842374324798584,-0.5492739941739264,-0.6253408413441025,0.24811507340121625
1687086300.032511,-0.5502808690071106,0.4990446865558624,-0.669436514377594,0.36296409368515015,-0.2964385151863098,0.14250481128692627,0.145636186003685,-1.6192076206207275,-2.3968863487243652,-0.688015971492087,-0.5224960133400264,0.14194959557005526
1687086300.046813,-0.6512500643730164,0.42452409863471985,-0.6290092468261719,0.38063549995422363,-0.15509966015815735,0.07342147827148438,0.557344913482666,-1.559264063835144,-1.834585428237915,-0.802768508237648,-0.43843621200135796,0.06655382526128971
1687086300.157236,-0.7250005602836609,0.3624320328235626,-0.5856766104698181,0.18300849199295044,-0.3171286880970001,0.1877121925354004,-0.15361298620700836,-1.1731607913970947,-1.377097249031067,-0.891299666510259,-0.3708760120145242,0.018662940881959977
1687086300.162765,-0.7780982851982117,0.31646648049354553,-0.5425974726676941,0.18112874031066895,-0.14352333545684814,0.008204102516174316,0.07224554568529129,-1.1380062103271484,-1.0874334573745728,-0.9618592125203759,-0.3220021794501176,-0.02130022687040708
1687086300.244571,-0.8251469135284424,0.2752350866794586,-0.4933337867259979,0.20702868700027466,-0.03645026683807373,-0.023588240146636963,-0.2286521941423416,-1.353332757949829,-1.0555931329727173,-1.0319416077387293,-0.27883422823757237,-0.051192202803156076
1687086300.259839,-0.8731390833854675,0.23062019050121307,-0.4294675886631012,0.2461097240447998,0.159318208694458,-0.02719748020172119,0.09728521853685379,-1.5266587734222412,-1.3504953384399414,-1.1136768966784032,-0.2327150038950202,-0.09310127483004844
1687086300.335363,-0.9179092049598694,0.1563238948583603,-0.36469903588294983,0.06794899702072144,0.1983056515455246,-0.002976745367050171,0.045519497245550156,-1.4345914125442505,-1.7275522947311401,-1.1926068227303344,-0.156967682720993,-0.11576707306253603
1687086300.350518,-0.9510592222213745,0.06130887567996979,-0.3028654456138611,0.04674714803695679,0.2499857246875763,-0.0674501359462738,1.1856752634048462,-1.3933285474777222,-1.9806158542633057,-1.2624994166557015,-0.06134734704428741,-0.12482834068415141
1687086300.421626,-0.9703987240791321,-0.04284127056598663,-0.23767806589603424,0.037369608879089355,0.039499640464782715,0.08219099044799805,-0.7108700275421143,-1.4788801670074463,-2.0666534900665283,-1.3305967329091546,0.042854385249018086,-0.12622257620529762
1687086300.426423,-0.9765106439590454,-0.14481255412101746,-0.15955029428005219,0.2026001214981079,0.39002132415771484,-0.20910216867923737,-1.2937028408050537,-2.0360219478607178,-2.8161537647247314,-1.4088392217316659,0.14532353157921396,-0.2119006316952808
1687086300.512372,-0.9546031355857849,-0.2911776602268219,-0.06283445656299591,0.18266111612319946,0.5537662506103516,-0.21103036403656006,-1.192613959312439,-2.50757098197937,-3.6034297943115234,-1.5050685462679099,0.29545760001506843,-0.2952865807541112
1687086300.631998,-0.8845703601837158,-0.46563056111335754,0.02689201571047306,0.09596574306488037,0.19146078824996948,-0.10611569881439209,-1.4434726238250732,-2.308788299560547,-3.9887447357177734,-1.6011881841688416,0.4843470058846203,-0.37263106083972264
1687086300.646333,-0.7661845088005066,-0.6376879215240479,0.07946833968162537,0.13245654106140137,-0.13606995344161987,0.016127824783325195,-1.4792451858520508,-1.7878339290618896,-3.90120530128479,-1.6741463617525156,0.6914929380269814,-0.42184372184378494
1687086300.754406,-0.6412959098815918,-0.7644473314285278,0.06602848321199417,0.2474207878112793,-0.05411034822463989,-0.10560989379882812,-1.626906156539917,-1.5586484670639038,-3.050370693206787,-1.6733958157493631,0.8701836182806852,-0.5438300781107199
1687086300.759543,-0.5104284286499023,-0.8581414222717285,0.055283162742853165,0.2241581678390503,-0.09467846155166626,-0.03144895285367966,-1.0702714920043945,-1.5616494417190552,-3.13417911529541,-1.6786831602898502,1.0316385762804274,-0.6298661797580876
1687086300.764518,-0.3591405749320984,-0.9320120215415955,0.04869641736149788,0.18398496508598328,0.4347435235977173,-0.059591300785541534,-0.628092348575592,-1.105717420578003,-3.5354456901550293,-1.7055659479552172,1.199925360882114,-0.6732769173614437
1687086300.836009,-0.19836488366127014,-0.9745301604270935,0.10460452735424042,0.26956242322921753,0.06712061166763306,0.08114074915647507,1.8028634786605835,-0.5565844774246216,-2.4216160774230957,-2.0560711949980375,1.34461629243344,-0.35315921497551706
1687086300.851026,-0.11702711135149002,-0.9871514439582825,0.10879532247781754,0.4281385540962219,-0.947876513004303,0.2309873104095459,-0.7538646459579468,-0.5825759768486023,-1.1096950769424438,-2.319758119704308,1.4103210584286563,-0.11868804919561905
1687086300.966295,-0.0891173779964447,-0.9864869117736816,0.13748233020305634,0.1047271266579628,0.02344381809234619,-0.039444699883461,1.0565742254257202,0.2401602864265442,-0.31961169838905334,-2.5664770308198066,1.4062141240625805,0.12936146824923608
1687086300.980972,-0.08103784918785095,-0.9859970211982727,0.1457483172416687,0.043043434619903564,-0.19623863697052002,0.11168265342712402,0.2170925885438919,0.36891135573387146,0.06678794324398041,-2.634145206366669,1.4032506347407865,0.2116544571178559
1687086301.059029,-0.09301029145717621,-0.9731445908546448,0.21056674420833588,0.04590640217065811,0.010696649551391602,-0.028773576021194458,0.6117123365402222,0.6086803674697876,0.058817144483327866,-2.725650619533077,1.3385186793876278,0.33556132344122963
1687086301.064067,-0.09994073957204819,-0.9767675399780273,0.18956930935382843,-0.00847296416759491,0.13196498155593872,-0.0468539297580719,-0.08774960786104202,0.3584826588630676,-0.10018577426671982,-2.6564234185806317,1.3548196885956585,0.2869280902304435
1687086301.176803,-0.10068406164646149,-0.979713499546051,0.17327441275119781,-0.05010329931974411,-0.14669018983840942,-0.001628294587135315,-0.29844731092453003,0.059353701770305634,0.005349505692720413,-2.6152107063568253,1.3690268444114928,0.2544826284689092
1687086301.182199,-0.10139161348342896,-0.9792917966842651,0.17523498833179474,-0.011233523488044739,-0.04113972187042236,-0.08714602887630463,0.1881210058927536,-0.01582973264157772,0.050197336822748184,-2.6170543212161,1.3669333654383111,0.25799854135956063
1687086301.267294,-0.10061411559581757,-0.979371190071106,0.17523831129074097,-0.011614277958869934,0.008439421653747559,-0.000708356499671936,-0.18672433495521545,0.013470311649143696,-0.04427710548043251,-2.6203929514303117,1.3673259462555307,0.2597369382301678
1687086301.281465,-0.0969550684094429,-0.981949508190155,0.1624028980731964,0.007569074630737305,0.030319929122924805,0.028072476387023926,-0.17634642124176025,-0.023692451417446136,-0.08189476281404495,-2.6033794953979053,1.3805068502773343,0.24206005620000026
1687086301.357266,-0.09530268609523773,-0.983069896697998,0.15649622678756714,0.023510053753852844,-0.014198839664459229,-0.01320098340511322,-0.22662200033664703,-0.030360952019691467,-0.04418154060840607,-2.594598165366405,1.3865241932703285,0.23308522933285203
1687086301.362885,-0.0912889689207077,-0.9853388667106628,0.14413104951381683,-0.025959618389606476,0.044878602027893066,0.028964534401893616,-0.19858211278915405,-0.003085921984165907,-0.054547540843486786,-2.5769937144112482,1.399348888968634,0.21213816463609628
1687086301.476541,-0.08804436773061752,-0.9864296913146973,0.1385803073644638,0.006257236003875732,-0.060826659202575684,-0.002410888671875,-0.20697873830795288,-0.07997601479291916,-0.03373023122549057,-2.575598744732391,1.4058652966751384,0.21013663560289503
1687086301.481359,-0.08905120939016342,-0.9863543510437012,0.13847295939922333,0.018174149096012115,0.04069101810455322,-0.07450820505619049,0.26226890087127686,0.011507028713822365,0.13995186984539032,-2.5700872084512607,1.4054070107792753,0.20029990742472242
1687086301.565885,-0.10891252011060715,-0.9856956005096436,0.12861694395542145,0.22712232172489166,-0.23595362901687622,0.06658865511417389,-1.2506622076034546,-0.12065883725881577,0.7346220016479492,-2.4389606910547195,1.401452682585571,0.06824232385304131
1687086301.580236,-0.1906035989522934,-0.980506420135498,0.04771881923079491,0.5895904302597046,-0.33257317543029785,0.18278038501739502,-2.1017892360687256,-0.20715388655662537,2.630337953567505,-1.8161103398944551,1.3730224540856795,-0.568201690786009
1687086301.657042,-0.3594536781311035,-0.9321216344833374,-0.04407188296318054,0.941133975982666,-0.1586529016494751,0.049259837716817856,-2.0955617427825928,-0.35418248176574707,4.438749313354492,-1.4487972603858008,1.2002278937049236,-0.97054286896763
1687086301.662119,-0.5944110751152039,-0.7971526384353638,-0.10593878477811813,1.0961811542510986,-0.07606196403503418,0.13560181856155396,0.08475041389465332,0.5593611001968384,6.1504011154174805,-1.394423414740119,0.922564549119307,-1.0301768523398165
1687086301.746416,-0.8101580739021301,-0.5717610716819763,-0.12935592234134674,0.9608234167098999,0.01632601022720337,0.23850196599960327,0.6768487691879272,2.063178300857544,6.610130310058594,-1.4124652818534864,0.6086508155659871,-0.9088948599365759
1687086301.761105,-0.9312832951545715,-0.2770657539367676,-0.23652859032154083,0.8566526770591736,0.07796913385391235,0.08619900047779083,0.06287947297096252,2.7715237140655518,6.798600196838379,-1.3220740253494012,0.28073895681552374,-0.8185805004894108
1687086301.836659,-0.9329291582107544,0.03551693260669708,-0.35830357670783997,0.5659401416778564,0.05368595942854881,-0.13475361466407776,0.7212268114089966,2.5650558471679688,6.798447132110596,-1.204103772778597,-0.035524403168490225,-0.6873603097455443
1687086301.8501902,-0.8324430584907532,0.3463079631328583,-0.4325611889362335,0.7130889296531677,0.37840819358825684,-0.20574447512626648,-1.0912535190582275,1.2032760381698608,6.486191749572754,-1.0915694654574313,-0.35363266443672114,-0.5895646858560671
1687086301.923582,-0.652995228767395,0.563591718673706,-0.5059264302253723,0.4137679934501648,0.27143025398254395,0.0016387104988098145,1.1735613346099854,1.8575736284255981,6.182860851287842,-0.9116248713366122,-0.5987273980457207,-0.3564439148913785
1687086301.9283571,-0.4094739258289337,0.7377213835716248,-0.5367476940155029,0.8504530191421509,0.1831921935081482,0.010075390338897705,-0.710249662399292,1.2704397439956665,6.101332664489746,-0.6516932904902669,-0.8296888812686275,-0.08375302589473113
1687086301.985717,-0.1373528242111206,0.8247432112693787,-0.5485734939575195,0.7165154218673706,0.1353856325149536,0.23570722341537476,-0.496883749961853,1.3045393228530884,5.766973972320557,-0.2453379929755898,-0.9697479384598843,0.3429273377991208
1687086302.10886,0.12612661719322205,0.8316868543624878,-0.5407299995422363,0.8173090219497681,0.47014719247817993,-0.03785276412963867,1.008149266242981,1.5614027976989746,4.953578948974609,0.22915526198180544,-0.9821388868654741,0.833235387954683
1687086302.114538,0.34150466322898865,0.7559266090393066,-0.5585243105888367,0.49623337388038635,0.2796873450279236,0.17906880378723145,0.25252148509025574,1.6636290550231934,3.6254160404205322,0.5487895382258593,-0.8570684204284521,1.1286877730197622
1687086302.195139,0.5003186464309692,0.6669169068336487,-0.5521801710128784,0.2360551953315735,0.5045307874679565,-0.15826904773712158,1.1448529958724976,1.8525527715682983,2.5690386295318604,0.7361633329643016,-0.7300634415854224,1.270822063573402
1687086302.21086,0.6203027367591858,0.5901519060134888,-0.516667366027832,0.35184991359710693,0.27897340059280396,-0.0746411681175232,0.20593053102493286,1.7056018114089966,2.2201149463653564,0.8762974678239498,-0.631246991161878,1.3526821605188606
1687086302.282861,0.7169077396392822,0.510371208190918,-0.4749363660812378,-0.0010111331939697266,0.616185188293457,-0.4467860460281372,0.15579919517040253,1.4798462390899658,1.7108649015426636,0.985698412205452,-0.535616397413998,1.398825467532
1687086302.296391,0.780081570148468,0.46813181042671204,-0.4151206910610199,0.20525461435317993,0.3651048243045807,-0.2875770628452301,-1.137635350227356,0.8693074584007263,1.5050935745239258,1.0817604466179604,-0.4871754298881495,1.4833711943328973
1687086302.339593,0.8265277743339539,0.43010398745536804,-0.363128662109375,-0.03748053312301636,0.47410130500793457,-0.212646484375,0.32342612743377686,1.2480145692825317,0.8423844575881958,1.1568405559561477,-0.4446079519397358,1.5370060900474767
1687086302.434911,0.8607403039932251,0.3908498287200928,-0.32613250613212585,-0.028983771800994873,0.24687597155570984,0.014700591564178467,0.9316679835319519,1.040766954421997,0.5819980502128601,1.2086129039716638,-0.4015546969991809,1.5138678578494293
1687086302.446703,0.8831292390823364,0.3577550947666168,-0.3034697473049164,-0.05717110633850098,0.3403954803943634,-0.07386484742164612,1.034121036529541,0.9458227157592773,0.14165684580802917,1.2398075222107903,-0.36586278492228347,1.471377668040368
1687086302.489769,0.8928860425949097,0.35544317960739136,-0.2764318287372589,0.03178119659423828,0.10808828473091125,-0.1869013011455536,-0.1134803295135498,0.6857091188430786,-0.4002175033092499,1.2705614507837386,-0.3633881589746523,1.4358419766958106
1687086302.583754,0.8931341767311096,0.37614667415618896,-0.2466270476579666,-0.042761921882629395,0.18418651819229126,-0.1782081574201584,0.8745455741882324,0.9230983853340149,-0.538280725479126,1.3013737152763267,-0.3856340355370289,1.4195573957880132
1687086302.599299,0.8989836573600769,0.3759229779243469,-0.2247449904680252,0.04384160041809082,0.05870833992958069,-0.09161549806594849,1.6028978824615479,1.0681852102279663,-0.18569812178611755,1.3258186290885523,-0.3853926225999839,1.346217750296556
1687086302.639405,0.9061951637268066,0.3773189187049866,-0.19089452922344208,-0.037771761417388916,-0.24456748366355896,-0.093849778175354,-1.0795127153396606,0.904112696647644,-0.1177951917052269,1.3631768925602599,-0.38689951316801735,1.3281157896074367
1687086302.733808,0.9120731353759766,0.38549208641052246,-0.13970883190631866,0.04370695352554321,0.09578540921211243,-0.002228453755378723,0.6274120807647705,0.5550330877304077,0.20433326065540314,1.4188005293260386,-0.3957410544733536,1.3665705037074936
1687086302.7499552,0.9224123954772949,0.36238357424736023,-0.1335422396659851,0.0700497031211853,-0.12225601077079773,-0.23166167736053467,0.5284854173660278,0.5676165819168091,0.4685726761817932,1.427020305999105,-0.3708240178240406,1.327081153919807
1687086302.8245258,0.932383120059967,0.3434906005859375,-0.11258751153945923,-0.0021158456802368164,-0.1543884575366974,-0.05298566818237305,-0.28049883246421814,0.21895886957645416,0.29735249280929565,1.4506257340746165,-0.35063113402245577,1.3230959891466811
1687086302.91403,0.9343953132629395,0.34061017632484436,-0.1043551117181778,-0.06935936212539673,0.029705345630645752,0.009140253067016602,-0.4034525454044342,-0.245453342795372,-0.03856750950217247,1.4595752436707778,-0.3475658105402013,1.354333879917105
1687086302.928386,0.9328140616416931,0.3411850929260254,-0.11597661674022675,0.055314481258392334,0.05500936508178711,-0.14061516523361206,-0.20180422067642212,-0.31470969319343567,0.057781532406806946,1.4471012465312278,-0.34817735145810547,1.3663415200197437
1687086303.0069962,0.9319179058074951,0.3411450684070587,-0.12308052182197571,0.05265533924102783,-0.039478838443756104,0.012774713337421417,-0.41781410574913025,-0.1886301189661026,0.008461253717541695,1.4394840261720125,-0.34813478233198375,1.381524978311323
1687086303.012778,0.9314189553260803,0.34243908524513245,-0.12326450645923615,-0.0473705530166626,0.007551729679107666,0.12785738706588745,-0.18974138796329498,-0.05255302041769028,0.0036701608914881945,1.4392203539348936,-0.3495117175205618,1.398797368747474
1687086303.093673,0.9307993650436401,0.34381482005119324,-0.12411312013864517,-0.06425261497497559,0.01856619119644165,0.102445587515831,-0.3634012043476105,-0.15681733191013336,-0.04875538498163223,1.4382378922555852,-0.3509763603785423,1.4102853590619309
1687086303.099752,0.9266771078109741,0.35277682542800903,-0.12968450784683228,-0.021480023860931396,0.16037625074386597,-0.0303955078125,-0.13393820822238922,-0.22097046673297882,-0.271162211894989,1.4317536096872752,-0.3605370552372259,1.4241733209754734
1687086303.183031,0.9199523329734802,0.366048127412796,-0.14034435153007507,0.113372802734375,0.04883834719657898,-0.12407523393630981,0.03891848027706146,-0.1467272937297821,-0.26156261563301086,1.419407452832019,-0.37475884766842216,1.4222120933578675
1687086303.19795,0.9140528440475464,0.3795551657676697,-0.14298635721206665,-0.011709213256835938,-0.10179942846298218,0.01350027322769165,-0.17053721845149994,-0.1629686802625656,-0.26272302865982056,1.4156227409389532,-0.3893154294037211,1.4266077579400933
1687086303.2403831,0.9076454043388367,0.3895358443260193,-0.15633812546730042,-0.056327104568481445,-0.05114167928695679,-0.11999857425689697,-0.3010217249393463,-0.43579062819480896,-0.15330037474632263,1.4002242422062028,-0.4001275839712461,1.4304727708235654
1687086303.33503,0.9006136059761047,0.39681193232536316,-0.1772996187210083,0.06119346618652344,0.11814162135124207,-0.10730735957622528,-0.041309621185064316,-0.5778678059577942,-0.19155512750148773,1.376416652606901,-0.4080410217052422,1.4391762607120202
1687086303.351145,0.8893454074859619,0.4121653437614441,-0.19795019924640656,0.052304863929748535,-0.08460497856140137,-0.08256736397743225,-0.7693392038345337,-0.6964331865310669,-0.2744954824447632,1.3517867796930376,-0.4248293754242641,1.4546139230390018
1687086303.388946,0.8768090605735779,0.43237772583961487,-0.21036945283412933,0.0031194686889648438,-0.017369210720062256,0.09125930070877075,-0.5474350452423096,-0.6379250288009644,-0.11708086729049683,1.33532114229255,-0.4471280712277835,1.49901581704327
1687086303.484283,0.8690615892410278,0.4423377513885498,-0.22151562571525574,0.019259274005889893,-0.1945350170135498,0.10222238302230835,-1.0517085790634155,-0.46916669607162476,-0.05299711227416992,1.3212200653822845,-0.45820362027397016,1.5284782332997466
1687086303.5004601,0.8645183444023132,0.4562751054763794,-0.2107628434896469,-0.023728609085083008,-0.09609141945838928,0.19828112423419952,-0.6461693644523621,-0.1816079467535019,0.002477508271113038,1.33166875384199,-0.4738046356765147,1.5906929772258531
1687086303.5378861,0.8667675256729126,0.4536459445953369,-0.20716941356658936,-0.01633429527282715,-0.14885172247886658,0.03955163061618805,-0.6464115381240845,-0.0819438248872757,0.25619223713874817,1.3361840198703827,-0.47085223650806807,1.6122532883924767
1687086303.666018,0.8722903728485107,0.4460347592830658,-0.2004055380821228,-0.022101223468780518,0.12526953220367432,0.023678243160247803,-0.053657155483961105,-0.006005545146763325,0.17597472667694092,1.344968845053054,-0.46233006641567304,1.6397393044499178
1687086303.681905,0.8733606934547424,0.4421297311782837,-0.20435833930969238,-0.026986300945281982,0.20491918921470642,-0.06061053276062012,0.23747098445892334,-0.06619330495595932,0.004843993578106165,1.3409410015722467,-0.4579716970773416,1.63249572501347
1687086303.755093,0.8712310194969177,0.4437829852104187,-0.20979273319244385,0.019241273403167725,0.19328665733337402,-0.13143955171108246,-0.18530604243278503,-0.24790063500404358,-0.11175660789012909,1.3344947237904647,-0.4598157369511646,1.6356766919550505
1687086303.760227,0.8596978187561035,0.46319982409477234,-0.21532681584358215,0.04037231206893921,0.013149023056030273,-0.040593624114990234,-0.30326247215270996,-0.21180185675621033,-0.6147127151489258,1.325377220589606,-0.4816023277678361,1.6409804450738936
1687086303.8468552,0.8467689156532288,0.48626214265823364,-0.21571186184883118,-0.017575740814208984,-0.15157586336135864,-0.04384014010429382,-0.26847848296165466,-0.24772527813911438,-0.17116130888462067,1.3213548815885472,-0.5078070078004377,1.654838635626405
1687086303.8628511,0.8425987958908081,0.4916476309299469,-0.2197948545217514,0.08753114938735962,-0.15142247080802917,0.18936879932880402,-0.31685495376586914,-0.23155345022678375,-0.08307376503944397,1.3156289532829588,-0.5139808504105398,1.6698437618312585
1687086303.965435,0.8404538035392761,0.4961835741996765,-0.21780513226985931,-0.051269352436065674,-0.12487626075744629,0.17442436516284943,0.008428322151303291,0.21482084691524506,0.0024134370032697916,1.3172229103978472,-0.5191975379683741,1.6727916513034182
1687086303.9807181,0.8466063141822815,0.4909519851207733,-0.20548373460769653,-0.0005677342414855957,-0.06610164046287537,0.10093048214912415,-0.08682320266962051,0.1648321896791458,0.25833645462989807,1.3326861526928282,-0.5131821652212026,1.6819517010213638
1687086304.052073,0.85328209400177,0.48082685470581055,-0.2017797976732254,-0.020365893840789795,0.10102128982543945,0.006177365779876709,0.28541168570518494,0.28329533338546753,0.07727330178022385,1.3385871124386202,-0.5015974736958362,1.6720600901742908
1687086304.066659,0.8559923768043518,0.4807494580745697,-0.1901496946811676,0.018748164176940918,0.05399474501609802,-0.06975327432155609,0.030639082193374634,0.27576354146003723,-0.07831037044525146,1.3522062299296231,-0.5015092134385393,1.6687291687775585
1687086304.144213,0.8553760647773743,0.4839721918106079,-0.18466870486736298,-0.0028371214866638184,0.021810799837112427,-0.10121999680995941,0.059939607977867126,0.10561174154281616,-0.0929744690656662,1.3581678950557035,-0.5051882706841457,1.661135226207012
1687086304.1495528,0.8547976613044739,0.4851255714893341,-0.18432065844535828,-0.005783438682556152,0.003613412380218506,-0.08139592409133911,0.16319286823272705,0.043173983693122864,-0.034085918217897415,1.358417366470294,-0.5065067690248569,1.6539826851570982
1687086304.262823,0.8529647588729858,0.48697230219841003,-0.18790704011917114,0.01384127140045166,-0.051913678646087646,-0.03250625729560852,0.014967181719839573,-0.03231304883956909,-0.05477521941065788,1.353961129498337,-0.5086199003739937,1.648973586748658
1687086304.278377,0.8518628478050232,0.48697906732559204,-0.19282366335391998,0.032460153102874756,-0.05045565962791443,-0.005922064185142517,0.11676880717277527,-0.07432447373867035,0.05977903679013252,1.34819228144943,-0.5086276226442273,1.6454321096044688
1687086304.3558779,0.8525499701499939,0.4839722514152527,-0.1973056197166443,-0.011027693748474121,-0.0697876513004303,0.0111636221408844,-0.20909281075000763,-0.0443369559943676,0.03996066004037857,1.3433702335030087,-0.5051883204701523,1.6440250756954804
1687086304.362257,0.853276789188385,0.48482823371887207,-0.1919904202222824,-0.00722271203994751,0.013416945934295654,0.029346942901611328,-0.16732816398143768,0.03349334001541138,-0.0009611207060515881,1.349478381577604,-0.5061667681944407,1.6568673880525724
1687086304.472182,0.8553527593612671,0.4816809594631195,-0.190669447183609,-0.001852571964263916,0.03240281343460083,0.03797474503517151,0.05415692552924156,-0.00579622108489275,0.09910324960947037,1.351468982197487,-0.5025718369988262,1.6596539185933832
1687086304.477907,0.8566349744796753,0.4789770543575287,-0.19172297418117523,-0.008551418781280518,0.0619928240776062,0.03261956572532654,0.14030593633651733,0.08621226251125336,-0.04565708711743355,1.3506153817791424,-0.49948900954705505,1.6520768505892467
1687086304.567173,0.8555173873901367,0.48329296708106995,-0.18578970432281494,-0.012682974338531494,0.012907564640045166,-0.005555510520935059,-0.09827697277069092,0.11207960546016693,-0.11559002846479416,1.3569503182103297,-0.5044122465012199,1.6491836231997392
1687086304.582963,0.8537227511405945,0.4886186420917511,-0.18002571165561676,-0.006890535354614258,0.035154521465301514,0.011629700660705566,0.14444129168987274,0.09315326809883118,-0.10762175917625427,1.3629696820158734,-0.5105058315117139,1.6504299269805822
1687086304.653858,0.8510327935218811,0.49375519156455994,-0.1787429302930832,0.013667464256286621,-0.029048800468444824,-0.003996372222900391,0.017809946089982986,0.11485887318849564,-0.15306152403354645,1.3637748236494183,-0.5164027680256823,1.6417247083435151
1687086304.658957,0.8496758341789246,0.4977467954158783,-0.17406566441059113,0.018350720405578613,-0.04961147904396057,-0.026389047503471375,-0.024425657466053963,0.05744778364896774,-0.006254574749618769,1.3687308836063385,-0.5209989311098903,1.6416601300356912
1687086304.744482,0.8503755331039429,0.49620378017425537,-0.17505241930484772,-0.004870712757110596,0.0029417574405670166,-0.00561167299747467,0.19286298751831055,0.036754757165908813,-0.004750577267259359,1.3677791895502693,-0.5192207924656574,1.6375695970077182
1687086304.760052,0.8508291840553284,0.49464309215545654,-0.17725086212158203,0.010590434074401855,-0.06027117371559143,-0.02277660369873047,-0.05665288865566254,0.050975874066352844,0.012823490425944328,1.3654068216665325,-0.5174241168898578,1.6324831705103537
1687086304.833784,0.8523283004760742,0.49179819226264954,-0.17796237766742706,0.02708125114440918,-0.004997164011001587,-0.011063486337661743,0.0851505845785141,-0.032597050070762634,0.07862795889377594,1.364957964048229,-0.5141537397602658,1.6325703017924533
1687086304.848597,0.8533830046653748,0.4887121021747589,-0.18137754499912262,-0.008198797702789307,-0.010684788227081299,-0.00427621603012085,-0.035020992159843445,-0.010108730755746365,0.04011019319295883,1.3613732100723286,-0.5106129581046511,1.6315153967042353
1687086304.8883228,0.8547896146774292,0.4857100546360016,-0.18281209468841553,-0.01155853271484375,0.022773772478103638,-0.0002171248197555542,0.027215538546442986,-0.022680288180708885,0.05303660035133362,1.3601024562176076,-0.5071752951627776,1.6331721077361565
1687086304.984106,0.8555207252502441,0.48350051045417786,-0.18523365259170532,0.001809537410736084,0.024571359157562256,7.212162017822266e-06,0.03687993437051773,-0.025530776008963585,0.048523254692554474,1.3575718963016197,-0.5046493366659681,1.631461389134969
1687086304.999537,0.8554520606994629,0.48355618119239807,-0.18540489673614502,0.03257882595062256,-0.0008597075939178467,-0.04031841456890106,-0.2793571352958679,-0.10179997980594635,0.00714582996442914,1.357364096112474,-0.5047129329242339,1.6397268379783265
1687086305.041065,0.8523356914520264,0.48698657751083374,-0.19070331752300262,0.08101385831832886,0.15810921788215637,-0.3318644165992737,-0.4789966344833374,-0.610053300857544,0.0011873841285705566,1.3506795590430343,-0.5086362426373615,1.6574862571332019
1687086305.132681,0.8417335748672485,0.49630025029182434,-0.21253344416618347,-0.10726708173751831,0.6177133917808533,-0.5341248512268066,0.05576116591691971,-0.9718109369277954,-0.22292521595954895,1.323470897486282,-0.5193318998079701,1.6828218315143262
1687086305.148489,0.8103617429733276,0.5097221732139587,-0.2889585494995117,0.1571064591407776,1.300626277923584,-0.7570772171020508,0.9856602549552917,-1.7018764019012451,-1.2349997758865356,1.2282719434722036,-0.53486180299754,1.6307480985502996
1687086305.190164,0.7154584527015686,0.5811904072761536,-0.38773274421691895,0.49863749742507935,1.386613368988037,-0.40335914492607117,0.7610680460929871,-2.2216956615448,-3.1225974559783936,1.0741653007575953,-0.620190784262137,1.5340024625532591
1687086305.2835941,0.5458641052246094,0.6800867915153503,-0.48940178751945496,0.9205664992332458,1.1632359027862549,-0.039864569902420044,0.9197050333023071,-2.1808013916015625,-4.506936550140381,0.8398831278781007,-0.7478810521015472,1.3365503394082685
1687086305.299484,0.30719026923179626,0.7704553008079529,-0.5585987567901611,1.2968136072158813,0.5440282225608826,0.3680317997932434,1.166208267211914,-1.8180935382843018,-5.52943754196167,0.5027895567725483,-0.8795550792859509,1.018377075250712
1687086305.340558,0.02834160067141056,0.766981840133667,-0.6410425901412964,1.66788649559021,0.23593252897262573,0.5088099241256714,1.354694128036499,-2.0196807384490967,-5.994295120239258,0.04418295432810776,-0.8741242570189514,0.5424557541850609
1687086305.438014,-0.27156883478164673,0.7097835540771484,-0.64996737241745,1.685799241065979,-0.04262357950210571,0.39302462339401245,0.7304399609565735,-2.0581233501434326,-6.353058815002441,-0.39577274564684434,-0.7891909310583174,0.09207232876884923
1687086305.443831,-0.5445709824562073,0.5325124859809875,-0.6479759812355042,1.7527618408203125,0.05847567319869995,0.26739126443862915,1.9186735153198242,-2.5814356803894043,-6.307744979858398,-0.6989051156121778,-0.5615661575985013,-0.20684095545750927
1687086305.525418,-0.7542641162872314,0.2518205940723419,-0.606359601020813,1.5083839893341064,0.02691170573234558,0.04942905902862549,3.122405767440796,-2.8519229888916016,-5.816028594970703,-0.8936764690980282,-0.2545610189238429,-0.3441861382491842
1687086305.614215,-0.8749520778656006,-0.031905584037303925,-0.4831571877002716,1.0540902614593506,-0.3827672302722931,0.21301555633544922,1.3305797576904297,-3.423858404159546,-4.998419284820557,-1.0662580394899221,0.031910998958533415,-0.39484802837791777
1687086305.630672,-0.8983832597732544,-0.29542309045791626,-0.3250114321708679,0.873481035232544,0.25274431705474854,-0.13667377829551697,3.916834831237793,-3.2761547565460205,-4.259737491607666,-1.2236714394403825,0.2998983504197771,-0.3769358995594116
1687086305.7044868,-0.8606178164482117,-0.49352946877479553,-0.12556052207946777,0.40280842781066895,-0.5267646312713623,0.366649329662323,0.642961859703064,-3.373168706893921,-3.529309034347534,-1.4259226706294323,0.5161432150199455,-0.3166888205529867
1687086305.709337,-0.7820827960968018,-0.6230688095092773,0.011478407308459282,0.43891263008117676,0.1642371416091919,0.3118705749511719,-0.2016078382730484,-2.852306842803955,-3.0177605152130127,-1.5854719896291896,0.6726600982645963,-0.2915266280841542
1687086305.824085,-0.6718106865882874,-0.7324188351631165,0.11060257256031036,0.35413795709609985,0.31200873851776123,0.12087321281433105,0.29414206743240356,-2.4011142253875732,-2.9068918228149414,-1.7339661876920038,0.8218678541056668,-0.28081665360835717
1687086305.830456,-0.5461610555648804,-0.8214536905288696,0.16407927870750427,0.4530823826789856,0.16056495904922485,0.2972548007965088,-0.7120115160942078,-2.3722424507141113,-2.890897274017334,-1.8626410401443487,0.9639554531058536,-0.26603702183942174
1687086305.91699,-0.39928558468818665,-0.8978379368782043,0.18562869727611542,0.30434539914131165,0.3925431966781616,0.17701172828674316,-0.3914262354373932,-1.2453241348266602,-3.2493185997009277,-2.005973480908223,1.1148344941245443,-0.20338842599134677
1687086305.932728,-0.25157636404037476,-0.9475555419921875,0.19709773361682892,0.24950116872787476,-0.19929486513137817,0.2238616794347763,0.18376195430755615,-0.3244088888168335,-2.559361219406128,-2.2353645992223097,1.2454983958482626,0.005480549473526425
1687086306.006843,-0.15455327928066254,-0.9698053002357483,0.18865495920181274,0.25755012035369873,-0.5017979741096497,0.1669205278158188,-0.42762109637260437,-0.136428102850914,-1.302713394165039,-2.4552308824872293,1.324431148372468,0.2162159505549301
1687086306.011723,-0.12432770431041718,-0.973517119884491,0.19185112416744232,0.16163542866706848,-0.42092251777648926,0.15946722030639648,0.5060412883758545,0.2975146770477295,-0.09872417151927948,-2.5665946780278395,1.340142533108456,0.3412878651812424
1687086306.09584,-0.13399265706539154,-0.974505603313446,0.17995740473270416,-0.007654696702957153,-0.3462798595428467,0.12848365306854248,-0.7256526350975037,0.20066705346107483,0.3580932021141052,-2.501569510245792,1.3445069282007744,0.2877182737156225
1687086306.1127748,-0.14353197813034058,-0.9742539525032043,0.1738608479499817,-0.09317763149738312,0.0871996283531189,-0.07022322714328766,-0.2920370101928711,0.4083174467086792,-0.014373376965522766,-2.451461500989725,1.3433878520887315,0.2569010173739902
1687086306.182874,-0.14470340311527252,-0.980007529258728,0.1365496963262558,-0.020045742392539978,0.042599260807037354,0.046433672308921814,-0.36469829082489014,0.3824692666530609,-0.058658793568611145,-2.327211973860764,1.3704992262439533,0.14759746862459408
1687086306.196856,-0.1458510309457779,-0.9807103872299194,0.13013134896755219,0.03937521576881409,0.004010796546936035,-0.08881059288978577,-0.16213910281658173,-0.024388387799263,0.013045108877122402,-2.2992969740149323,1.3740633240684788,0.12749464781329506
1687086306.240374,-0.14402683079242706,-0.9822653532028198,0.12004648149013519,-0.049302056431770325,0.03408414125442505,0.062204375863075256,-0.3158577084541321,0.05904077738523483,-0.007698430214077234,-2.2656334567382057,1.3821838789642995,0.09475404313237945
1687086306.335719,-0.1432034820318222,-0.9835202097892761,0.11036644876003265,-0.003937035799026489,-0.0014193058013916016,-0.013488411903381348,0.053206976503133774,-0.0499972403049469,0.011673025786876678,-2.227412274745736,1.3889983064200235,0.053625784699724545
1687086306.3532991,-0.145216703414917,-0.9831415414810181,0.11110644787549973,0.010435789823532104,-0.04404950141906738,0.0448077917098999,-0.224035382270813,-0.0877489298582077,0.008590195327997208,-2.223896564790721,1.3869156665400715,0.04762425859864092
1687086306.389092,-0.14601312577724457,-0.9842997789382935,0.09916720539331436,-0.00474373996257782,0.030762791633605957,-0.013443335890769958,-0.1497628092765808,-0.06431727111339569,0.031470898538827896,-2.1674027171008134,1.3933619672892532,-0.01376289134843453
1687086306.51528,-0.14597028493881226,-0.9844297170639038,0.09793049842119217,0.008046090602874756,-0.00917661190032959,-0.02520718425512314,-0.07906456291675568,-0.0834304615855217,0.022197306156158447,-2.161719421369931,1.394099490528513,-0.024608892826403564
1687086306.531981,-0.14495745301246643,-0.9853422045707703,0.08993042260408401,-0.03494367003440857,-0.02036428451538086,0.05251023918390274,-0.06338892877101898,0.03734975680708885,0.007142656482756138,-2.1260750553364294,1.3993686564332677,-0.06314785471347191
1687086306.606659,-0.14579790830612183,-0.9851440191268921,0.09074337035417557,0.017700359225273132,-0.06412661075592041,-0.01843201369047165,-0.021657461300492287,0.010939190164208412,0.023837191984057426,-2.1275176216936846,1.398210687933548,-0.05892085385654652
1687086306.611754,-0.14928406476974487,-0.9834380745887756,0.10277854651212692,0.026328742504119873,0.050409138202667236,-0.10572351515293121,0.6537794470787048,-0.02928098663687706,0.16895692050457,-2.1737463598868185,1.3885447126895616,-0.012676554879777084
1687086306.6952028,-0.1627522110939026,-0.9744797348976135,0.15459801256656647,0.09576614201068878,0.03156304359436035,-0.03881432116031647,0.9103061556816101,-0.00767151266336441,0.3582248091697693,-2.3305055079998698,1.3443916630583526,0.14529315024564202
1687086306.712456,-0.19439351558685303,-0.971831202507019,0.13324937224388123,0.23849138617515564,-0.23466604948043823,0.22151745855808258,-1.705259084701538,-0.16531530022621155,1.00099515914917,-2.171698460700577,1.332880263917721,-0.016087682003393045
1687086306.839529,-0.26974377036094666,-0.961888313293457,0.044821057468652725,0.36259353160858154,-0.23688781261444092,-0.1343291997909546,-1.7514697313308716,-0.36571434140205383,2.212127208709717,-1.7354535503005315,1.2938260403576154,-0.48857753080095695
1687086306.842929,-0.40755343437194824,-0.913155198097229,-0.006901859771460295,0.5839297771453857,-0.35150837898254395,0.11555969715118408,-0.3538435101509094,0.25881338119506836,3.5638575553894043,-1.5538630870004264,1.1509588762069833,-0.68523684283553
1687086306.939043,-0.5823250412940979,-0.8118905425071716,-0.04160524159669876,0.563083827495575,-0.17927443981170654,0.26423096656799316,-0.2596729099750519,1.3615881204605103,4.357065677642822,-1.4994707594942234,0.9473831218559087,-0.6981351975607146
1687086306.944971,-0.7403180599212646,-0.6651452779769897,-0.0975235253572464,0.5560224652290344,0.0536952018737793,0.23518824577331543,0.5674270987510681,2.1014139652252197,4.450882434844971,-1.439818561515208,0.7276883847104479,-0.6605972433614555
1687086307.055622,-0.8512721061706543,-0.496833860874176,-0.16879498958587646,0.4609065651893616,0.11551681160926819,0.045259833335876465,0.7994422912597656,2.5727322101593018,4.201328277587891,-1.3750497856946708,0.5199466896056532,-0.5660724242972593
1687086307.060682,-0.9117494225502014,-0.3098820745944977,-0.2696033716201782,0.5367342233657837,0.043127983808517456,-0.05589717626571655,-0.3040722906589508,1.9543958902359009,4.220220565795898,-1.283290098556352,0.31506898705943165,-0.5056771950170346
1687086307.1486511,-0.9258801341056824,-0.10684021562337875,-0.3623959720134735,0.3976362943649292,0.05492986738681793,0.06840488314628601,-0.36608022451400757,1.9352917671203613,4.348076820373535,-1.1977195815918686,0.10704453045676234,-0.4527031554103183
1687086307.164606,-0.886039674282074,0.10921094566583633,-0.4505625367164612,0.46509552001953125,-0.14596936106681824,0.2859201431274414,-1.1779100894927979,1.8861912488937378,4.553188323974609,-1.1003616824318438,-0.10942921099666811,-0.39484485882520653
1687086307.1676059,-0.7872551083564758,0.32059717178344727,-0.5267322659492493,0.3962944746017456,0.06577065587043762,0.08672976493835449,-0.613197922706604,2.2174510955810547,4.65645170211792,-0.9811286816917935,-0.3263598687233793,-0.3123131122967265
1687086307.263782,-0.627930223941803,0.5191856622695923,-0.5797842144966125,0.5200507044792175,-0.05844658613204956,0.21676236391067505,-1.6053810119628906,2.058758497238159,4.738870620727539,-0.8252424630570916,-0.5458978368462064,-0.19968920809963497
1687086307.418312,-0.4317602813243866,0.6652244925498962,-0.6091464757919312,0.5383429527282715,0.3464789390563965,-0.17494165897369385,0.019459988921880722,1.8985393047332764,4.469605922698975,-0.6166046241512073,-0.727794467645225,-0.01813083218117792
1687086307.436225,-0.2198176085948944,0.7561777830123901,-0.6163403987884521,0.5299220085144043,0.14306843280792236,0.19637274742126465,-1.5139764547348022,1.8095492124557495,3.9301092624664307,-0.34258649505753097,-0.8574520908053171,0.2303545536068936
1687086307.439413,-0.01306784339249134,0.7983459830284119,-0.6020572185516357,0.3258577883243561,0.40746450424194336,0.06595492362976074,0.46539050340652466,2.390489101409912,3.4383890628814697,-0.021701910394904003,-0.9245435924193014,0.5065558797617354
1687086307.5069351,0.1919078528881073,0.7738795280456543,-0.6035576462745667,0.4327869713306427,0.05976909399032593,0.19904714822769165,-0.24201923608779907,2.281838893890381,3.3041348457336426,0.30785234149168,-0.8849440432141549,0.7755561796812989
1687086307.510833,0.38174501061439514,0.728431761264801,-0.5689093470573425,0.27540525794029236,0.3043745756149292,0.00863713026046753,0.23414745926856995,2.512665271759033,2.9881482124328613,0.5910049007338257,-0.8160301156141994,0.9878259924790739
1687086307.514464,0.5539559125900269,0.6515211462974548,-0.5183175206184387,0.36663728952407837,0.2943100929260254,-0.16960978507995605,0.37648677825927734,2.423892021179199,3.0283043384552,0.8186222653759133,-0.7095878275334694,1.1418662859680906
1687086307.590666,0.694561243057251,0.5501777529716492,-0.46356141567230225,0.21608328819274902,0.29258036613464355,-0.39364683628082275,0.22845986485481262,1.9780761003494263,2.637454032897949,0.9822749958243854,-0.582577087961489,1.2211929920338367
1687086307.595446,0.7922971248626709,0.47165095806121826,-0.38705354928970337,0.26918041706085205,0.48815733194351196,-0.35664454102516174,-0.9851259589195251,1.5205605030059814,1.9102140665054321,1.1163742613080891,-0.49116214339656294,1.3173193083288688
1687086307.681488,0.850475549697876,0.41694310307502747,-0.3207021653652191,0.024417638778686523,0.7017244696617126,-0.43582862615585327,1.6513864994049072,2.036696672439575,0.599169909954071,1.2101983483530059,-0.43007955288590927,1.3383007910196894
1687086307.699189,0.8812105655670166,0.38448768854141235,-0.2750217914581299,0.08351099491119385,0.10859999060630798,-0.357012540102005,0.051045823842287064,0.9794900417327881,0.2261466532945633,1.2682800765635822,-0.3946527888081555,1.2782380770510235
1687086307.738488,0.8905493021011353,0.3850342035293579,-0.24222032725811005,-0.10295158624649048,0.38089603185653687,-0.645002007484436,0.37028953433036804,0.6369996070861816,-0.3779917359352112,1.3052308199335003,-0.39524487287999277,1.2738920901793607
1687086307.832614,0.8885553479194641,0.4010847508907318,-0.2227114886045456,0.07682240009307861,0.04674544930458069,-0.1864529848098755,0.9133608341217041,0.6779685616493225,-0.6511716842651367,1.3252111837745215,-0.4127007143041379,1.2399846226842421
1687086307.850383,0.8810158371925354,0.42214781045913696,-0.21354693174362183,0.08646762371063232,-0.19755372405052185,0.15893572568893433,-0.6874710321426392,0.21917249262332916,-0.30077722668647766,1.3329954244874802,-0.43581329452215434,1.213100840028186
1687086307.8876228,0.8819172382354736,0.42868155241012573,-0.19609639048576355,-0.13915008306503296,0.1005389392375946,0.0015163123607635498,0.5483359098434448,0.3483680188655853,0.22332863509655,1.352003364240091,-0.4430329317465213,1.2299462351181396
1687086308.014251,0.8909688591957092,0.4142455458641052,-0.18594367802143097,0.047110915184020996,-0.12045282125473022,-0.03936767578125,-0.1140165776014328,0.3748258650302887,0.31686970591545105,1.3650511812656836,-0.42711371649975827,1.2159962992178324
1687086308.03214,0.8998944163322449,0.4042280912399292,-0.1636759638786316,0.016029715538024902,0.047813594341278076,0.011332198977470398,-0.28133484721183777,0.4444509446620941,0.23031581938266754,1.3908795738160853,-0.41613473550519253,1.2312353552271686
1687086308.098979,0.9043947458267212,0.4036039412021637,-0.13847020268440247,-0.03034079074859619,-0.1742795705795288,-0.03439660370349884,-1.3252789974212646,0.23997865617275238,-0.015398826450109482,1.4188680213834501,-0.41545244965125483,1.2662717209116428
1687086308.114975,0.9047033786773682,0.41142916679382324,-0.11062459647655487,0.01276177167892456,0.18352624773979187,-0.12887734174728394,-0.22018717229366302,0.10365842282772064,0.05919531360268593,1.4491231363319192,-0.4240215436318175,1.3180860215833101
1687086308.1889892,0.9079647064208984,0.40620505809783936,-0.10294301807880402,-0.0009213685989379883,0.02035433053970337,-0.06401865929365158,-0.1896132230758667,0.18182049691677094,0.0919627845287323,1.457900643416163,-0.4182972005891411,1.3239731597788444
1687086308.1927528,0.909107506275177,0.4048294723033905,-0.0981668159365654,0.020717322826385498,-0.025343358516693115,0.00046478211879730225,0.008953018113970757,-0.0075510842725634575,0.03413117304444313,1.4632315773103972,-0.41679233175385205,1.3297266611179348
1687086308.28246,0.911135196685791,0.4004826545715332,-0.09719175100326538,-0.012743532657623291,0.03443858027458191,-0.02451235055923462,0.2929467558860779,0.14039474725723267,0.1329285055398941,1.4645271265274582,-0.41204353206937877,1.322858121280017
1687086308.30018,0.9144197702407837,0.39324748516082764,-0.09587948769330978,0.014794647693634033,-0.05959880352020264,0.042351603507995605,0.09416836500167847,0.11053497344255447,0.11951447278261185,1.4663252526367423,-0.40416097947391333,1.310729590197075
1687086308.371391,0.9172331690788269,0.38691556453704834,-0.09476010501384735,-0.009930431842803955,0.019563287496566772,0.019549556076526642,0.43471023440361023,0.07089728116989136,0.20184145867824554,1.46785072117186,-0.39728426979922316,1.3064056675976299
1687086308.463136,0.9210904836654663,0.3756263852119446,-0.10245602577924728,0.0018526315689086914,-0.045532941818237305,-0.009863927960395813,0.20845456421375275,-0.016005875542759895,0.17292159795761108,1.4600183078808955,-0.3850725508120361,1.2826253092406739
1687086308.481101,0.9237393140792847,0.3681051731109619,-0.10584954172372818,0.012188911437988281,0.008207082748413086,-0.029541730880737305,0.20874719321727753,-0.031442783772945404,0.11446216702461243,1.4567058337210828,-0.37697027316580106,1.2754668528842041
1687086308.5513449,0.9249433875083923,0.3636173605918884,-0.11073467135429382,0.000608980655670166,0.02392539381980896,0.008424445986747742,0.16111943125724792,-0.015783287584781647,0.03865131735801697,1.4516429590020823,-0.3721481303309278,1.2653925971807565
1687086308.565397,0.9251617193222046,0.36210063099861145,-0.11383841186761856,-0.020590126514434814,-0.021768569946289062,0.014412149786949158,-0.06707298755645752,-0.05715203285217285,0.026065969839692116,1.4483647060277156,-0.3705204660955665,1.2616757954850222
1687086308.638751,0.9239595532417297,0.36459752917289734,-0.11561743915081024,-0.015390276908874512,0.030284643173217773,0.02052462100982666,-0.01367650181055069,-0.09736517816781998,-0.0559077262878418,1.4463107998507483,-0.37320053512744894,1.2658741553236381
1687086308.642854,0.9232388138771057,0.3656260669231415,-0.11809869110584259,-5.173683166503906e-05,0.023457765579223633,-0.003208741545677185,-0.026148565113544464,-0.06660790741443634,0.01547519862651825,1.4435694490803,-0.3743053657736687,1.263867100913312
1687086308.767067,0.9239582419395447,0.36372607946395874,-0.11834001541137695,-0.002068042755126953,-0.03758475184440613,-0.0004343986511230469,0.04328036308288574,-0.047940053045749664,0.052505433559417725,1.4434104683415174,-0.37226485951105076,1.2668482060690462
1687086308.783642,0.9245741963386536,0.36038684844970703,-0.12362821400165558,0.00479280948638916,0.0036573410034179688,-0.0037217140197753906,0.2181646227836609,-0.004670715890824795,0.031798578798770905,1.4378711197689795,-0.36868257369562535,1.2558098156320052
1687086308.848275,0.9254045486450195,0.35792091488838196,-0.12457622587680817,-0.0060318708419799805,-0.02608799934387207,0.007342919707298279,-0.04044121876358986,-0.05040283501148224,0.029127629473805428,1.4369826546876,-0.36604034697548693,1.2554648892720757
1687086308.863234,0.9250805377960205,0.35770881175994873,-0.12755398452281952,-0.018723905086517334,0.03805837035179138,0.017171934247016907,0.12928715348243713,-0.01727614924311638,-0.02969365566968918,1.4337761234609312,-0.3658132051127467,1.2524650468811744
1687086308.940177,0.924706757068634,0.35748785734176636,-0.13084180653095245,-0.006402492523193359,0.018626004457473755,-0.014391347765922546,0.07897578179836273,-0.04231945052742958,-0.038468681275844574,1.4302339863428013,-0.36557659653941854,1.2448535848687596
1687086308.9451408,0.9227789640426636,0.36206260323524475,-0.1318691372871399,0.010143280029296875,0.005033314228057861,-0.040494129061698914,-0.08203313499689102,-0.059536680579185486,-0.08100517839193344,1.428852998283077,-0.3704796629259078,1.2477566245605183
1687086309.033426,0.9208138585090637,0.3654811382293701,-0.13610784709453583,0.032509446144104004,0.036542147397994995,-0.031128525733947754,0.07440590113401413,-0.07721320539712906,-0.010903588496148586,1.4240463686462135,-0.3741496574960888,1.2511883629815954
1687086309.051539,0.9192473888397217,0.36693912744522095,-0.1426185667514801,-0.0022398829460144043,0.00912901759147644,0.01676402986049652,0.16669470071792603,-0.028632402420043945,-0.08652493357658386,1.4168763759288354,-0.37571648308980793,1.2423402409363886
1687086309.1529388,0.9172842502593994,0.37097418308258057,-0.14480188488960266,0.01276940107345581,-0.13856759667396545,0.0017049312591552734,-0.43997853994369507,-0.10469632595777512,-0.05626177415251732,1.4142289768526888,-0.3800578532622581,1.2451967231019954
1687086309.2465792,0.9161868691444397,0.3741316497325897,-0.1436213254928589,-0.019794106483459473,0.01014566421508789,0.006688952445983887,-0.13610216975212097,-0.1292615383863449,-0.012890705838799477,1.4153019071361328,-0.3834602475947759,1.2636968328560858
1687086309.2655249,0.9157768487930298,0.37346091866493225,-0.147917240858078,0.025354623794555664,-0.03894251585006714,-0.04353480041027069,-0.19583937525749207,-0.20058691501617432,0.06173015758395195,1.4106583285668608,-0.38273709038909304,1.2709120089458172
1687086309.268694,0.9151495695114136,0.37317854166030884,-0.1524427980184555,4.1961669921875e-05,0.010457903146743774,-0.03778855502605438,-0.1702246069908142,-0.16304102540016174,-0.01133839413523674,1.4057349795858656,-0.38243269745752784,1.2823927716300854
1687086309.363676,0.9124677777290344,0.37684449553489685,-0.15934543311595917,-0.002814948558807373,0.021409928798675537,-0.013261988759040833,-0.23196740448474884,-0.1976766586303711,-0.09287266433238983,1.3979084167820075,-0.38638726113643035,1.290383648562187
1687086309.380307,0.9084691405296326,0.38437777757644653,-0.16412705183029175,0.010796606540679932,-0.004189789295196533,-0.003078758716583252,-0.5250423550605774,-0.3574405908584595,-0.09847582876682281,1.3920609548930747,-0.3945337169510299,1.3144633327479465
1687086309.449002,0.9001811742782593,0.40060651302337646,-0.17084592580795288,0.20695072412490845,-0.049150824546813965,-0.4486303925514221,-1.9663357734680176,-1.1165622472763062,-0.13920938968658447,1.3832364876251042,-0.412178686183372,1.3747413943843025
1687086309.4624748,0.8822180032730103,0.43041765689849854,-0.19087180495262146,0.01779109239578247,0.2880271375179291,-0.3995060324668884,-1.1361901760101318,-1.3341152667999268,-0.4712608754634857,1.3577259048308459,-0.4449554335972139,1.4617145836575611
1687086309.5392919,0.8548439741134644,0.46294379234313965,-0.23436026275157928,0.0899496078491211,0.22287771105766296,-0.3171839714050293,-0.8733384013175964,-1.604627251625061,-0.6525903344154358,1.303215319725068,-0.48131344774145024,1.5005681715055275
1687086309.5439348,0.8129099607467651,0.5077656507492065,-0.28522178530693054,0.12204182147979736,0.27107346057891846,-0.17901164293289185,-0.6249898672103882,-1.6515858173370361,-1.0188512802124023,1.2333509493141324,-0.5325891965841671,1.53136655545686
1687086309.634797,0.7534564137458801,0.5603121519088745,-0.3440258800983429,0.1550213098526001,0.5133572816848755,-0.08730953931808472,0.5793998837471008,-1.5055350065231323,-1.6490761041641235,1.1424699594899355,-0.5947625873032854,1.507970573229022
1687086309.653109,0.6677834987640381,0.6142542958259583,-0.42042461037635803,0.32414454221725464,0.428134560585022,-0.12332230806350708,0.3303789794445038,-1.623086929321289,-2.157140016555786,1.0089087042555174,-0.661440615310112,1.4115722467001572
1687086309.688807,0.5530214309692383,0.6876195073127747,-0.4704749286174774,0.4642362594604492,0.38662970066070557,-0.06407099962234497,-0.027224799618124962,-1.6904172897338867,-2.5728230476379395,0.865875435747933,-0.7582053566153226,1.321306017640674
1687086309.78104,0.41137322783470154,0.7541593313217163,-0.5118746161460876,0.4810370206832886,0.25659799575805664,-0.020397663116455078,-0.04075009003281593,-1.7320562601089478,-2.9614267349243164,0.6769687557620936,-0.8543730595547099,1.1767949693063164
1687086309.799727,0.24188023805618286,0.8072950839996338,-0.5383014678955078,0.5901510119438171,0.26234591007232666,0.013078749179840088,0.024218950420618057,-1.7722748517990112,-3.332247495651245,0.42230470107952,-0.9395542166137217,0.9638471354423502
1687086309.8708138,0.04282368719577789,0.8291215896606445,-0.5574257373809814,0.6878892183303833,0.3195142149925232,0.043784379959106445,0.18486280739307404,-1.6589754819869995,-4.116300582885742,0.07667341964704197,-0.9775346214429977,0.6444450325674153
1687086309.955214,-0.1828123778104782,0.7954708337783813,-0.577759325504303,0.8380095958709717,0.36013829708099365,0.17640739679336548,1.3300518989562988,-1.5153073072433472,-4.59694766998291,-0.3064486206736366,-0.9197841100434639,0.27408826657767466
1687086309.958247,-0.4046475887298584,0.6878162622451782,-0.6026351451873779,0.9210355281829834,0.15782582759857178,0.17697596549987793,0.8556728363037109,-1.7925792932510376,-4.680363655090332,-0.5913162198407258,-0.7584764054502204,0.0006166140201194156
1687086310.1161509,-0.6028971076011658,0.5487646460533142,-0.5791133642196655,0.8632579445838928,0.13330316543579102,0.24648702144622803,0.9281695485115051,-1.7230616807937622,-4.622028827667236,-0.8055168907461605,-0.5808857887673403,-0.19525206502527953
1687086310.132854,-0.7550899386405945,0.3576700985431671,-0.5494644641876221,0.8595974445343018,0.11320090293884277,0.15760350227355957,1.2852388620376587,-1.7882708311080933,-4.465580463409424,-0.9417331581028642,-0.365771736351376,-0.3100251787512339
1687086310.135775,-0.8608187437057495,0.15498830378055573,-0.48473671078681946,0.6850070953369141,-0.005360603332519531,0.09482884407043457,0.9288840293884277,-1.9395586252212524,-4.183224678039551,-1.0579426745228964,-0.15561561826126005,-0.38001099015854456
1687086310.234757,-0.9184311032295227,-0.040916044265031815,-0.3934590816497803,0.5451707243919373,-0.1042865514755249,-0.06428933143615723,0.06382840871810913,-2.308985948562622,-3.782003402709961,-1.166046443143018,0.0409274683178274,-0.4361167903945343
1687086310.252094,-0.9331682920455933,-0.20689207315444946,-0.2939257323741913,0.5255756378173828,0.07873359322547913,-0.10774663090705872,0.12493821233510971,-2.1876585483551025,-3.574512243270874,-1.2656572231603147,0.20839722635360666,-0.5141505182012194
1687086310.320376,-0.9108589291572571,-0.36852967739105225,-0.185800701379776,0.4692389965057373,-0.053146928548812866,0.00852404534816742,-0.01699724979698658,-2.2188515663146973,-3.3479511737823486,-1.3695728986084688,0.377426864394941,-0.5515906397465865
1687086310.3352041,-0.8548015356063843,-0.5109992623329163,-0.09052065759897232,0.48924678564071655,0.1615731120109558,0.07900024205446243,0.2915799915790558,-2.0470588207244873,-3.1470000743865967,-1.4652928374122371,0.5363469091296982,-0.577904622185339
1687086310.444337,-0.7706919312477112,-0.6372076869010925,0.0003251221205573529,0.39190781116485596,0.012985944747924805,0.17776012420654297,0.5571835041046143,-1.7683080434799194,-2.99546217918396,-1.5712181841964963,0.6908696839430607,-0.5638664409686556
1687086310.45045,-0.6691873669624329,-0.7406089305877686,0.06071692705154419,0.20588481426239014,-0.054587483406066895,0.20307695865631104,-0.5883389115333557,-1.3080605268478394,-2.751899003982544,-1.661280897892257,0.8339761068384779,-0.5430513711042716
1687086310.535182,-0.5622129440307617,-0.8241442441940308,0.06857796013355255,0.06360143423080444,-0.12461674213409424,0.11815906316041946,-0.2585565149784088,-0.5027124881744385,-2.442000389099121,-1.69217532776819,0.9686896536435988,-0.5664762717728581
1687086310.552944,-0.46497759222984314,-0.881191611289978,0.08542299270629883,0.15769612789154053,-0.024905741214752197,-0.04713869094848633,0.4269634187221527,-0.24334758520126343,-2.1074233055114746,-1.752484570941813,1.078376845211889,-0.5115338438321146
1687086310.623461,-0.3711702823638916,-0.9239351749420166,0.09260837733745575,0.1697390079498291,-0.07221955060958862,0.04552936553955078,-0.16736124455928802,-0.2726507782936096,-2.130589246749878,-1.8153078864897845,1.178242638361482,-0.4531721027040004
1687086310.627732,-0.27829059958457947,-0.9541298151016235,0.11040894687175751,0.20315638184547424,0.1656779646873474,-0.13113048672676086,0.40176549553871155,-0.5187913179397583,-1.5865583419799805,-1.9484889877434712,1.2667397117130912,-0.3357043173221903
1687086310.717705,-0.20398977398872375,-0.9705603718757629,0.12806488573551178,0.11112478375434875,-0.01169353723526001,0.21649384498596191,0.4027230143547058,-0.09590022265911102,-1.4110918045043945,-2.131406957129538,1.3275466804606133,-0.16555576375669706
1687086310.733642,-0.15048536658287048,-0.9736802577972412,0.1711733490228653,0.013095229864120483,-0.3521556258201599,0.09736594557762146,0.9164746999740601,0.3850960433483124,-0.7370219826698303,-2.420422625927831,1.3408572001179033,0.1368927439323601
1687086310.807424,-0.14060385525226593,-0.9727785587310791,0.1842075139284134,-0.06505411863327026,-0.4727017283439636,0.317959189414978,-0.03347582370042801,1.0056904554367065,0.06094716489315033,-2.4896397193328625,1.3369338075585218,0.24272418949961427
1687086310.812074,-0.15246370434761047,-0.9714111089706421,0.181976318359375,-0.007051721215248108,-0.2244354486465454,-0.0995788425207138,0.07903686910867691,0.7153565883636475,0.11242899298667908,-2.4442113357040895,1.3311042057401123,0.23925235134475784
1687086310.926591,-0.16077376902103424,-0.9734494090080261,0.16293497383594513,0.04439498484134674,0.029418766498565674,-0.2399919182062149,-0.15539251267910004,0.07930365949869156,-0.03285003453493118,-2.362870819079264,1.3398465267640647,0.17316960402995743
1687086310.932135,-0.1589467078447342,-0.9735522866249084,0.16410958766937256,-0.001972496509552002,0.13819468021392822,0.08907938003540039,-0.20664499700069427,0.22054190933704376,-0.14733242988586426,-2.3721745276146446,1.3402963517108128,0.1940648502085477
1687086311.0148149,-0.15653200447559357,-0.9772000908851624,0.1434488743543625,0.05252808332443237,0.03791487216949463,0.025359034538269043,-0.41540706157684326,0.13692806661128998,0.00419240677729249,-2.312608903592383,1.3568474328198048,0.14019710006209668
1687086311.0305228,-0.16133563220500946,-0.9791107177734375,0.12374512106180191,0.005390793085098267,0.06965649127960205,0.06616568565368652,-0.29655322432518005,0.23247665166854858,0.06602352857589722,-2.2250916508072733,1.3660408013557226,0.05973523699833665
1687086311.10709,-0.1639365553855896,-0.9806891679763794,0.1066458523273468,0.019618943333625793,-0.026711225509643555,-0.12509381771087646,-0.2372240424156189,-0.006559482775628567,-0.021341027691960335,-2.1475449099807484,1.3739546075775773,-0.013413192437124227
1687086311.111906,-0.1636924296617508,-0.9810426831245422,0.10372785478830338,-0.04132463037967682,-0.04453074932098389,-0.012388847768306732,0.026903415098786354,0.09360504150390625,-2.7705449610948563e-05,-2.1356097644208836,1.3757706164526466,-0.02389771667475587
1687086311.225812,-0.1635109782218933,-0.9805043935775757,0.10897312313318253,0.009183555841445923,-0.006647586822509766,-0.10553991794586182,0.39225342869758606,0.06379441171884537,-0.011681010015308857,-2.158654142355778,1.3730123047180727,0.0033113819219533418
1687086311.230739,-0.16833439469337463,-0.9753159880638123,0.14290520548820496,0.02670229971408844,-0.015284419059753418,-0.08359433710575104,0.7446439862251282,0.06890704482793808,0.1605071872472763,-2.274672619945065,1.3481475749286398,0.12678071326849333
1687086311.347965,-0.18240875005722046,-0.9772591590881348,0.10812725871801376,0.17044584453105927,-0.25197362899780273,0.2961695194244385,-2.345673084259033,-0.16909529268741608,0.6779041290283203,-2.1058860273915365,1.3571257782625443,-0.05029278167379035
1687086311.366238,-0.2621663510799408,-0.9649691581726074,-0.010160439647734165,0.5641225576400757,-0.3185238242149353,0.06645011901855469,-2.001584053039551,-0.5089156031608582,2.570586681365967,-1.532060015357782,1.3053257163707155,-0.6538518360925915
1687086311.433928,-0.4167811870574951,-0.9060893654823303,-0.07276826351881027,0.7162806987762451,-0.20919060707092285,-0.05537509173154831,-1.2940155267715454,-0.38127800822257996,3.731666326522827,-1.3979428250020975,1.1339474962666878,-0.8256540293354957
1687086311.448717,-0.58860844373703,-0.7982068657875061,-0.1280841827392578,0.5617835521697998,-0.04873204231262207,0.3651599884033203,-0.7820178866386414,0.7153804302215576,4.339330196380615,-1.3565315269741265,0.9243125896942759,-0.861021233887811
1687086311.451635,-0.742734968662262,-0.647942066192627,-0.16886548697948456,0.535413920879364,0.19362705945968628,0.13912607729434967,0.24628035724163055,1.3541663885116577,4.521042823791504,-1.3472402439259177,0.7048795437491271,-0.8047830336684494
1687086311.48961,-0.8534894585609436,-0.4652491509914398,-0.23473115265369415,0.5387617945671082,0.17411157488822937,0.32829803228378296,-0.19007939100265503,1.927269458770752,4.531363010406494,-1.3024066416633207,0.4839160695179718,-0.734893730328162
1687086311.5528579,-0.9089744687080383,-0.2577861249446869,-0.32758429646492004,0.5676660537719727,0.12086907029151917,0.28742316365242004,-0.9962459206581116,1.9742209911346436,4.763132572174072,-1.224896539118823,0.26073018197760933,-0.6856617928392236
1687086311.645606,-0.903368353843689,-0.0019185494165867567,-0.4288611114025116,0.5981468558311462,0.09745386242866516,0.35893014073371887,-1.5822224617004395,2.048802137374878,5.028765678405762,-1.1275637301558652,0.0019185505523419651,-0.660391212277868
1687086311.6638808,-0.8244121670722961,0.25207653641700745,-0.5067563056945801,0.4770458936691284,-0.0016340315341949463,0.2982144355773926,-2.2370145320892334,2.039057493209839,5.187041282653809,-1.0196467277234105,-0.2548254987935915,-0.6054529614045677
1687086311.700815,-0.6610769033432007,0.5159232020378113,-0.544793963432312,0.5668081641197205,0.21198207139968872,0.135064959526062,-1.0014210939407349,2.3422629833221436,5.518298625946045,-0.8815315989808424,-0.5420849959171613,-0.5300988763223875
1687086311.795566,-0.4311939775943756,0.6924787759780884,-0.5783984661102295,0.4485280215740204,0.08237773180007935,0.18386727571487427,-1.8222275972366333,2.0239946842193604,5.578648090362549,-0.6406125740597572,-0.7649192907968869,-0.3209794227259631
1687086311.813263,-0.1664469689130783,0.8225005865097046,-0.5438641905784607,0.4917186200618744,0.5464111566543579,-0.1731463074684143,-0.6535149812698364,1.7265852689743042,5.179248809814453,-0.296993498304389,-0.9657936316423346,-3.438767222661873e-05
1687086311.850943,0.07499732077121735,0.837388813495636,-0.5414382219314575,0.44003257155418396,0.4399396777153015,0.0040084123611450195,-0.33960580825805664,1.3245552778244019,4.43649435043335,0.1376392118759992,-0.9924884778076946,0.43080232484481024
1687086311.9455729,0.2845069468021393,0.803625762462616,-0.522724986076355,0.29889756441116333,0.5397732853889465,-0.19871056079864502,-0.4174688756465912,1.2684683799743652,3.9598705768585205,0.4984383964363255,-0.9333626898701624,0.7880455622849699
1687086311.9622002,0.44524893164634705,0.7668680548667908,-0.46224120259284973,0.3659846782684326,0.4207388162612915,-0.039666175842285156,-0.9235985279083252,0.7577754259109497,3.042654037475586,0.7666758713719314,-0.873946915412218,1.0713135999431702
1687086311.999573,0.5593916773796082,0.7068353295326233,-0.4329719841480255,0.16382908821105957,0.5284703969955444,-0.052410125732421875,0.040314774960279465,1.142851710319519,1.9966058731079102,0.9121081869159624,-0.7850143481944071,1.2014947475807298
1687086312.096416,0.6432522535324097,0.6540940403938293,-0.3979792892932892,0.13863861560821533,0.3152662515640259,-0.0490269660949707,0.23931601643562317,1.2789528369903564,1.5004358291625977,1.0167411547541658,-0.7129842824129862,1.267521437646402
1687086312.113128,0.7131935358047485,0.599128246307373,-0.3638686537742615,0.016420722007751465,0.18660783767700195,-0.10254675149917603,0.8143002390861511,1.5630265474319458,1.235221028327942,1.0990250362832639,-0.6424118416578388,1.2827226110807637
1687086312.150877,0.7771983742713928,0.5322109460830688,-0.33572918176651,0.024620413780212402,0.12039220333099365,-0.19899982213974,1.1398435831069946,1.5680758953094482,1.3636800050735474,1.1630338443113808,-0.5612099176070026,1.2569411445462233
1687086312.243926,0.8325725793838501,0.4632663428783417,-0.30365613102912903,0.02726006507873535,0.10841938853263855,-0.30362841486930847,1.2609694004058838,1.356654167175293,1.1645056009292603,1.221068299321012,-0.4816773612618326,1.2236143788703944
1687086312.2496362,0.8682256937026978,0.41102996468544006,-0.2779182493686676,0.06996089220046997,0.02419644594192505,-0.3095299005508423,0.29888519644737244,0.7434478998184204,0.7521355748176575,1.2610035075828303,-0.423583601594881,1.196734705109215
1687086312.331048,0.8884652853012085,0.37836524844169617,-0.25974830985069275,-0.008155286312103271,0.33876729011535645,-0.32432758808135986,1.9172629117965698,1.0316916704177856,0.21278691291809082,1.286366887036836,-0.38802961920440343,1.158678741136495
1687086312.481988,0.9015653133392334,0.34739527106285095,-0.2578689455986023,0.06782543659210205,-0.0018294751644134521,-0.0758865475654602,0.9253711104393005,0.4655797481536865,0.19593895971775055,1.2922107379717587,-0.35479193795501224,1.053777478886509
1687086312.500694,0.9103934168815613,0.3342151343822479,-0.24389302730560303,-0.11412888765335083,0.14626887440681458,-0.014148354530334473,0.8385417461395264,0.5386026501655579,0.20767511427402496,1.309044237474053,-0.3407723604203074,1.0519690923882494
1687086312.503865,0.9176750779151917,0.3207336962223053,-0.23452547192573547,-0.013988614082336426,-0.00203859806060791,0.10061436891555786,0.32786276936531067,0.5250673890113831,-0.018604852259159088,1.3205870733166065,-0.32650399817890285,0.9858170651432047
1687086312.569005,0.9225268959999084,0.32175642251968384,-0.2131122499704361,0.0033153295516967773,0.16351884603500366,0.0760577917098999,0.5720235109329224,0.48483315110206604,-0.0010191556066274643,1.3437696003825372,-0.32758397257885336,0.984040321254541
1687086312.58236,0.9271662831306458,0.32395753264427185,-0.18818597495555878,-0.022152364253997803,-0.07487311959266663,0.018935516476631165,0.765166699886322,0.933606743812561,-0.27200257778167725,1.3705476319762828,-0.3299096379901627,0.9525646160058627
1687086312.6593719,0.9296078085899353,0.33113136887550354,-0.16180583834648132,0.0056185126304626465,-0.02989235520362854,-0.20190267264842987,0.05652080103754997,0.5539199709892273,-0.24120180308818817,1.3984646492277322,-0.33750232473846,0.9073692660636928
1687086312.663254,0.9300267696380615,0.3390055000782013,-0.14186342060565948,-0.02766793966293335,0.047377556562423706,-0.2612128257751465,1.1448440551757812,0.4702379107475281,-0.13288146257400513,1.419426218446908,-0.3458595887240766,0.9081208068415813
1687086312.7561998,0.9304960370063782,0.33511894941329956,-0.14789362251758575,0.14112865924835205,-0.12337270379066467,-0.13324958086013794,-0.061541177332401276,-0.027412034571170807,0.0445820651948452,1.4131741696693165,-0.34173147568579704,0.8459937606472296
1687086312.761324,0.9294627904891968,0.337909996509552,-0.1480395346879959,-0.023456931114196777,0.07104083895683289,-0.0037549883127212524,0.7182332277297974,-0.0033078696578741074,-0.04623033106327057,1.4128487320483132,-0.3446953979802752,0.8593379202774808
1687086312.842551,0.9280662536621094,0.3374740183353424,-0.1574936807155609,0.004383087158203125,-0.0752822756767273,0.0619126558303833,-0.006257413886487484,-0.004140001256018877,-0.13994605839252472,1.4026968733372915,-0.3442322030027711,0.8217636182143878
1687086312.848664,0.9244990944862366,0.3497205674648285,-0.15164777636528015,0.0033572912216186523,-0.018955767154693604,0.04030430316925049,-0.3143332600593567,-0.031952351331710815,-0.2190617024898529,1.4082118411505329,-0.35727281737821365,0.8383929698636993
1687086312.965096,0.9215047359466553,0.3575506806373596,-0.15161271393299103,0.014743983745574951,-0.01889711618423462,-0.010176241397857666,0.0017480487003922462,-0.08843836933374405,-0.08149118721485138,1.4077298835389405,-0.3656438740225633,0.8426388246963946
1687086313.051996,0.9200541973114014,0.35756638646125793,-0.16014569997787476,-0.017740905284881592,0.040138691663742065,-0.06174762547016144,0.5746053457260132,-0.031160486862063408,-0.06798125803470612,1.398461744077821,-0.3656606971101348,0.8234554852304422
1687086313.070046,0.9175260066986084,0.3582265377044678,-0.17268402874469757,1.7881393432617188e-07,0.018726587295532227,-0.04643219709396362,0.3913116455078125,-0.1071518138051033,-0.1791035383939743,1.3847662979586026,-0.3663676757249846,0.7934723121182309
1687086313.0732942,0.9120759963989258,0.3686324656009674,-0.17952033877372742,0.06250286102294922,-0.10872945189476013,0.09092776477336884,-0.7410149574279785,-0.3709745407104492,-0.15702608227729797,1.3764544718267522,-0.37753744215736507,0.8002966720703713
1687086313.1721249,0.9061302542686462,0.38168588280677795,-0.18232829868793488,-0.03322082757949829,0.02959945797920227,-0.018065378069877625,-0.4594177305698395,-0.26334893703460693,-0.16836127638816833,1.3722313906487968,-0.39161958046176754,0.8319869625676833
1687086313.177761,0.9014225602149963,0.39230504631996155,-0.18312332034111023,-0.006693005561828613,-0.02879488468170166,0.022921264171600342,-0.49403393268585205,-0.2066522091627121,-0.09848501533269882,1.3703744812576544,-0.40313617984203065,0.861315735264351
1687086313.264453,0.8982164263725281,0.39733603596687317,-0.18796634674072266,0.04898810386657715,-0.023556768894195557,-0.008460044860839844,-0.20818808674812317,-0.26582202315330505,0.012822335585951805,1.3645070375493096,-0.4086120602114912,0.8758087622032432
1687086313.281105,0.8964409232139587,0.3989086449146271,-0.19304272532463074,0.025922298431396484,-0.03492552042007446,0.05257028341293335,-0.26847997307777405,-0.24412676692008972,0.057366080582141876,1.3586918628937543,-0.41032639859124004,0.8896303534098599
1687086313.3527741,0.8961126804351807,0.397888720035553,-0.19663800299167633,-0.04957038164138794,0.043639570474624634,0.05285441875457764,0.16835807263851166,0.02672204002737999,-0.011946726590394974,1.3547855248128475,-0.40921441993207663,0.8911329398369234
1687086313.367435,0.8966351747512817,0.39666736125946045,-0.19672338664531708,-0.02151322364807129,-0.004577577114105225,0.044822096824645996,0.10942438989877701,0.1288868635892868,-0.07260898500680923,1.3548166561919293,-0.4078835239223262,0.8810540712625844
1687086313.444063,0.8959368467330933,0.4021695852279663,-0.188564732670784,-0.007081925868988037,0.004736542701721191,0.012813985347747803,-0.11314982920885086,0.06639765202999115,-0.0856708362698555,1.363357338029423,-0.41388527202518505,0.886166037866965
1687086313.4486408,0.8950954675674438,0.4045710563659668,-0.18741998076438904,0.0261690616607666,0.0728001594543457,-0.036594316363334656,0.36304035782814026,-0.041952945291996,-0.07847073674201965,1.3643927854507931,-0.41650972753314947,0.8770780518857866
1687086313.534121,0.8924686908721924,0.39967378973960876,-0.20918962359428406,0.035997986793518066,0.19126859307289124,-0.12104110419750214,1.781819224357605,-0.04646513983607292,-0.18974199891090393,1.3405583974616913,-0.41116094266133146,0.8215997481202227
1687086313.624882,0.88730388879776,0.39459481835365295,-0.23871876299381256,-0.00919121503829956,-0.07950082421302795,0.0014597922563552856,0.4491066336631775,-0.09023627638816833,-0.3092903196811676,1.3079810268800824,-0.40562684478053057,0.7528482321859736
1687086313.630937,0.882413387298584,0.39973849058151245,-0.2481040209531784,-0.06319963932037354,-0.02850741147994995,0.0807761549949646,0.12427935004234314,0.003485587891191244,-0.15527722239494324,1.296707380709934,-0.41123154080205476,0.732100072160545
1687086313.715029,0.8774739503860474,0.4105056822299957,-0.2480413317680359,0.031766653060913086,-0.01217496395111084,0.04044550657272339,-0.16997678577899933,-0.1605941504240036,-0.16108164191246033,1.2953073671855138,-0.42300856144852633,0.7393428953868455
1687086313.732265,0.8716524243354797,0.4217500686645508,-0.2496977150440216,0.004675030708312988,-0.03950214385986328,0.06444072723388672,-0.15992696583271027,-0.01756291836500168,-0.2758497893810272,1.2918029652555911,-0.4353745683493442,0.7436838583795424
