Timestamp,gravityX,gravityY,gravityZ,accelerationX,accelerationY,accelerationZ,rotationRateX,rotationRateY,rotationRateZ,attitudeRoll,attitudePitch,attitudeYaw
1687090061.444335,0.871577799320221,0.4383402168750763,0.21956779062747955,0.0011638998985290527,-0.012787848711013794,0.0071929991245269775,-0.20496241748332977,-0.01869652047753334,-0.012893580831587315,1.817581129984491,-0.45375120075124176,2.2993278185579378
1687090061.499251,0.8715664744377136,0.4363194406032562,0.22359952330589294,0.006378233432769775,-0.005060434341430664,0.013018324971199036,-0.15775324404239655,-0.0145906712859869,0.01327983196824789,1.8219292230473698,-0.45150413691257124,2.3103033952215224
1687090061.594593,0.8719182014465332,0.4345477223396301,0.22566835582256317,-0.00561600923538208,0.007133036851882935,0.012887299060821533,-0.109978586435318,-0.009824304841458797,0.001155192032456398,1.8240571641941683,-0.44953606291505577,2.316439053471476
1687090061.599786,0.8718914985656738,0.4326339364051819,0.22941826283931732,0.001567244529724121,0.0066513121128082275,0.008511900901794434,-0.1272924393415451,0.01616090163588524,0.007978565990924835,1.8280912180160378,-0.44741223285427073,2.323416209385438
1687090061.6517339,0.8714889287948608,0.4313524067401886,0.23332780599594116,-0.0005326271057128906,0.010358989238739014,0.009073138236999512,-0.1016630232334137,0.027355339378118515,0.0039625633507966995,1.8323955506239038,-0.44599126568090747,2.3291689382003518
1687090061.7727551,0.8710466623306274,0.4301869571208954,0.23710013926029205,-0.00018197298049926758,0.014072626829147339,-0.007821813225746155,-0.10739085078239441,0.02475614845752716,-0.0026398124173283577,1.8365588763630811,-0.4446998499888534,2.334947091059078
1687090061.7847052,0.8705209493637085,0.42995020747184753,0.2394491732120514,0.0008168220520019531,0.0009884834289550781,-0.004494428634643555,-0.001230164896696806,0.029407838359475136,-0.007226863410323858,1.8392222469235593,-0.4444376149915012,2.3379909467031608
1687090061.861291,0.870395302772522,0.4308255612850189,0.23832929134368896,0.004467129707336426,0.005209535360336304,-0.00863887369632721,0.06989435106515884,0.026331353932619095,-0.005488772876560688,1.838062655469786,-0.44540737726126733,2.3341495673882875
1687090061.8671842,0.8702278733253479,0.43122783303260803,0.23821449279785156,0.0042380690574646,-0.0066062211990356445,-0.0002993941307067871,0.05963478237390518,0.015583637170493603,0.0026584358420222998,1.837988940344641,-0.4458532092083283,2.3322404588229464
1687090061.983262,0.8706645965576172,0.4315319359302521,0.23605720698833466,0.0012835264205932617,-0.011457502841949463,-0.007206082344055176,0.07565779983997345,0.008852816186845303,0.015720708295702934,1.8355545699438112,-0.4461902669019806,2.326261720212277
1687090061.9944692,0.8710687756538391,0.43055272102355957,0.23635384440422058,0.005777299404144287,-0.006633102893829346,-8.67992639541626e-05,-0.0023753768764436245,0.0065468386746943,0.022709708660840988,1.8357545889064493,-0.4451050671193654,2.3255961865098693
1687090062.0720801,0.8717806339263916,0.42980870604515076,0.23508039116859436,0.00048792362213134766,0.010666698217391968,0.0008661746978759766,0.04213472828269005,0.004046875983476639,0.027568090707063675,1.834186985329059,-0.44428089879971144,2.322541802256733
1687090062.083846,0.8722875714302063,0.4289756417274475,0.2347211241722107,-0.0013160109519958496,0.0006049871444702148,0.0048111677169799805,0.05707361921668053,0.005059889052063227,0.01583881862461567,1.833656879697963,-0.4433584836093855,2.3200984942919445
1687090062.163389,0.8724457621574402,0.4288336932659149,0.23439255356788635,0.0025388598442077637,0.0024101734161376953,0.010861873626708984,0.057544149458408356,0.01801867038011551,0.018697965890169144,1.8332601578176257,-0.4432013349535192,2.3174450681516086
1687090062.169262,0.8724622130393982,0.4289800524711609,0.23406293988227844,0.0042008161544799805,0.0013329684734344482,0.005377873778343201,0.07556954026222229,0.017917362973093987,0.012908009812235832,1.8329030267414765,-0.4433633704246903,2.313175947615691
1687090062.250202,0.8722469210624695,0.42898476123809814,0.23485474288463593,-0.0015807151794433594,-0.000197678804397583,2.3558735847473145e-05,0.05451331287622452,0.012902791611850262,0.004384784959256649,1.8338114056386163,-0.44336856879448266,2.3111607210851273
1687090062.2635288,0.8721241354942322,0.42935284972190857,0.23463860154151917,-0.002129197120666504,-0.0037395060062408447,0.001689419150352478,-0.0013182088732719421,0.0056626154109835625,-4.2298343032598495e-05,1.8336156574934026,-0.4437760931430783,2.309094294140191
1687090062.342711,0.8717837333679199,0.42970460653305054,0.235259011387825,0.009014487266540527,0.0034770965576171875,0.0006417036056518555,-0.009240526705980301,0.0032528808806091547,-0.020387694239616394,1.834377082786095,-0.44416561899908286,2.3107328397883125
1687090062.348515,0.8713189959526062,0.4308716356754303,0.23484575748443604,0.007404029369354248,0.007498055696487427,-0.004239797592163086,0.030010100454092026,0.012414367869496346,-0.010606436990201473,1.8340691270234972,-0.4454584482962085,2.30928235175505
1687090062.400718,0.8707811236381531,0.4319932758808136,0.23478056490421295,-5.370378494262695e-05,-0.008607685565948486,0.0036226511001586914,0.0027169068343937397,0.016473663970828056,-0.027570106089115143,1.834154539522418,-0.4467017362849076,2.308912156818181
1687090062.491564,0.87013179063797,0.43331432342529297,0.23475322127342224,0.0010686516761779785,-0.005946218967437744,-0.0001035928726196289,0.014292655512690544,0.013030357658863068,-0.02118775248527527,1.83431280788294,-0.4481670463320442,2.3083873034762306
1687090062.50318,0.8697567582130432,0.4339595437049866,0.23495136201381683,0.0011842846870422363,-0.010635018348693848,0.0007510185241699219,0.0228752251714468,0.014768070541322231,-0.004333339165896177,1.8346335793395083,-0.4488830967421753,2.307200004050699
1687090062.548991,0.869571328163147,0.43380069732666016,0.23592855036258698,-0.006381809711456299,-0.02135568857192993,-0.000897526741027832,-0.007833952084183693,0.01112113706767559,0.0020503029227256775,1.835734259503775,-0.44870677457696834,2.3081211014474765
1687090062.640705,0.8697472810745239,0.43372857570648193,0.23541222512722015,0.004749119281768799,0.0030542612075805664,-0.0011899173259735107,0.05690024793148041,0.007143812254071236,0.002017923165112734,1.8351300889611626,-0.448626732952492,2.30571042770571
1687090062.6520119,0.8694499731063843,0.43422746658325195,0.2355913519859314,-0.0020335912704467773,0.002387523651123047,-0.00027045607566833496,-0.027724197134375572,0.0018443347653374076,-0.025041745975613594,1.8354082700070644,-0.4491804932961294,2.305382897102754
1687090062.698683,0.868995189666748,0.4351966679096222,0.2354801595211029,-0.0014263391494750977,0.013289600610733032,-0.016974449157714844,-0.04930464178323746,-0.040626320987939835,-0.039206523448228836,1.8354211759091172,-0.4502567100614088,2.307763478556946
1687090062.786076,0.8684810996055603,0.4371516704559326,0.23374991118907928,0.009662210941314697,0.01995590329170227,-0.012299269437789917,-0.023448649793863297,-0.0786627009510994,-0.08217174559831619,1.8337138386092622,-0.45242925342861984,2.311585663677404
1687090062.79362,0.8669100999832153,0.4429042935371399,0.2286975085735321,0.015093624591827393,0.06751739978790283,-0.04646193981170654,-0.0883268192410469,-0.12255032360553741,-0.19818729162216187,1.8287276168080844,-0.4588354259369561,2.3142311200761783
1687090062.8534632,0.8631213307380676,0.4527381956577301,0.2237178385257721,0.000922858715057373,0.07996141910552979,-0.03991052508354187,-0.07993828505277634,-0.1989334523677826,-0.28828269243240356,1.8244114002658278,-0.4698338902346262,2.323244530794194
1687090062.973534,0.8584423661231995,0.46618103981018066,0.21389630436897278,-0.007063090801239014,0.07602468132972717,-0.013090744614601135,-0.15413662791252136,-0.275192528963089,-0.3612913191318512,1.8149917068554675,-0.48496912482334054,2.3320286182301424
1687090062.984693,0.8515434265136719,0.4812471568584442,0.20802612602710724,0.002536773681640625,0.0838620662689209,0.013607770204544067,-0.2022787481546402,-0.23470604419708252,-0.46393564343452454,1.8103965635959731,-0.5020769195966162,2.349335351569884
1687090063.089936,0.8401434421539307,0.5028918981552124,0.20312142372131348,0.01949077844619751,0.09763294458389282,0.04060709476470947,-0.10237962752580643,-0.13794317841529846,-0.6208606958389282,1.808014172367848,-0.5269412650927847,2.3644713931982984
1687090063.099854,0.822160542011261,0.53305983543396,0.19974808394908905,0.004759013652801514,0.12480759620666504,0.04100492596626282,0.002882714383304119,-0.023368610069155693,-0.839441180229187,1.8091335803533979,-0.5622129547954199,2.375933052796396
1687090063.245422,0.793988823890686,0.5728431344032288,0.20354992151260376,0.029497504234313965,0.16957324743270874,0.06515732407569885,0.00213649682700634,0.20631252229213715,-1.1650233268737793,1.8217553338434707,-0.6099703095851874,2.3907302112509803
1687090063.251144,0.7504211664199829,0.6246337890625,0.2161027193069458,0.07996201515197754,0.18118274211883545,0.05023932456970215,-0.06020379066467285,0.407402902841568,-1.5118848085403442,1.8511850528384677,-0.6746625139279021,2.4136999881662495
1687090063.256432,0.6907584071159363,0.6847321391105652,0.23236705362796783,0.10011976957321167,0.19624918699264526,0.062081679701805115,0.3111112117767334,0.5751553177833557,-1.7949827909469604,1.8952990352460874,-0.754236058135332,2.4439809074127012
1687090063.266448,0.6117740273475647,0.7578930854797363,0.22656169533729553,0.16332656145095825,0.21262675523757935,0.05926583707332611,1.025625228881836,0.6698249578475952,-2.180356025695801,1.925471403835694,-0.8600774451761158,2.4432685589274996
1687090063.296212,0.5105946063995361,0.8362666964530945,0.19987714290618896,0.22344452142715454,0.16663235425949097,0.05929325520992279,1.1829830408096313,0.6548336744308472,-2.515995502471924,1.9439186277027294,-0.9904388379849983,2.423542165201748
1687090063.328918,0.3889080584049225,0.9074152112007141,0.15921024978160858,0.24147817492485046,0.20539289712905884,0.12023912370204926,1.4082111120224,0.6624844074249268,-2.7589824199676514,1.959360626172716,-1.1370917589548488,2.40234400314206
1687090063.359452,0.24882355332374573,0.9638352394104004,0.09543668478727341,0.226533442735672,0.21396005153656006,0.10892415046691895,1.776383638381958,0.6261222958564758,-3.0330207347869873,1.9370431770344767,-1.3010375647593493,2.346347474738554
1687090063.419991,0.09303728491067886,0.9955728650093079,0.0133648831397295,0.33532267808914185,0.1987171769142151,0.1526200771331787,1.6288379430770874,0.5386435985565186,-3.2897391319274902,1.7134711072510755,-1.476664718933518,2.0904026904151345
1687090063.877746,-0.07576116174459457,0.9950979948043823,-0.06356323510408401,0.33651861548423767,0.21803677082061768,0.16936761140823364,1.533543348312378,0.4487464725971222,-3.479973077774048,-0.8727260671608552,-1.4717403401785731,-0.5233407214345639
1687090063.8831449,-0.2481168508529663,0.9564384818077087,-0.1538282334804535,0.3247770369052887,0.23693591356277466,0.17259646952152252,2.016962766647339,0.26302725076675415,-3.571643114089966,-1.0158128794238224,-1.274548027887953,-0.6865064864161252
1687090063.893561,-0.4111754298210144,0.8782919645309448,-0.24400366842746735,0.3434416949748993,0.15657424926757812,0.18565404415130615,1.6822459697723389,0.12078148126602173,-3.5741138458251953,-1.0352220330725812,-1.0722780116649373,-0.7172444823881536
1687090063.897318,-0.5556092262268066,0.7724522352218628,-0.30759692192077637,0.36260080337524414,0.09778690338134766,0.2065073847770691,1.3448731899261475,0.06586252152919769,-3.525263786315918,-1.065177333087295,-0.882693511645797,-0.759088071153484
1687090063.900569,-0.6779798865318298,0.6418245434761047,-0.35833558440208435,0.4347548484802246,0.09253513813018799,0.17945677042007446,1.449858546257019,-0.06405851244926453,-3.375316858291626,-1.0845827568865496,-0.6968751467595672,-0.7861603421914739
1687090063.903901,-0.7734929919242859,0.49553030729293823,-0.395168662071228,0.37670350074768066,0.04020571708679199,0.16132766008377075,1.319595217704773,-0.12363726645708084,-3.1721808910369873,-1.098475894273803,-0.5184452505693049,-0.8024637299022944
1687090063.918236,-0.8405438661575317,0.349099725484848,-0.4142647981643677,0.3092939853668213,0.01579892635345459,0.12829983234405518,0.9710814952850342,-0.10951100289821625,-2.9298524856567383,-1.112882416327497,-0.3566102003851682,-0.8210906862874088
1687090063.925518,-0.8814185261726379,0.20817919075489044,-0.4239843189716339,0.3268837332725525,0.060924798250198364,0.12353873252868652,0.8993244171142578,-0.05139699578285217,-2.7093818187713623,-1.122443653284819,-0.20971298760283946,-0.8423646035658297
1687090064.12636,-0.9008534550666809,0.06839518249034882,-0.4287015497684479,0.25549834966659546,0.0874275490641594,0.06981483101844788,1.134299635887146,-0.07849039882421494,-2.5735490322113037,-1.1266271560931043,-0.06844861698940852,-0.8524723567424889
1687090064.1429682,-0.9030041694641113,-0.06511487066745758,-0.42466840147972107,0.21092671155929565,0.04228774458169937,0.08154401183128357,0.5812853574752808,-0.06872091442346573,-2.45656681060791,-1.1312028599473223,0.06516097441239165,-0.8658544360932646
1687090064.146889,-0.8888935446739197,-0.18060220777988434,-0.42101162672042847,0.1731191873550415,0.038863345980644226,0.06378811597824097,0.15651002526283264,-0.017200889065861702,-2.349170446395874,-1.1284618183172324,0.18159869396327286,-0.9028077454758283
1687090064.1498299,-0.8614435195922852,-0.28438955545425415,-0.42075827717781067,0.13649851083755493,0.06711968779563904,0.04365253448486328,0.23797352612018585,0.04092728719115257,-2.2495031356811523,-1.1164442719449355,0.2883696338223424,-0.948193301401017
1687090064.1536741,-0.8239814043045044,-0.38324040174484253,-0.4173503518104553,0.12271803617477417,0.03341743350028992,0.05664777755737305,0.2748219668865204,0.06179283931851387,-2.111886501312256,-1.1019585966269219,0.3933020163411187,-0.9843007363438587
1687090064.156654,-0.7796685099601746,-0.46677058935165405,-0.41742315888404846,0.11420232057571411,-0.01951172947883606,0.042331576347351074,0.10118328779935837,0.09038303792476654,-1.903076410293579,-1.0792427140147656,0.48563561906577535,-1.0287996977595024
1687090064.159409,-0.7318702936172485,-0.5380511283874512,-0.41817060112953186,0.08537083864212036,0.0021015405654907227,0.03427472710609436,0.13458780944347382,0.14573934674263,-1.7443134784698486,-1.0516924490645005,0.5681233279241236,-1.073024177904661
1687090064.172646,-0.680709719657898,-0.6010242104530334,-0.4188126027584076,0.06927490234375,0.024638772010803223,0.056004345417022705,0.26035380363464355,0.19699114561080933,-1.583175539970398,-1.0192326539647152,0.6447819860613336,-1.1152090683698759
1687090064.257639,-0.6295385956764221,-0.658227801322937,-0.41281601786613464,0.059775471687316895,0.010263442993164062,0.028477609157562256,0.3845811188220978,0.16048820316791534,-1.4455357789993286,-0.9903938969272987,0.718462283359473,-1.1473025615339454
1687090064.2996578,-0.5797628164291382,-0.7041375041007996,-0.40995803475379944,0.04851275682449341,-0.02884894609451294,0.011184751987457275,0.079266756772995,0.1490754932165146,-1.2746477127075195,-0.9553122120662426,0.7812077087313656,-1.1874787621912797
1687090064.341119,-0.5345454812049866,-0.7378995418548584,-0.4120255708694458,0.06178253889083862,-0.022476255893707275,-0.010169893503189087,0.08003652095794678,0.12572601437568665,-1.0543501377105713,-0.9141180433488866,0.8299528644573877,-1.2347705575051673
1687090064.386543,-0.4967002868652344,-0.7629175186157227,-0.4138181805610657,0.051158905029296875,-0.06064498424530029,0.0070340633392333984,-0.03975747525691986,0.17133121192455292,-0.8208600282669067,-0.8761753510074548,0.8678140379984165,-1.2768789062270236
1687090064.435364,-0.4642391502857208,-0.7799503207206726,-0.4197133481502533,0.0478878915309906,-0.041109681129455566,0.07294204831123352,0.11556696891784668,0.31195786595344543,-0.6087886691093445,-0.8357268948216748,0.8945864676927923,-1.3140986374647683
1687090064.544321,-0.4365827143192291,-0.7971539497375488,-0.4170621931552887,0.0634596049785614,-0.011332869529724121,0.047860532999038696,0.28793570399284363,0.36772119998931885,-0.4494229853153229,-0.8082614343834486,0.9225666786586155,-1.3270861059607246
1687090064.564165,-0.4127129018306732,-0.809210479259491,-0.4181461036205292,0.03157898783683777,-0.03423422574996948,0.016321152448654175,0.06550342589616776,0.3058850169181824,-0.3491346836090088,-0.7788590174866438,0.942807048694467,-1.3408300912261881
1687090064.5758371,-0.39600884914398193,-0.816274881362915,-0.42056190967559814,0.038358092308044434,-0.02607131004333496,-0.01341336965560913,0.1476024091243744,0.11425039172172546,-0.2653178572654724,-0.7553387182993067,0.9549327175852661,-1.3562563302452433
1687090064.662291,-0.3858017027378082,-0.8218377232551575,-0.4192131757736206,0.011503607034683228,-0.08361876010894775,-0.013373494148254395,-0.13708274066448212,0.04299091920256615,-0.16246236860752106,-0.7439177986485838,0.9646292448622189,-1.3665568318912336
1687090064.676908,-0.38064977526664734,-0.8226561546325684,-0.42230620980262756,0.0009348690509796143,-0.01543271541595459,-0.009670138359069824,0.06522566825151443,0.01238549966365099,-0.08079154044389725,-0.7335657884437112,0.9660672874634061,-1.3780171727315824
1687090064.7521539,-0.37721768021583557,-0.8262131810188293,-0.4184236228466034,-0.0018563568592071533,-0.007694721221923828,0.029400736093521118,0.04677603021264076,0.09132462739944458,-0.02264558896422386,-0.7336548216578097,0.9723523412540838,-1.3750318607700673
1687090064.793515,-0.37611356377601624,-0.8246239423751831,-0.4225325286388397,0.018401801586151123,-0.043051719665527344,-0.006285250186920166,-0.10030540078878403,0.06284792721271515,0.04559028148651123,-0.7273413886710507,0.9695371366020565,-1.377718880649181
1687090064.834775,-0.3786890506744385,-0.8245050311088562,-0.420459121465683,0.011013329029083252,0.018520653247833252,0.0004456639289855957,0.020039651542901993,0.04038789123296738,0.044652558863162994,-0.7331774639245459,0.969326908328892,-1.3701847746503246
1687090064.9052749,-0.37708917260169983,-0.8242576718330383,-0.42237767577171326,-0.007920503616333008,0.007348001003265381,-0.003586709499359131,-0.03627539426088333,0.06145850569009781,0.016756433993577957,-0.7288102723506578,0.968889913022684,-1.371247668464505
1687090064.944041,-0.37650084495544434,-0.823070228099823,-0.42520850896835327,-0.00019285082817077637,-0.0032387971878051758,-2.345442771911621e-05,-0.04145343229174614,0.04644983261823654,0.02119392529129982,-0.724717986948097,0.9667959829398229,-1.372896888399151
1687090064.9873462,-0.3768048882484436,-0.8220943212509155,-0.42682409286499023,-0.002940535545349121,0.0004849433898925781,0.0028891563415527344,0.019582705572247505,0.055631186813116074,0.02946559339761734,-0.7232367031345286,0.9650797570049586,-1.3718704976836011
1687090065.050457,-0.3778325915336609,-0.8215354084968567,-0.4269918203353882,0.007425546646118164,-0.01781994104385376,-0.015970826148986816,-0.03798983246088028,0.02927771769464016,0.0581582710146904,-0.7243932647682212,0.9640987951240438,-1.3681597966640802
1687090065.097478,-0.38036873936653137,-0.8198501467704773,-0.4279780685901642,0.0021949410438537598,0.014842331409454346,-0.015640735626220703,0.013476716354489326,-0.008938964456319809,0.05976879224181175,-0.7265689735663112,0.961149276854668,-1.3652026104377566
1687090065.1506019,-0.3808150887489319,-0.8188223242759705,-0.429546058177948,-0.00637662410736084,0.01183086633682251,0.004268288612365723,-0.016179446130990982,0.03058447688817978,0.048605795949697495,-0.7253356218920055,0.9593565161496411,-1.3647633265527972
1687090065.197569,-0.38152360916137695,-0.8181078433990479,-0.43027812242507935,0.005409717559814453,0.010002434253692627,0.0009872913360595703,0.05026993528008461,0.017605721950531006,0.045215461403131485,-0.7254130563167545,0.9581129609987316,-1.3620818970857846
1687090065.2500958,-0.3833523094654083,-0.8173283934593201,-0.4301338493824005,-0.003213822841644287,-0.007225930690765381,0.009403228759765625,-0.038546111434698105,0.0005924359429627657,0.04729348048567772,-0.7279539767484969,0.9567588123059189,-1.3587492101979224
1687090065.288914,-0.3858528435230255,-0.8157232999801636,-0.43094438314437866,0.0007668137550354004,-0.00585561990737915,0.0005549192428588867,0.006196380127221346,-0.004824273753911257,0.07486650347709656,-0.7302488547346172,0.9539784772641262,-1.3561032402103823
1687090065.337264,-0.38912156224250793,-0.8137170672416687,-0.43179723620414734,-0.0015797019004821777,-0.005313575267791748,0.012287318706512451,-0.054930679500103,0.04972056671977043,0.11209504306316376,-0.7334596439824255,0.950518610662178,-1.3511991899656377
1687090065.3894548,-0.39216047525405884,-0.8112790584564209,-0.4336315095424652,-0.00018870830535888672,0.004974246025085449,-0.00173225998878479,-0.05738883092999458,0.05275614187121391,0.09395971894264221,-0.7352206212133622,0.9463364860607927,-1.3467187933835727
1687090065.445187,-0.39485931396484375,-0.8092887997627258,-0.43489938974380493,-0.002052217721939087,0.007088601589202881,-0.010123223066329956,0.03522041440010071,0.024949654936790466,0.07546772807836533,-0.7371804690815114,0.9429403799502719,-1.3417835154228979
1687090065.4962091,-0.39607736468315125,-0.8084188103675842,-0.43540966510772705,-0.017359495162963867,0.0017935633659362793,-0.0021513700485229492,-0.04542548209428787,0.08199307322502136,0.05254392698407173,-0.7381298132023817,0.9414608612901116,-1.3375258591483452
1687090065.544117,-0.3971802294254303,-0.8070324063301086,-0.4369742274284363,0.015603721141815186,0.020151972770690918,-0.021048903465270996,0.03243187069892883,0.0019856421276926994,0.03961995989084244,-0.73772853004753,0.9391092260998393,-1.3350677379684286
1687090065.606853,-0.399566113948822,-0.8063574433326721,-0.43604400753974915,0.007491618394851685,0.01099318265914917,0.010308533906936646,-0.008067511022090912,-0.014769583009183407,0.032101500779390335,-0.7417716475230814,0.9379670987954944,-1.3314314048495444
1687090065.6495,-0.40095967054367065,-0.8046666979789734,-0.4378843903541565,0.01723170280456543,-0.0056359171867370605,0.00047594308853149414,-0.01659170351922512,-0.05383213609457016,0.053837310522794724,-0.7414079888869423,0.9351139068254347,-1.3326633269660026
1687090065.68467,-0.4046857953071594,-0.803045928478241,-0.43743157386779785,-0.0012437701225280762,-0.011574923992156982,0.0057909488677978516,-0.044839270412921906,-0.052149925380945206,0.0905996710062027,-0.7465326660670996,0.9323890949990055,-1.3295374651169967
1687090065.76631,-0.40950143337249756,-0.8001871109008789,-0.4381883144378662,0.0010999739170074463,-0.023878931999206543,-0.009306192398071289,-0.029325341805815697,-0.0614146888256073,0.17612409591674805,-0.7515698266539447,0.9276071733069481,-1.3252445350312483
1687090065.841981,-0.42039719223976135,-0.7925558090209961,-0.4417251646518707,0.022524356842041016,-0.0678412914276123,-0.0013442635536193848,-0.2648662030696869,-0.07478561997413635,0.3223053216934204,-0.7606643170630712,0.9149889327753217,-1.3181754721802015
1687090065.853184,-0.44035395979881287,-0.776215672492981,-0.4511954188346863,0.08171150088310242,-0.07894778251647949,-0.000403672456741333,-0.2928704619407654,-0.1939249485731125,0.5609618425369263,-0.7732385208195952,0.88864105287974,-1.3099300971429846
1687090065.892493,-0.4707619845867157,-0.7531825304031372,-0.45945534110069275,0.07925200462341309,-0.07758218050003052,0.03504735231399536,-0.46630191802978516,-0.25815078616142273,0.7531339526176453,-0.7975524076400976,0.8528867914811805,-1.2927561248608337
1687090065.957298,-0.5080049633979797,-0.7195380926132202,-0.4734930694103241,0.07204616069793701,-0.055608272552490234,0.03944152593612671,-0.6810406446456909,-0.2913459539413452,0.8695957660675049,-0.8205461702202771,0.8031369793174707,-1.2812316403810877
1687090065.996327,-0.547795295715332,-0.6784082055091858,-0.4895736575126648,0.0770311951637268,-0.03915148973464966,0.02566075325012207,-0.6732961535453796,-0.3324134945869446,0.9830092191696167,-0.8414636448560033,0.7455938442873905,-1.2728063095912416
1687090066.04352,-0.5896997451782227,-0.6293374300003052,-0.5061505436897278,0.08149063587188721,-0.06490683555603027,0.08242928981781006,-0.9041399359703064,-0.27364039421081543,1.1235394477844238,-0.8614923527283586,0.6807003177501391,-1.2656719276880082
1687090066.0878901,-0.633234441280365,-0.5673953890800476,-0.5263805985450745,0.14214563369750977,-0.06952166557312012,0.07014274597167969,-0.9911500811576843,-0.31494757533073425,1.273485779762268,-0.8772846322126098,0.6033392998327355,-1.2628320071958457
1687090066.139954,-0.6776660680770874,-0.4938344955444336,-0.5448815822601318,0.13626909255981445,-0.09411710500717163,0.12357115745544434,-1.2653980255126953,-0.3153184950351715,1.4201983213424683,-0.8935870055158145,0.5164939796453841,-1.2638531792864485
1687090066.187891,-0.7213140726089478,-0.40343520045280457,-0.5629796385765076,0.21015995740890503,-0.10643726587295532,0.11855208873748779,-1.3509048223495483,-0.31491443514823914,1.6553473472595215,-0.9080644002318856,0.4152680422315555,-1.2669111745514121
1687090066.251009,-0.760474443435669,-0.2943077087402344,-0.5788450837135315,0.20571070909500122,-0.11865615844726562,0.18295574188232422,-1.6816751956939697,-0.27738192677497864,1.896101951599121,-0.9201890489873293,0.2987310522262669,-1.2741327325277234
1687090066.303996,-0.7909794449806213,-0.16483095288276672,-0.5892216563224792,0.2018682360649109,-0.09913082420825958,0.16769766807556152,-1.878597617149353,-0.2689611613750458,2.0561623573303223,-0.9305500747379524,0.1655866113863643,-1.2849959184567485
1687090066.346122,-0.8104580044746399,-0.01987798698246479,-0.585459291934967,0.23836034536361694,-0.09372371435165405,0.20008331537246704,-2.0859029293060303,-0.35705211758613586,2.2393834590911865,-0.9452070867413948,0.01987929643728314,-1.3010824214018941
1687090066.401771,-0.8165277242660522,0.13559946417808533,-0.5611551403999329,0.1818385124206543,-0.06028212606906891,0.18340855836868286,-2.428922653198242,-0.512891948223114,2.272160530090332,-0.9686816859472582,-0.1360184858968436,-1.3272233192312999
1687090066.442198,-0.8059484362602234,0.3012080192565918,-0.5096278786659241,0.19880139827728271,-0.06303367018699646,0.17719990015029907,-2.5247206687927246,-0.6342548727989197,2.472773551940918,-1.0069411657709553,-0.30595926194116824,-1.3680986023556985
1687090066.503065,-0.777113139629364,0.4604816138744354,-0.429012656211853,0.214765727519989,-0.07817274332046509,0.11230117082595825,-2.6062912940979004,-0.9458378553390503,2.51735258102417,-1.0663733110504932,-0.47853767912057904,-1.418708113820715
1687090066.546334,-0.7292650938034058,0.6077194809913635,-0.31440338492393494,0.24858278036117554,-0.1043015718460083,0.11445212364196777,-2.724104404449463,-1.3013367652893066,2.69968318939209,-1.1637504097441562,-0.6531857700098458,-1.4938100414596471
1687090066.596029,-0.6512867212295532,0.7378177046775818,-0.17734327912330627,0.14585459232330322,-0.05256086587905884,0.07803897559642792,-2.516186237335205,-1.507436990737915,2.869907855987549,-1.3049450086460475,-0.8298315980480192,-1.6002748435310328
1687090066.642885,-0.5444340705871582,0.8382041454315186,-0.03170293569564819,0.12844902276992798,-0.04529660940170288,0.10228997468948364,-2.43798828125,-1.6833349466323853,3.0051393508911133,-1.5126310213627177,-0.9939818447348387,-1.759151727828112
1687090066.738193,-0.4024072587490082,0.9088179469108582,0.11008110642433167,0.16128796339035034,0.044978201389312744,0.09699581563472748,-1.9589834213256836,-1.7233995199203491,3.2445642948150635,-1.8378199888583138,-1.1404418528709879,-2.0327625404232337
1687090066.7521682,-0.24386903643608093,0.9457218050956726,0.21479792892932892,0.09639278054237366,0.17756915092468262,0.05392459034919739,-1.5123038291931152,-1.7302809953689575,3.0023765563964844,-2.2928974243870046,-1.2398085284929785,-2.427848423230098
1687090066.795692,-0.07469572871923447,0.9545101523399353,0.2886698544025421,0.11589444428682327,0.15346074104309082,0.12421759963035583,-0.8616241216659546,-1.5679305791854858,3.119251012802124,-2.8883879951198193,-1.2680126992609013,-2.965408043622031
1687090066.8697991,0.08974656462669373,0.9460260272026062,0.311416357755661,0.1376551389694214,0.303973913192749,0.10652172565460205,-0.28847551345825195,-1.4167245626449585,2.838317394256592,2.861007149531653,-1.2407459414741389,2.8346131519466993
1687090066.882818,0.23474276065826416,0.9194969534873962,0.31531083583831787,0.10656574368476868,0.2486700415611267,0.13364839553833008,-0.3149046301841736,-1.137163758277893,2.529533863067627,2.5016334147014185,-1.1667989209879717,2.5201908616234463
1687090066.95013,0.35528311133384705,0.879841685295105,0.31567755341529846,0.12808474898338318,0.28335094451904297,0.10158920288085938,-0.4103603661060333,-0.9664720296859741,2.0478227138519287,2.2972347617203717,-1.0755290057753688,2.3516487844197567
1687090066.997611,0.4497954547405243,0.8337140083312988,0.32031917572021484,0.13472279906272888,0.15977025032043457,0.12148365378379822,-0.5821872353553772,-0.8291733264923096,1.7514594793319702,2.1896262471758488,-0.9857998390545049,2.2800933721518737
1687090067.042249,0.5333534479141235,0.7845828533172607,0.31617045402526855,0.056230902671813965,0.11397671699523926,0.021018177270889282,-0.05487443134188652,-0.7627695202827454,1.791529655456543,2.1059028884974107,-0.9020230600208751,2.2235411063549266
1687090067.108314,0.6140123009681702,0.7333108186721802,0.291965514421463,0.029633820056915283,0.04983115196228027,0.05834555625915527,0.10570400953292847,-0.7083122730255127,1.8276180028915405,2.014656055942109,-0.8231788324931525,2.1513431631239546
1687090067.1490211,0.6884022355079651,0.675410270690918,0.2644301652908325,0.08608800172805786,0.04535388946533203,0.04503324627876282,0.09313441812992096,-0.7406190633773804,1.8048889636993408,1.937539932935277,-0.7415208982786661,2.0935934698582406
1687090067.1897159,0.7546773552894592,0.6107574701309204,0.23966071009635925,0.07315772771835327,0.04918515682220459,0.0630582869052887,-0.16970983147621155,-0.7110908031463623,1.74553382396698,1.8782908218291874,-0.6570168680909326,2.0589759626147313
1687090067.249683,0.8121374249458313,0.5416093468666077,0.21700572967529297,0.0545920729637146,0.09256100654602051,0.0893142968416214,0.05082382261753082,-0.5516142249107361,1.6896698474884033,1.8318995652712977,-0.5723504182567756,2.0343907594488626
1687090067.289326,0.8556724190711975,0.47832900285720825,0.19754885137081146,0.05610102415084839,0.1403384804725647,0.056708186864852905,-0.04301314055919647,-0.3340221047401428,1.364058494567871,1.797690587572049,-0.49875093282957333,2.010893214283922
1687090067.33594,0.8854087591171265,0.4240335524082184,0.1903858482837677,0.03747326135635376,0.199898362159729,0.07148543000221252,0.132890522480011,-0.04803800582885742,1.110615849494934,1.7825972789627238,-0.43789447570447965,1.997265393675182
1687090067.414079,0.9038430452346802,0.38479235768318176,0.18708933889865875,0.04182028770446777,0.27367013692855835,0.01434183120727539,0.054815635085105896,0.09495387971401215,0.7104459404945374,1.7749069643940933,-0.3949828544019703,1.9759263695872988
1687090067.446827,0.9131595492362976,0.35908055305480957,0.19287368655204773,0.02946716547012329,0.27739399671554565,-0.0035733282566070557,0.027104908600449562,0.08123406767845154,0.3937528729438782,1.7789526437190701,-0.36728254134787747,1.9723550311358056
1687090067.488385,0.9179525375366211,0.3469519019126892,0.19231966137886047,-0.033934950828552246,0.23083728551864624,-0.041105180978775024,0.5352333188056946,0.06159549579024315,0.2656763792037964,1.7773185743854205,-0.35431917801994595,1.9559914721131857
1687090067.537904,0.9195821285247803,0.3475441336631775,0.18325233459472656,-0.0382346510887146,0.13365700840950012,-0.032571807503700256,-0.11938631534576416,-0.12786497175693512,-0.10810109972953796,1.767497402394967,-0.3549506921094852,1.936714828622105
1687090067.641042,0.918515145778656,0.3517276644706726,0.18060316145420074,-0.007336556911468506,0.04413110017776489,-0.0036318153142929077,-0.1896769255399704,-0.20458649098873138,-0.17132021486759186,1.7649447177266082,-0.3594160511773173,1.9526183725140875
1687090067.6543279,0.9171518683433533,0.3577418923377991,0.1756506711244583,0.01999717950820923,-0.009139567613601685,0.0064017921686172485,-0.2016504406929016,-0.1322740614414215,-0.17971643805503845,1.7600225328144838,-0.36584862936394086,1.9602207345995781
1687090067.69941,0.9148036241531372,0.3626920282840729,0.17773185670375824,0.0011203289031982422,-0.08170145750045776,0.013430118560791016,-0.42654284834861755,-0.14072100818157196,-0.15262927114963531,1.7626898992532503,-0.37115499987909956,1.9847587597488812
1687090067.7425551,0.9141936302185059,0.3656855821609497,0.1747106909751892,-0.01485598087310791,-0.0010463297367095947,-0.017896294593811035,0.11586476862430573,-0.09518442302942276,-0.025166871026158333,1.7596284854087878,-0.3743693029635032,1.993752185347022
1687090067.793164,0.9142553210258484,0.36809542775154114,0.16924111545085907,0.01669842004776001,-0.04938516020774841,0.03807996213436127,0.03496363013982773,-0.04678488150238991,-0.02023458667099476,1.7538379571731644,-0.37695978391406515,1.9876410080182638
1687090067.8376632,0.914473295211792,0.36854302883148193,0.16707535088062286,0.007142066955566406,-0.02021545171737671,0.01792202889919281,0.13474881649017334,-0.0023018340580165386,0.013247407972812653,1.75150443272871,-0.377441235299584,1.9849997672230721
1687090067.898972,0.9145188331604004,0.366891086101532,0.17042940855026245,0.019242703914642334,-0.02718469500541687,0.004680275917053223,-0.044850826263427734,0.06106366589665413,0.001273459056392312,1.7550424311954242,-0.3756648313176981,1.9826184869616261
1687090067.944497,0.9146048426628113,0.36488401889801025,0.17423398792743683,-0.0038383007049560547,1.4662742614746094e-05,-0.011712789535522461,0.11301294714212418,0.01750079356133938,0.036882031708955765,1.759042675009879,-0.37350821569241965,1.9827584980787547
1687090067.986217,0.9155290722846985,0.3629089891910553,0.1735038310289383,0.00019663572311401367,0.002813667058944702,-0.007717117667198181,0.07358000427484512,0.03758459538221359,0.039221640676259995,1.758087326845051,-0.37138781830180967,1.9762981488280216
1687090068.065217,0.9155799746513367,0.3628922402858734,0.17326940596103668,0.005882859230041504,-0.0028001070022583008,-0.012060403823852539,0.024182677268981934,0.055928606539964676,-0.01094292663037777,1.7578299810555247,-0.37136984643827814,1.9719685830426896
1687090068.103869,0.9152721166610718,0.3631706237792969,0.17431026697158813,0.0028949975967407227,-0.0017356574535369873,-0.004495248198509216,0.005006372928619385,0.017748892307281494,0.0013368199579417706,1.7589890609873202,-0.3716686021322485,1.9726890759875249
1687090068.142844,0.9156231880187988,0.36302345991134644,0.17276635766029358,-0.002247333526611328,0.0010817646980285645,-0.015524610877037048,0.01476126629859209,0.009423051960766315,0.005256660282611847,1.7572908982350142,-0.37151068101275675,1.9694108115625346
1687090068.18993,0.9154878258705139,0.36264505982398987,0.1742711067199707,0.010903656482696533,-0.010472238063812256,0.0004571676254272461,-0.06869421154260635,0.009257403202354908,-0.005493322852998972,1.7589044977271695,-0.37110460744046286,1.9732372623536387
1687090068.2428331,0.9157925844192505,0.36269327998161316,0.17256084084510803,0.005182027816772461,-0.004386425018310547,-0.016097307205200195,-0.011672845110297203,0.0013661375269293785,0.0019926007371395826,1.7570404857842894,-0.371156357491458,1.9724727674124773
1687090068.2869039,0.9158402681350708,0.36185142397880554,0.1740688979625702,-0.0032885074615478516,-0.01361536979675293,-0.003079056739807129,-0.042798060923814774,-0.008444574661552906,0.009053396061062813,1.7586207156481692,-0.37025313681048655,1.976319840310466
1687090068.3366442,0.9163965582847595,0.36149075627326965,0.1718764752149582,4.6193599700927734e-05,0.001576840877532959,-0.002717733383178711,0.022602302953600883,0.004861270077526569,0.008111235685646534,1.7561992120526184,-0.369866275073614,1.9742376359359386
1687090068.406832,0.9163403511047363,0.3609393835067749,0.17332826554775238,0.0002701282501220703,-0.004173696041107178,0.010189041495323181,-0.09181961417198181,-0.002770550549030304,-0.0003764140419661999,1.7577403885199765,-0.36927497907139517,1.9779475394768555
1687090068.4423652,0.9164950847625732,0.3608512282371521,0.17269238829612732,0.0022668838500976562,0.018665313720703125,-0.005746141076087952,0.06212015450000763,-0.011485478840768337,0.008800306357443333,1.7570396100003989,-0.3691804555315384,1.9774130248473964
1687090068.488635,0.9163572192192078,0.360764741897583,0.17360317707061768,0.0006806254386901855,0.0012347400188446045,0.0035970211029052734,-0.04553472250699997,0.002451215870678425,-0.015506098046898842,1.7580266471137842,-0.3690877268498435,1.978281765563367
1687090068.541864,0.9160594940185547,0.36182308197021484,0.17297077178955078,0.004548907279968262,0.0044946372509002686,0.002138972282409668,0.010873530060052872,-0.007331852801144123,-0.020964091643691063,1.757419581821399,-0.3702227367189953,1.9793749208741713
1687090068.599555,0.91575688123703,0.36254239082336426,0.17306645214557648,0.00184553861618042,-0.008187621831893921,-0.003922954201698303,-0.03180170804262161,-0.0213170163333416,-0.010803842917084694,1.7575807152703127,-0.37099444076531746,1.9800588988529
1687090068.641244,0.9156724810600281,0.36267951130867004,0.17322616279125214,0.001289069652557373,-0.004036962985992432,-0.005913734436035156,-0.016498759388923645,-0.025264672935009003,-0.0008279746398329735,1.7577659256307414,-0.3711415577910329,1.9818157825858034
1687090068.707535,0.9158331155776978,0.362541139125824,0.17266488075256348,0.00607222318649292,0.00157928466796875,0.0018497556447982788,0.010418448597192764,-0.00953199714422226,-0.009383512660861015,1.7571421211088656,-0.370993092821375,1.9827121723042171
1687090068.744087,0.9157150387763977,0.363369882106781,0.17154571413993835,0.007548332214355469,-0.010678291320800781,-0.002844706177711487,0.04141700640320778,-0.006109355017542839,-0.01840323954820633,1.7559851381664044,-0.3718824733711162,1.9809873328398568
1687090068.786798,0.9153991937637329,0.36470115184783936,0.17040252685546875,-0.005624592304229736,-0.003525674343109131,-0.011802807450294495,-0.016485709697008133,-0.024540826678276062,-0.03589015454053879,1.7548408256963204,-0.3733118390099997,1.9801439075506109
1687090068.842083,0.9154168963432312,0.36576640605926514,0.1680080145597458,0.000903785228729248,0.010210126638412476,-0.010705351829528809,-0.037889108061790466,-0.07104633003473282,-0.02962065488100052,1.7523080011202183,-0.37445612403041173,1.9807703740747964
1687090068.889703,0.9150895476341248,0.36806589365005493,0.16473804414272308,0.0075179338455200195,0.005881309509277344,-0.03801389038562775,-0.1767229437828064,-0.13698315620422363,-0.10346262902021408,1.7489124665985976,-0.37692802211302256,1.9865169791594728
1687090068.951961,0.9144989848136902,0.3716280162334442,0.15995018184185028,0.022985637187957764,0.0307462215423584,-0.05294036865234375,-0.2080216407775879,-0.2048143446445465,-0.1479491889476776,1.743949536984141,-0.38076202471762516,1.9986622281181805
1687090069.009403,0.912787914276123,0.37985891103744507,0.15008440613746643,0.0034869909286499023,0.055779486894607544,-0.060500144958496094,-0.3014683723449707,-0.30828022956848145,-0.28280845284461975,1.7337623445152153,-0.38964376827129,2.0126009233773434
1687090069.242989,0.9082633256912231,0.39490485191345215,0.1382293552160263,-0.003844618797302246,0.1279679536819458,-0.08935560286045074,-0.24164676666259766,-0.5018459558486938,-0.4705362915992737,1.7218282063130037,-0.40596429171576354,2.031760770616947
1687090069.2487578,0.900017261505127,0.41891226172447205,0.12033835053443909,0.039359450340270996,0.15742740035057068,-0.05939483642578125,-0.4553792178630829,-0.5827353000640869,-0.7132692337036133,1.7037147054963995,-0.4322470823214661,2.0555254196435837
1687090069.2692652,0.8854660987854004,0.45464232563972473,0.09617654234170914,0.11345040798187256,0.2516259253025055,-0.0618290901184082,0.20335961878299713,-0.699454128742218,-0.9392563104629517,1.6789890402426364,-0.47197061141099206,2.070205844258804
1687090069.278048,0.8615051507949829,0.5032789707183838,0.06722045689821243,0.08737766742706299,0.19479519128799438,0.02501879632472992,-0.3717762529850006,-0.5461739301681519,-1.2917664051055908,1.6486653236779756,-0.527389176251414,2.0743817652825562
1687090069.294682,0.8228403329849243,0.5655727386474609,0.05532709136605263,0.06831854581832886,0.27825355529785156,-0.027678251266479492,0.25060513615608215,-0.3704758584499359,-1.6721694469451904,1.6379344266347207,-0.6011275474666418,2.096445782701788
1687090069.329691,0.7649795413017273,0.6436710357666016,0.022215213626623154,0.12018263339996338,0.29326432943344116,-0.00834500789642334,0.5114855170249939,-0.2626737058162689,-2.2044224739074707,1.5998284375600231,-0.6992854792659494,2.06107389569963
1687090069.38931,0.6778015494346619,0.7351223230361938,0.013413536362349987,0.1969388723373413,0.2753450870513916,0.08874392509460449,-0.08248890936374664,-0.07048498839139938,-2.8495841026306152,1.590583513536283,-0.8258470707660265,2.0598499060727775
1687090069.4506059,0.556328296661377,0.830935001373291,-0.006749440915882587,0.322593092918396,0.28062182664871216,0.04959607124328613,0.9895340204238892,-0.11409734189510345,-3.2992515563964844,1.558664802546132,-0.9807860696436101,2.0255090537749734
1687090069.512847,0.4056572914123535,0.9122544527053833,-0.056864410638809204,0.35093438625335693,0.22876709699630737,0.08196508884429932,1.0046061277389526,-0.21695053577423096,-3.5610694885253906,1.4315253725173929,-1.1487544952464743,1.8899540606910676
1687090069.600837,0.23337322473526,0.9650363326072693,-0.11933819204568863,0.4190925359725952,0.21939653158187866,0.13960182666778564,1.6206345558166504,-0.2986936569213867,-3.723737955093384,1.0981005050399064,-1.305581859286447,1.5500609058447756
1687090069.613882,0.043210648000240326,0.9767980575561523,-0.2097572237253189,0.4661582410335541,0.23655015230178833,0.16758187115192413,1.7701090574264526,-0.4677591621875763,-3.9054603576660156,0.2031610906193273,-1.354961965265228,0.6526570350557324
1687090069.658574,-0.15158702433109283,0.9483663439750671,-0.27860820293426514,0.46416330337524414,0.12019133567810059,0.21796974539756775,1.0843931436538696,-0.5052313804626465,-3.9166321754455566,-0.4982919117831777,-1.2480450164169083,-0.04694127415894357
1687090069.814009,-0.33925923705101013,0.8875976204872131,-0.31156617403030396,0.45704185962677,0.12154227495193481,0.17519831657409668,0.7962853312492371,-0.49744361639022827,-3.8300275802612305,-0.8279232000856843,-1.0921031874518683,-0.3760221730816714
1687090069.819943,-0.5050867795944214,0.7953445315361023,-0.33513331413269043,0.41293901205062866,0.08003687858581543,0.17271870374679565,0.6605874300003052,-0.35202381014823914,-3.675459384918213,-0.9849779271749268,-0.9195757558578674,-0.5357049521499322
1687090069.874796,-0.6406997442245483,0.6844875812530518,-0.34782248735427856,0.3776687979698181,0.016012847423553467,0.1796705722808838,0.46547698974609375,-0.14724154770374298,-3.3849782943725586,-1.0734366501212425,-0.7539005698614356,-0.6376151943497402
1687090069.8871632,-0.7436941862106323,0.5629804134368896,-0.360516220331192,0.3235130310058594,0.031730830669403076,0.12128883600234985,0.6160804033279419,-0.06411918252706528,-3.103640556335449,-1.1194115958560702,-0.5979875596981372,-0.7028488052318701
1687090069.8904428,-0.8190018534660339,0.4325989782810211,-0.3769533634185791,0.2902238965034485,0.04542827606201172,0.1323854625225067,0.7677636742591858,-0.01074187085032463,-2.849013090133667,-1.1394434487173994,-0.44737346924126137,-0.7392622398378633
1687090069.96211,-0.8695089817047119,0.30289748311042786,-0.39013728499412537,0.25169599056243896,0.04651346802711487,0.09318596124649048,0.7344858646392822,0.006412348710000515,-2.6208033561706543,-1.149034910590788,-0.3077315075234033,-0.7637979441506648
1687090070.052568,-0.9007189273834229,0.1756630390882492,-0.39730072021484375,0.2707294225692749,0.0482444167137146,0.05046844482421875,0.7797255516052246,-0.1027226597070694,-2.455087423324585,-1.1553741786676806,-0.1765792356603844,-0.7803926210737623
1687090070.066684,-0.916101336479187,0.05443383753299713,-0.3972344994544983,0.2388553023338318,0.03013037145137787,0.06073242425918579,0.41275426745414734,-0.10436949878931046,-2.265230417251587,-1.161652082433412,-0.05446075636557005,-0.7967105282562643
1687090070.110918,-0.9182672500610352,-0.049144625663757324,-0.39289939403533936,0.1686335802078247,-0.00705350935459137,0.026932597160339355,0.17312560975551605,-0.10610487312078476,-2.0531139373779297,-1.1664969290548632,0.049164430235035125,-0.8295063960408037
1687090070.291312,-0.9111206531524658,-0.14374355971813202,-0.3862602114677429,0.1748383641242981,0.008092924952507019,0.06701582670211792,0.2569451332092285,-0.10354503989219666,-1.8796312808990479,-1.169824099695108,0.14424322820966365,-0.8578324037764206
1687090070.305515,-0.8960599303245544,-0.22927150130271912,-0.3801458775997162,0.16186821460723877,-0.007544875144958496,0.05684259533882141,0.1441221386194229,-0.03720612823963165,-1.7135009765625,-1.169568268204975,0.23132918241483644,-0.8827548666944137
1687090070.3817868,-0.8741053342819214,-0.3028430640697479,-0.3797708749771118,0.14539146423339844,0.021608352661132812,0.08828216791152954,-0.026820585131645203,0.07525623589754105,-1.5809290409088135,-1.1609335388789268,0.3076743920339136,-0.914209915987291
1687090070.3877401,-0.8461924195289612,-0.3675125241279602,-0.38586604595184326,0.134232759475708,0.04788669943809509,0.07229796051979065,-0.13957734405994415,0.167652428150177,-1.518371820449829,-1.1429617464841348,0.37633293966311654,-0.9521783235324343
1687090070.392074,-0.8135254383087158,-0.42875906825065613,-0.39286351203918457,0.10937827825546265,0.04837283492088318,0.02933812141418457,0.14953286945819855,0.16520902514457703,-1.452811360359192,-1.1209100044880371,0.44311873274284874,-0.9869605819648276
1687090070.401931,-0.7773458361625671,-0.488104909658432,-0.396846204996109,0.11090308427810669,0.00160902738571167,0.011226058006286621,0.02168106473982334,0.12525729835033417,-1.4026033878326416,-1.098772670638625,0.5099171320967736,-1.0173323527150882
1687090070.506915,-0.7413951754570007,-0.5395129323005676,-0.3990723490715027,0.07800418138504028,0.015709340572357178,-0.0550292432308197,0.04389778897166252,0.030301809310913086,-1.2791552543640137,-1.077001817764712,0.5698585277509366,-1.052118296393685
1687090070.5215812,-0.7070327401161194,-0.5836434364318848,-0.3993304669857025,0.03648543357849121,-0.032613158226013184,-0.027152687311172485,-0.047995008528232574,0.014748736284673214,-1.1369706392288208,-1.0566631541763987,0.623208411225184,-1.0866989542437586
1687090070.5580978,-0.673577606678009,-0.6164288520812988,-0.4078095257282257,0.030404508113861084,-0.060191571712493896,0.03807380795478821,-0.34675517678260803,0.09737645089626312,-1.024286150932312,-1.0263878503944885,0.6641992750471687,-1.132535697226468
1687090070.652845,-0.640723705291748,-0.6447064280509949,-0.41692525148391724,-0.007805287837982178,0.025504887104034424,0.012506276369094849,0.03288593888282776,0.11589063704013824,-0.9132143259048462,-0.9939222020874594,0.7006392041379532,-1.1759299249643294
1687090070.666294,-0.6095994114875793,-0.6728018522262573,-0.4191969931125641,0.03127610683441162,-0.0099983811378479,0.0252455472946167,0.025655724108219147,0.13075187802314758,-0.826533317565918,-0.9684004934341306,0.7379894649815762,-1.2058340613316272
1687090070.707557,-0.5812094807624817,-0.6982173919677734,-0.4179568290710449,0.033373236656188965,0.0007382631301879883,-0.0032010674476623535,0.26551321148872375,0.1069980263710022,-0.6817913055419922,-0.9473559494154127,0.7729043673366045,-1.227618323454848
1687090070.8029451,-0.5562626719474792,-0.7213786244392395,-0.412534236907959,0.0210607647895813,-0.04867130517959595,0.030423671007156372,0.19393889605998993,0.14791269600391388,-0.5560892820358276,-0.9326815436005312,0.8057909091039593,-1.2387616914678146
1687090070.817525,-0.5357378721237183,-0.7359064221382141,-0.4140368103981018,0.04576301574707031,-0.05506330728530884,0.02054312825202942,0.03012392483651638,0.16899709403514862,-0.37046876549720764,-0.9128404983126422,0.8270044086214339,-1.254845057191533
1687090070.92661,-0.5202955007553101,-0.7446104884147644,-0.41814807057380676,0.009492337703704834,-0.04049992561340332,0.031948089599609375,0.0959378257393837,0.3123028576374054,-0.17131772637367249,-0.8938190487070408,0.8399510987489869,-1.2640933902145448
1687090071.043354,-0.5096320509910583,-0.7491135001182556,-0.4232068359851837,0.009845733642578125,-0.07881301641464233,0.03412294387817383,0.11854619532823563,0.3371962308883667,-0.029901927337050438,-0.8777819473417013,0.8467228696320444,-1.2618460161369636
1687090071.047978,-0.5052270293235779,-0.7516107559204102,-0.42406001687049866,0.02011960744857788,-0.035941123962402344,-0.053051888942718506,0.17492254078388214,0.15296508371829987,0.06329293549060822,-0.8725203720224635,0.8505007090190457,-1.2519813322925915
1687090071.052226,-0.5056857466697693,-0.7502352595329285,-0.4259447753429413,0.026422500610351562,-0.03803372383117676,-0.028523027896881104,-0.22781915962696075,0.02590429037809372,0.02307216450572014,-0.8707829377911401,0.8484177923296924,-1.2509560677088922
1687090071.130426,-0.5041223764419556,-0.7461509704589844,-0.43487831950187683,-0.015363037586212158,0.023433804512023926,0.03218361735343933,-0.13226254284381866,0.025229711085557938,-0.024254072457551956,-0.859007178289697,0.8422619350786358,-1.2639587613358363
1687090071.135273,-0.5013629198074341,-0.7462077140808105,-0.4379599690437317,-0.015330076217651367,0.013389229774475098,0.014345526695251465,0.01551967952400446,0.029917249456048012,-0.024359755218029022,-0.8527945071137113,0.842347192550513,-1.2697290728756345
1687090071.222876,-0.5026137828826904,-0.745220959186554,-0.43820643424987793,0.009404003620147705,-0.021639883518218994,0.019459545612335205,-0.06692613661289215,0.09984056651592255,0.05034266784787178,-0.8537502017794723,0.8408661206033875,-1.2672409463525534
1687090071.2361221,-0.5045450329780579,-0.7423827648162842,-0.4407971501350403,0.014066576957702637,-0.025424182415008545,-0.003020048141479492,-0.061637260019779205,0.06868669390678406,0.07810895889997482,-0.8527298782458982,0.8366198505485786,-1.264474365547589
1687090071.3135262,-0.5069634318351746,-0.7410774230957031,-0.4402181804180145,-0.007318675518035889,0.010028958320617676,-0.026975363492965698,-0.0635756179690361,-0.006395592354238033,0.059444840997457504,-0.8557490765991789,0.8346736487615055,-1.2611627899228262
1687090071.3194242,-0.5070427060127258,-0.7396373152732849,-0.4425428509712219,0.002129495143890381,0.023694992065429688,-0.0030596256256103516,0.024281853809952736,0.033850524574518204,0.043608374893665314,-0.8532182408504835,0.8325312600444688,-1.2620992956313568
1687090071.4925032,-0.5072953104972839,-0.7380062937736511,-0.4449697732925415,0.019151389598846436,0.008880376815795898,-0.003226637840270996,0.0029975506477057934,0.03792393580079079,0.0562826469540596,-0.8507547258142905,0.8301109866941402,-1.2608899154573563
1687090071.498639,-0.5085952877998352,-0.7355442047119141,-0.4475547969341278,0.0018967390060424805,0.005777478218078613,0.00154036283493042,-0.007505796849727631,0.029041973873972893,0.033969685435295105,-0.8491514926395262,0.8264696350401701,-1.2605092258181088
1687090071.517582,-0.50920569896698,-0.7350956797599792,-0.44759780168533325,0.006276071071624756,0.0009954571723937988,-0.012637823820114136,-0.017135467380285263,0.013438939116895199,0.03499864041805267,-0.8496986549862174,0.8258077811628763,-1.2579400530123683
1687090071.526407,-0.5096582770347595,-0.7330397367477417,-0.4504455029964447,0.002974987030029297,0.010169923305511475,0.010778665542602539,-0.05873335152864456,0.015884999185800552,0.029713621363043785,-0.8469934573786426,0.8227802162215104,-1.2597412105529449
1687090071.52931,-0.5098333358764648,-0.7316656112670898,-0.45247671008110046,-0.00011527538299560547,0.010398030281066895,0.012230128049850464,0.04553968459367752,0.041037436574697495,0.04139091819524765,-0.8449308092243549,0.8207622069999101,-1.259958612664984
1687090071.609846,-0.5109490156173706,-0.7310981154441833,-0.4521355628967285,0.005043923854827881,-0.000362396240234375,-0.006024837493896484,0.03255528211593628,0.03661184757947922,0.059809476137161255,-0.8463901842111604,0.8199300585134267,-1.2550631357239326
1687090071.7595348,-0.5129494071006775,-0.7297852039337158,-0.45199158787727356,0.00686115026473999,-0.005245804786682129,-0.0007824897766113281,-0.02363869547843933,0.01566465012729168,0.0560259185731411,-0.848486909733227,0.8180077444783378,-1.2513204749886961
1687090071.765487,-0.5140296816825867,-0.7277790307998657,-0.45399466156959534,0.00804823637008667,0.002010047435760498,0.003875553607940674,-0.035715118050575256,0.022868074476718903,0.054349616169929504,-0.8473369151857499,0.8150778981479844,-1.2511819992373483
1687090071.854866,-0.5145848393440247,-0.7259066700935364,-0.45635709166526794,-0.000536501407623291,0.011566579341888428,0.01740744709968567,0.024365315213799477,0.043798014521598816,0.047523245215415955,-0.8452967837952264,0.8123517450251896,-1.2507614431316876
1687090071.869694,-0.5158843398094177,-0.7246943116188049,-0.4568164646625519,0.013137876987457275,-0.019171535968780518,0.00482061505317688,-0.0867011770606041,0.03368018940091133,0.06353335082530975,-0.8460493368803582,0.8105906456410504,-1.2480190372468538
1687090071.87352,-0.5183342695236206,-0.7213830947875977,-0.4592776894569397,0.0071800947189331055,-0.0036229491233825684,0.0005221366882324219,-0.03697117045521736,-0.0027691656723618507,0.07146796584129333,-0.8457338597145132,0.8057973667142698,-1.2475833038430149
1687090071.906321,-0.52108234167099,-0.7176581621170044,-0.46199536323547363,0.005350589752197266,-0.028649091720581055,0.0011494159698486328,-0.10610299557447433,0.0009846133179962635,0.11643828451633453,-0.8454300495551212,0.8004336738187805,-1.247672782113393
1687090072.063085,-0.5256743431091309,-0.7134482860565186,-0.46331191062927246,0.014184534549713135,-0.012107014656066895,-0.008184671401977539,-0.06106462702155113,-0.019885621964931488,0.15418411791324615,-0.848371709179861,0.794407138264892,-1.2448249229316863
1687090072.068719,-0.5322126150131226,-0.7072821259498596,-0.46529731154441833,0.006303250789642334,-0.025582194328308105,-0.012730062007904053,-0.12556830048561096,-0.039462678134441376,0.22663326561450958,-0.8523801320369175,0.7856461954287565,-1.2411197051240288
1687090072.187381,-0.5415168404579163,-0.6962525844573975,-0.47116008400917053,0.022184014320373535,-0.039144694805145264,0.0009452104568481445,-0.19177433848381042,-0.08665767312049866,0.3125838339328766,-0.854762731218171,0.7701634755700014,-1.2399710520684541
1687090072.199578,-0.5562935471534729,-0.6832826733589172,-0.472929447889328,0.018039822578430176,-0.05942356586456299,-0.009721338748931885,-0.07406586408615112,-0.1244715228676796,0.4416861832141876,-0.8662188640959965,0.7522490730098612,-1.2308943998536703
1687090072.203357,-0.5761091709136963,-0.6671204566955566,-0.47228002548217773,0.025587379932403564,-0.055550992488861084,0.017690181732177734,-0.1715286523103714,-0.09710455685853958,0.5682963728904724,-0.8841130651623696,0.7303366777123567,-1.2132422261747735
1687090072.269366,-0.6002238988876343,-0.6450662016868591,-0.47288551926612854,0.07883113622665405,-0.034300804138183594,-0.008239388465881348,-0.1436057835817337,-0.17293360829353333,0.6945433020591736,-0.9035088531628529,0.7011099082706967,-1.1944500011490116
1687090072.2818398,-0.628465473651886,-0.6183659434318542,-0.47186267375946045,0.06900209188461304,-0.0453149676322937,0.017867982387542725,-0.07687171548604965,-0.1870465874671936,0.8153791427612305,-0.9267723984239684,0.6666617775795246,-1.171887113864621
1687090072.366387,-0.6601695418357849,-0.5891266465187073,-0.4659460186958313,0.09919553995132446,-0.06443768739700317,0.0157201886177063,-0.02138688415288925,-0.20893192291259766,0.9788022637367249,-0.9561899771581174,0.6299775865056824,-1.1403283830897106
1687090072.380156,-0.6944999098777771,-0.5511634945869446,-0.46248072385787964,0.10480886697769165,-0.07681185007095337,0.04649561643600464,-0.1805713176727295,-0.13038496673107147,1.1586804389953613,-0.9833114954051664,0.5837579866178043,-1.1075516264281475
1687090072.4509711,-0.7307372689247131,-0.5012131929397583,-0.46347397565841675,0.13448494672775269,-0.06737494468688965,0.043536871671676636,-0.3931557536125183,-0.18548069894313812,1.308174729347229,-1.0055691960592927,0.5250002094660258,-1.0804255388478947
1687090072.4647012,-0.7684304118156433,-0.4324357211589813,-0.4717138111591339,0.13807463645935059,-0.1089765727519989,0.04524588584899902,-0.8484104871749878,-0.23429304361343384,1.5191799402236938,-1.0202431037072182,0.4471923941743744,-1.0703833651929522
1687090072.574009,-0.8068216443061829,-0.346721887588501,-0.4783540964126587,0.2031077742576599,-0.12024277448654175,0.1015993058681488,-1.0289220809936523,-0.35490426421165466,1.682469129562378,-1.035623357046228,0.3540739256136685,-1.0690988968263921
1687090072.6346068,-0.8418238759040833,-0.24683386087417603,-0.48000574111938477,0.1675533652305603,-0.10747520625591278,0.09729999303817749,-1.1920583248138428,-0.377588152885437,1.8234226703643799,-1.0525788694694311,0.24941165268271068,-1.0726446477050677
1687090072.648159,-0.8698763251304626,-0.13596712052822113,-0.4741602838039398,0.1504550576210022,-0.08372893929481506,0.12770944833755493,-1.3374427556991577,-0.41526976227760315,1.9346896409988403,-1.071731134426429,0.13638957805167737,-1.0821011202288693
1687090072.65202,-0.8869418501853943,-0.011920391581952572,-0.4617272913455963,0.20090675354003906,-0.10236795246601105,0.14602291584014893,-1.7073092460632324,-0.3826245963573456,2.0380783081054688,-1.090817859378042,0.011920674066509393,-1.1034526070976582
1687090072.686069,-0.8911965489387512,0.11560994386672974,-0.4386376142501831,0.15386146306991577,-0.007715083658695221,0.10407334566116333,-1.585047721862793,-0.46256378293037415,2.0513408184051514,-1.1134165886276337,-0.1158690396792176,-1.1303206320987584
1687090072.751484,-0.8814557194709778,0.24164946377277374,-0.40575993061065674,0.08648818731307983,-0.005016222596168518,0.09239014983177185,-1.577980399131775,-0.4362858831882477,2.0538604259490967,-1.1393857809181418,-0.24406533676720074,-1.1580569994823875
1687090072.813352,-0.8579045534133911,0.3624992370605469,-0.36413446068763733,0.10096192359924316,0.013187319040298462,0.11721673607826233,-1.417271375656128,-0.3493846356868744,2.112725257873535,-1.1693947204229818,-0.37094813903265067,-1.188026375857363
1687090072.899451,-0.8208456635475159,0.4716172516345978,-0.32216355204582214,0.11559981107711792,0.03529486060142517,0.08893290162086487,-1.1426151990890503,-0.3475026786327362,2.0745387077331543,-1.1967915387171268,-0.4911239141182235,-1.2091517085194508
1687090072.9139872,-0.772102952003479,0.5718842148780823,-0.2771374583244324,0.08696824312210083,0.027374088764190674,0.06220218539237976,-1.2278811931610107,-0.36801615357398987,2.0611963272094727,-1.226180769127845,-0.6088008985538318,-1.230157932482634
1687090072.957814,-0.7131262421607971,0.6635280847549438,-0.22623279690742493,0.1010199785232544,0.0346834659576416,0.029073894023895264,-1.099108338356018,-0.4193893373012543,2.067091226577759,-1.2635982028872066,-0.7255247322650733,-1.261029101914102
1687090073.05461,-0.6452598571777344,0.743279218673706,-0.1765659749507904,0.10325247049331665,0.016608357429504395,0.013510465621948242,-0.8701761960983276,-0.4665292203426361,2.0624024868011475,-1.3036991666538005,-0.8379588889743088,-1.2863911819334886
1687090073.069364,-0.5696576833724976,0.811646580696106,-0.12930451333522797,0.10406631231307983,0.014830291271209717,0.027329936623573303,-0.9573456645011902,-0.4667541980743408,2.057971954345703,-1.3475920564041228,-0.9469654312663466,-1.3111355680097314
1687090073.140461,-0.48363545536994934,0.8724332451820374,-0.07040607184171677,0.12772423028945923,0.011599898338317871,0.018388748168945312,-1.1327943801879883,-0.4740006625652313,2.0960986614227295,-1.4262350960833379,-1.0601590670310845,-1.377503190641349
1687090073.2308521,-0.3875029683113098,0.9217658042907715,-0.013740606606006622,0.11122739315032959,-0.015058279037475586,0.008934021927416325,-0.941507875919342,-0.5593433380126953,2.207284450531006,-1.5353518193055362,-1.1726101654514358,-1.4706866443392834
1687090073.237029,-0.2813381254673004,0.9584593176841736,0.04694939777255058,0.09757652878761292,-0.0070740580558776855,-0.009901173412799835,-1.1130222082138062,-0.6806945204734802,2.282374382019043,-1.7361515106315781,-1.2815507616453075,-1.6502920730503274
1687090073.3210769,-0.16521203517913818,0.981060802936554,0.10111427307128906,0.11365260183811188,0.028460383415222168,0.0012111514806747437,-0.7145109176635742,-0.862206220626831,2.3824870586395264,-2.1200125281281053,-1.3758642511359518,-2.0075781937796466
1687090073.334292,-0.04388849809765816,0.9896076321601868,0.13693110644817352,0.027149595320224762,0.03176969289779663,0.03611871600151062,-0.7039192914962769,-0.8928546905517578,2.376744270324707,-2.8314224694185963,-1.426501873232796,-2.6818116975458137
1687090073.4132318,0.08405449986457825,0.9816498160362244,0.17116707563400269,0.054769955575466156,0.10343301296234131,0.043935999274253845,-0.657180905342102,-0.8056824803352356,2.4332096576690674,2.685116957486188,-1.3789288004276778,2.869246890851534
1687090073.418602,0.20504868030548096,0.9589244723320007,0.19600674510002136,0.12609750032424927,0.10513180494308472,0.0931471586227417,-0.5423601269721985,-0.6613892912864685,2.302027702331543,2.333652958447378,-1.2831859105229988,2.5455473098713957
1687090073.5008411,0.3193915784358978,0.9254370331764221,0.20385079085826874,0.04449993371963501,0.16021043062210083,0.08045077323913574,-0.17195966839790344,-0.5125787854194641,2.27382493019104,2.1388650941779277,-1.182187358027134,2.3702236451464542
1687090073.515413,0.42467716336250305,0.8814906477928162,0.2064540684223175,0.06514513492584229,0.11551856994628906,0.06113922595977783,-0.410493403673172,-0.5468371510505676,2.083559513092041,2.0232974440773406,-1.0790097551670315,2.269307077744465
1687090073.558845,0.5152075886726379,0.83001708984375,0.21361799538135529,0.023076653480529785,0.1107940673828125,0.06476321816444397,-0.5317543745040894,-0.5996491312980652,1.925094723701477,1.9638465930687434,-0.9791382922553173,2.2360367171565048
1687090073.6540189,0.5998401045799255,0.7711217999458313,0.2134547084569931,0.07903861999511719,0.07436776161193848,0.03356972336769104,-0.06836201250553131,-0.5619668960571289,1.9592726230621338,1.9126755579976191,-0.8806012231043574,2.206327880546588
1687090073.6686702,0.6772947907447815,0.7114602327346802,0.18733833730220795,0.06945496797561646,0.1231037974357605,0.061150893568992615,0.1688525527715683,-0.5891953706741333,1.832896113395691,1.8406475101655149,-0.7915740163873392,2.14848857341508
1687090073.742506,0.7404902577400208,0.6503199338912964,0.16958151757717133,0.0664706826210022,0.04499250650405884,0.06917262077331543,-0.5131439566612244,-0.7111532688140869,1.5729680061340332,1.7959266103041476,-0.7080054830803509,2.1319716579456323
1687090073.831753,0.7952455282211304,0.5846115350723267,0.16066712141036987,0.057095229625701904,0.12138205766677856,0.09044672548770905,-0.2259238362312317,-0.5073304772377014,1.6348845958709717,1.770147479507577,-0.6244011948414546,2.139451120992127
1687090073.838203,0.8406221270561218,0.5212650299072266,0.14709584414958954,0.0592648983001709,0.20201677083969116,0.06585574150085449,0.05524509400129318,-0.12632423639297485,1.4182103872299194,1.7440269600481628,-0.5483326252560001,2.122457958591673
1687090073.9214659,0.8715580701828003,0.46715110540390015,0.14884968101978302,0.07964426279067993,0.22315651178359985,0.05696083605289459,0.4615152180194855,0.3462678790092468,1.180557131767273,1.7399500450735048,-0.4860659413583385,2.1024913142207775
1687090073.934842,0.8904321789741516,0.42900386452674866,0.15194103121757507,0.03435713052749634,0.24212339520454407,-0.011453509330749512,0.9769695997238159,0.5583387613296509,0.8774299025535583,1.7398059240307182,-0.443389717120858,2.0500558168720353
1687090074.013926,0.9014583230018616,0.40252265334129333,0.15921178460121155,-0.020339608192443848,0.16075557470321655,-0.03827069699764252,0.5270984172821045,0.3877198100090027,0.5646316409111023,1.7456093494567442,-0.4142709386934604,2.002039731285931
1687090074.01911,0.9088884592056274,0.38300246000289917,0.16501709818840027,-0.07188296318054199,0.12624430656433105,-0.0275050550699234,0.2805332839488983,0.1795998364686966,0.44506049156188965,1.7503991720342384,-0.3930444175158289,1.9793834799220846
1687090074.099195,0.9158580303192139,0.3674745261669159,0.1617603600025177,-0.012598872184753418,0.12456035614013672,-0.07649433612823486,0.6522546410560608,0.06441919505596161,0.3504539132118225,1.7456150234381658,-0.37629208444151657,1.9477319246943328
1687090074.113768,0.92020183801651,0.3588658571243286,0.1563451737165451,0.01671832799911499,0.025625079870224,-0.0006446689367294312,0.1349918097257614,0.01200791634619236,0.18783435225486755,1.7390923331466117,-0.36705253895145734,1.923816245454215
1687090074.157349,0.9229865670204163,0.35313650965690613,0.15293897688388824,0.00674670934677124,0.05866768956184387,-0.04504416882991791,0.34150823950767517,0.010192705318331718,0.12455671280622482,1.735004429317273,-0.36092150768127595,1.910568451907437
1687090074.25323,0.9238924980163574,0.3527901768684387,0.14819388091564178,0.017406821250915527,0.013207107782363892,-0.012528181076049805,0.04461945593357086,-0.029115870594978333,-0.04195011407136917,1.7298431873825326,-0.3605513309198583,1.8950126504817297
1687090074.26792,0.9224928021430969,0.35530126094818115,0.15088899433612823,-0.0007706880569458008,-0.030624836683273315,0.007054656744003296,-0.19385772943496704,-0.028658552095294,-0.08650894463062286,1.7329271898256884,-0.3632363337580335,1.9065074887187246
1687090074.341588,0.9218266606330872,0.35816386342048645,0.14816850423812866,0.017565250396728516,0.008169084787368774,-0.005743041634559631,0.11487944424152374,-0.01445346511900425,-0.03235822543501854,1.7301667815090653,-0.36630053890426917,1.9056410127368082
1687090074.4299831,0.9214874505996704,0.35889890789985657,0.1485002338886261,0.002996683120727539,-0.051937878131866455,0.02827274799346924,-0.07080455124378204,0.01155022531747818,-0.03573265299201012,1.7305753610702352,-0.36708793715301014,1.9057844663843588
1687090074.436007,0.9209138751029968,0.35983356833457947,0.14978958666324615,-0.0028995871543884277,-0.024201303720474243,0.010076627135276794,-0.10922139883041382,0.032381098717451096,-0.025314075872302055,1.7320374814665243,-0.36808951002241574,1.910797572168985
1687090074.549516,0.9206994771957397,0.3577228784561157,0.15603449940681458,0.008759140968322754,-0.009044259786605835,-0.00027285516262054443,-0.0038311677053570747,0.05563763156533241,-0.0013080541975796223,1.7386750921712504,-0.36582825751711034,1.91515908684247
1687090074.564251,0.9206697940826416,0.3564321994781494,0.1591319441795349,0.012084543704986572,-0.01582556962966919,0.0038318485021591187,0.012057357467710972,0.055070165544748306,0.013165360316634178,1.7419489744133538,-0.3644465078062109,1.9149154349746
1687090074.639305,0.9211029410362244,0.3550432622432709,0.15972977876663208,0.00039058923721313477,-0.007295459508895874,-0.008149132132530212,-0.005334469024091959,0.03900608420372009,0.022099178284406662,1.7425002134196108,-0.3629603377982928,1.9137109669271877
1687090074.6543732,0.9213961958885193,0.35400980710983276,0.160330131649971,0.008489549160003662,0.006830006837844849,-0.01151132583618164,-0.0014401283115148544,0.02335095964372158,-0.004178809002041817,1.74307912216436,-0.36185510926628944,1.9127982158010168
1687090074.783125,0.9214078187942505,0.3537956774234772,0.16073571145534515,-0.0053008198738098145,0.0012457966804504395,-0.0077817440032958984,-0.04133784770965576,0.006619063206017017,-0.007744004484266043,1.7435041903258104,-0.3616261522434126,1.9148768016318374
1687090074.79265,0.9216697216033936,0.35388606786727905,0.15902726352214813,0.0030586719512939453,0.00036197900772094727,-0.0016176551580429077,-0.0007375329732894897,-0.018968908116221428,0.0030454816296696663,1.7416565992739235,-0.36172279940964763,1.9140117171164617
1687090074.882547,0.9217448830604553,0.3536143898963928,0.15919554233551025,0.004921376705169678,-0.017875224351882935,0.01951529085636139,-0.012131068855524063,0.005761472042649984,-0.0002297181636095047,1.7418202231303737,-0.3614323198354027,1.916282431725727
1687090074.89697,0.9219362735748291,0.35332900285720825,0.15871869027614594,0.002227306365966797,-0.0017207562923431396,0.008288607001304626,0.102083221077919,0.03728616237640381,0.02746058814227581,1.7412831086641738,-0.36112724472162977,1.9123519438137182
1687090074.900655,0.9214498400688171,0.3532305955886841,0.16173584759235382,-0.0018483996391296387,-0.0007372796535491943,0.01706661283969879,-0.09357458353042603,0.0236420426517725,-0.017412588000297546,1.7445496236777192,-0.3610220506095206,1.913076042855458
1687090074.9998531,0.9211640357971191,0.3531683087348938,0.16348841786384583,0.005166292190551758,0.023723691701889038,-0.007436886429786682,0.0405406653881073,-0.0009712655446492136,-0.0002619866281747818,1.7464475223226723,-0.36095549862111187,1.9159805400578724
1687090075.014535,0.92079758644104,0.353723406791687,0.16435161232948303,0.005502462387084961,0.000356823205947876,-0.00038073956966400146,-0.0186934694647789,0.010222479701042175,-0.0168458241969347,1.7474246351278102,-0.3615488718807586,1.9144500068439863
1687090075.089366,0.920485258102417,0.35503286123275757,0.1632741540670395,0.003144502639770508,0.011223852634429932,-0.0042013972997665405,0.10762707889080048,-0.005104864481836557,-0.01058206893503666,1.746348740712323,-0.3629492161312706,1.91273382823147
1687090075.104331,0.9203023910522461,0.3560434877872467,0.16209976375102997,0.007431924343109131,-0.017923980951309204,0.006692782044410706,-0.006179116666316986,0.010735617950558662,-0.005736446939408779,1.7451454863757931,-0.36403050528101455,1.909308319124961
1687090075.181155,0.9200348258018494,0.3568407893180847,0.16186414659023285,-0.003546476364135742,0.00334283709526062,0.0007028430700302124,0.0011038831435143948,-0.015298220328986645,-0.010296977125108242,1.744946755746155,-0.36488385933784345,1.9091543595382168
1687090075.186971,0.9202427268028259,0.3564669191837311,0.1615065187215805,-0.0001531839370727539,0.0003292858600616455,-0.010963335633277893,-0.036575693637132645,-0.028173057362437248,-0.01836531236767769,1.7445312326286178,-0.36448364187267246,1.9101692501269973
1687090075.299559,0.9201235771179199,0.3568446636199951,0.16135048866271973,0.009288966655731201,-0.0032528042793273926,-0.002262502908706665,-0.013303391635417938,-0.024833455681800842,-0.018813498318195343,1.7443887621801821,-0.36488797971561815,1.913019123325626
1687090075.313919,0.9201416373252869,0.35764625668525696,0.1594616174697876,-0.0012575984001159668,-0.0010026395320892334,-0.0005109459161758423,0.0040977029129862785,-0.033336661756038666,-0.016890808939933777,1.742393166021582,-0.3657462296849713,1.9125733546937864
1687090075.391467,0.9203185439109802,0.358153760433197,0.15728852152824402,-0.007598817348480225,0.0060430169105529785,-0.008469685912132263,0.03621968626976013,-0.04636165127158165,-0.012142103165388107,1.7400674980528017,-0.3662897344816631,1.911233926664892
1687090075.39746,0.920291543006897,0.35888952016830444,0.15576155483722687,0.004192650318145752,-0.009447962045669556,0.004242077469825745,-0.06922195106744766,-0.046917397528886795,-0.023126600310206413,1.7384597926869367,-0.3670778663844399,1.913059948630424
1687090075.480716,0.9199991226196289,0.36036914587020874,0.15406183898448944,0.005568146705627441,0.012723416090011597,-0.02143266797065735,-0.10507182031869888,-0.06662984937429428,-0.06417667120695114,1.7367155147070097,-0.36866358391597903,1.916291527660862
1687090075.486974,0.9193863868713379,0.3622300922870636,0.15335507690906525,0.007691681385040283,0.009458690881729126,-0.020374789834022522,-0.14572268724441528,-0.10237458348274231,-0.07832323759794235,1.7360762486020518,-0.3706593476403774,1.9253818726550336
1687090075.572052,0.9183879494667053,0.3663966953754425,0.1493884176015854,0.002205193042755127,0.013486087322235107,-0.03615307807922363,-0.26406535506248474,-0.15993951261043549,-0.15522143244743347,1.7320477574185869,-0.37513344996275344,1.9360236154283879
1687090075.586467,0.9170015454292297,0.37232789397239685,0.14310713112354279,0.003896653652191162,0.036821186542510986,-0.053904324769973755,-0.2382713109254837,-0.26743829250335693,-0.19160497188568115,1.7256074510291468,-0.3815159867688214,1.9519208478129266
1687090075.662023,0.9146416783332825,0.3814524710178375,0.13388212025165558,-0.0001519918441772461,0.06324970722198486,-0.046876534819602966,-0.311137855052948,-0.37444424629211426,-0.28688231110572815,1.716140724988701,-0.39136707382190355,1.9679684024171933
1687090075.667255,0.9103906154632568,0.3949849605560303,0.1231905147433281,0.012827157974243164,0.07278850674629211,-0.03211091458797455,-0.44054490327835083,-0.42278873920440674,-0.40829998254776,1.7052954933522966,-0.40605147695403665,1.9907827934404319
1687090075.811652,0.9036117792129517,0.41387975215911865,0.11040373891592026,0.006941020488739014,0.08663901686668396,-0.03606296330690384,-0.2669183015823364,-0.484770268201828,-0.5183089971542358,1.692374245976667,-0.4267118501848883,2.014604501196258
1687090075.903105,0.8937358260154724,0.438783198595047,0.09330413490533829,0.04942518472671509,0.09136819839477539,-0.02569245547056198,-0.330756813287735,-0.4992881715297699,-0.6233800053596497,1.6748174033282663,-0.45424409358119966,2.032591360916581
1687090075.916971,0.8800990581512451,0.4678036868572235,0.08114892244338989,0.028409123420715332,0.07511922717094421,-0.013399958610534668,-0.4401656985282898,-0.5152977705001831,-0.7516227960586548,1.6627406631235795,-0.48680415735446786,2.0611095962729356
1687090075.920926,0.8627057671546936,0.5011963844299316,0.06738431751728058,0.039790451526641846,0.09450668096542358,-0.01632845401763916,-0.3753795921802521,-0.5128728747367859,-0.8561105132102966,1.6487461766040845,-0.5249807746121109,2.0854545967842424
1687090075.9870949,0.8394933342933655,0.5401032567024231,0.059492290019989014,0.05818122625350952,0.0801360011100769,-0.011030428111553192,-0.5076085925102234,-0.4454595744609833,-1.0340263843536377,1.6415449501065866,-0.5705597767537669,2.1180271229339933
1687090075.9968219,0.808704674243927,0.5860795974731445,0.05007254704833031,0.07996708154678345,0.1276044249534607,-0.016854286193847656,-0.08738454431295395,-0.3800687789916992,-1.2647957801818848,1.632634358441095,-0.6262118352502132,2.138339225891962
1687090076.113071,0.766732931137085,0.6403987407684326,0.04482998698949814,0.09409153461456299,0.10523712635040283,0.028640981763601303,-0.3965075612068176,-0.19354061782360077,-1.5253599882125854,1.6291986813140769,-0.6950173164670393,2.1575885402504325
1687090076.118805,0.7085424065589905,0.7037451267242432,0.052060816437006,0.12229859828948975,0.19264763593673706,0.0013142898678779602,-0.009886503219604492,-0.05054504796862602,-1.918530821800232,1.644140462021381,-0.7806553375467447,2.1883005725606655
1687090076.203905,0.6307993531227112,0.774924099445343,0.03980882465839386,0.15949898958206177,0.2174311876296997,7.748603820800781e-05,0.4851020872592926,0.05343828722834587,-2.279667615890503,1.6338212853213112,-0.8865950063909256,2.1743020399246715
1687090076.2169309,0.529496431350708,0.8480890989303589,0.01944940909743309,0.17809933423995972,0.27901649475097656,0.13986754417419434,0.7460137605667114,0.25809791684150696,-2.6890506744384766,1.6075117176268972,-1.012368386940634,2.133036643564666
1687090076.290873,0.4017559289932251,0.9153590202331543,-0.026645267382264137,0.2741473615169525,0.2527470588684082,0.07606840133666992,1.5648725032806396,0.11229883879423141,-3.039090394973755,1.504571289695804,-1.1563987454611133,2.008982776295509
1687090076.305121,0.2519910931587219,0.9624624848365784,-0.1008279025554657,0.3074266016483307,0.2495124340057373,0.09408342838287354,1.4467447996139526,-0.05378909781575203,-3.3796706199645996,1.190182306994267,-1.2959337178110995,1.6737010103622811
1687090076.384544,0.07627271860837936,0.9826189875602722,-0.16923938691616058,0.38199448585510254,0.3331003785133362,0.11175943911075592,1.498693823814392,-0.25199151039123535,-3.7155466079711914,0.4234188457603577,-1.3840794916615458,0.8952707947391226
1687090076.39712,-0.11297988146543503,0.9628406763076782,-0.24530233442783356,0.39239880442619324,0.2827799320220947,0.15149128437042236,1.4907398223876953,-0.29633599519729614,-3.888456344604492,-0.4316124143943973,-1.2973306448887656,0.03547135934922512
1687090076.4401479,-0.30103591084480286,0.904451847076416,-0.3022318184375763,0.43767842650413513,0.18429315090179443,0.1920480728149414,1.0933901071548462,-0.346694678068161,-3.9048800468444824,-0.7834157683926694,-1.13009298023888,-0.3213007895847405
1687090076.450982,-0.47192901372909546,0.8119283318519592,-0.34359171986579895,0.45578527450561523,0.1249459981918335,0.20261573791503906,1.1047515869140625,-0.3013475239276886,-3.7842586040496826,-0.9414865944440757,-0.9474478427792806,-0.48542432654041745
1687090076.532277,-0.6174967288970947,0.6940420269966125,-0.3701397478580475,0.425251305103302,0.06901943683624268,0.18532520532608032,0.6833973526954651,-0.25969699025154114,-3.621297836303711,-1.030803564294965,-0.7670884024693397,-0.5834421373847954
1687090076.621603,-0.7300403714179993,0.5658358335494995,-0.38323721289634705,0.3927144408226013,0.015478134155273438,0.14561206102371216,0.6540120840072632,-0.19272924959659576,-3.284170150756836,-1.087385830381673,-0.6014466570097303,-0.6562440796842258
1687090076.636411,-0.8125119209289551,0.4316384792327881,-0.3918067514896393,0.33205854892730713,0.03134363889694214,0.1356269121170044,0.5441521406173706,-0.11050617694854736,-3.063342571258545,-1.1214763575364437,-0.446308388333669,-0.7085604839600631
1687090076.712631,-0.8676889538764954,0.293965607881546,-0.40087413787841797,0.28695476055145264,0.0755106508731842,0.0867108702659607,0.7939503788948059,-0.061327069997787476,-2.8663108348846436,-1.1380063821103552,-0.29837313524454323,-0.7426666017941957
1687090076.7176142,-0.8998162746429443,0.1582733392715454,-0.40654635429382324,0.27889055013656616,0.03409416973590851,0.08998751640319824,0.38545969128608704,-0.019432296976447105,-2.7216715812683105,-1.1464379009277792,-0.1589417032323959,-0.7738808735040239
1687090076.768533,-0.9122509956359863,0.029978862032294273,-0.4085330367088318,0.2581678628921509,0.06653296947479248,0.07758510112762451,0.443145751953125,0.01045907475054264,-2.554516315460205,-1.149748745881698,-0.02998335457320281,-0.8101409380329002
1687090076.926001,-0.9084843993186951,-0.08981747180223465,-0.40815284848213196,0.2062903642654419,0.019108250737190247,0.06769871711730957,0.08215484768152237,0.02306877076625824,-2.4232499599456787,-1.1485514164627817,0.08993867212116555,-0.8482055087801131
1687090076.931778,-0.8911255598068237,-0.19499064981937408,-0.40972378849983215,0.19068628549575806,0.027845919132232666,0.03644806146621704,0.0019880528561770916,0.022234240546822548,-2.2437148094177246,-1.1398372534842514,0.1962479189149064,-0.8981098509235718
1687090077.0402188,-0.8636712431907654,-0.29137182235717773,-0.4113079905509949,0.15480905771255493,0.03540566563606262,0.0407024621963501,0.08878665417432785,0.07978371530771255,-2.1059701442718506,-1.1263431813909148,0.29566057948516433,-0.9418395898042486
1687090077.053895,-0.8271089792251587,-0.37389567494392395,-0.41963374614715576,0.12572360038757324,-0.020604997873306274,0.06892576813697815,-0.3013484477996826,0.2275020033121109,-1.9199343919754028,-1.1012860234701114,0.38320580506946855,-0.9954122590061308
1687090077.057287,-0.7859902381896973,-0.4463837444782257,-0.4277391731739044,0.13997894525527954,0.038638412952423096,0.02330493927001953,0.11198065429925919,0.13822679221630096,-1.786985158920288,-1.0724137833688412,0.4627200285341154,-1.0466754054783882
1687090077.1270099,-0.7423461079597473,-0.5137973427772522,-0.43004006147384644,0.11942136287689209,-0.016094565391540527,0.00943148136138916,-0.03799648955464363,0.09074374288320541,-1.6401594877243042,-1.0457375421697541,0.5396052343927483,-1.0909846942361945
1687090077.1318312,-0.6987504959106445,-0.5672187805175781,-0.43590205907821655,0.0994768738746643,0.0009499192237854004,-0.0037952661514282227,-0.20629723370075226,0.05451468378305435,-1.474274754524231,-1.0130382295723273,0.6031248380730859,-1.1448906318775727
1687090077.2204719,-0.6566421389579773,-0.6102661490440369,-0.443166047334671,0.07445842027664185,-0.023538053035736084,-0.00953170657157898,-0.07111327350139618,0.04721884801983833,-1.281723141670227,-0.9771171625962091,0.6563965220890543,-1.200067183606612
1687090077.2344918,-0.6188749074935913,-0.6486582159996033,-0.44298556447029114,0.06784963607788086,-0.019874989986419678,0.009620696306228638,0.11244052648544312,0.009451334364712238,-1.0826148986816406,-0.9495502933026827,0.7058201051425588,-1.2418552943689476
1687090077.312505,-0.5863000750541687,-0.6794711351394653,-0.4411022365093231,0.05398201942443848,-0.07338213920593262,0.04087936878204346,0.019817009568214417,0.08567041903734207,-0.8213111162185669,-0.9257935892209653,0.7470416042134518,-1.2742577314442944
1687090077.317927,-0.5586987733840942,-0.6956280469894409,-0.45161616802215576,0.048444926738739014,-0.0946550965309143,0.06544673442840576,-0.42081722617149353,0.23282518982887268,-0.5968341827392578,-0.8909932637591769,0.7692937466908065,-1.3147675471153542
1687090077.3687081,-0.5362518429756165,-0.7027637958526611,-0.4675008952617645,0.06634217500686646,-0.015970945358276367,0.014284253120422363,0.009027106687426567,0.2672750651836395,-0.3751980662345886,-0.8537852612997023,0.7792749710628563,-1.3492094112726816
1687090077.4620218,-0.5182698965072632,-0.7133788466453552,-0.47168514132499695,0.05162566900253296,-0.0473480224609375,0.02785271406173706,0.11666584759950638,0.2854745090007782,-0.2505054473876953,-0.8324209220055541,0.7943080073474168,-1.3590305963634315
1687090077.468246,-0.5048988461494446,-0.7229263782501221,-0.4716508388519287,0.039048075675964355,-0.010075271129608154,-0.005079478025436401,0.32216131687164307,0.2565433084964752,-0.1322961151599884,-0.8194313900866953,0.8080284122295209,-1.3577640267855864
1687090077.5828261,-0.4961484968662262,-0.7289873957633972,-0.47160789370536804,0.048043668270111084,-0.06625485420227051,0.042576491832733154,-0.0002829846926033497,0.30386462807655334,-0.00552104227244854,-0.8107509850052256,0.8168415035884042,-1.3507268805877795
1687090077.5970511,-0.4915961027145386,-0.7255382537841797,-0.4815883934497833,0.02721017599105835,-0.03335750102996826,-0.025033921003341675,-0.061574358493089676,0.18405552208423615,0.09221785515546799,-0.7956812538980665,0.811816226069307,-1.3535015065797884
1687090077.704227,-0.4922948479652405,-0.7250239253044128,-0.4816491901874542,0.008179306983947754,0.003664731979370117,-0.039880990982055664,0.11306562274694443,0.02703554928302765,0.07714148610830307,-0.7963281887896363,0.8110691046518308,-1.3455328719386668
1687090077.716306,-0.49294766783714294,-0.7224013209342957,-0.4849110543727875,0.008328646421432495,-0.003749072551727295,-0.0011424124240875244,-0.19973787665367126,-2.0996318198740482e-05,0.04967481642961502,-0.7936165638981512,0.807268768751756,-1.347078966060216
1687090077.794732,-0.49141570925712585,-0.7164036631584167,-0.49525368213653564,-0.0009548366069793701,0.012210607528686523,0.0061331987380981445,-0.009220020845532417,0.006733099464327097,0.05374636501073837,-0.7815083502481297,0.798633892218728,-1.357328114887761
1687090077.8002172,-0.4923173487186432,-0.7166053652763367,-0.49406489729881287,-0.01624274253845215,0.00920802354812622,0.009644120931625366,0.004448546562343836,0.027015414088964462,0.058938439935445786,-0.7836264998812221,0.7989230877454395,-1.3534784345017732
1687090077.8831558,-0.49414312839508057,-0.7152190804481506,-0.4942511320114136,-0.002896606922149658,0.01012575626373291,-0.0029259920120239258,0.015188436023890972,0.029656950384378433,0.059979893267154694,-0.7852888780519685,0.7969374910489813,-1.3494110839558422
1687090077.896827,-0.49639126658439636,-0.7138723731040955,-0.4939451813697815,0.009285002946853638,0.0032096505165100098,0.0028105080127716064,0.047126077115535736,0.036554377526044846,0.06171591952443123,-0.7878681107196641,0.7950125052502099,-1.344170537995252
1687090077.971407,-0.4979875981807709,-0.7135663032531738,-0.4927791953086853,0.011018693447113037,0.011997759342193604,-0.0005680322647094727,-0.013918263837695122,0.0393584743142128,0.07294966280460358,-0.7906550537951808,0.7945755256256055,-1.3385448566873925
1687090077.985578,-0.498896986246109,-0.7100774645805359,-0.49688196182250977,0.009868085384368896,0.0075171589851379395,-0.0010123252868652344,-0.008462457917630672,0.049360133707523346,0.08502964675426483,-0.7874217296523596,0.7896082486731439,-1.338280423545834
1687090078.152818,-0.5006033778190613,-0.7094253897666931,-0.49609649181365967,0.005135297775268555,0.00964212417602539,-0.009350895881652832,0.055584702640771866,0.006810544524341822,0.07706791162490845,-0.7899199367778442,0.7886825547760988,-1.332346147793116
1687090078.166564,-0.5018829703330994,-0.7072645425796509,-0.49788564443588257,-0.010247647762298584,-0.00818943977355957,0.014273613691329956,-0.006409533321857452,0.053737521171569824,0.09096474945545197,-0.7893964022199609,0.7856212908892443,-1.3298338752901093
1687090078.211981,-0.5032117962837219,-0.7064405083656311,-0.49771440029144287,-0.0097581148147583,0.02187025547027588,-0.007702529430389404,0.09320621937513351,0.05905329808592796,0.080963134765625,-0.790890406480281,0.7844563352824154,-1.3232402775928673
1687090078.216147,-0.5053539276123047,-0.7066359519958496,-0.4952605068683624,-0.008028030395507812,-0.0029739737510681152,-0.01983046531677246,0.016894616186618805,0.022265028208494186,0.06762562692165375,-0.7954850287936609,0.784732535712376,-1.3146970174362684
1687090078.219789,-0.5073301196098328,-0.7046664953231812,-0.49604544043540955,-0.009271323680877686,-0.0018153190612792969,0.012662261724472046,0.0025112032890319824,-0.032645199447870255,0.036959659308195114,-0.7966444290334443,0.7819530038244483,-1.3129701118820782
1687090078.299975,-0.5096269845962524,-0.7035999894142151,-0.4952041804790497,-0.016770601272583008,-0.005857288837432861,0.013179033994674683,-0.002133934758603573,-0.0208590067923069,0.0605873167514801,-0.7997506351660896,0.7804510273808508,-1.3103390943762054
1687090078.3928962,-0.5130230784416199,-0.7013762593269348,-0.4948520362377167,-0.008308649063110352,-0.00678408145904541,0.004648149013519287,0.003318195231258869,-0.0025380030274391174,0.09321421384811401,-0.8034252925212526,0.7773264982230467,-1.30697504354332
1687090078.397732,-0.5159145593643188,-0.6989650726318359,-0.4952572286128998,-0.0026094913482666016,0.0030575990676879883,0.02588161826133728,-0.033154383301734924,0.05561009421944618,0.08096970617771149,-0.8058244572720946,0.7739493375460504,-1.3025422019151705
1687090078.482833,-0.5180312991142273,-0.6976599097251892,-0.49488797783851624,-0.0006148815155029297,0.006711483001708984,-0.006164908409118652,0.028143279254436493,0.050845541059970856,0.0871073380112648,-0.8082423046768151,0.7721259675694556,-1.297002263105335
1687090078.496918,-0.5211299657821655,-0.6961429715156555,-0.49376943707466125,0.013042926788330078,-0.0026331543922424316,0.0028179287910461426,-0.010521613992750645,0.023739727213978767,0.10205966234207153,-0.8123504764441543,0.7700107984791839,-1.290245109881283
1687090078.571624,-0.5255753397941589,-0.6920953392982483,-0.49474698305130005,0.04026961326599121,-0.016904234886169434,-0.009083032608032227,0.016947828233242035,-0.024035785347223282,0.17844262719154358,-0.8156033035604374,0.7643879325034075,-1.2848655596451481
1687090078.584992,-0.5336737036705017,-0.6865826845169067,-0.493757426738739,0.029248714447021484,-0.05215620994567871,-0.007829487323760986,0.006703605875372887,-0.02849503606557846,0.31727612018585205,-0.8242291632894998,0.7567783208491067,-1.2732602324770441
1687090078.661343,-0.5445941686630249,-0.6760122776031494,-0.4964115023612976,0.024742603302001953,-0.059278130531311035,0.011700838804244995,-0.1554637849330902,-0.03588307276368141,0.4437396824359894,-0.8316498585603195,0.7423375388265253,-1.2613565453709685
1687090078.6669478,-0.5620583891868591,-0.6578904390335083,-0.5012688040733337,0.02404886484146118,-0.03786444664001465,0.0038170218467712402,-0.15149152278900146,-0.05280617997050285,0.556491494178772,-0.8425052063805262,0.7180142141014918,-1.2479788631617386
1687090078.721175,-0.5839037895202637,-0.6390576362609863,-0.5006610751152039,0.04235416650772095,-0.02161729335784912,-0.0018413662910461426,0.011008870787918568,-0.11489464342594147,0.6428011059761047,-0.862000120497625,0.6932724681989536,-1.224922512348468
1687090078.8134542,-0.6100187301635742,-0.6163705587387085,-0.4979601800441742,0.09221184253692627,-0.06188249588012695,-0.006113916635513306,-0.14481320977210999,-0.18891267478466034,0.7740435004234314,-0.8861932287424443,0.6641252900941199,-1.198801197772297
1687090078.818403,-0.6414655447006226,-0.5846946239471436,-0.4966426491737366,0.11578512191772461,-0.0679236650466919,0.03388935327529907,-0.29058218002319336,-0.25414377450942993,0.9364691376686096,-0.9119667247060087,0.6245036176110867,-1.1746851133364784
1687090078.86875,-0.6778780817985535,-0.5412906408309937,-0.49747925996780396,0.11290627717971802,-0.0813441276550293,0.022915631532669067,-0.41896915435791016,-0.3541402518749237,1.098395824432373,-0.937693918973059,0.571971296417253,-1.1563670377824191
1687090078.964966,-0.7173839211463928,-0.4889684319496155,-0.49625614285469055,0.1271740198135376,-0.08012330532073975,0.07178711891174316,-0.4833015203475952,-0.31429561972618103,1.2795345783233643,-0.9656232893038051,0.5109067932241241,-1.1375593158640809
1687090078.9783711,-0.7574362754821777,-0.428299218416214,-0.49279817938804626,0.09500652551651001,-0.07023587822914124,0.023498833179473877,-0.3361872434616089,-0.37826651334762573,1.4367215633392334,-0.9939900137106963,0.4426097857512033,-1.114716936846921
1687090079.020956,-0.7955860495567322,-0.3589005470275879,-0.48809143900871277,0.10729271173477173,-0.07212972640991211,0.06762021780014038,-0.6431540250778198,-0.3061022460460663,1.5746996402740479,-1.0205100108644447,0.36708967979878276,-1.091809944211437
1687090079.080343,-0.8303260803222656,-0.275473952293396,-0.48443010449409485,0.09085476398468018,-0.06348475813865662,0.03431105613708496,-0.5669273138046265,-0.3778690695762634,1.7149807214736938,-1.0426560859952942,0.27908269966519894,-1.0766340805634027
1687090079.1708941,-0.8590883016586304,-0.18797661364078522,-0.47605881094932556,0.10441917181015015,-0.05196782946586609,0.06935101747512817,-0.6780787110328674,-0.33740147948265076,1.7633730173110962,-1.064776944433521,0.18910162185889387,-1.0584851840217255
1687090079.184622,-0.8801615834236145,-0.09252231568098068,-0.4655695855617523,0.11558955907821655,-0.02191859483718872,0.08596140146255493,-0.8816006779670715,-0.37348902225494385,1.7702195644378662,-1.0842506447354334,0.09265482987096241,-1.050936118830736
1687090079.2632442,-0.8935117125511169,0.002879353240132332,-0.4490305483341217,0.0882139801979065,0.027088895440101624,0.012293487787246704,-0.6291354298591614,-0.49350523948669434,1.6880409717559814,-1.1051141667758164,-0.0028793572857218185,-1.0460186347959881
1687090079.2686229,-0.9008244872093201,0.0906076729297638,-0.42462363839149475,0.07944399118423462,0.01608175039291382,0.013719677925109863,-0.7007414698600769,-0.52260422706604,1.6143394708633423,-1.1303121046972513,-0.0907321143160026,-1.0381718415514252
1687090079.319179,-0.9018419981002808,0.17808188498020172,-0.3936593532562256,0.10606575012207031,-0.0011715292930603027,0.021100729703903198,-0.9065117835998535,-0.639562726020813,1.5628596544265747,-1.1592205644652025,-0.17903682906831164,-1.0414419079596369
1687090079.411802,-0.89532071352005,0.26962149143218994,-0.354548841714859,0.1501731276512146,-0.06822079420089722,0.09931504726409912,-1.075726866722107,-0.5651029944419861,1.6930521726608276,-1.1937411965649072,-0.27299995681812833,-1.0589488992999132
1687090079.4173698,-0.8765308856964111,0.36545082926750183,-0.31327125430107117,0.14215612411499023,-0.0919066071510315,0.04865333437919617,-0.990386426448822,-0.5355744361877441,1.815577745437622,-1.2275452454458744,-0.3741170727532419,-1.077418448546603
1687090079.469084,-0.8424013257026672,0.4661608636379242,-0.2702851891517639,0.237970232963562,-0.17049136757850647,0.13059091567993164,-1.1490347385406494,-0.41191568970680237,2.192493200302124,-1.26032174672591,-0.48494630002106504,-1.0984315181042912
1687090079.562473,-0.7866165637969971,0.5753447413444519,-0.22408218681812286,0.14257359504699707,-0.1529204249382019,0.1050330102443695,-1.2681273221969604,-0.37813371419906616,2.445044755935669,-1.2932789163675105,-0.6130255550995216,-1.1232664263960532
1687090079.5678082,-0.7055336236953735,0.6891272068023682,-0.16530518233776093,0.2187172770500183,-0.18113172054290771,0.14963436126708984,-1.4297864437103271,-0.3666035234928131,2.8527414798736572,-1.3406496382215292,-0.7602839242920695,-1.1708355092676108
1687090079.6518369,-0.6022351980209351,0.7918998599052429,-0.10103146731853485,0.14784371852874756,-0.07647627592086792,0.1298094242811203,-1.4532164335250854,-0.45351019501686096,2.88446044921875,-1.4045832560087728,-0.9139139261730092,-1.2262822264079434
1687090079.741107,-0.47916239500045776,0.8775140643119812,-0.0192960686981678,0.23625773191452026,-0.08108162879943848,0.12720614671707153,-1.710242509841919,-0.578514814376831,3.0709054470062256,-1.5305476577218187,-1.0706534129643723,-1.345810382457165
1687090079.746861,-0.3395126163959503,0.9381723403930664,0.06755512952804565,0.11685636639595032,0.000563502311706543,0.09028172492980957,-1.5743452310562134,-0.7317579984664917,3.0372469425201416,-1.7672078354371699,-1.217312236053795,-1.5685963359392512
1687090079.861738,-0.18600153923034668,0.970990002155304,0.15027174353599548,0.16065669059753418,0.082491934299469,0.08659029006958008,-1.4057658910751343,-0.9121137857437134,3.1791880130767822,-2.2503393733394494,-1.329336783875235,-2.028234669637176
1687090079.86699,-0.021496696397662163,0.9742723703384399,0.22434617578983307,0.12826243042945862,0.12744271755218506,0.08180609345436096,-1.3530490398406982,-0.9062102437019348,3.1752090454101562,-3.046064985489936,-1.3434695962686307,-2.7966017927952658
1687090079.979027,0.13668091595172882,0.9505800008773804,0.278775691986084,0.10739864408969879,0.29931318759918213,0.06019821763038635,-1.0437242984771729,-0.9612879157066345,2.8243753910064697,2.6857432553521035,-1.2550986530550043,2.962445301613755
1687090079.984324,0.2731517553329468,0.9071901440620422,0.31999075412750244,0.13720282912254333,0.20612162351608276,0.1564495861530304,-1.1081922054290771,-0.8113633394241333,2.525912046432495,2.434998497240983,-1.1365565061501959,2.7431273035129395
1687090080.09649,0.39211305975914,0.8525363206863403,0.345584511756897,0.12978315353393555,0.25384777784347534,0.09096929430961609,-0.5052642226219177,-0.5939359664916992,2.3339171409606934,2.2932052627471298,-1.020818850272452,2.6198606623104457
1687090080.101937,0.4957367479801178,0.7945577502250671,0.3506038188934326,0.11046436429023743,0.16699016094207764,0.04649081826210022,-0.5286709070205688,-0.6689057946205139,2.1807281970977783,2.1863634574141804,-0.9182788620763728,2.528209359534123
1687090080.106611,0.5917307734489441,0.7271544933319092,0.34799519181251526,0.11966431140899658,0.13417351245880127,0.06954619288444519,-0.1367746740579605,-0.6402274966239929,2.2088232040405273,2.1024177924831298,-0.8141676903570974,2.460941566322051
1687090080.19033,0.6746161580085754,0.66029292345047,0.3300095200538635,0.08263176679611206,0.10540837049484253,-0.008125513792037964,-0.30176109075546265,-0.7310776114463806,1.9385569095611572,2.025751499738209,-0.7212087331663531,2.4021044551561532
1687090080.204372,0.7481482028961182,0.5883049368858337,0.3068733215332031,0.06809008121490479,0.14944219589233398,0.036540865898132324,0.4576079845428467,-0.7295629978179932,2.0474207401275635,1.960045216771776,-0.6289610708733938,2.353266086348146
1687090080.281551,0.8148177266120911,0.5195822715759277,0.2571118175983429,0.06489729881286621,0.18320709466934204,0.06837338209152222,1.3940895795822144,-0.37772896885871887,2.076770782470703,1.8764530434370847,-0.546361967803131,2.255568493887631
1687090080.295961,0.8584043979644775,0.4632458984851837,0.22032885253429413,0.07697445154190063,0.22754988074302673,0.06722292304039001,0.4539366066455841,-0.081660196185112,1.27969491481781,1.822045119828328,-0.48165430629342476,2.1732928004461067
1687090080.375762,0.8817520141601562,0.4194079041481018,0.21589374542236328,0.0378035306930542,0.2871197760105133,0.04439055919647217,0.8594569563865662,0.286679744720459,0.9807488918304443,1.8109186313957342,-0.43279298002176025,2.1343693210532053
1687090080.381064,0.8945848345756531,0.39477935433387756,0.2094447761774063,0.004020392894744873,0.32175809144973755,-0.04483306407928467,1.033093810081482,0.42938485741615295,0.5730965733528137,1.800779026716666,-0.40582767220961735,2.0589660306612796
1687090080.4620261,0.8959556221961975,0.38621872663497925,0.21931366622447968,-0.03511577844619751,0.16587477922439575,-0.005553334951400757,-0.21564829349517822,0.2265850305557251,0.07256949692964554,1.8108577861228854,-0.396528717952303,2.03967290000728
1687090080.4683971,0.8950300216674805,0.38664543628692627,0.22232039272785187,-0.04183495044708252,0.23161011934280396,-0.066375732421875,0.3989343047142029,-0.013275709003210068,-0.03433797508478165,1.814263207304563,-0.3969913673269617,2.037122246423867
1687090080.673616,0.8941439986228943,0.3933190107345581,0.2140241265296936,0.008947253227233887,0.051856160163879395,-0.01622450351715088,0.5761952996253967,0.052769992500543594,-0.04789022356271744,1.8057379975128673,-0.40423877121887763,2.009973219579372
1687090080.688101,0.8908959627151489,0.4030875861644745,0.20934276282787323,0.016727149486541748,-0.04613879323005676,0.034019455313682556,0.0551338791847229,0.019666315987706184,-0.174043208360672,1.8015893642984626,-0.41488816118201644,1.9939577216734066
1687090080.691782,0.8879013657569885,0.4094800055027008,0.20965899527072906,0.01779913902282715,-0.06234258413314819,0.03666353225708008,0.015649694949388504,0.0019872402772307396,-0.10466610640287399,1.8026776504545858,-0.4218840277659314,1.9955696807885916
1687090080.78235,0.8864825367927551,0.41145411133766174,0.21178746223449707,0.011909008026123047,-0.08477875590324402,0.036320433020591736,0.05099320039153099,0.08577156066894531,0.00480998121201992,1.8053081947840797,-0.42404891125391553,1.9949436628525345
1687090080.791593,0.8868159055709839,0.40788084268569946,0.21723324060440063,0.0029543638229370117,-0.055601269006729126,0.019155830144882202,0.09611817449331284,0.08168952167034149,0.0678342878818512,1.8110246103861387,-0.4201318460557109,1.9908977391082334
1687090080.794477,0.8887076377868652,0.4002876281738281,0.22353573143482208,-0.00957268476486206,-0.024433225393295288,0.006841406226158142,0.0321604423224926,0.08618984371423721,0.11254909634590149,1.8172135098445659,-0.4118306958161891,1.9881884192230335
