Timestamp,gravityX,gravityY,gravityZ,accelerationX,accelerationY,accelerationZ,rotationRateX,rotationRateY,rotationRateZ,attitudeRoll,attitudePitch,attitudeYaw
1687104298.0480242,0.6111104488372803,0.7601256966590881,0.22080041468143463,-0.001018226146697998,-0.0021759867668151855,0.015420675277709961,0.04965977370738983,0.0326983779668808,-0.04483047500252724,1.917511287086293,-0.8635065578084745,-1.7279554811195779
1687104298.162767,0.6089373826980591,0.7625006437301636,0.2186037003993988,-0.0007526278495788574,0.0105246901512146,0.004128545522689819,0.10711304843425751,0.020781848579645157,-0.04919195920228958,1.915459345982228,-0.867169400534116,-1.7324425336280649
1687104298.164809,0.6063987612724304,0.7652447819709778,0.2160566747188568,-0.0037834644317626953,0.01803445816040039,0.008231952786445618,0.14959584176540375,0.05395061522722244,-0.05082999914884567,1.913067870082531,-0.8714215353144922,-1.7388868017207915
1687104298.256432,0.6045240759849548,0.7682188153266907,0.21068957448005676,-0.015061795711517334,0.0220489501953125,0.0035130679607391357,0.16631890833377838,0.053052328526973724,-0.031836289912462234,1.9061533020171824,-0.8760542209375594,-1.7508076030747748
1687104298.258415,0.6020285487174988,0.770959198474884,0.20780596137046814,-0.03118199110031128,0.022100985050201416,-0.0026213079690933228,0.12554416060447693,0.03520946949720383,-0.057168323546648026,1.9031673840283827,-0.8803458359799325,-1.758147237520672
1687104298.344369,0.5985976457595825,0.7749862670898438,0.20267394185066223,-0.045756518840789795,0.027412235736846924,0.003441542387008667,0.1267687827348709,0.007491075433790684,-0.09724290668964386,1.8972625392855686,-0.8866933181726641,-1.7674810636013492
1687104298.345443,0.5964334011077881,0.7774292230606079,0.19967715442180634,-0.0077187418937683105,0.01053464412689209,0.013777881860733032,-0.04009855538606644,-0.10747455060482025,-0.02221229299902916,1.8938531034178734,-0.8905681854395213,-1.7687339155159232
1687104298.461913,0.5948334336280823,0.778322160243988,0.20096638798713684,-0.05770885944366455,-0.006090223789215088,0.03519366681575775,-0.11606868356466293,-0.01383647695183754,-0.050666261464357376,1.8966092350179145,-0.8919890395274098,-1.76089052179935
1687104298.4637609,0.5940645337104797,0.7775736451148987,0.2060730755329132,-0.01683986186981201,-0.024293184280395508,0.01633879542350769,-0.11021724343299866,-0.007297777570784092,0.018653247505426407,1.9046948823694971,-0.8907977849879717,-1.7506738659579892
1687104298.553366,0.595029890537262,0.775613009929657,0.21062716841697693,-0.024229049682617188,-0.026009738445281982,0.02681460976600647,-0.0697239339351654,0.07651520520448685,0.08457058668136597,1.911010134946556,-0.8876857148944355,-1.745267101463807
1687104298.557774,0.6006242632865906,0.7702104449272156,0.21453756093978882,0.0035170316696166992,-0.0136033296585083,0.011811047792434692,-0.09148622304201126,0.015028407797217369,0.17791035771369934,1.913862924171107,-0.8791710325965375,-1.7431941734248149
1687104298.645509,0.6069615483283997,0.7637476921081543,0.2197437286376953,-0.025433719158172607,0.0055089592933654785,0.0021646320819854736,-0.10011560469865799,0.05960908532142639,0.17315933108329773,1.918155776644902,-0.8690990493584559,-1.7410991417866988
1687104298.6497521,0.6112598776817322,0.7584419846534729,0.22611267864704132,-0.020134329795837402,0.032817721366882324,-0.006935715675354004,-0.0912533551454544,0.07979734241962433,0.12171808630228043,1.9250993039883948,-0.8609192593262036,-1.7372885446898327
1687104298.733817,0.6132404804229736,0.7551628947257996,0.23165760934352875,-0.022633671760559082,0.02886420488357544,-0.018568724393844604,-0.08223269134759903,0.07623295485973358,0.0690111443400383,1.9319843663347265,-0.8559026043006541,-1.7331800246150026
1687104298.735836,0.6129549145698547,0.7538084387779236,0.23676690459251404,-0.010812640190124512,0.012335121631622314,-0.022823750972747803,-0.07637011259794235,0.07540306448936462,0.02673008292913437,1.9394119091818958,-0.8538388827942008,-1.7286099980653291
1687104298.795898,0.6134822964668274,0.751961350440979,0.24123340845108032,0.019360840320587158,-0.0006490945816040039,-0.02640506625175476,-0.13708950579166412,0.026660243049263954,0.04275665432214737,1.9454441127345854,-0.8510324058551606,-1.72309431514112
1687104298.884867,0.614730715751648,0.7486484050750732,0.2482576072216034,0.030243098735809326,-0.0034244656562805176,-0.038678258657455444,-0.23245485126972198,-0.030906489118933678,0.044352419674396515,1.9546152917384605,-0.8460210565967796,-1.7109114425191367
1687104298.8867822,0.6168703436851501,0.7447739839553833,0.2545236051082611,0.008358478546142578,0.0075299739837646484,-0.037315040826797485,-0.19890305399894714,-0.04305785521864891,0.007744851987808943,1.9621213735751573,-0.8401960969047007,-1.6971402138510172
1687104298.9443521,0.618373453617096,0.7424665689468384,0.2575986683368683,0.033466637134552,0.004191577434539795,-0.036010801792144775,-0.16029517352581024,-0.10306935757398605,0.02219376526772976,1.9655089662020169,-0.836744990189119,-1.6868410901870303
1687104299.034034,0.6208070516586304,0.7395623326301575,0.2600884735584259,0.02808821201324463,-0.002898573875427246,-0.018923640251159668,-0.17491495609283447,-0.11186157912015915,0.02342301420867443,1.96753329434579,-0.832419917901201,-1.6755717268328274
1687104299.036471,0.6243168711662292,0.7371392846107483,0.2585609555244446,0.007412254810333252,0.004498779773712158,-0.016617923974990845,-0.04751402139663696,-0.11899825930595398,0.01930086314678192,1.963441316043462,-0.8288270316623442,-1.671467308757951
1687104299.094383,0.6262404918670654,0.7362794280052185,0.25635001063346863,0.01050877571105957,0.004046499729156494,-0.011187195777893066,-0.0037453416734933853,-0.11068765819072723,0.011337189935147762,1.9593348474640664,-0.8275554662962781,-1.6700494941957003
1687104299.184164,0.6281546354293823,0.7354803085327148,0.25394999980926514,0.0026438236236572266,-0.007086753845214844,0.005998522043228149,-0.08347723633050919,-0.09899840503931046,-0.0069998945109546185,1.9549864484106436,-0.8263753062188979,-1.6681517839697253
1687104299.186203,0.6297504901885986,0.7345602512359619,0.25265634059906006,0.015192687511444092,-0.00570911169052124,0.006483405828475952,-0.053085993975400925,-0.11209513992071152,0.007504656910896301,1.9523373553292425,-0.8250184062078101,-1.6636066072617455
1687104299.24404,0.6319435238838196,0.7326031923294067,0.2528635561466217,0.010298967361450195,-0.01655399799346924,0.01805606484413147,-0.15794001519680023,-0.11027369648218155,0.025378817692399025,1.951420218600895,-0.8221386755641994,-1.657162986534869
1687104299.334286,0.633902907371521,0.7298835515975952,0.2558057904243469,0.0013204216957092285,-0.006311893463134766,0.013465732336044312,-0.0896807536482811,-0.06535426527261734,0.030366985127329826,1.954351529059995,-0.8181515845196154,-1.64792261391669
1687104299.33652,0.6349477767944336,0.7284922003746033,0.2571777105331421,-0.009688377380371094,0.003090381622314453,0.01664102077484131,-0.05057079717516899,-0.012940003536641598,-0.004026120528578758,1.9556378806528036,-0.8161183920365072,-1.644355250409681
1687104299.394553,0.6351131796836853,0.727169930934906,0.26048892736434937,0.001666426658630371,0.0036190152168273926,0.011971652507781982,-0.11131137609481812,-0.014748822897672653,-0.019067566841840744,1.9600182764295118,-0.8141901721646206,-1.6375253272580947
1687104299.484276,0.6340562701225281,0.7272778749465942,0.26275432109832764,0.0034865140914916992,0.009462296962738037,0.0019553303718566895,-0.0008965581655502319,0.019937464967370033,-0.015685904771089554,1.963656393166867,-0.8143474236985951,-1.6332366053398821
1687104299.493925,0.633426308631897,0.727069616317749,0.26484090089797974,0.003963828086853027,-0.0179632306098938,0.006292223930358887,-0.11990795284509659,0.010214104317128658,-0.007424136158078909,1.9668153233479357,-0.8140440530231258,-1.6296016667421203
1687104299.544524,0.6334100365638733,0.7258226275444031,0.26827800273895264,0.013394773006439209,-0.009361565113067627,-0.007795453071594238,-0.0174099151045084,0.01379120908677578,0.0237862691283226,1.9714343771769236,-0.8122295651638193,-1.6238963014081258
1687104299.6642308,0.6340605020523071,0.7248117923736572,0.26947158575057983,0.003909409046173096,-0.023853600025177002,-0.004960685968399048,-0.054784663021564484,0.009860809892416,0.027163978666067123,1.9726614519370194,-0.8107611441357622,-1.6239335289508396
1687104299.665944,0.6361358165740967,0.7223643064498901,0.27114737033843994,0.00889897346496582,-0.009046494960784912,-0.011336088180541992,-0.05099115148186684,-0.012438849546015263,0.04600440338253975,1.9737178840181708,-0.8072152554032299,-1.6213924206822732
1687104299.814443,0.6390013694763184,0.7198761701583862,0.2710258662700653,0.012915074825286865,0.004321038722991943,-0.010681122541427612,-0.019272422417998314,-0.06762184202671051,0.07500031590461731,1.9719381034270143,-0.8036239253568593,-1.620944982853922
1687104299.816783,0.6423392295837402,0.717402458190918,0.26969218254089355,-0.00615459680557251,0.007588326930999756,0.0008458793163299561,-0.028511833399534225,-0.06469187885522842,0.05525360628962517,1.9683048313454659,-0.8000665300799115,-1.6207725697977113
1687104299.874525,0.644626796245575,0.7163411378860474,0.26704272627830505,0.0027579069137573242,0.021497666835784912,-0.0005634725093841553,0.06624241918325424,-0.06234654039144516,0.04621840640902519,1.9635345433620564,-0.7985442924737226,-1.6233676582679453
1687104299.8767328,0.646355152130127,0.7159942984580994,0.26377439498901367,-0.008812487125396729,0.01778554916381836,0.02241918444633484,-0.04162374883890152,-0.09426607191562653,0.013987656682729721,1.9582617516492593,-0.7980473110472515,-1.625961064172472
1687104299.8780231,0.6457815170288086,0.7152968049049377,0.26705193519592285,-0.03866475820541382,0.08154767751693726,0.10745957493782043,-0.26934948563575745,0.02847694419324398,-0.12917067110538483,1.9629143267429516,-0.7970487026057734,-1.6145641892112095
1687104299.933525,0.6309581995010376,0.7174447178840637,0.2952370047569275,-0.07781177759170532,0.18872904777526855,0.21513870358467102,-0.8111685514450073,0.47710809111595154,-0.5245885848999023,2.0084509525907683,-0.8001271841641983,-1.5694631520024915
1687104300.02568,0.5988722443580627,0.7253482341766357,0.33944401144981384,-0.028544306755065918,0.2146390676498413,0.15838906168937683,-0.5064105987548828,0.7854202389717102,-0.7210823893547058,2.0864503414585958,-0.8115401491327948,-1.5042629487370025
1687104300.055121,0.5536524057388306,0.740000307559967,0.38192763924598694,0.024854183197021484,0.08023595809936523,0.09242218732833862,-0.5877617597579956,0.9514581561088562,-0.8347775936126709,2.1746660910315865,-0.8330707852087328,-1.4437236842207468
1687104300.0603309,0.5046048164367676,0.7470472455024719,0.43277502059936523,0.10045194625854492,-0.0281904935836792,-0.031484395265579224,-0.7053567171096802,0.8473690748214722,-0.753960907459259,2.279715708507715,-0.8436091323858755,-1.3643910843697555
1687104300.112783,0.46049532294273376,0.7500093579292297,0.47479432821273804,0.08445709943771362,-0.009546220302581787,-0.02881067991256714,-0.6865063905715942,0.6824465394020081,-0.6716546416282654,2.3714816307708424,-0.8480761991739937,-1.293404578388069
1687104300.2064018,0.4098726511001587,0.7396783828735352,0.5337416529655457,-0.010534852743148804,0.21103566884994507,0.15186601877212524,-1.4185569286346436,1.0896281003952026,-1.0300360918045044,2.4867189469234265,-0.832592348171867,-1.1941337827678784
1687104300.292413,0.3105286955833435,0.7329054474830627,0.6053277254104614,-0.026394665241241455,0.608098030090332,0.39259690046310425,-0.5025718212127686,2.4091410636901855,-1.9177480936050415,2.6676050066082513,-0.8225828055963941,-1.0580806685844355
1687104300.294302,0.11273082345724106,0.773621141910553,0.6235401034355164,0.1689923256635666,0.7257534265518188,0.5738626718521118,0.8721503019332886,3.8413023948669434,-3.352823257446289,2.962733048327745,-0.884536168234081,-0.8756633431831818
1687104300.3829842,-0.17019310593605042,0.7986102104187012,0.5772829651832581,0.5643430352210999,0.6872142553329468,0.5699793696403503,1.5022282600402832,4.353987216949463,-4.497591495513916,-2.8548972383265725,-0.9249824902379045,-0.5489243374009259
1687104300.385524,-0.4777474105358124,0.7704707384109497,0.42205682396888733,0.7262979745864868,0.6041935682296753,0.5209208726882935,2.5384485721588135,4.178037643432617,-5.512363910675049,-2.294381434851452,-0.8795792989814654,-0.11337590910333342
1687104300.4455872,-0.7461100220680237,0.6236287951469421,0.23325325548648834,0.8272106051445007,0.3840007185935974,0.4392015039920807,1.434955358505249,3.2988522052764893,-5.957543849945068,-1.8737958116751812,-0.6733761955323564,0.2093347157053863
1687104300.535551,-0.9146433472633362,0.3969591557979584,0.07648885250091553,0.7468885183334351,0.2214033007621765,0.22883938252925873,1.0676521062850952,2.7624988555908203,-5.306413650512695,-1.6542291613802265,-0.408201393218692,0.3362610387478651
1687104300.5388532,-0.9841135740280151,0.16099263727664948,-0.07484552264213562,0.8083323240280151,0.29449766874313354,0.18431192636489868,1.9421470165252686,2.506779432296753,-4.647192478179932,-1.4948887093058936,-0.161696321292248,0.4220064712269919
1687104300.5980601,-0.980127215385437,-0.06814012676477432,-0.18629902601242065,0.6788120269775391,0.13228824734687805,0.1771283745765686,1.3173980712890625,1.9147671461105347,-4.224910736083984,-1.3829606692784486,0.06819296985084665,0.47038638854677156
1687104300.6856809,-0.9285271763801575,-0.26845356822013855,-0.2564561069011688,0.6737818121910095,0.058157116174697876,0.14003142714500427,0.7234781980514526,1.4623472690582275,-3.607912063598633,-1.3013179164865953,0.27178732117120113,0.4839255560983688
1687104300.688896,-0.8545660972595215,-0.4260978400707245,-0.2969128489494324,0.5479713678359985,0.011013209819793701,0.0027537643909454346,0.8538498878479004,0.9703110456466675,-3.017549514770508,-1.2364014256541587,0.4401750414253425,0.4657098293026807
1687104300.80709,-0.7703835964202881,-0.5463592410087585,-0.32863470911979675,0.3339669704437256,-0.05213606357574463,0.09215384721755981,0.14326636493206024,0.9560102820396423,-2.411484956741333,-1.1675832367458954,0.5780111484179472,0.4352605470440305
1687104300.815205,-0.6884503960609436,-0.6332023739814758,-0.3536815941333771,0.3032117486000061,0.07132816314697266,0.015073657035827637,0.11405006051063538,0.7993402481079102,-2.1742568016052246,-1.096220585063296,0.6856837764297175,0.3849817692476301
1687104300.928566,-0.6157833933830261,-0.6917732357978821,-0.3771742880344391,0.23431366682052612,-0.1229085922241211,-0.036445796489715576,-0.0961359366774559,0.4657401442527771,-1.520027756690979,-1.021228098822463,0.7639417854567553,0.32063527977695994
1687104300.934119,-0.5669221878051758,-0.7282748818397522,-0.3849867880344391,0.19540125131607056,-0.14896798133850098,-0.06986257433891296,-0.12434094399213791,0.09837144613265991,-0.8412391543388367,-0.9742475139920774,0.8158011662038003,0.27466045086682495
1687104301.017463,-0.5547422766685486,-0.7342898845672607,-0.391253262758255,0.17324209213256836,-0.29401493072509766,-0.06403860449790955,-0.1442616581916809,-0.12171777337789536,0.13390560448169708,-0.9565299749456088,0.8246200161405003,0.24641502637131432
1687104301.019732,-0.5767039060592651,-0.7204288244247437,-0.38522037863731384,0.19129741191864014,-0.20516908168792725,-0.06804206967353821,0.13743111491203308,-0.1578938364982605,0.9234545826911926,-0.9818925874640007,0.8044204842464199,0.2708451347866827
1687104301.10865,-0.6225278377532959,-0.6864011287689209,-0.37591537833213806,0.18934613466262817,-0.1532135009765625,-0.04965236783027649,0.23443718254566193,-0.14785856008529663,1.5213912725448608,-1.027548477529027,0.7565286537629601,0.3261582545404361
1687104301.1109772,-0.6905684471130371,-0.6302441954612732,-0.3548344373703003,0.4023451805114746,-0.16467756032943726,-0.07245755195617676,0.2917737662792206,-0.4732285141944885,2.381025552749634,-1.0961464228398432,0.6818676644302691,0.4087931191568702
1687104301.198522,-0.7872067093849182,-0.5205994248390198,-0.33057811856269836,0.5775966644287109,-0.2705534100532532,-0.021869570016860962,-0.8279643058776855,-1.0605924129486084,3.3371729850769043,-1.1732209140934973,0.5475528472911454,0.47204518051352823
1687104301.2013779,-0.8888418078422546,-0.34972071647644043,-0.29606667160987854,0.6589835286140442,-0.11707594990730286,-0.03852817416191101,-1.1681519746780396,-1.8315658569335938,3.891878366470337,-1.2492624125450968,0.3572729640577363,0.4832765138553715
1687104301.255817,-0.966238260269165,-0.13880662620067596,-0.21706309914588928,0.59798264503479,-0.1098504513502121,0.019217461347579956,-0.888656735420227,-1.9928799867630005,4.55865478515625,-1.3498173247529341,0.13925627725774292,0.4958207318009331
1687104301.349047,-0.9884200096130371,0.10507050156593323,-0.10948057472705841,0.5938125252723694,-0.08100724220275879,0.05770730972290039,-1.1793105602264404,-2.5020692348480225,5.078886985778809,-1.4604827729255403,-0.10526479134633554,0.48587626558754815
1687104301.352047,-0.9299911260604858,0.36544957756996155,0.03953354433178902,0.5482926964759827,-0.036195337772369385,0.041826244443655014,-1.7259459495544434,-3.0118863582611084,5.363574504852295,-1.613280340644382,-0.3741157516252875,0.41869599816264513
1687104301.408804,-0.7785050868988037,0.5902779698371887,0.21331028640270233,0.7222309112548828,0.09479588270187378,0.03324098885059357,-0.5923784375190735,-3.7755773067474365,5.5457682609558105,-1.8382324826692433,-0.6314031453438742,0.30260206014934443
1687104301.500351,-0.5353392362594604,0.753726065158844,0.3811936378479004,0.5383148789405823,0.20225226879119873,0.14137393236160278,-2.201313018798828,-3.96950101852417,4.919396877288818,-2.18957046177814,-0.8537135325657756,0.0725822803048165
1687104301.503176,-0.23983754217624664,0.7918892502784729,0.5615952610969543,0.6982574462890625,0.1894950270652771,0.13342714309692383,-2.1072537899017334,-5.1431450843811035,4.743319034576416,-2.7379744248114357,-0.9138966156071184,-0.34052016727629675
1687104301.615683,0.07475634664297104,0.7409389019012451,0.6673984527587891,0.428341269493103,0.3312199115753174,0.37981194257736206,-2.0279481410980225,-4.692043304443359,3.864136219024658,3.0300460495516566,-0.8344673626761275,-0.6812326400574301
1687104301.61794,0.3759709298610687,0.6909174919128418,0.6174778342247009,0.6167812347412109,0.6360936760902405,0.17732185125350952,1.486159086227417,-5.806747913360596,2.882675886154175,2.5946680999631857,-0.7627574120488146,-0.9113187679643948
1687104301.7110372,0.5931415557861328,0.6577933430671692,0.46421003341674805,0.4833507537841797,0.5305306315422058,0.7645189762115479,0.3305326998233795,-3.3611655235290527,2.831552267074585,2.2348553353796374,-0.7178852964307842,-1.1227701594562256
1687104301.717484,0.6981580257415771,0.5869835615158081,0.40990859270095825,-0.4014663100242615,0.6296148300170898,0.8307984471321106,-0.2586410343647003,-0.2765551805496216,0.7203603982925415,2.1016978494272327,-0.6273279669889761,-1.156596134331068
1687104301.798849,0.703611433506012,0.605147659778595,0.37246087193489075,-0.07958805561065674,0.70713871717453,0.38709092140197754,2.5501554012298584,0.38431888818740845,0.2418140470981598,2.0576519210912045,-0.6499513120331135,-1.255558918999248
1687104301.8011909,0.7068038582801819,0.6126804947853088,0.3536253571510315,0.11418008804321289,0.15688133239746094,0.419994980096817,-1.3831336498260498,-0.5845473408699036,0.12090089917182922,2.034696784015332,-0.6594477411905162,-1.2971982978653287
1687104301.858151,0.7105295062065125,0.5953653454780579,0.37508323788642883,-0.1668131947517395,0.36111658811569214,0.20058470964431763,-0.09598226845264435,0.4462285041809082,-0.47300687432289124,2.05650818935244,-0.6377202547011807,-1.2291004941380572
1687104301.979776,0.6725324392318726,0.6300428509712219,0.3882601261138916,0.02204763889312744,0.12010973691940308,0.1502833366394043,0.5115334987640381,0.6882094144821167,-0.5801343321800232,2.0943653714855763,-0.681608392494967,-1.2412697349070358
1687104301.983089,0.6488483548164368,0.6367781758308411,0.4165441691875458,0.07862967252731323,0.02963411808013916,0.23607391119003296,-1.160844326019287,0.5095694065093994,-0.5298140048980713,2.141509122997296,-0.690312549947653,-1.1979374112609718
1687104302.068409,0.6013774275779724,0.6378616094589233,0.48112133145332336,-0.05857646465301514,0.47323769330978394,0.3876224160194397,-0.6533560752868652,1.3028517961502075,-1.0730741024017334,2.2455569278086185,-0.6917184989464589,-1.112172445574679
1687104302.071474,0.5018633604049683,0.6603339314460754,0.5586515665054321,0.03545951843261719,0.5183310508728027,0.4938077926635742,-1.050186276435852,2.573590040206909,-2.003974437713623,2.4096911362225324,-0.7212633395263622,-1.0109021552929258
1687104302.1578488,0.3217627704143524,0.6898419857025146,0.6485263705253601,0.28361445665359497,0.5196917653083801,0.420351505279541,0.22803308069705963,4.022933006286621,-2.879162311553955,2.6810342395577647,-0.7612707768769367,-0.8469281776448208
1687104302.167297,0.04876924306154251,0.7565096616744995,0.6521616578102112,0.6833780407905579,0.41475510597229004,0.42025643587112427,1.3858100175857544,4.682199001312256,-3.824286937713623,3.066950672725983,-0.857959467348597,-0.6322688615325889
1687104302.2471051,-0.2423630803823471,0.768358051776886,0.5923560857772827,0.9437792301177979,0.189741313457489,0.2815450429916382,0.9113649129867554,4.060681343078613,-4.116034030914307,-2.7532224454350156,-0.8762717525966198,-0.30832738132845433
1687104302.250704,-0.5061708688735962,0.7210414409637451,0.47317031025886536,0.7993075847625732,0.16749316453933716,0.19894862174987793,1.392750859260559,3.7721593379974365,-4.326415538787842,-2.322510528053299,-0.8053041697408038,0.0017515600536110332
1687104302.337172,-0.7261184453964233,0.6061900854110718,0.3244771957397461,0.7398819923400879,0.078807532787323,0.15373313426971436,0.9663559794425964,3.2214136123657227,-4.348372936248779,-1.9910404200488847,-0.6512614070465383,0.2244391944833953
1687104302.341649,-0.8792227506637573,0.4423169791698456,0.1769820749759674,0.5630456209182739,0.19450867176055908,0.20309899747371674,0.6796077489852905,3.0646228790283203,-4.400318145751953,-1.7694355869656642,-0.45818046456302153,0.35654941235101306
1687104302.398545,-0.9716590642929077,0.23403416574001312,0.03325983136892319,0.7480112910270691,0.31526708602905273,0.12082325667142868,0.7878682017326355,2.597942590713501,-4.599466323852539,-1.6050129048443298,-0.23622502188849281,0.41046641130883815
1687104302.487386,-0.994228720664978,-0.004851724486798048,-0.10717113316059113,0.6576199531555176,0.3368373215198517,0.21677488088607788,1.2031646966934204,2.6449053287506104,-4.789426326751709,-1.4634177003084574,0.004851743527039464,0.45757099508485916
1687104302.4915972,-0.9437124729156494,-0.24800212681293488,-0.21886412799358368,0.6787132024765015,0.305741548538208,0.08441878855228424,1.1767182350158691,2.243638038635254,-4.846737861633301,-1.3429068435839608,0.2506174158191769,0.47207900974996553
1687104302.5458179,-0.8322897553443909,-0.46633240580558777,-0.299712598323822,0.6286155581474304,-0.008414119482040405,0.11590507626533508,-0.0017949482426047325,1.9162832498550415,-4.302665710449219,-1.2251468499027582,0.4851402131053534,0.4424657485805448
1687104302.637054,-0.711428165435791,-0.5968889594078064,-0.3709358870983124,0.554171085357666,-0.3679851293563843,-0.09358757734298706,-0.7875621318817139,1.1673948764801025,-2.7296812534332275,-1.0901786982105233,0.6396179755761092,0.3286735477272137
1687104302.640994,-0.6394743919372559,-0.6425763368606567,-0.42209941148757935,0.31052547693252563,-0.5073105096817017,-0.2643020749092102,-0.5204257369041443,0.43359509110450745,-0.9170761704444885,-0.9873728952697487,0.6978559615450385,0.2302640185762756
1687104302.697833,-0.6226449608802795,-0.6469659805297852,-0.44016823172569275,0.15626007318496704,-0.269736111164093,-0.18103241920471191,-0.19628804922103882,0.06910586357116699,0.09276819974184036,-0.9554325361271261,0.7035987332770294,0.2013288294987535
1687104302.760436,-0.628575325012207,-0.6408718228340149,-0.44065430760383606,0.0644274353981018,-0.0020112991333007812,-0.06537303328514099,0.07579438388347626,0.000255053979344666,0.2583915889263153,-0.9593750136211313,0.6956334011719,0.20832591570955897
1687104302.850224,-0.6397762894630432,-0.6269621849060059,-0.444527268409729,0.09740263223648071,-0.003622293472290039,-0.031241893768310547,-0.11895203590393066,-0.12427414953708649,0.28699320554733276,-0.9635575481191624,0.6776476975043202,0.20960939411017998
1687104302.85402,-0.6516673564910889,-0.6230782270431519,-0.43255412578582764,0.13071703910827637,-0.04740798473358154,-0.045274943113327026,0.38481613993644714,-0.07498537749052048,0.6636042594909668,-0.9848050872034976,0.6726720801676506,0.2394890023862646
1687104302.939691,-0.7016766667366028,-0.5775700807571411,-0.41720789670944214,0.41841256618499756,-0.4221397638320923,-0.12330424785614014,-0.11858190596103668,-0.7183523178100586,2.1660256385803223,-1.0343664100746164,0.6157489554915037,0.2914726132174954
1687104302.949551,-0.7981197834014893,-0.4579674005508423,-0.3914980888366699,0.6728907823562622,-0.40041565895080566,-0.054135024547576904,-1.1625381708145142,-1.403286099433899,3.6347599029541016,-1.1147570173598338,0.47570739186211863,0.34588547074945186
1687104302.997978,-0.9087236523628235,-0.2582162916660309,-0.3279416561126709,0.878801167011261,-0.1616748869419098,-0.09854161739349365,-1.6300053596496582,-2.7461652755737305,4.218080043792725,-1.2244604960651613,0.2611754253508236,0.3544128593429706
1687104303.0591269,-0.9786157011985779,-0.02550649642944336,-0.20410946011543274,0.7729273438453674,-0.002981513738632202,0.07601183652877808,-1.9733957052230835,-2.9822800159454346,4.591483116149902,-1.365174539366351,0.025509263025318755,0.33311416836285007
1687104303.1503248,-0.9750866293907166,0.22084163129329681,-0.02085459604859352,0.8227429986000061,0.0022725164890289307,0.04287290573120117,-2.6092031002044678,-3.9746696949005127,4.702680587768555,-1.5494121588998429,-0.2226773204867038,0.24062972518739187
1687104303.154457,-0.8789032101631165,0.42323365807533264,0.22000446915626526,0.6705294847488403,0.13436833024024963,-0.024432703852653503,-0.7036970853805542,-5.179757595062256,4.5679216384887695,-1.8160733759671521,-0.43701143684278154,0.12080342292488735
1687104303.207156,-0.6642590165138245,0.6142524480819702,0.4259739816188812,0.3831769824028015,0.047063589096069336,0.10014897584915161,-0.7400884032249451,-4.873545169830322,5.025337219238281,-2.141014863622619,-0.661438303571817,-0.023358791034100282
1687104303.336263,-0.35733452439308167,0.7124464511871338,0.6039303541183472,0.6674847602844238,0.07119923830032349,0.27351081371307373,-1.1858805418014526,-5.705442905426025,5.27268123626709,-2.607312028519675,-0.7929784259096564,-0.3015408505913348
1687104303.3390799,-0.0037209168076515198,0.7120615243911743,0.7021070718765259,0.5266244411468506,0.42229217290878296,0.23098289966583252,-0.9439048171043396,-6.079669952392578,3.7225143909454346,-3.1362930599539562,-0.7924299989238033,-0.644246876509223
1687104303.418199,0.33926406502723694,0.6910563111305237,0.6382326483726501,0.824111819267273,0.5256032943725586,0.303417444229126,1.8031750917434692,-5.933526992797852,3.124022960662842,2.653010731764972,-0.762949410876568,-0.9054248268658636
1687104303.4215631,0.5857692360877991,0.6795318126678467,0.4417130649089813,0.7175143957138062,0.504779040813446,0.7070598006248474,1.587398648262024,-3.8373968601226807,3.415776252746582,2.2168993945393285,-0.7471243007573779,-1.1789889405707157
1687104303.51027,0.698839008808136,0.6025606393814087,0.3854145109653473,-0.49402040243148804,0.42075473070144653,0.8936837315559387,-1.0159600973129272,-0.34609919786453247,0.7010288834571838,2.0747956841075625,-0.6467057335857418,-1.2182382313254048
1687104303.522249,0.7109664678573608,0.6042163372039795,0.3597908318042755,0.041520774364471436,0.8183453679084778,0.35319116711616516,2.924858570098877,0.02522122859954834,0.6885874271392822,2.0392791888783446,-0.6487820142407057,-1.2973567554633942
1687104303.5993261,0.7261256575584412,0.6098983287811279,0.3174354135990143,0.0068759918212890625,0.1817581057548523,0.5358206033706665,-0.9043999910354614,-0.22634752094745636,0.3195374310016632,1.9829240404548052,-0.6559323138021163,-1.3870654197520216
1687104303.602426,0.7404670715332031,0.5811797380447388,0.33754777908325195,-0.07562637329101562,0.37048041820526123,0.2185279130935669,-0.7645378708839417,-0.16510051488876343,-0.22126051783561707,1.9985110233914554,-0.6201776662636117,-1.3130629592091907
1687104303.660375,0.7014740109443665,0.6046910881996155,0.37720414996147156,-0.15963435173034668,0.3086848258972168,0.46044212579727173,0.14838843047618866,1.812096118927002,-0.859405517578125,2.0641710144411185,-0.6493779439844622,-1.2976928067046876
1687104303.751553,0.6296340823173523,0.6259846091270447,0.46011286973953247,0.06566309928894043,0.49336957931518555,0.5874790549278259,-1.216493844985962,2.0741937160491943,-1.4164159297943115,2.201871189808486,-0.6763934924837446,-1.2194709601107103
1687104303.7560558,0.46661055088043213,0.6661012768745422,0.5818790197372437,0.08093583583831787,0.8424588441848755,0.781234085559845,-0.11964722722768784,4.639486789703369,-2.9522416591644287,2.46569242297308,-0.7289693747083771,-1.0803349924295824
1687104303.8077002,0.17927773296833038,0.7419410347938538,0.6460518836975098,0.5693337917327881,0.8543115258216858,0.6414082646369934,1.1748700141906738,5.317940711975098,-4.416313648223877,2.8709060996574793,-0.835960757878999,-0.8607262555179257
1687104303.899961,-0.1847086101770401,0.7960631847381592,0.5763384103775024,1.0667277574539185,0.7706177830696106,0.5480509996414185,2.323805332183838,5.195562362670898,-5.66404914855957,-2.831448558337917,-0.9207623019727874,-0.4617005566432386
1687104303.903316,-0.5427793860435486,0.7392249703407288,0.39866873621940613,1.314141869544983,0.598635196685791,0.5122655630111694,2.2495131492614746,4.3267292976379395,-6.378804683685303,-2.20430014560721,-0.8319188018252416,0.03362017083437412
1687104303.988939,-0.8135277032852173,0.5446882247924805,0.2036839723587036,1.2085015773773193,0.4036150574684143,0.47720885276794434,1.2500311136245728,3.7795634269714355,-6.550308704376221,-1.8161243997644876,-0.5760173121082219,0.31827545808987373
1687104304.0023699,-0.9660248756408691,0.2583790123462677,0.006019252818077803,1.2567507028579712,0.5176984071731567,0.36502861976623535,1.6690013408660889,3.6210989952087402,-6.500130653381348,-1.577027196219838,-0.2613438739073161,0.43140254685602347
1687104304.046835,-0.9841328859329224,-0.07331300526857376,-0.16157805919647217,1.3726980686187744,0.4683174192905426,0.32849377393722534,1.935368299484253,2.713944911956787,-6.522333145141602,-1.4080649973881825,0.07337883775036914,0.5034180908810554
1687104304.10871,-0.8901281952857971,-0.3810972273349762,-0.2498733550310135,1.143546223640442,0.08034667372703552,0.18744945526123047,0.42882201075553894,1.7334312200546265,-5.838695526123047,-1.2971236681639267,0.3909827987764917,0.4978148882414981
1687104304.199667,-0.7530978918075562,-0.5764464735984802,-0.31710085272789,0.8906558156013489,-0.3734435439109802,0.06629195809364319,-1.1377248764038086,0.9390248656272888,-3.8387327194213867,-1.172265987047315,0.6143732097837455,0.3827886780930008
1687104304.204493,-0.6622244715690613,-0.6534854769706726,-0.3666269779205322,0.6077963709831238,-0.5319848656654358,-0.19700226187705994,-0.809499979019165,0.17748644948005676,-1.4766802787780762,-1.0651708202614987,0.7121800615688346,0.24654108122565008
1687104304.288204,-0.6475960612297058,-0.6593149304389954,-0.38199880719184875,0.3996102213859558,-0.42086976766586304,-0.2888539731502533,-0.2960127294063568,-0.3015844225883484,0.3138260841369629,-1.0378571181182843,0.7199072310251498,0.19891904711228606
1687104304.302352,-0.6757820248603821,-0.6315063238143921,-0.38015544414520264,0.14091575145721436,-0.11806613206863403,-0.14140531420707703,0.06957824528217316,-0.08204557001590729,1.0278650522232056,-1.0583753391136954,0.6834944253189823,0.21703744292794905
1687104304.3466969,-0.7109456062316895,-0.5945215821266174,-0.3756333291530609,0.16371965408325195,-0.021795988082885742,-0.056053221225738525,0.15641652047634125,0.03487801179289818,1.2703893184661865,-1.084721027053757,0.6366705554830789,0.26108097118539675
1687104304.4135752,-0.7620200514793396,-0.5335026979446411,-0.36701521277427673,0.4418753981590271,-0.2636924982070923,-0.10199430584907532,0.06815414875745773,-0.4055453836917877,2.449704647064209,-1.1219486781121402,0.5627364580777314,0.31375748078631926
1687104304.533499,-0.8519468307495117,-0.40078240633010864,-0.3369864821434021,0.812258780002594,-0.36072248220443726,-0.11156103014945984,-0.6514425277709961,-1.2441742420196533,3.876283645629883,-1.1941331356269589,0.4123706918274362,0.37760302788515365
1687104304.53681,-0.9468225240707397,-0.17221111059188843,-0.27179116010665894,0.984496533870697,-0.31599369645118713,-0.054640233516693115,-2.182119369506836,-2.628187417984009,5.157106876373291,-1.2912565768835456,0.17307387743047145,0.3840255045747233
1687104304.619886,-0.9840492010116577,0.12461179494857788,-0.12696103751659393,1.0198463201522827,-0.09178997576236725,0.08158127963542938,-3.1333167552948,-3.467214584350586,5.709286212921143,-1.4424861526756294,-0.12493656899014144,0.31091664452151774
1687104304.62495,-0.9044941663742065,0.4085055887699127,0.12252765148878098,1.1004477739334106,-0.07432281970977783,0.11149619519710541,-3.3299458026885986,-4.815084457397461,6.1687421798706055,-1.7054420801845056,-0.42081621792362217,0.13351046407668427
1687104304.7119122,-0.6809676885604858,0.6188558340072632,0.39153528213500977,1.0103288888931274,0.3245645761489868,-0.13375359773635864,-0.8680599331855774,-6.500669956207275,5.486420154571533,-2.092607287467169,-0.6672852376834514,-0.09964597068847321
1687104304.716411,-0.312766969203949,0.7737764120101929,0.5508601069450378,0.6156082153320312,0.4973113536834717,0.3679477572441101,0.5986593961715698,-5.7136969566345215,5.564746379852295,-2.625201881555748,-0.884781205193704,-0.3959393977159681
1687104304.80158,0.054382532835006714,0.8085553646087646,0.5859015583992004,0.6215819120407104,0.3615801930427551,0.7028403282165527,-1.2490555047988892,-5.001756191253662,5.282013416290283,3.049039291781469,-0.9416927993593998,-0.8237883271990677
1687104304.8056421,0.381155401468277,0.7267956733703613,0.5713914036750793,0.7347046136856079,0.7925371527671814,0.5604899525642395,0.06808501482009888,-5.99675989151001,3.254946231842041,2.5533141169019267,-0.8136451212675159,-1.1054580631827364
1687104304.859074,0.6035736799240112,0.6779062151908875,0.4196924567222595,0.45422661304473877,0.761943519115448,0.8912204504013062,0.6574274301528931,-2.9166929721832275,2.7161142826080322,2.178391860826219,-0.7449107810334874,-1.312211613249513
1687104304.921544,0.6985191106796265,0.6087505221366882,0.37615594267845154,-0.2942376136779785,0.4451891779899597,0.7350497841835022,-0.7486018538475037,-0.6310867667198181,0.9958117604255676,2.0647712787251704,-0.6544847559420147,-1.3439822446358494
1687104305.011966,0.7095903754234314,0.5985800623893738,0.3717297911643982,-0.17170286178588867,0.5855629444122314,0.42374107241630554,1.4449131488800049,0.9290925860404968,0.2908967137336731,2.0533534049202125,-0.6417273628815702,-1.390436120675251
1687104305.0166578,0.7087010145187378,0.6042667031288147,0.36414843797683716,0.039177894592285156,0.341869592666626,0.2542746663093567,0.19665288925170898,-0.07214484363794327,0.19712282717227936,2.0454428199777483,-0.6488452072512618,-1.4527712938213122
1687104305.073761,0.708095133304596,0.596421480178833,0.3779985308647156,-0.11168992519378662,0.26484566926956177,0.2087322175502777,-0.8721980452537537,0.25863876938819885,-0.3349161446094513,2.0611359758879013,-0.6390354408988038,-1.4209541494843856
1687104305.085479,0.6800704598426819,0.6067865490913391,0.41147807240486145,-0.06654506921768188,0.22234559059143066,0.04996281862258911,0.06993457674980164,0.9323684573173523,-0.7232827544212341,2.114922345693043,-0.6520115583956243,-1.3804673259175362
1687104305.127378,0.6412712335586548,0.6356464624404907,0.42979562282562256,0.07845526933670044,-0.013591527938842773,-0.03369304537773132,0.3658056855201721,0.6525803804397583,-0.5248633027076721,2.1612579383357433,-0.6888456099430156,-1.3768559580007005
1687104305.189436,0.6172698140144348,0.6513811349868774,0.4412255585193634,0.08902889490127563,-0.148207426071167,-0.11189541220664978,-0.21756042540073395,0.1808488517999649,-0.3651384115219116,2.1913874336354224,-0.7094032764039977,-1.3625109507885478
1687104305.2791328,0.6106829643249512,0.6545242667198181,0.4457172453403473,0.04948848485946655,-0.1264328956604004,-0.13042524456977844,-0.026095973327755928,-0.12652882933616638,-0.12619470059871674,2.2012871839471346,-0.7135532009688785,-1.34490332161117
1687104305.374614,0.6083895564079285,0.6606215834617615,0.43981945514678955,0.019357025623321533,-0.09491729736328125,-0.08413732051849365,0.23032350838184357,-0.04013897478580475,-0.0644553154706955,2.196742441995581,-0.7216464588318747,-1.3476471428286365
1687104305.388355,0.6122114658355713,0.6619638800621033,0.4324358105659485,0.01970076560974121,-0.08904212713241577,-0.05494892597198486,0.010684890672564507,-0.2420305609703064,0.07874619215726852,2.185771598829901,-0.723435896187103,-1.353227890013634
1687104305.391203,0.6200143694877625,0.6607509851455688,0.42307257652282715,-0.005375027656555176,-0.016463816165924072,-0.031654298305511475,0.19221244752407074,-0.21173571050167084,0.09322357922792435,2.169584508090758,-0.7218187990203363,-1.361439253259243
1687104305.427022,0.628872811794281,0.6608479022979736,0.40963229537010193,-0.006421089172363281,-0.017888426780700684,0.011570990085601807,0.16914179921150208,-0.21389803290367126,0.13465161621570587,2.1481378489152263,-0.7219479727378338,-1.3770190517162653
1687104305.5213299,0.6348723769187927,0.6606415510177612,0.4006117582321167,-0.01650989055633545,0.01039421558380127,0.0294569730758667,0.13502144813537598,-0.054367873817682266,0.06790470331907272,2.1337068435118205,-0.7216730427982658,-1.388180794438215
1687104305.6108298,0.6376867294311523,0.6609466671943665,0.39560744166374207,0.010109961032867432,0.00432133674621582,0.0064005255699157715,0.12682954967021942,-0.08482271432876587,0.08293208479881287,2.126065724138393,-0.722079556081435,-1.3981267014099596
1687104305.625458,0.6391438841819763,0.6607809066772461,0.39352700114250183,-0.012099206447601318,0.00912564992904663,0.015026777982711792,0.13140496611595154,0.03921033814549446,0.04268348589539528,2.122686979851514,-0.7218586802611029,-1.4031995725534958
1687104305.700906,0.6407690644264221,0.662459671497345,0.3880230188369751,0.01087278127670288,0.0025945305824279785,0.001060575246810913,0.1678367406129837,-0.026177724823355675,0.06378503888845444,2.1152927870412435,-0.7240974994716968,-1.4154795034874366
1687104305.705677,0.6420154571533203,0.6623706817626953,0.38611066341400146,0.0029277801513671875,0.0014324188232421875,0.023420125246047974,0.01995237171649933,0.010583165101706982,0.04861574247479439,2.112247551460891,-0.7239787112215533,-1.4205830748042092
1687104305.791737,0.643813967704773,0.6616327166557312,0.38437697291374207,0.0015718340873718262,0.0233038067817688,0.02040797472000122,0.06294053047895432,0.03830065205693245,0.024382418021559715,2.1090299693806553,-0.7229941028189478,-1.4253243994128337
1687104305.8820581,0.6423736810684204,0.6625865697860718,0.38514286279678345,0.01395261287689209,0.011867165565490723,0.008472561836242676,0.09029220789670944,0.09353046119213104,0.006936937570571899,2.110893727420182,-0.7242669093685684,-1.4283576335865376
1687104305.887162,0.640785813331604,0.6651872396469116,0.3833008110523224,0.007865369319915771,-0.003230452537536621,0.002288639545440674,0.15364257991313934,0.09684737771749496,-0.0023240940645337105,2.10987143485527,-0.7277445791062841,-1.436344716086673
1687104305.971571,0.6400712728500366,0.6686463356018066,0.3784453868865967,0.011204421520233154,-0.0035766959190368652,-0.015164315700531006,0.2589370310306549,0.06056233495473862,0.03173345327377319,2.104760885035401,-0.7323867990364141,-1.450609664820037
1687104305.986665,0.6411630511283875,0.6717961430549622,0.3709444999694824,0.004466891288757324,-0.011533081531524658,-0.0031773746013641357,0.2316613793373108,-0.001096287276595831,0.03662417083978653,2.09529396774782,-0.7366309728488187,-1.4661260187267884
1687104306.061367,0.6424161791801453,0.6744523644447327,0.36388924717903137,0.0031527280807495117,0.005662322044372559,-0.005750417709350586,0.23846015334129333,0.006076936610043049,0.04778569936752319,2.086172602257539,-0.7402227490309132,-1.4818668039977134
1687104306.0764298,0.6441192030906677,0.6762161254882812,0.3575502634048462,0.002182185649871826,0.00243377685546875,-0.010931819677352905,0.16746960580348969,-0.013825132511556149,0.04999159649014473,2.0775463130743694,-0.7426141887726171,-1.494395753746456
1687104306.183333,0.6461563110351562,0.6775720119476318,0.35125234723091125,-0.011177003383636475,0.013040781021118164,-0.010706901550292969,0.1877892017364502,0.002977123949676752,0.034773893654346466,2.0687147888918522,-0.744456218860005,-1.5064173906773257
1687104306.1876721,0.6461700201034546,0.6791710257530212,0.3481251895427704,0.0052124857902526855,0.009046196937561035,-0.005947083234786987,0.06196703761816025,-0.01616503857076168,0.03649236634373665,2.064962599535542,-0.746632603239765,-1.5139205556156625
1687104306.270973,0.6468393802642822,0.6795686483383179,0.3461003005504608,-0.0076485276222229,0.01513361930847168,-0.0009466707706451416,0.021492157131433487,-0.0330188013613224,-0.015737904235720634,2.062099881883786,-0.7471744949598605,-1.5157343512167623
1687104306.276474,0.6464941501617432,0.6809243559837341,0.34407398104667664,5.424022674560547e-06,0.016264915466308594,0.0022697150707244873,0.06843271851539612,-0.01019513700157404,-0.026507306843996048,2.0598826859924673,-0.7490240354044989,-1.5178397762272915
1687104306.361031,0.6454910635948181,0.6831620931625366,0.34151169657707214,-0.007124423980712891,0.0023388266563415527,0.012690246105194092,0.035483237355947495,0.0020776146557182074,-0.051379475742578506,2.057430660170386,-0.7520839420048867,-1.5203257718713663
1687104306.375307,0.6442721486091614,0.6841405034065247,0.3418547213077545,0.014312386512756348,0.0003228187561035156,0.005312979221343994,0.004878293722867966,0.00011118978727608919,-0.007465592585504055,2.0586279746010603,-0.7534246268290953,-1.5195874573259958
1687104306.484307,0.6438343524932861,0.6849987506866455,0.3409600257873535,0.006571471691131592,0.0014482736587524414,0.013409823179244995,-0.0027975754346698523,0.020819343626499176,-0.016928382217884064,2.057824811917077,-0.7546019466902217,-1.5212762748236541
1687104306.488384,0.6431721448898315,0.6852088570594788,0.3417870104312897,0.0002757906913757324,0.01190418004989624,-0.003042072057723999,0.04475385695695877,0.028133928775787354,-0.032552506774663925,2.0592537074097272,-0.7548903921574348,-1.5205094909038293
1687104306.5701861,0.6415440440177917,0.6871939301490784,0.34086042642593384,0.010174155235290527,-0.0006857514381408691,0.005483388900756836,0.049386318773031235,0.0425540953874588,0.0008389642462134361,2.059179101998525,-0.757619334712653,-1.5243432513852107
1687104306.575355,0.6413348317146301,0.687650740146637,0.340331494808197,-0.006264150142669678,0.001588582992553711,0.0012818872928619385,-0.018515124917030334,0.03173612058162689,-0.011936641298234463,2.0586709389235702,-0.7582483786955979,-1.5253397667938013
1687104306.698615,0.6404384970664978,0.6881440877914429,0.3410223424434662,0.011355996131896973,0.001202225685119629,-0.010669797658920288,0.00786348432302475,0.015359011478722095,0.002570507815107703,2.060091046566495,-0.7589280725622364,-1.5267829945893094
1687104306.703395,0.6405962705612183,0.6876769065856934,0.3416672348976135,0.005033552646636963,0.00398862361907959,-0.01728084683418274,-0.06478334218263626,-0.008285224437713623,-0.000973227433860302,2.060772976253943,-0.7582844130769271,-1.5260335042330906
1687104306.782686,0.641345739364624,0.686966598033905,0.3416907787322998,0.004467308521270752,0.01402217149734497,-0.02530011534690857,0.005262694321572781,-0.025743789970874786,0.0013800966553390026,2.0603161882266603,-0.7573064807185975,-1.5249477287639026
1687104306.787623,0.6418303847312927,0.6872907876968384,0.34012505412101746,-0.0008390545845031738,0.010600388050079346,-0.009177416563034058,-0.011838368140161037,0.00025047315284609795,-0.020620854571461678,2.0581001048187826,-0.7577527377514627,-1.5255175208662337
