Timestamp,gravityX,gravityY,gravityZ,accelerationX,accelerationY,accelerationZ,rotationRateX,rotationRateY,rotationRateZ,attitudeRoll,attitudePitch,attitudeYaw
1687087256.6388931,0.9785972237586975,0.1890425682067871,0.08130619674921036,0.005045473575592041,0.008955508470535278,0.0015186071395874023,0.06595861911773682,0.014294613152742386,0.011573025956749916,1.6536903726553411,-0.19018704036591166,-2.62740859405699
1687087256.7338572,0.9786036014556885,0.1891249567270279,0.08103567361831665,-0.0027124881744384766,0.006401181221008301,0.004993550479412079,0.0351729579269886,0.011826767586171627,-0.010628106072545052,1.6534152861526217,-0.1902709442822897,-2.628492465620396
1687087256.747665,0.9783974885940552,0.19030903279781342,0.08075252175331116,-0.0005074739456176758,0.012053027749061584,-0.005923278629779816,0.09495138376951218,0.002759663388133049,-0.012387966737151146,1.6531451734709361,-0.19147692790506732,-2.6331065467915993
1687087256.822442,0.9781764149665833,0.19109192490577698,0.08157941699028015,-0.0032616853713989258,0.000192299485206604,0.011346705257892609,-0.07214140892028809,0.008289877325296402,-0.011179513297975063,1.6540032620211809,-0.19227445320088252,-2.6326307190689926
1687087256.8364801,0.9780107736587524,0.1922159194946289,0.08092150837182999,0.002900540828704834,0.013747245073318481,0.0025289058685302734,0.06855110079050064,0.002995565999299288,-0.01979832351207733,1.653349194972098,-0.19341967182660097,-2.6335099488546723
1687087256.913867,0.9777209758758545,0.1934264451265335,0.08153583854436874,-0.004561126232147217,-0.0010131001472473145,0.00624798983335495,-0.02207094430923462,0.020232610404491425,-0.009497039020061493,1.653997582599892,-0.19465334851480048,-2.6347324994618013
1687087256.91994,0.9774908423423767,0.1941288709640503,0.08261849731206894,0.0014978647232055664,0.005578160285949707,0.00032829493284225464,0.06322238594293594,0.013290814124047756,-0.0023676902055740356,1.6551169120960143,-0.19536934964990635,-2.6347229925662456
1687087257.062385,0.9774579405784607,0.19363094866275787,0.08416077494621277,0.0026903152465820312,-0.0022552162408828735,0.010672681033611298,-0.025084523484110832,0.020564598962664604,0.013689683750271797,1.6566861787563167,-0.19486179815760776,-2.6347842335971547
1687087257.068191,0.9774011373519897,0.19331714510917664,0.08553267270326614,0.00151139497756958,-0.017123863101005554,-0.004599921405315399,0.02962452918291092,0.02991655468940735,0.02574155293405056,1.6580842622493739,-0.19454194993595764,-2.6368095207531876
1687087257.1253629,0.9773638844490051,0.1922464221715927,0.08832535147666931,-0.008644342422485352,0.01629546284675598,0.0005419254302978516,-0.052539583295583725,0.0471235066652298,-0.004196039400994778,1.6609225095429254,-0.19345076111242762,-2.634418391657604
1687087257.130138,0.9771673083305359,0.19257396459579468,0.08977527916431427,0.006032884120941162,-0.00945320725440979,-0.0142594575881958,0.04926544427871704,0.03662564605474472,0.008250799030065536,1.6624121250969062,-0.19378453688303826,-2.63483043547618
1687087257.13451,0.9771407246589661,0.19209329783916473,0.09108241647481918,0.009156763553619385,0.005599558353424072,-0.000521436333656311,0.019945159554481506,0.03232426568865776,0.010575627908110619,1.6637409569211696,-0.1932947245367532,-2.6361043424997517
1687087257.179337,0.9771787524223328,0.19192323088645935,0.09103617072105408,-0.0013637542724609375,-0.005399733781814575,-0.0016043111681938171,-0.03631922975182533,0.018181657418608665,0.007937721908092499,1.6636904414107747,-0.1931214361019085,-2.6361431728379316
1687087257.247731,0.9771497845649719,0.19160710275173187,0.09200666844844818,0.008079767227172852,0.006604596972465515,-0.005641818046569824,-0.05488220974802971,0.01704917475581169,-0.005724560469388962,1.6646777358685783,-0.1927993204789054,-2.633214656019623
1687087257.300319,0.9771231412887573,0.1917363554239273,0.09201941639184952,-0.003932833671569824,0.003286212682723999,-0.0038540437817573547,0.05099714174866676,0.016909517347812653,-0.0013145655393600464,1.6646932160674128,-0.1929310164897455,-2.6345520564287876
1687087257.4245539,0.9770064353942871,0.1922524869441986,0.09218092262744904,0.006758153438568115,-0.01676115393638611,0.004041068255901337,-0.1416248232126236,-0.004091531503945589,-0.008255606517195702,1.6648682158234263,-0.19345693572116732,-2.6330223263771955
1687087257.429771,0.9769769310951233,0.1925332099199295,0.09190903604030609,-0.0004296302795410156,0.009950920939445496,0.0038399621844291687,0.042294941842556,0.004240700509399176,0.0011517438106238842,1.6645951976779627,-0.19374300872185732,-2.630843650343354
1687087257.513962,0.9772549867630005,0.1916579008102417,0.0907764807343483,0.011011123657226562,-0.010749667882919312,-0.0009325742721557617,-0.03514956682920456,-0.02349335141479969,0.029051952064037323,1.6634197876404635,-0.19285107730393938,-2.633681129643626
1687087257.5200381,0.9775307774543762,0.19042515754699707,0.09040103107690811,-0.006552755832672119,0.008595287799835205,0.007331497967243195,0.0011610346846282482,-0.004552684724330902,0.020968768745660782,1.6630130000063568,-0.1915952095392896,-2.6326377738179967
1687087257.603049,0.9776909351348877,0.18955585360527039,0.09049565345048904,0.0010384917259216309,0.002735450863838196,0.005070336163043976,0.010201241821050644,0.00702839158475399,0.004847612231969833,1.6630939369989037,-0.19070978247692072,-2.6328661187939497
1687087257.616677,0.9774861335754395,0.190161794424057,0.09142975509166718,-8.440017700195312e-05,0.0018853247165679932,-0.00746048241853714,0.04073619097471237,0.013078932650387287,0.00457110907882452,1.6640605756708022,-0.1913269399359925,-2.6340240471103504
1687087257.6941838,0.9774528741836548,0.1897697001695633,0.09259359538555145,0.00034564733505249023,0.00017170608043670654,0.0008666440844535828,-0.010569444857537746,0.008434327319264412,0.004616760183125734,1.665243961009572,-0.19092757619757142,-2.634508893919336
1687087257.781774,0.9774560332298279,0.18968819081783295,0.09272735565900803,-0.00222092866897583,0.004205271601676941,0.005447745323181152,-0.014751512557268143,-0.001905715325847268,-0.0019401861354708672,1.6653792818931186,-0.19084455974649167,-2.633592873680196
1687087257.7952929,0.9774948358535767,0.1893329620361328,0.09304384142160416,0.004286289215087891,-0.007997497916221619,0.00011110305786132812,-0.08490359783172607,-0.004112090915441513,0.01378695573657751,1.6656964238765894,-0.1904827784464203,-2.6323039647105664
1687087257.8736138,0.9776563048362732,0.18824046850204468,0.09356281161308289,0.003285646438598633,-0.0002368837594985962,0.0005382373929023743,-0.053373418748378754,-0.016864264383912086,0.011604917235672474,1.666206883817698,-0.1893702856411274,-2.627092477339975
1687087257.886989,0.9777600169181824,0.18817415833473206,0.09260734170675278,0.0036548972129821777,-0.007998362183570862,0.002271890640258789,-0.04592977836728096,-0.011724310927093029,-0.0051731751300394535,1.6652284016791066,-0.1893027608916714,-2.627329351720602
1687087257.9924278,0.9778751134872437,0.18753427267074585,0.09269054234027863,0.005004703998565674,-0.008624911308288574,0.0017767027020454407,-0.0673859566450119,-0.02060377039015293,0.02630629949271679,1.6653016783231094,-0.18865127503412443,-2.6226353174212624
1687087257.997902,0.9782654047012329,0.18569016456604004,0.09228362143039703,-0.008721888065338135,-0.006521433591842651,0.003633260726928711,-0.04065538942813873,-0.020325787365436554,0.03547154739499092,1.6648519193287183,-0.18677419286305635,-2.6215572952849255
1687087258.0828362,0.9787126779556274,0.18324416875839233,0.09242809563875198,0.002122223377227783,-0.00909559428691864,0.008188478648662567,-0.08270201832056046,-0.013809353113174438,0.04686117544770241,1.6649555008528716,-0.18428548586555848,-2.6174567854514357
1687087258.0968518,0.9792857766151428,0.1802963763475418,0.09215705841779709,0.0053792595863342285,-0.009977743029594421,0.00317990779876709,0.0029076947830617428,-0.027821309864521027,0.059620536863803864,1.664626389770029,-0.1812877560178375,-2.617045602370882
1687087258.203732,0.9797752499580383,0.17753365635871887,0.09231646358966827,0.0021736621856689453,-0.009091868996620178,0.005385637283325195,-0.08386954665184021,-0.019371366128325462,0.06930618733167648,1.6647410591256018,-0.17847973228247424,-2.615401260814261
1687087258.2165818,0.9806808233261108,0.17261305451393127,0.09203396737575531,0.008683979511260986,-0.006643176078796387,0.0014720037579536438,-0.05451170727610588,-0.02299768477678299,0.10149623453617096,1.6643692769634755,-0.1734819283404545,-2.613230036139279
1687087258.296452,0.9814465641975403,0.16820304095745087,0.09203606098890305,-0.0008098483085632324,0.015055030584335327,-0.0016124248504638672,-0.029859784990549088,-0.02780010923743248,0.06561065465211868,1.6642988130640581,-0.1690064603149089,-2.6102757337343285
1687087258.302629,0.9820748567581177,0.1651628464460373,0.09083282202482224,-0.01181405782699585,0.006880044937133789,-0.006909482181072235,0.04406866058707237,-0.011043286882340908,0.041555337607860565,1.6630246612871598,-0.16592311611014177,-2.611560156724901
1687087258.38234,0.9822927713394165,0.16418606042861938,0.0902457982301712,0.007285654544830322,-0.0004286915063858032,-0.008107654750347137,-0.07155327498912811,-0.020201899111270905,0.007580969482660294,1.6624117485916825,-0.16493281458710116,-2.6098035718925243
1687087258.396124,0.9825156927108765,0.16357830166816711,0.08891163766384125,-0.01097327470779419,0.08111166954040527,-0.03922891616821289,0.0906917154788971,-0.012602088041603565,-0.0056781768798828125,1.6610443728414899,-0.16431673055591872,-2.61026952339256
1687087258.5038872,0.9821144938468933,0.16679790616035461,0.08734839409589767,0.034960150718688965,0.1424214392900467,-0.05174959450960159,-0.513748824596405,-0.13866665959358215,-0.11540711671113968,1.6595020433715937,-0.16758118882673162,-2.6013270763928427
1687087258.5168839,0.9826679229736328,0.16706323623657227,0.08033432066440582,0.08929246664047241,0.42537450790405273,-0.15050935745239258,-0.9345998764038086,-0.41522619128227234,-0.1304565817117691,1.6523661691639433,-0.16785028187250162,-2.562972646664641
1687087258.592885,0.9804522395133972,0.18624137341976166,0.06346318125724792,0.14222842454910278,0.6139448285102844,-0.11415279656648636,-1.189058780670166,-0.5690099596977234,-0.9167435765266418,1.6354346306408027,-0.1873351835171712,-2.504503811250516
1687087258.598953,0.9648493528366089,0.25726163387298584,0.053689222782850266,0.1368200182914734,0.6578384637832642,-0.06693375110626221,-1.031316876411438,-0.2717995047569275,-2.2316222190856934,1.6263841867709197,-0.2601873780142309,-2.4400637618573437
1687087258.683398,0.9150688648223877,0.3982434868812561,0.06364939361810684,0.22917252779006958,0.5857043266296387,-0.04697144031524658,-0.42529913783073425,0.2641596496105194,-3.847423791885376,1.6402414230415134,-0.40960112781893643,-2.3952779360230476
1687087258.6975532,0.8007734417915344,0.5932015776634216,0.08291067183017731,0.5809863805770874,0.4630577564239502,-0.06713294237852097,0.2215278595685959,0.5164830684661865,-5.147432804107666,1.6739669413176035,-0.6350298652762095,-2.3676816868600428
1687087258.773816,0.5974536538124084,0.7984659671783447,0.07417187094688416,0.8799024224281311,0.4645651578903198,0.040238626301288605,1.7161192893981934,0.5322630405426025,-6.178210735321045,1.6943110107356951,-0.9247428767723558,-2.3777479267085577
1687087258.779733,0.3169996738433838,0.9480103254318237,-0.028065934777259827,1.1124894618988037,0.38373100757598877,0.15419518947601318,2.8891451358795166,-0.13255874812602997,-6.534706115722656,1.4824904188449683,-1.2469243402788164,-2.625856812168678
1687087258.863384,-0.018332840874791145,0.9837313294410706,-0.1787082999944687,1.2493356466293335,0.5232571959495544,0.19169355928897858,3.3775463104248047,-1.046938180923462,-6.979111671447754,-0.10222767698799866,-1.3901697899034977,2.071401091275442
1687087258.869205,-0.37541463971138,0.8642460107803345,-0.3348771929740906,1.3196132183074951,0.566555380821228,0.16034722328186035,3.5722131729125977,-2.3527755737304688,-7.25952672958374,-0.8424078838343393,-1.043649668502651,1.3869274545607826
1687087258.9539108,-0.7029093503952026,0.6093530058860779,-0.36688899993896484,1.2935311794281006,0.5160133242607117,0.15393739938735962,2.606872081756592,-3.601581335067749,-7.239568710327148,-1.0897372031494215,-0.6552443131416823,1.2587935428790287
1687087258.9683108,-0.924743115901947,0.28499534726142883,-0.2522456645965576,1.2012933492660522,0.2676321864128113,0.12889370322227478,1.9994609355926514,-4.3794846534729,-6.524073600769043,-1.3045009973319293,-0.28900156520396375,1.2392325157151076
1687087259.043694,-0.9985584020614624,-0.017754537984728813,-0.05065876245498657,1.0991288423538208,0.16687867045402527,0.13641320168972015,1.3777217864990234,-4.280005931854248,-5.3819451332092285,-1.5201078875043401,0.01775547153150006,1.277522089164963
1687087259.1342201,-0.952396810054779,-0.26316893100738525,0.15389180183410645,0.9587596654891968,0.15010127425193787,0.039055705070495605,-0.1415344923734665,-3.8709781169891357,-4.6959614753723145,-1.7309953814490486,0.266305443282085,1.3236606767412307
1687087259.1475,-0.8289631605148315,-0.4767623841762543,0.29243460297584534,0.657850980758667,0.015946924686431885,0.008163690567016602,-1.3064013719558716,-3.1881844997406006,-4.23900032043457,-1.9099380881800594,0.49696787472339343,1.3329446481558471
1687087259.222234,-0.6749799847602844,-0.6184781193733215,0.4023514688014984,0.6559828519821167,-0.12126785516738892,-0.19864660501480103,1.2104085683822632,-2.6313302516937256,-3.1840567588806152,-2.108338755803676,0.6668045298635499,1.4349208160301012
1687087259.2353358,-0.5323845744132996,-0.6753033995628357,0.510423481464386,0.42760246992111206,-0.0944872498512268,0.046156108379364014,1.3070274591445923,-1.7039140462875366,-2.427946090698242,-2.3351380664214876,0.7413760138786445,1.6118439993588645
1687087259.2802792,-0.424348920583725,-0.700615406036377,0.5736432671546936,0.3520069122314453,-0.19600647687911987,0.08686405420303345,-0.0259633157402277,-1.1361472606658936,-1.7996162176132202,-2.5046880600754706,0.7762595722644418,1.7584013355835084
1687087259.3743591,-0.34559836983680725,-0.7491146922111511,0.565144956111908,0.13444733619689941,-0.10578936338424683,0.08562719821929932,-0.5258649587631226,-0.524732768535614,-1.2455637454986572,-2.592744390839001,0.846724665953273,1.8247964946830377
1687087259.380023,-0.2972556948661804,-0.7613652944564819,0.5761618614196777,0.04801860451698303,-0.10829430818557739,0.13144952058792114,0.3124191164970398,-0.0478707030415535,-0.8748748898506165,-2.665287203342026,0.8654164048252129,1.8998542848410698
1687087259.465582,-0.2793133854866028,-0.7689415216445923,0.5750765800476074,0.13392767310142517,-0.17954480648040771,0.03684675693511963,-0.08490534871816635,0.23950035870075226,-0.24867190420627594,-2.6894522014473585,0.8771838198179025,1.9417039252560861
1687087259.47913,-0.2850324213504791,-0.7755052447319031,0.5633367896080017,0.032972484827041626,-0.07653027772903442,0.06865185499191284,-0.2703930139541626,0.28188106417655945,0.131599560379982,-2.6731791749105382,0.887514967164141,1.935431027662725
1687087259.5558271,-0.30197572708129883,-0.7733955383300781,0.5573781728744507,0.07486391067504883,-0.05352407693862915,-0.030720949172973633,0.04094802215695381,0.17466095089912415,0.315010666847229,-2.645083154308338,0.8841802099463925,1.9159873010862907
1687087259.5693111,-0.31819239258766174,-0.7639358043670654,0.5613875389099121,-0.0067435503005981445,0.039631545543670654,-0.04489266872406006,0.22671358287334442,0.15517312288284302,0.24756768345832825,-2.6259454923708048,0.8693905634569068,1.9009171789583175
1687087259.611803,-0.32871487736701965,-0.7545027136802673,0.5680426955223083,-0.016545772552490234,0.03927743434906006,-0.03316092491149902,0.34894615411758423,0.12494059652090073,0.09753163158893585,-2.616997258107063,0.8548960501409021,1.8980410470989604
1687087259.7070699,-0.3343505263328552,-0.7439730167388916,0.5785450339317322,-0.027771085500717163,-0.020416080951690674,-0.01927971839904785,0.10109040141105652,0.04715370386838913,0.04890255630016327,-2.6175695910280377,0.8389965872926476,1.904713638412748
1687087259.719912,-0.33630380034446716,-0.7436949014663696,0.5777696371078491,-0.03222644329071045,0.008617997169494629,0.015888869762420654,0.019755758345127106,0.053484249860048294,-0.025410247966647148,-2.6144594580166336,0.838580477984524,1.9043855696637288
1687087259.76195,-0.3389624059200287,-0.7430264949798584,0.5770758390426636,0.007007420063018799,-0.022644400596618652,-0.03363394737243652,0.13451701402664185,0.038667913526296616,-0.023875534534454346,-2.610504742054236,0.8375811957195767,1.9063560293243078
1687087259.854128,-0.34146207571029663,-0.7338141798973083,0.587299644947052,-0.020018696784973145,-0.006221950054168701,0.02897244691848755,0.30672600865364075,0.09873481839895248,-0.05312405899167061,-2.6149541760859294,0.8239195368177473,1.9182676163204924
1687087259.868593,-0.3421802818775177,-0.7343171834945679,0.586251974105835,-0.0032482147216796875,0.017154037952423096,0.011908113956451416,-0.09744548797607422,0.06353618949651718,-0.056979645043611526,-2.6132637470870086,0.8246602485825228,1.9230243712925352
1687087259.9117188,-0.34130552411079407,-0.7453312277793884,0.5727062821388245,0.005901962518692017,-0.0049588680267333984,0.04014790058135986,-0.4207499325275421,0.052931539714336395,-0.09765665978193283,-2.604154875860058,0.8410315428874754,1.9145602479702202
1687087260.00393,-0.3431328535079956,-0.7476673722267151,0.5685537457466125,0.007470071315765381,0.017229199409484863,0.0027964115142822266,0.2752171456813812,0.23549017310142517,-0.016844367608428,-2.5985898283149615,0.8445424796607379,1.917089841858066
1687087260.017812,-0.3546810746192932,-0.7450023889541626,0.5649540424346924,0.09779936075210571,-0.0816425085067749,0.03152740001678467,-0.4637203514575958,0.4109398424625397,0.24554380774497986,-2.580978691391213,0.8405384512082045,1.9131905045010038
1687087260.061202,-0.3887551426887512,-0.7662861943244934,0.5115417838096619,0.23899012804031372,-0.026331603527069092,0.061807215213775635,-1.6538410186767578,0.9606017470359802,0.6565936803817749,-2.4917427838213255,0.8730407948594452,1.837312645758041
1687087260.1837769,-0.45515236258506775,-0.8174731135368347,0.35295066237449646,0.39426979422569275,-0.13939034938812256,0.1895146369934082,-5.672485828399658,1.3356714248657227,1.4882113933563232,-2.230391268460076,0.9570100628054601,1.5866164737396555
1687087260.197851,-0.5628717541694641,-0.8246980905532837,0.05521528795361519,0.5811822414398193,0.010458409786224365,0.2045503854751587,-6.079031467437744,0.4859474301338196,3.2018351554870605,-1.6685791553474603,0.9696681904742384,0.9717550192171347
1687087260.2748852,-0.7157578468322754,-0.6872000098228455,-0.12428586930036545,0.6666244864463806,-0.14049780368804932,0.08264470100402832,-3.606581926345825,-0.5841807126998901,4.767303943634033,-1.3988682718928354,0.7576277616959923,0.6210843055574723
1687087260.2808409,-0.8721997737884521,-0.45820119976997375,-0.1712285578250885,0.5525281429290771,-0.09325143694877625,0.3670904040336609,-1.9134130477905273,-0.7760676145553589,5.662304878234863,-1.3769436055226525,0.47597040814574015,0.516954985560893
1687087260.366246,-0.971972644329071,-0.1630486249923706,-0.16936436295509338,0.6596099734306335,-0.2245856523513794,0.30499982833862305,-1.1471730470657349,-0.23495839536190033,6.416397571563721,-1.398280331753943,0.1637798492140444,0.5046552613937916
1687087260.380214,-0.9680909514427185,0.17697598040103912,-0.17742429673671722,0.483151376247406,-0.2851608097553253,0.2505597472190857,-0.18425196409225464,0.40222734212875366,7.321522235870361,-1.3895355587000209,-0.1779130732501761,0.5299378926547352
1687087260.516777,-0.8273916244506836,0.5306366086006165,-0.18397767841815948,0.7074270844459534,-0.32944947481155396,0.059771254658699036,-0.8730183243751526,0.32615482807159424,7.878612995147705,-1.3519973810289956,-0.5593514577967631,0.5934951944037129
1687087260.52252,-0.5477148294448853,0.823887825012207,-0.14566144347190857,0.603348433971405,-0.11002063751220703,0.03489793837070465,-2.1060562133789062,0.0017106973100453615,8.355937004089355,-1.3108687976582176,-0.9682369825519754,0.633919493531461
1687087260.576017,-0.18432770669460297,0.976627767086029,0.11055015027523041,1.1682754755020142,0.2665209174156189,0.23736557364463806,-6.108835220336914,-2.0121774673461914,7.615456581115723,-2.1110304186747078,-1.3541683772484538,-0.16537393870803907
1687087260.580862,0.19081009924411774,0.9688912630081177,0.15761175751686096,1.0007182359695435,0.5290030837059021,0.022884592413902283,2.833671808242798,-2.524468183517456,6.43450927734375,2.261199272815731,-1.320710755838143,-1.9808053853239416
1687087260.5844998,0.49148163199424744,0.8636302351951599,0.11220066994428635,1.1548960208892822,0.22215479612350464,0.39989960193634033,-1.861609697341919,-1.462088704109192,5.533845901489258,1.7952406583272593,-1.0424268561732228,-2.3880241377031033
1687087260.631575,0.6791008114814758,0.7170999646186829,0.15681129693984985,0.37937086820602417,0.24618738889694214,0.20704983174800873,-2.812941551208496,-1.4311885833740234,3.9202253818511963,1.7977290119302147,-0.7996324302854594,-2.2850035652123157
1687087260.753972,0.8025465607643127,0.564094066619873,0.19420818984508514,0.3798264265060425,0.3535999655723572,0.0575924813747406,-1.4709174633026123,-1.0498290061950684,3.1564419269561768,1.8082220071972692,-0.5993356781015599,-2.1763083946227826
1687087260.76691,0.8806941509246826,0.4327531158924103,0.1926216334104538,0.3432592749595642,0.2729049324989319,0.22162416577339172,-1.6553682088851929,-0.538309633731842,2.6631016731262207,1.7861212747224937,-0.44754443800099103,-2.149005565332301
1687087260.81147,0.9347063302993774,0.2983761131763458,0.19312183558940887,0.1759047508239746,0.40978431701660156,0.08010220527648926,-1.8587089776992798,-0.7207977771759033,2.2924511432647705,1.774541718808604,-0.3029908046002728,-2.0811705862877217
1687087260.9025478,0.9653630256652832,0.18885795772075653,0.18002034723758698,0.2593228220939636,0.36534133553504944,0.10507501661777496,-0.591122567653656,-0.7138341069221497,1.9627617597579956,1.7551581880748681,-0.1899990403690933,-2.0329781790471864
1687087260.9167519,0.9833189249038696,0.10462469607591629,0.14878809452056885,0.006045818328857422,0.6708117127418518,0.1515202522277832,-0.030814528465270996,-0.5841408371925354,1.3416662216186523,1.72096929474119,-0.10481652095059489,-2.038556700234274
1687087261.0239139,0.9902738928794861,0.056476760655641556,0.1271541714668274,0.05492269992828369,0.41636261343955994,0.11419415473937988,0.12755806744098663,-0.28915339708328247,0.6203029751777649,1.6985005817177208,-0.056506825755439215,-2.0496244599575175
1687087261.086617,0.9918549060821533,0.04411441460251808,0.11948948353528976,0.012982070446014404,0.3660723567008972,0.04020904004573822,0.9522415399551392,-0.028765931725502014,0.12018785625696182,1.6906892759319643,-0.04412873515001776,-2.0822078261027515
1687087261.1016269,0.9918360114097595,0.047095153480768204,0.11850515753030777,0.05706840753555298,0.1660701334476471,0.05066918581724167,0.39732369780540466,-0.07771722972393036,0.0044639394618570805,1.689713184996562,-0.0471125817764757,-2.1198729973533714
1687087261.105303,0.9924535751342773,0.05091840401291847,0.11155201494693756,0.00010037422180175781,0.1783144176006317,-0.03522740304470062,0.6835681796073914,-0.17271794378757477,-0.06410608440637589,1.6827267721696988,-0.05094043404790111,-2.1422869968272424
1687087261.138587,0.9927288293838501,0.062224119901657104,0.10304249823093414,-0.03217273950576782,0.0757305920124054,0.0013277530670166016,0.5034290552139282,-0.155366912484169,-0.22935368120670319,1.674223178307449,-0.06226434244206369,-2.171380735317515
1687087261.1990418,0.9922555685043335,0.079377681016922,0.09554215520620346,-0.006141006946563721,0.006666660308837891,0.023476481437683105,0.30000343918800354,-0.07501018047332764,-0.3596498966217041,1.6667882512893724,-0.07946127564868931,-2.1954363507810997
1687087261.293594,0.9913430213928223,0.09482333064079285,0.09081611037254333,0.026875972747802734,-0.08557648211717606,-0.02329588681459427,0.13200713694095612,-0.14104624092578888,-0.18704462051391602,1.6621505106358678,-0.09496600593839227,-2.1984768858451598
1687087261.383058,0.9912815690040588,0.10163608938455582,0.08385161310434341,0.027547836303710938,-0.08460727334022522,0.04410862922668457,-0.013482943177223206,-0.11318398267030716,-0.04913925752043724,1.6551845335809658,-0.10181188749679615,-2.2038114410963763
1687087261.397624,0.9915969967842102,0.10247340053319931,0.0789613202214241,-0.013966262340545654,-0.08025658130645752,0.01300346851348877,-0.17376983165740967,-0.10497771948575974,-0.026004064828157425,1.6502591096580361,-0.10265359274924664,-2.195263173912264
1687087261.472604,0.9919373393058777,0.09782049059867859,0.08057250827550888,-0.017358243465423584,-0.046688273549079895,0.027841217815876007,-0.18794411420822144,-0.01031400728970766,0.027665043249726295,1.6518458088073753,-0.09797717201900102,-2.1851726271223404
1687087261.486535,0.9925318360328674,0.09031771123409271,0.08199623227119446,0.014472007751464844,-0.044297195971012115,0.020191900432109833,-0.32489392161369324,-0.03294112905859947,0.0995430275797844,1.6532223487172732,-0.09044095767126718,-2.1728693994528445
1687087261.531372,0.9930846095085144,0.08194738626480103,0.08407039940357208,0.01678788661956787,-0.0024490654468536377,-0.009592175483703613,-0.08632130175828934,0.003494376316666603,0.15638631582260132,1.6552507884273413,-0.08203937930348447,-2.1615732984845297
1687087261.543096,0.9935317039489746,0.07322698086500168,0.08679213374853134,0.0023790597915649414,0.009521454572677612,0.002197265625,-0.1888044774532318,-0.0025905207730829716,0.11222837120294571,1.657932309464974,-0.07329257922711532,-2.1567546111416687
1687087261.588927,0.9939005374908447,0.06930702924728394,0.08578278869390488,-0.016757965087890625,0.03892356902360916,-0.03613065928220749,0.004359277430921793,0.019458800554275513,0.04900677129626274,1.6568921939970749,-0.06936263290820517,-2.1516932938062996
1687087261.652152,0.994233250617981,0.06585138291120529,0.08464091271162033,0.014571189880371094,0.03021794557571411,0.0010219812393188477,-0.13130934536457062,-0.024994948878884315,0.096747487783432,1.6557234002769607,-0.06589906643462258,-2.1504310824229433
1687087261.717562,0.9947165250778198,0.06267810612916946,0.08130580186843872,0.007709681987762451,0.014424562454223633,-0.004340410232543945,-0.28558748960494995,-0.00727395573630929,0.09952192008495331,1.652352681595286,-0.062719220870173,-2.141289461984463
1687087261.80319,0.9947124123573303,0.06067772954702377,0.08285873383283615,-0.010108470916748047,0.06284219026565552,0.030224323272705078,-0.5326880216598511,0.05740772560238838,-0.04298233613371849,1.6539036430488154,-0.06071502657241098,-2.1221908140954753
1687087261.818344,0.9943382740020752,0.0620664581656456,0.08625110238790512,-0.00533980131149292,0.05504477024078369,-0.045738935470581055,-0.3441849648952484,0.026728380471467972,-0.08217011392116547,1.657321963370297,-0.062106377346398435,-2.096770855144222
1687087261.859858,0.9938744306564331,0.066526859998703,0.08824968338012695,0.011527299880981445,0.042970240116119385,-0.006965994834899902,-0.05247625336050987,-0.005784342996776104,-0.08397333323955536,1.659357663278391,-0.06657603063330886,-2.0876381883008612
1687087261.952584,0.993757963180542,0.07032117247581482,0.08660496771335602,-0.0007311105728149414,0.02338305115699768,-0.0059468746185302734,-0.13390831649303436,-0.04612579941749573,-0.09157559275627136,1.6577256522278854,-0.07037926188389622,-2.08130886422627
1687087261.967884,0.9936695694923401,0.0758092924952507,0.0829106867313385,-0.02479732036590576,0.11407110840082169,0.019735343754291534,0.15472811460494995,-0.03386588394641876,-0.12050580978393555,1.6540423880515054,-0.07588209471245917,-2.0834240580441987
1687087262.010283,0.993117094039917,0.08378688991069794,0.0818452537059784,0.040330350399017334,0.047988034784793854,0.031344540417194366,-0.22529995441436768,0.007684594020247459,-0.20805367827415466,1.6530229974934556,-0.08388523152101438,-2.078213421080907
1687087262.101531,0.9914630055427551,0.09750332683324814,0.08656871318817139,-0.009727835655212402,0.04815708100795746,0.019586794078350067,-0.02941514365375042,0.10852412134408951,-0.3146198093891144,1.657889566757389,-0.09765848135728895,-2.069000990977904
1687087262.1169028,0.9893729090690613,0.11334197968244553,0.09107696264982224,0.027655959129333496,-0.04461640119552612,-0.04639911651611328,0.09042444080114365,0.034013137221336365,-0.3101350665092468,1.6625928532664158,-0.11358606950307458,-2.067717024244125
1687087262.159944,0.9877423644065857,0.1273217499256134,0.09030137956142426,-0.011072993278503418,-0.11590814590454102,-0.0598752498626709,0.1289415806531906,-0.04508695751428604,-0.1970333456993103,1.661964893502944,-0.1276682756415834,-2.07369435495993
1687087262.258099,0.9873740673065186,0.13395042717456818,0.08455727249383926,-0.029472947120666504,-0.058083683252334595,-0.032875657081604004,0.3693857789039612,-0.11242210119962692,-0.05297008156776428,1.6562264290590112,-0.1343542674562102,-2.0830368768486633
1687087262.263531,0.9873620271682739,0.13795225322246552,0.07800868898630142,0.0017736554145812988,-0.005597516894340515,0.033349983394145966,-0.057625796645879745,-0.10157787799835205,-0.048107217997312546,1.6496397301583687,-0.13839360320136465,-2.095338241566692
1687087262.370888,0.9874537587165833,0.1390366405248642,0.07485897094011307,0.03486979007720947,0.2504287362098694,0.10752939432859421,-0.5674630403518677,-0.021016240119934082,-0.1163901537656784,1.6464616917820554,-0.13948853413030327,-2.0796771360663615
1687087262.385734,0.9854599833488464,0.14884303510189056,0.08194441348314285,0.10647445917129517,0.33260226249694824,0.12459862977266312,-1.7923800945281982,-0.03631684556603432,-0.43918561935424805,1.653758929713949,-0.14939817890839144,-2.0220501965991406
1687087262.464916,0.9795544743537903,0.1714661419391632,0.10522682964801788,0.09550362825393677,0.6746184825897217,0.3211495876312256,-1.7642040252685547,0.47052595019340515,-1.0157155990600586,1.677809108789787,-0.1723176654067739,-1.9153709795717744
1687087262.479451,0.9564641118049622,0.24089224636554718,0.1647663712501526,0.15463542938232422,0.8109571933746338,0.34429746866226196,-0.7886139750480652,1.584912896156311,-2.276111602783203,1.7413881383674858,-0.24328506548604845,-1.8426755628664613
1687087262.581258,0.8819490671157837,0.37871670722961426,0.2806060016155243,0.2952207922935486,0.7930972576141357,0.33768031001091003,-0.4775431454181671,2.954671859741211,-4.0424723625183105,1.8788345242323137,-0.3884093244265853,-1.7663460125231707
1687087262.5961199,0.7008126974105835,0.5855908989906311,0.40736356377601624,0.8756033182144165,0.6636003851890564,0.23667952418327332,1.7657921314239502,4.014364242553711,-5.844079494476318,2.0973322295806964,-0.6256088064372942,-1.680767344006766
1687087262.701222,0.3691661059856415,0.8285510540008545,0.4209747910499573,1.6093647480010986,0.5651258230209351,0.293212890625,3.668543815612793,3.734123945236206,-7.533430099487305,2.421669662960202,-0.9765148834322016,-1.5149548498073915
1687087262.7157621,-0.03931824862957001,0.9767147302627563,0.21090832352638245,1.7415276765823364,0.4712679386138916,0.3698717951774597,6.239131450653076,1.9918484687805176,-7.9694905281066895,-2.9572849254155704,-1.3545732463897682,-0.7121121259358686
1687087262.7918181,-0.42335245013237,0.9018639922142029,-0.08610527217388153,1.5203219652175903,0.19928652048110962,0.24737548828125,5.550560474395752,-0.8768417239189148,-7.659256458282471,-1.370144151783271,-1.1240649150553212,0.8970738143444293
1687087262.79723,-0.7254823446273804,0.6530260443687439,-0.21733036637306213,1.2532991170883179,0.04019606113433838,0.3039087653160095,3.5192618370056152,-2.4365055561065674,-6.653565406799316,-1.2797370870165268,-0.7115732337534688,1.1131739538225263
1687087262.916339,-0.909906804561615,0.38083383440971375,-0.16442443430423737,1.1083778142929077,0.06971243023872375,0.18685491383075714,1.09562087059021,-2.8181705474853516,-5.669955730438232,-1.3920208852671645,-0.3906979216569155,1.1490855401202982
1687087262.930486,-0.9924709796905518,0.11720791459083557,-0.03554927557706833,0.9771816730499268,0.08924349397420883,0.032024625688791275,0.9023551940917969,-3.05256724357605,-5.070165157318115,-1.5349926749267924,-0.1174779447945745,1.169565256257275
1687087263.003722,-0.9855717420578003,-0.12189888209104538,0.11742646992206573,0.8712376952171326,0.16196848452091217,-0.00965358316898346,-0.07157553732395172,-3.077569007873535,-4.710872173309326,-1.6893828307708583,0.12220281028658045,1.2037984318152783
1687087263.018018,-0.9058564305305481,-0.3413313925266266,0.25083237886428833,0.6483796834945679,0.1660842001438141,-0.13022688031196594,0.13078288733959198,-2.694990873336792,-4.412987232208252,-1.840928840326548,0.3483330038321016,1.240970352761585
1687087263.091299,-0.7773278951644897,-0.5141941905021667,0.36244437098503113,0.502120316028595,-0.15850478410720825,0.11298906803131104,-0.26484525203704834,-2.360431671142578,-3.681185245513916,-2.0070973985676908,0.5400678890656382,1.3228121464969438
1687087263.0961251,-0.6438891291618347,-0.6212350130081177,0.4466254711151123,0.37165701389312744,-0.17300033569335938,0.0373682975769043,0.8374518752098083,-1.724482774734497,-2.7017557621002197,-2.1772391857344617,0.6703177136149898,1.4402267311384895
1687087263.242301,-0.5413219928741455,-0.6887266635894775,0.4823133647441864,0.2695934772491455,-0.30759596824645996,0.13487428426742554,-0.5390635132789612,-1.0463979244232178,-1.6098408699035645,-2.298612095485949,0.7597312854887849,1.5200596146101524
1687087263.248121,-0.4806652367115021,-0.7293829917907715,0.48678699135780334,0.12264826893806458,-0.23501825332641602,0.1367788016796112,-0.43714043498039246,-0.3928554058074951,-0.8332383036613464,-2.3625221054915837,0.8174195899188308,1.5607188099426508
1687087263.307996,-0.45464006066322327,-0.7519918084144592,0.4772949516773224,0.11491847038269043,-0.14371424913406372,0.005203127861022949,-0.3462940752506256,-0.15034301578998566,-0.34820452332496643,-2.380499229213601,0.8510785741428218,1.567817474601146
1687087263.3127089,-0.44459253549575806,-0.7663300037384033,0.46376311779022217,0.03242206573486328,-0.08671265840530396,-0.06514239311218262,-0.5064237713813782,-0.14013469219207764,-0.033513136208057404,-2.377296076675005,0.8731089634843604,1.5549302692701676
1687087263.316407,-0.4384533166885376,-0.7766916155815125,0.45222657918930054,-0.029518425464630127,0.06755471229553223,-0.030671894550323486,-0.14060606062412262,-0.13427478075027466,-0.09556019306182861,-2.3716570186150676,0.8893962670389612,1.53606657997846
1687087263.35816,-0.42807328701019287,-0.7827898263931274,0.4516570270061493,-0.02352595329284668,0.032682836055755615,-0.0847439169883728,-0.048985861241817474,-0.20300191640853882,-0.2356150895357132,-2.382995990735125,0.8991364172530759,1.540189419407235
1687087263.453336,-0.4131713807582855,-0.7873215675354004,0.4576181471347809,-0.03188171982765198,0.08337259292602539,-0.001700669527053833,0.2069403976202011,-0.08363839238882065,-0.36325156688690186,-2.4071921553535676,0.9064525962310068,1.5613807758782894
1687087263.468151,-0.39579591155052185,-0.7952131032943726,0.4593272805213928,-0.001939624547958374,0.017991483211517334,-0.010856270790100098,-0.062029171735048294,-0.05679953843355179,-0.39209750294685364,-2.4303532541853143,0.9193589142052336,1.5851097330743624
1687087263.509282,-0.3807238042354584,-0.8028612732887268,0.4587633013725281,0.0195329487323761,-0.027690112590789795,0.004249632358551025,-0.04564828425645828,-0.0331699475646019,-0.30044442415237427,-2.4488890003224357,0.9320792339370904,1.606222190329448
1687087263.6041,-0.3705195188522339,-0.8071053624153137,0.4596695899963379,0.015401780605316162,0.006430983543395996,-0.021711796522140503,0.2210221290588379,-0.010256056673824787,-0.15796314179897308,-2.4631698006711544,0.9392327947652686,1.621823377962639
1687087263.619314,-0.36857932806015015,-0.8035241365432739,0.46743831038475037,0.02632465958595276,-0.06151193380355835,0.003539562225341797,0.0677543357014656,0.0467088520526886,-0.005329746752977371,-2.473897779360167,0.9331920143655286,1.6360144732493935
1687087263.6601691,-0.3731054961681366,-0.8047906160354614,0.4616321921348572,0.009397000074386597,-0.012271702289581299,0.02353629469871521,-0.0311575960367918,0.14255495369434357,0.06297416985034943,-2.4618528595987312,0.9353226578666048,1.6277752388724078
1687087263.728337,-0.3777537941932678,-0.8032121062278748,0.46060073375701904,-0.01607564091682434,-0.014094650745391846,0.005357146263122559,-0.01678883098065853,0.20535345375537872,0.020770030096173286,-2.4546955874048737,0.9326680197673046,1.6296857637501536
1687087263.8143659,-0.3812519311904907,-0.8022139072418213,0.45945629477500916,-0.025379538536071777,0.018644511699676514,0.009949922561645508,0.05975404381752014,0.2685518264770508,-0.07583680003881454,-2.44894956987696,0.9309942280650612,1.6367025120781495
1687087263.819841,-0.3848389983177185,-0.8007152676582336,0.4590796232223511,0.005383431911468506,0.005869746208190918,-0.0252264142036438,0.23099060356616974,0.3080263137817383,-0.03824717551469803,-2.443939922794915,0.9284883245062441,1.6481248982288732
1687087263.871951,-0.40017735958099365,-0.7981483936309814,0.45035290718078613,0.12188750505447388,-0.17072391510009766,0.0666608214378357,-0.6507928371429443,0.6501187086105347,0.37512174248695374,-2.4151194363457416,0.9242154767853924,1.639970951971801
1687087263.995714,-0.45866072177886963,-0.8144940137863159,0.355288565158844,0.31599104404449463,-0.5595294833183289,0.24320697784423828,-2.8177995681762695,1.132217526435852,1.7875126600265503,-2.229870016899963,0.9518565134340544,1.4642641992412453
1687087264.0010529,-0.5829249620437622,-0.7883473038673401,0.19674111902713776,0.5701228380203247,-0.47704875469207764,0.2241726815700531,-4.056415557861328,1.2955386638641357,3.572632074356079,-1.896298255846746,0.9081180670118731,1.1322875052597738
1687087264.084259,-0.7505010962486267,-0.6608687043190002,0.0007928365957923234,0.925382137298584,-0.30008405447006226,0.0782783031463623,-4.843992233276367,0.12408407032489777,5.117939472198486,-1.5718527360300503,0.7219756362556057,0.7473910906462915
1687087264.099049,-0.907239556312561,-0.4103897511959076,-0.0921795591711998,0.8630194067955017,-0.21137547492980957,0.047837547957897186,-3.999554395675659,-1.4129645824432373,6.0047197341918945,-1.469539383498529,0.42288142764394443,0.5034138184922466
1687087264.173339,-0.9933601021766663,-0.10759253799915314,-0.040736835449934006,0.7628760933876038,0.03412146866321564,0.08842062950134277,-1.1585566997528076,-2.0937414169311523,6.1701812744140625,-1.529810159326374,0.1078012082794353,0.3855654782166089
1687087264.1871629,-0.9755096435546875,0.21037650108337402,0.06420902907848358,0.8115691542625427,-0.13016104698181152,0.0449981689453125,0.10860072821378708,-2.1329050064086914,6.62353515625,-1.6365225254277038,-0.2119600630843925,0.366611408038917
1687087264.261723,-0.8360559344291687,0.5141474604606628,0.19147516787052155,0.938823938369751,-0.18480175733566284,0.25176212191581726,-3.849846363067627,-2.3972811698913574,6.93043327331543,-1.7959356186595286,-0.5400133622511427,0.2436181855097509
1687087264.266752,-0.5781779885292053,0.6752598881721497,0.4579683840274811,1.015189528465271,0.05881017446517944,0.10013735294342041,-5.1648688316345215,-3.921464204788208,6.2759690284729,-2.2406947910034476,-0.7413170045601971,-0.22330376776983862
1687087264.354475,-0.2622499167919159,0.6863076090812683,0.6783856153488159,1.0816316604614258,0.24876630306243896,0.14037060737609863,-0.710955023765564,-4.6724853515625,4.871042728424072,-2.7727090326872506,-0.756400046649338,-0.6858284347347334
1687087264.443517,0.056049566715955734,0.76719731092453,0.6389578580856323,0.8417470455169678,0.1350703239440918,0.238819420337677,1.8649324178695679,-3.916917324066162,4.457987308502197,3.0540963352191346,-0.8744601321810002,-1.0011027291188588
1687087264.448855,0.32571908831596375,0.7312299013137817,0.599341630935669,0.7774761915206909,0.1843738555908203,0.2840051054954529,-1.3457365036010742,-3.2465858459472656,3.8946802616119385,2.643783294033807,-0.8201232423539054,-1.3125186581445496
1687087264.5018811,0.55006343126297,0.6103403568267822,0.5700135827064514,0.5374306440353394,0.3072013258934021,0.2562195062637329,0.028826646506786346,-2.8935537338256836,3.7597038745880127,2.374004047514015,-0.6564902089212652,-1.4752039890305217
1687087264.592443,0.717428982257843,0.5161831378936768,0.46781471371650696,0.527596652507782,0.28122591972351074,0.23012229800224304,1.2375417947769165,-2.2486636638641357,3.565490961074829,2.148626134361483,-0.5423884525826459,-1.6511480488577883
1687087264.5981112,0.8315409421920776,0.4189397990703583,0.36473196744918823,0.34433186054229736,0.378713458776474,0.2934103012084961,0.7388213872909546,-1.4760717153549194,2.7791221141815186,1.9841479372788995,-0.4322773853051346,-1.8051464860891653
1687087264.682742,0.9029814004898071,0.3063606321811676,0.3012774586677551,0.3059268593788147,0.4691216051578522,0.22643259167671204,0.2835794687271118,-1.130082130432129,2.4922420978546143,1.8928295932992483,-0.3113674566572656,-1.8718788351653755
1687087264.698602,0.945692777633667,0.21180734038352966,0.24658261239528656,0.19560366868972778,0.3851165175437927,0.1120753288269043,0.8215077519416809,-0.9708713889122009,2.172853469848633,1.8258600589134129,-0.21342388530056647,-1.9401893074057677
1687087264.76926,0.9729294180870056,0.11851311475038528,0.19840186834335327,0.1895463466644287,0.5206623077392578,0.1845785677433014,-0.26940682530403137,-0.895635724067688,1.7055410146713257,1.771960336985496,-0.1187923075665545,-1.9763208035400326
1687087264.78305,0.985005795955658,0.054328542202711105,0.1637439727783203,0.08465057611465454,0.4772724211215973,0.10427676141262054,0.2780027687549591,-0.5266994833946228,0.9858797788619995,1.7355264933905816,-0.05435530486865315,-1.9919860219739378
1687087264.869677,0.9894058108329773,0.02538178861141205,0.1429404616355896,0.001942455768585205,0.5021297931671143,0.10403834283351898,0.3714718222618103,-0.3014362156391144,0.2838602066040039,1.7142746154980866,-0.025384514224669162,-2.007023423640133
1687087264.884862,0.9907961487770081,0.024025484919548035,0.13321377336978912,0.02594280242919922,0.31658121943473816,0.11333774030208588,0.14049948751926422,-0.1298285722732544,-0.09014143794775009,1.7044460832512887,-0.0240277973028135,-2.022843624460986
1687087264.983972,0.991426944732666,0.03298358619213104,0.12643150985240936,0.02869945764541626,0.17941877245903015,0.07115457952022552,0.10539481788873672,-0.1357523500919342,-0.19507214426994324,1.697636492486814,-0.032989569082787516,-2.0311602967377294
1687087265.046782,0.9915557503700256,0.045483123511075974,0.12144329398870468,0.01486814022064209,0.13992643356323242,0.07064972817897797,0.10939130932092667,-0.07070337235927582,-0.3003677427768707,1.6926668863384826,-0.045498819517106485,-2.030649817091831
1687087265.0519772,0.9904743432998657,0.06641147285699844,0.12062396854162216,-0.009364724159240723,0.07306911796331406,0.07404779642820358,0.10934700071811676,0.05037293583154678,-0.4892544448375702,1.6919836004632633,-0.0664603889308912,-2.0363915959133485
1687087265.0563788,0.9876232743263245,0.09375770390033722,0.12573878467082977,0.004396557807922363,0.01796717941761017,0.03785087168216705,0.18971891701221466,0.14656981825828552,-0.5298129916191101,1.697429575534027,-0.0938956161404549,-2.0385147419536076
1687087265.1309428,0.9843202233314514,0.11748173832893372,0.131574809551239,0.006234645843505859,-0.07378056645393372,0.03683662414550781,-0.05666343867778778,0.11135324835777283,-0.40115591883659363,1.7036793507986636,-0.11775368044601847,-2.0422357042089496
1687087265.224266,0.9811412692070007,0.1344575583934784,0.13886405527591705,0.011305689811706543,-0.1258363127708435,0.004889130592346191,-0.0098782479763031,0.15054118633270264,-0.29391196370124817,1.7113956638808037,-0.13486602592987332,-2.037925950423962
1687087265.229527,0.978493869304657,0.1479746550321579,0.14371374249458313,-0.016655921936035156,-0.09237159788608551,-0.05167256295681,0.7240350842475891,0.09566499292850494,-0.2143663913011551,1.7166261023592628,-0.14852006686326244,-2.0457952681082667
1687087265.311408,0.976838231086731,0.16079561412334442,0.14118075370788574,-0.03140360116958618,-0.22100678086280823,0.004067778587341309,0.554022490978241,0.08513571321964264,-0.017465705052018166,1.7143307193370854,-0.16149670891875725,-2.0852810570430793
1687087265.3179622,0.9768980741500854,0.15763995051383972,0.1442919671535492,0.026886284351348877,-0.16359086334705353,-0.011372551321983337,0.1929086446762085,0.11810851842164993,0.23851236701011658,1.7174402554455626,-0.15830026779608775,-2.101944873172095
1687087265.370249,0.9783499836921692,0.14432252943515778,0.14833275973796844,0.011808216571807861,-0.04414856433868408,-0.03640937805175781,-0.009508281014859676,0.07127635180950165,0.3077543377876282,1.7212655914567871,-0.14482829631297342,-2.110462294042013
1687087265.463204,0.9799730181694031,0.13068750500679016,0.15024565160274506,-0.008461177349090576,0.021610483527183533,-0.06008137762546539,0.06930248439311981,0.043770745396614075,0.25273311138153076,1.7229278235786534,-0.1310624010005921,-2.115071719291475
1687087265.469526,0.9812673926353455,0.11949954926967621,0.1511109620332718,0.010645627975463867,0.07994811236858368,-0.056567415595054626,0.024202756583690643,0.006873767822980881,0.20858818292617798,1.7235917418604298,-0.11978580174887474,-2.1219896423023026
1687087265.5534902,0.9825249314308167,0.11075785011053085,0.14959168434143066,0.017459869384765625,0.08473777770996094,-0.05689442157745361,-0.22186943888664246,-0.1151997298002243,0.0888628214597702,1.7218882898541712,-0.1109855580851141,-2.1129488490231974
1687087265.642169,0.983762800693512,0.11042562127113342,0.14148207008838654,0.015703201293945312,0.09234842658042908,-0.018755555152893066,-0.10698365420103073,-0.11804867535829544,-0.0313466340303421,1.7136341682582596,-0.11065128371326377,-2.1075683809559287
1687087265.6480951,0.9842404127120972,0.11647304147481918,0.13306057453155518,-0.010714292526245117,0.06815832853317261,0.006587982177734375,-0.010840607807040215,-0.0956975594162941,-0.1288725882768631,1.7051727679490667,-0.11673800904146564,-2.103433835289955
1687087265.731399,0.983792781829834,0.12681275606155396,0.12677042186260223,0.003313720226287842,0.029101595282554626,0.02751125395298004,0.10266869515180588,-0.09758958220481873,-0.15824291110038757,1.6989489966880835,-0.1271551248960224,-2.1053111697348146
1687087265.7470279,0.9827930331230164,0.1372786909341812,0.12358348071575165,0.0021924972534179688,-0.020899847149848938,0.029996410012245178,0.1091812402009964,-0.0747823715209961,-0.12888282537460327,1.6958869658055633,-0.1377135624331069,-2.1101908128367888
1687087265.826563,0.9818822145462036,0.1443815678358078,0.12272457033395767,-0.0030766725540161133,-0.0237455815076828,0.026292793452739716,0.03762546181678772,-0.038032665848731995,-0.13223889470100403,1.6951405859012427,-0.14488796091218645,-2.113948645754594
1687087265.83236,0.9809361100196838,0.14865291118621826,0.12516728043556213,0.0067806243896484375,-0.055375903844833374,0.023361802101135254,-0.027363765984773636,-0.013217119500041008,-0.08361860364675522,1.6977103251072525,-0.14920590844164702,-2.1107490330100034
1687087265.913409,0.9803217053413391,0.149621844291687,0.12877389788627625,-0.004873096942901611,-0.05996118485927582,0.012232646346092224,-0.07919005304574966,0.016110356897115707,-0.029607435688376427,1.7014073336071764,-0.15018579850892144,-2.1086392427831164
1687087265.9193149,0.9801920652389526,0.14602017402648926,0.13379915058612823,0.0012382268905639648,-0.056267932057380676,0.0022940784692764282,-0.06980544328689575,0.02411310188472271,0.024327103048563004,1.7064608505147936,-0.14654411850364357,-2.100260274024031
1687087265.971967,0.9804629683494568,0.14128892123699188,0.13685709238052368,0.003286421298980713,0.04189284145832062,-0.0055246502161026,-0.1576010286808014,0.05718892440199852,0.05997810885310173,1.7094843916754552,-0.14176327374141381,-2.098096513555638
1687087266.0933309,0.98064124584198,0.1382705271244049,0.13865098357200623,0.02842247486114502,0.2649124264717102,-0.045557036995887756,-0.15933170914649963,-0.03408287838101387,-0.0699119120836258,1.7112533944898072,-0.1387149534606423,-2.0852187898244487
1687087266.098781,0.9799912571907043,0.15037405490875244,0.13040374219417572,0.16066443920135498,0.5874646902084351,-0.08902178704738617,-0.0859958678483963,-0.34021425247192383,-0.5282599329948425,1.703085405381619,-0.15094661502151624,-2.080881840023084
1687087266.181709,0.9735339283943176,0.19611328840255737,0.1173526719212532,0.1235121488571167,0.6379321813583374,0.08397187292575836,-0.9963343143463135,-0.24364733695983887,-1.545093297958374,1.690760478134668,-0.19739266235769137,-2.0473572671766216
1687087266.198389,0.9482256174087524,0.2895068824291229,0.1305905431509018,0.20634585618972778,0.6345959305763245,0.12687109410762787,-0.6042811870574951,0.39058318734169006,-2.5748965740203857,1.707656345975657,-0.2937116090679585,-1.986877089919029
1687087266.272252,0.8809083104133606,0.4360705018043518,0.18396621942520142,0.2887086272239685,0.5725050568580627,0.38402700424194336,-0.11434856802225113,1.7448995113372803,-3.9079034328460693,1.7766743600516324,-0.4512274888986019,-1.9394912324998892
1687087266.2874188,0.7347073554992676,0.6402393579483032,0.224274680018425,0.6219059228897095,0.47403383255004883,0.13989165425300598,3.1656529903411865,2.112147808074951,-5.443501949310303,1.8670692033542506,-0.6948098290812939,-1.9545857070241228
1687087266.360382,0.4759029448032379,0.8718246817588806,0.1159239113330841,1.0842777490615845,0.5536209344863892,0.2533845901489258,5.038817882537842,1.1246795654296875,-7.133447170257568,1.809730454808045,-1.0589152268506385,-2.1413576517784816
1687087266.3653421,0.11352157592773438,0.9869091510772705,-0.1145581528544426,1.6098976135253906,0.590636134147644,0.30933666229248047,4.383561611175537,-0.5145344734191895,-7.943578243255615,0.7808533776107206,-1.4088115651130315,3.057687548832561
1687087266.421195,-0.29598042368888855,0.9083602428436279,-0.29542747139930725,1.797170639038086,0.6824295520782471,0.13334864377975464,3.913071870803833,-2.341305732727051,-8.389046669006348,-0.7863331492549674,-1.1393461449513242,1.527529395990636
1687087266.5133,-0.676739513874054,0.661465048789978,-0.32324549555778503,1.6670501232147217,0.3609653115272522,0.1501956284046173,1.2691268920898438,-3.6529881954193115,-8.075872421264648,-1.1251870054083974,-0.7227705801650971,1.3035057692677616
1687087266.518811,-0.9249763488769531,0.3311851918697357,-0.18637438118457794,1.2748907804489136,0.14507213234901428,0.02838490903377533,0.21113844215869904,-3.746016502380371,-7.568685531616211,-1.3719675528512856,-0.3375593898078838,1.1920719330875438
1687087266.5703669,-0.999839723110199,-0.014761019498109818,-0.010131820105016232,1.1481094360351562,0.10475733876228333,0.00216680858284235,-0.6043354272842407,-3.3102025985717773,-6.676430702209473,-1.5606632288885018,0.014761555420511272,1.1343129485583245
1687087266.662372,-0.9354778528213501,-0.3269922733306885,0.1340044140815735,1.0166547298431396,0.04369759559631348,-0.0667741596698761,-1.127564549446106,-2.9806973934173584,-5.8451690673828125,-1.7130754406979074,0.33311911826984053,1.1140492237877833
1687087266.668606,-0.7902258038520813,-0.5726891160011292,0.21810594201087952,0.6404761672019958,-0.19772708415985107,0.07973046600818634,-0.31338003277778625,-2.0530524253845215,-4.647791862487793,-1.8400962439611528,0.6097824214113755,1.104506505226069
1687087266.752502,-0.6480181217193604,-0.7015100121498108,0.2965742349624634,0.6076891422271729,-0.3634924292564392,0.019328564405441284,-0.031202124431729317,-1.5448739528656006,-2.9341201782226562,-2.0000048842759295,0.7775141440898893,1.219403444187238
1687087266.843933,-0.5416116714477539,-0.7911058664321899,0.2842690646648407,0.22604453563690186,-0.19383394718170166,0.011858373880386353,-1.7695143222808838,-0.9171677231788635,-1.7866383790969849,-2.054131787680561,0.9126147914930255,1.2079804091070705
1687087266.850188,-0.4742605686187744,-0.8419632911682129,0.2572445571422577,0.2473471462726593,-0.10098409652709961,-0.07790794968605042,-0.8672696948051453,-0.5533480048179626,-1.120620608329773,-2.06779503803553,1.000911823613852,1.1786697489122533
1687087266.9334378,-0.4349428713321686,-0.8671256899833679,0.24273045361042023,0.1665712594985962,-0.026047587394714355,-0.11374783515930176,0.13552220165729523,-0.2020152062177658,-0.616930365562439,-2.0798175178887726,1.0494023201242328,1.1760623811096131
1687087266.94978,-0.4132034182548523,-0.8756369948387146,0.2500455975532532,0.005976885557174683,-0.0353737473487854,0.018615931272506714,-0.17255835235118866,0.05687509477138519,-0.3217708170413971,-2.1149861037106112,1.0667531707460514,1.2091028455567712
1687087267.0195122,-0.4014357924461365,-0.8814462423324585,0.24880094826221466,0.07642361521720886,0.017478346824645996,-0.07909251749515533,0.35118067264556885,0.049909546971321106,-0.19532403349876404,-2.1256314636318234,1.0789157359623733,1.2246808010367722
1687087267.032875,-0.398127019405365,-0.8781048655509949,0.2653811573982239,0.041361212730407715,-0.0075002312660217285,-0.011383265256881714,0.319679319858551,0.07311505079269409,-0.05686664208769798,-2.1587348281570704,1.071886798984699,1.265857681543716
1687087267.143323,-0.3983497619628906,-0.8749334812164307,0.2753347158432007,0.02878183126449585,-0.017690539360046387,-0.03996777534484863,0.19863229990005493,-0.00029269210062921047,0.024379923939704895,-2.1755839193680346,1.0652983759714179,1.2885524724545023
1687087267.148975,-0.39978599548339844,-0.8745161890983582,0.2745767831802368,-0.034173935651779175,-0.033930957317352295,0.014882504940032959,-0.3106909692287445,-0.07433128356933594,0.028996890410780907,-2.1726145525907543,1.0644374215514636,1.2820914443925495
1687087267.204259,-0.39912348985671997,-0.8781797885894775,0.2636301517486572,-0.05206367373466492,0.007131755352020264,0.008998602628707886,-0.057905588299036026,-0.040921662002801895,-0.05297059193253517,-2.154533410390827,1.072043476568566,1.2585131743792861
1687087267.2187219,-0.3957575261592865,-0.8786534667015076,0.2671038508415222,-0.03527277708053589,0.028799891471862793,0.02241659164428711,0.2484884262084961,0.08056508749723434,-0.12200045585632324,-2.164489608218978,1.0730346406415792,1.2711601853133172
1687087267.25877,-0.3942229449748993,-0.8763970136642456,0.27661702036857605,-0.003558516502380371,-0.01610499620437622,0.009210735559463501,0.2712246775627136,0.15203730762004852,-0.08684684336185455,-2.182646643981969,1.0683290785301012,1.300011933689819
1687087267.3200622,-0.39518699049949646,-0.8747263550758362,0.28050175309181213,-0.0025944113731384277,-0.030058860778808594,0.013031721115112305,0.009840063750743866,0.21403999626636505,-0.005918039008975029,-2.1880659184685642,1.0648709037616466,1.3171101046965956
1687087267.414283,-0.40124478936195374,-0.8728415369987488,0.2777596414089203,0.037048012018203735,-0.026770949363708496,-0.040409088134765625,0.03678816556930542,0.19598835706710815,0.13539943099021912,-2.176298502925069,1.0609951103257553,1.3151349468601197
1687087267.419584,-0.4128628075122833,-0.868942141532898,0.27291780710220337,0.058843642473220825,-0.016601741313934326,-0.025023460388183594,-0.07111918181180954,0.14752212166786194,0.2115831822156906,-2.1548917029713084,1.0530608489451303,1.3016474944960585
1687087267.472333,-0.42091482877731323,-0.8672404289245605,0.2659423351287842,-0.06234636902809143,0.036719560623168945,0.0004915595054626465,-0.018825244158506393,0.13379651308059692,0.0940389335155487,-2.13428475371471,1.049632797155016,1.285423901234102
1687087267.5636249,-0.4228675365447998,-0.8652116060256958,0.269429475069046,-0.02519160509109497,0.038688600063323975,-0.026799410581588745,0.28225255012512207,0.10845227539539337,-0.024657882750034332,-2.138084089735403,1.0455722399400693,1.2959885191683955
1687087267.5691462,-0.42803317308425903,-0.8589859008789062,0.2809465527534485,0.032799988985061646,-0.08507537841796875,-0.0182359516620636,0.31860968470573425,0.33184218406677246,0.2307427078485489,-2.1516339550726826,1.0332857165147316,1.322304723078878
1687087267.6229181,-0.46948567032814026,-0.8396940231323242,0.2729416489601135,0.25577113032341003,-0.4084138870239258,0.028785675764083862,-0.3367958962917328,1.0075243711471558,1.424599528312683,-2.0973994933690516,0.9967195147503303,1.2959686907309613
1687087267.71552,-0.5783678889274597,-0.7973120212554932,0.17258107662200928,0.5589281916618347,-0.5737359523773193,0.10842490196228027,-2.9281342029571533,1.159208059310913,3.355067491531372,-1.8607783952012389,0.9228285596298339,1.079369325180506
1687087267.731955,-0.7462723255157471,-0.6653269529342651,0.02043256349861622,0.8250839710235596,-0.5181599259376526,0.042922019958496094,-3.334892511367798,0.5917637944221497,5.23525857925415,-1.5981689876570746,0.72793168685215,0.7898446015962957
1687087267.769172,-0.9050264358520508,-0.4190911054611206,-0.07273087650537491,0.8295107483863831,-0.2618018388748169,0.042106516659259796,-3.909860372543335,-0.7160394787788391,6.162952899932861,-1.4906053993910722,0.4324440318274759,0.5926721940363533
1687087267.870253,-0.99173903465271,-0.11611997336149216,-0.054500725120306015,0.8774199485778809,0.025726884603500366,0.11962532252073288,-3.0262832641601562,-2.1321215629577637,5.879064083099365,-1.5158968425807207,0.11638252746968608,0.42690481438503197
1687087267.886415,-0.9818605184555054,0.17362424731254578,0.07618677616119385,0.8229708075523376,-0.07322144508361816,-0.03604079782962799,-1.5900076627731323,-3.029219627380371,5.7694315910339355,-1.6482354535940915,-0.17450862925519928,0.31121831429954594
1687087267.9182801,-0.8620287179946899,0.44247445464134216,0.24723052978515625,0.7398667931556702,-0.14546209573745728,-0.04442596435546875,-0.6077989339828491,-3.6817166805267334,6.171512603759766,-1.8501002070320394,-0.4583560476210616,0.2143201167458137
1687087268.014039,-0.6159147024154663,0.634225070476532,0.4673415422439575,0.9490444660186768,-0.17180734872817993,0.1391192078590393,-4.062003135681152,-4.553881645202637,6.389688014984131,-2.2198907291056287,-0.6870058216679905,-0.0763594329085568
1687087268.0194511,-0.2872059941291809,0.5950034856796265,0.7506553530693054,1.1892750263214111,0.11828398704528809,0.41046208143234253,-4.8042216300964355,-4.987306594848633,4.8961100578308105,-2.7761695872744703,-0.6372699973475907,-0.5789659119520295
1687087268.071124,0.041082728654146194,0.6302850842475891,0.7752763628959656,1.0078827142715454,0.19812995195388794,0.0530625581741333,3.302833318710327,-4.793062210083008,3.9260802268981934,3.0886510961736495,-0.6819203325997726,-0.854315330077008
1687087268.160943,0.3189542889595032,0.683978796005249,0.6560805439949036,0.6940157413482666,0.04098165035247803,0.378648579120636,1.3622181415557861,-3.1225554943084717,4.0415167808532715,2.6890854067972847,-0.7532028856930045,-1.153288121328004
1687087268.1667151,0.5320461988449097,0.6075257658958435,0.5897791981697083,0.5245944261550903,0.16252434253692627,0.2603795528411865,-0.46112972497940063,-2.445618152618408,3.740851640701294,2.407612561500881,-0.6529419020012884,-1.3755420644165108
1687087268.2224588,0.6907040476799011,0.5035799145698547,0.5189758539199829,0.5061192512512207,0.19441837072372437,0.11034262180328369,0.9783576130867004,-2.2291719913482666,3.2256925106048584,2.2151750615404855,-0.5277374322961009,-1.519970839634431
1687087268.313488,0.8097090125083923,0.41174986958503723,0.4181308448314667,0.3854355812072754,0.3512811064720154,0.2989560663700104,0.7262048125267029,-1.5258489847183228,2.9563090801239014,2.0474748646091046,-0.4243734384940612,-1.672170395322997
1687087268.319103,0.8864430785179138,0.2954965829849243,0.3562316298484802,0.447983980178833,0.33078524470329285,0.05990627408027649,0.5584462881088257,-1.3468679189682007,2.7539515495300293,1.952910585331239,-0.29997526195694263,-1.7439792350052448
1687087268.369632,0.9357448220252991,0.19862505793571472,0.2914280593395233,0.2424018383026123,0.5492998361587524,0.17855805158615112,1.0825698375701904,-1.0068267583847046,2.007957935333252,1.8727149006963542,-0.19995483016068286,-1.8281858751527873
1687087268.462919,0.9614352583885193,0.127964586019516,0.24344909191131592,0.249548077583313,0.376582533121109,0.12331128120422363,0.9790633916854858,-0.6666789650917053,1.5576173067092896,1.8187978592609948,-0.1283164229138341,-1.8978755137457672
1687087268.468514,0.9749629497528076,0.0739809200167656,0.20970097184181213,0.1821874976158142,0.3050779402256012,0.04831007122993469,1.140352487564087,-0.6258043646812439,1.381122350692749,1.782654775849887,-0.07404856887555451,-1.9799416421335991
1687087268.520596,0.9840083718299866,0.014841025695204735,0.1775030940771103,0.11418193578720093,0.5318661332130432,0.16200505197048187,-0.38734474778175354,-0.6005905866622925,1.0610270500183105,1.7492648605601213,-0.014841570378527572,-2.0085957879501914
1687087268.613214,0.9882134795188904,-0.0199976097792387,0.15176962316036224,0.02817434072494507,0.5131006836891174,0.057977765798568726,-0.003532946575433016,-0.3896694481372833,0.25064724683761597,1.7231854394529718,0.019998942154232303,-2.000046750738711
1687087268.6190782,0.9895914793014526,-0.01600244641304016,0.1430136263370514,0.037798166275024414,0.36675623059272766,0.10237836837768555,0.2804049849510193,-0.038397304713726044,-0.2834572196006775,1.7143204922896846,0.016003128634436193,-2.006637057861987
1687087268.73125,0.9895973801612854,0.010647766292095184,0.1434718519449234,0.0894739031791687,0.1137266457080841,0.03348447382450104,0.5571051239967346,-0.02171851508319378,-0.5061731934547424,1.7147731836485205,-0.010647967820095493,-2.0352846628544117
1687087268.7369251,0.9896425008773804,0.03763214498758316,0.13853271305561066,-0.06285429000854492,-0.01411835104227066,0.020112961530685425,0.4539905786514282,-0.11353109776973724,-0.39795708656311035,1.7098751850447362,-0.03764103213871554,-2.058398641980479
1687087268.822517,0.9897586703300476,0.05392416566610336,0.1321752518415451,-0.03864765167236328,-0.09786944836378098,0.07743479311466217,-0.3547387421131134,-0.12302234023809433,-0.2755546271800995,1.7035537733858148,-0.0539503326062944,-2.0555092142194558
1687087268.840137,0.9894185066223145,0.06365177035331726,0.13038304448127747,-0.021492362022399902,-0.07228821516036987,0.04896879196166992,-0.0490729995071888,0.07415522634983063,-0.1985311359167099,1.7018188344105478,-0.06369482856524193,-2.043965991028366
1687087268.9083629,0.9881508946418762,0.07190840691328049,0.1355985701084137,0.01792210340499878,-0.0693143978714943,0.009222611784934998,-0.07517224550247192,0.10270964354276657,-0.13699491322040558,1.7071691465776488,-0.07197052418576992,-2.0391769030034745
1687087268.913003,0.9872938990592957,0.07449778914451599,0.1403607279062271,0.001536726951599121,-0.023594439029693604,-0.031031370162963867,-0.17558172345161438,0.010363307781517506,-0.06253205239772797,1.7120170908079912,-0.07456686976070015,-2.033220100281603
1687087268.9697928,0.9873867630958557,0.07231484353542328,0.14084821939468384,-0.018606126308441162,-0.019153207540512085,-0.027566909790039062,-0.09198973327875137,-0.04441530629992485,-0.029934469610452652,1.7124878897642366,-0.07237802302813534,-2.0226527412301922
1687087269.092474,0.9877445101737976,0.07355939596891403,0.13765904307365417,0.006838679313659668,0.008990667760372162,-0.014779940247535706,0.13542388379573822,0.004752453416585922,-0.048592355102300644,1.7092714380024676,-0.07362589605601993,-2.024192125535939
1687087269.097975,0.9881987571716309,0.0737038403749466,0.1342792809009552,0.0013489127159118652,-0.005909033119678497,0.0034161657094955444,-0.1493341326713562,-0.019428675994277,-0.013911339454352856,1.7058520148037788,-0.07377073198116096,-2.026791034772683
1687087269.212939,0.988439679145813,0.07367677241563797,0.13251028954982758,0.03368562459945679,0.00717955082654953,-0.017092719674110413,-0.1718611866235733,-0.03078567422926426,-0.027519024908542633,1.7040618273677872,-0.0737435894967257,-2.0137629827484087
1687087269.217571,0.9885479211807251,0.07313352823257446,0.13200411200523376,0.03614109754562378,0.01974673569202423,-0.004516810178756714,-0.09591342508792877,-0.026922225952148438,-0.01327737420797348,1.7035443749651953,-0.07319887927798102,-2.0092466500862782
1687087269.3036032,0.9890360236167908,0.07251643389463425,0.12864342331886292,-0.011527478694915771,0.026268981397151947,-0.02985788881778717,-0.278220534324646,-0.09943924844264984,-0.017998892813920975,1.7001396801059445,-0.07258013756570103,-1.996763187692776
1687087269.320883,0.9896432161331177,0.07364186644554138,0.12322080135345459,-0.0301247239112854,0.037854135036468506,-0.01833176612854004,-0.0801793560385704,-0.1030060201883316,-0.03869365155696869,1.6946691482904452,-0.07370858799435179,-1.9854565552650398
1687087269.393124,0.9901957511901855,0.07700290530920029,0.11654583364725113,-0.005424022674560547,-0.002066977322101593,-0.007796302437782288,-0.11009390652179718,-0.07870031148195267,-0.06283289939165115,1.68795708861926,-0.07707920719163461,-1.9804927925067477
1687087269.397948,0.9904499053955078,0.07979485392570496,0.11243574321269989,-0.015352249145507812,0.014107756316661835,0.0076204389333724976,0.012181675061583519,-0.035346709191799164,-0.024904269725084305,1.6838323010894585,-0.07987977498236755,-1.979116401750222
1687087269.481292,0.9905387163162231,0.08141051977872849,0.11047986894845963,-0.004363000392913818,0.0006054714322090149,-0.011099204421043396,-0.016375508159399033,-0.045530423521995544,-0.05026626214385033,1.6818723775225115,-0.08150071931558477,-1.977010845118695
1687087269.4872952,0.9905798435211182,0.08358200639486313,0.10847114026546478,-0.014032483100891113,0.031042039394378662,-0.0029717683792114258,0.03746498003602028,-0.05599350482225418,-0.031251002103090286,1.6798644443683732,-0.0836796328694518,-1.9773400673843355
1687087269.572494,0.9908042550086975,0.08636967092752457,0.10415155440568924,0.014246523380279541,0.05390438437461853,0.004338502883911133,-0.01779438741505146,-0.08952195197343826,-0.10804858058691025,1.6755298910839365,-0.08647741886612817,-1.9755886810659031
1687087269.58898,0.9902705550193787,0.09483596682548523,0.10183660686016083,0.025491952896118164,0.04115040600299835,0.013931885361671448,0.09452496469020844,-0.030644258484244347,-0.18710532784461975,1.673273245805403,-0.09497869979231877,-1.9780122577560828
1687087269.66124,0.9893863797187805,0.10502616316080093,0.10041935741901398,0.016427159309387207,0.02313239872455597,0.0169818252325058,0.051019564270973206,-0.051338087767362595,-0.15793809294700623,1.6719465473136716,-0.10522020915981334,-1.9789399558917293
1687087269.666064,0.9888606667518616,0.11299128830432892,0.09689150005578995,0.001160264015197754,-0.006851121783256531,0.025636687874794006,0.07969845086336136,-0.07275357842445374,-0.14551518857479095,1.6684675168036878,-0.11323311001699969,-1.9819504723910581
1687087269.7217422,0.9882274866104126,0.12062491476535797,0.09410775452852249,-0.012321054935455322,-0.016834616661071777,0.019692420959472656,0.28539764881134033,-0.006389679852873087,-0.14207234978675842,1.6657388550376917,-0.12091937071544924,-1.990634283769023
1687087269.812417,0.9870874881744385,0.12797453999519348,0.09633881598711014,0.008167147636413574,-0.07658293843269348,0.013753414154052734,0.17453810572624207,0.010698013938963413,-0.11863593757152557,1.6680872586878257,-0.12832646066830108,-2.0016392362711457
1687087269.818152,0.9866243600845337,0.12987378239631653,0.0985160768032074,0.0006194114685058594,-0.03966379165649414,0.020090579986572266,0.01036891434341669,0.024235287681221962,-0.032116927206516266,1.6703181011509984,-0.1302416853373422,-2.004286877936274
1687087269.933815,0.9861927032470703,0.12929466366767883,0.1034746766090393,-0.006334245204925537,0.000282973051071167,0.014536857604980469,0.07872319966554642,0.0708153024315834,-0.021131455898284912,1.6753372002709,-0.12965764600263877,-2.003920269988658
1687087269.9974651,0.9855855107307434,0.1311829686164856,0.10682794451713562,0.013270020484924316,0.010754302144050598,0.008162364363670349,0.20477354526519775,0.08522540330886841,-0.027876202017068863,1.6787651610793934,-0.13156217231572356,-2.015392650332666
1687087270.003628,0.9851493239402771,0.13189288973808289,0.10993168503046036,0.007801055908203125,0.0021402984857559204,-0.0064770132303237915,0.023700805380940437,0.06421124935150146,-0.0081582460552454,1.68192543799276,-0.13227831381482963,-2.0201028967272445
1687087270.0085502,0.9845530390739441,0.13375040888786316,0.11298856884241104,0.005040526390075684,0.0071492791175842285,-0.02221393585205078,0.16173404455184937,0.0743459165096283,-0.03859380632638931,1.6850577494094572,-0.1341524359308968,-2.0237308870277935
1687087270.047601,0.9838978052139282,0.13733184337615967,0.11438979208469391,0.006138145923614502,0.004147663712501526,-0.03145815432071686,0.25147220492362976,0.06197952851653099,-0.05047554150223732,1.6865385689786418,-0.1377672244116797,-2.0336228782038184
1687087270.111748,0.9832382202148438,0.14234749972820282,0.11392908543348312,-0.00284576416015625,-0.0011731833219528198,-0.020560510456562042,0.18843616545200348,0.057264771312475204,-0.06943909078836441,1.6861531891727664,-0.14283266124269037,-2.047510363397408
1687087270.263575,0.9826810956001282,0.14719052612781525,0.11257433891296387,0.0015108585357666016,-0.009159505367279053,-0.019709229469299316,0.14994663000106812,0.02562630921602249,-0.058291852474212646,1.6848574594179195,-0.14772726283753324,-2.0557361955585014
1687087270.2698169,0.9824726581573486,0.150041863322258,0.11061280965805054,0.004740536212921143,-0.007921487092971802,-0.009279131889343262,-0.026262227445840836,0.01888824626803398,-0.03815249726176262,1.6829103538412895,-0.15061062120343477,-2.060208684815353
1687087270.351781,0.982962965965271,0.14931829273700714,0.10718055814504623,0.007164478302001953,0.0015606284141540527,-0.02759065479040146,0.04156188294291496,-0.05003739893436432,0.04720618575811386,1.6794055018396614,-0.1498787945639689,-2.060893206416623
1687087270.3678122,0.9841951131820679,0.14493602514266968,0.10175451636314392,0.006878674030303955,-0.008003637194633484,-0.013314470648765564,-0.08513405919075012,-0.12369740009307861,0.09460052847862244,1.6738188520027555,-0.14544831287214385,-2.0604432352722126
