Timestamp,gravityX,gravityY,gravityZ,accelerationX,accelerationY,accelerationZ,rotationRateX,rotationRateY,rotationRateZ,attitudeRoll,attitudePitch,attitudeYaw
1687101893.71438,0.08205126971006393,0.18695007264614105,-0.9789367914199829,0.006510592997074127,-0.0027459263801574707,0.0073639750480651855,0.03308970853686333,-0.017726775258779526,-0.007456297054886818,0.08362126089439458,-0.18805656600823187,-1.0390112913197271
1687101893.729926,0.08068221062421799,0.18778154253959656,-0.9788914322853088,0.0049346983432769775,-0.02146066725254059,0.004694104194641113,-0.025470007210969925,-0.04729478806257248,-0.005540130659937859,0.08223613298478176,-0.18890301841109008,-1.039551025348017
1687101893.77563,0.07930652052164078,0.18736329674720764,-0.9790840148925781,0.006722383201122284,0.015059888362884521,-0.012340545654296875,0.014963384717702866,-0.03927270695567131,-0.011888927780091763,0.08082427759119978,-0.1884772117844581,-1.03982467419332
1687101893.8749719,0.07753556966781616,0.18786253035068512,-0.9791301488876343,0.0038699209690093994,-0.00692373514175415,0.008701741695404053,0.013858543708920479,-0.036343708634376526,0.0009172146674245596,0.0790233072371559,-0.18898548234971088,-1.0401557511701642
1687101893.880724,0.07651995867490768,0.1879119575023651,-0.9792006015777588,0.0018642917275428772,-0.014663591980934143,0.001997232437133789,-0.023792535066604614,-0.010103370063006878,0.003366368357092142,0.07798684759667412,-0.18903579768168535,-1.040164488511413
1687101893.9588819,0.07566505670547485,0.18856976926326752,-0.97914057970047,0.004367142915725708,-0.009233146905899048,0.006392776966094971,-0.04002588987350464,-0.023807357996702194,0.0005032261833548546,0.07712373463605207,-0.18970557735506427,-1.039963297215019
1687101894.048343,0.07529611885547638,0.19190636277198792,-0.9785205125808716,-0.007074221968650818,-0.008129432797431946,-0.004893124103546143,-0.08504044264554977,0.013398228213191032,-0.011067964136600494,0.07679760335663122,-0.19310424123990727,-1.0400410422180022
1687101894.06339,0.07479403167963028,0.19464275240898132,-0.9780184030532837,0.001408204436302185,-0.005693122744560242,0.004507720470428467,-0.047509633004665375,-0.013497195206582546,-0.001730633433908224,0.07632650573027237,-0.19589322572597961,-1.039983603910701
1687101894.13794,0.07395300269126892,0.19517619907855988,-0.9779760837554932,0.0020051002502441406,0.013350486755371094,-0.005376577377319336,0.0017545833252370358,-0.001997399842366576,0.00597591046243906,0.0754747786255079,-0.1964370977337589,-1.0397896690079564
1687101894.150717,0.07400201261043549,0.1946934014558792,-0.9780685901641846,0.006976231932640076,-0.008291959762573242,0.00413060188293457,-0.006754854694008827,-0.01854899898171425,0.011910054832696915,0.07551748753610472,-0.19594485456299418,-1.0392857751993088
1687101894.227704,0.07331255078315735,0.1952531933784485,-0.9780089259147644,0.005102217197418213,0.003538370132446289,0.004452407360076904,-0.010066123679280281,-0.009405781514942646,0.004825225565582514,0.07482109027251484,-0.19651561255996758,-1.0389485529903906
1687101894.232913,0.07343891263008118,0.1951695829629898,-0.9780161380767822,0.00018459558486938477,0.00011247396469116211,0.0033152103424072266,0.0024000280536711216,-0.0034920191392302513,0.010657969862222672,0.07494901672475449,-0.19643035142759402,-1.038498713505751
1687101894.3191118,0.07333202660083771,0.19479767978191376,-0.9780982732772827,0.002076752483844757,-0.007419690489768982,0.00908893346786499,-0.006448644679039717,-0.011896848678588867,0.005805445834994316,0.0748340759395012,-0.19605117501302585,-1.0381326704715572
1687101894.3331099,0.07316592335700989,0.19460760056972504,-0.9781485795974731,-0.004471004009246826,0.007189959287643433,0.0043021440505981445,0.009400252252817154,-0.0011569062480702996,0.0023995740339159966,0.07466138349728225,-0.19585739118387882,-1.0378339641157148
1687101894.375867,0.07315174490213394,0.19417038559913635,-0.9782364964485168,0.004973098635673523,-0.004503563046455383,-0.0011183619499206543,0.009916000999510288,-0.010946473106741905,0.010407410562038422,0.07464028078586157,-0.1954116669423049,-1.0376263760143916
1687101894.468645,0.0731603279709816,0.19434122741222382,-0.9782019257545471,0.0023857802152633667,0.0062966495752334595,-0.0026940107345581055,-0.006029570009559393,0.011957564391195774,0.008163808844983578,0.07465163675020449,-0.19558583006007937,-1.0372943717735046
1687101894.482749,0.07331740856170654,0.19419899582862854,-0.9782184362411499,0.0031594932079315186,0.012344062328338623,0.0029376745223999023,0.02114793471992016,0.013161951676011086,0.003679178189486265,0.07481006678457199,-0.19544083337783136,-1.0368839133023122
1687101894.52951,0.07332997769117355,0.1943134218454361,-0.9781947731971741,0.001636311411857605,-0.005867302417755127,-0.0011448264122009277,-0.012308716773986816,0.010939065366983414,-0.001386531163007021,0.07482464004376847,-0.19555748861366334,-1.0366794150956988
1687101894.617437,0.07338140904903412,0.19413740932941437,-0.9782258868217468,1.3217329978942871e-05,0.00033593177795410156,-0.006255924701690674,-0.00013381009921431541,0.005790109280496836,0.00034068431705236435,0.07487455784142874,-0.1953780545135771,-1.0367573743127998
1687101894.631926,0.07405050098896027,0.19410842657089233,-0.9781811833381653,0.015274301171302795,-0.0020154565572738647,0.008668243885040283,-0.006474796682596207,-0.015013173222541809,-0.008426597341895103,0.07555811616713341,-0.1953485117790666,-1.036638460319617
1687101894.676044,0.07415463775396347,0.1943139284849167,-0.9781324863433838,-0.012661874294281006,0.0019141733646392822,-0.010972738265991211,0.01818687468767166,0.02432144805788994,0.0016369116492569447,0.07566772371426657,-0.19555800132148346,-1.0368018016813065
1687101894.767173,0.07521265745162964,0.1947186291217804,-0.9779711961746216,0.013349197804927826,-0.015259966254234314,0.022923648357391357,-0.014213889837265015,-0.001092404592782259,-0.007137095555663109,0.07675573323201713,-0.19597058644672832,-1.0367878972661113
1687101894.780398,0.07522089034318924,0.19253100454807281,-0.978403627872467,0.002476714551448822,0.021992385387420654,-0.009526669979095459,0.07159843295812607,0.02825014479458332,-0.0057697175070643425,0.07673031126818834,-0.19374076464844983,-1.0371734222772966
1687101894.8269591,0.07750306278467178,0.18676255643367767,-0.9793431758880615,0.008220665156841278,0.011937469244003296,0.025760412216186523,0.3517191410064697,0.0730632096529007,0.0005018054507672787,0.07897321073129453,-0.1878656827515839,-1.0377432014901242
1687101894.919917,0.07104672491550446,0.16923418641090393,-0.983011782169342,0.059797242283821106,-0.05670054256916046,-0.001271665096282959,0.08815082907676697,-0.34339168667793274,-0.11868856102228165,0.07214909033771248,-0.17005259096587014,-1.0425016492887975
1687101894.9331589,0.05925073102116585,0.15738561749458313,-0.9857581257820129,-0.0018015392124652863,0.11202362179756165,0.011972784996032715,0.4492644965648651,-0.07689571380615234,-0.11028441041707993,0.060034535300839874,-0.15804270872196743,-1.0500574156549152
1687101894.975522,0.05463029444217682,0.14106903970241547,-0.9884912967681885,0.007137138396501541,-0.042085200548172,-0.029330968856811523,0.2010488361120224,0.00563830928876996,-0.09402177482843399,0.055210171440307466,-0.14154117467237393,-1.0567266020038373
1687101895.073292,0.057589638978242874,0.13250862061977386,-0.9895073771476746,0.01905510574579239,-0.02296571433544159,0.010640859603881836,0.13264116644859314,0.026770971715450287,-0.10159377753734589,0.05813473024101137,-0.13289949669641737,-1.0615108657491954
1687101895.078965,0.0594671405851841,0.12574397027492523,-0.9902787804603577,-0.014728527516126633,0.009296372532844543,0.006163239479064941,0.13907957077026367,0.11244790256023407,-0.12398768216371536,0.05997888113210577,-0.12607772332181835,-1.0682877117650664
1687101895.127102,0.06671229749917984,0.12285758554935455,-0.9901795387268066,-0.026230886578559875,0.028433382511138916,0.01216745376586914,-0.13964121043682098,0.2681463062763214,-0.012022308073937893,0.06727227672729637,-0.1231687728166795,-1.0731059499852407
1687101895.219408,0.08632045984268188,0.1312987506389618,-0.9875775575637817,-0.06422588229179382,0.11915908753871918,-0.015092730522155762,-0.21937929093837738,0.4053826630115509,0.08346215635538101,0.08718468084109687,-0.1316789578278781,-1.0708249638372322
1687101895.2328892,0.10307172685861588,0.13756991922855377,-0.985114574432373,-0.034559912979602814,0.1175265908241272,0.04672956466674805,0.044884584844112396,0.21488675475120544,0.11717187613248825,0.10424985961429897,-0.1380075882576732,-1.064353305162327
1687101895.2763128,0.09951472282409668,0.11802195757627487,-0.9880119562149048,-0.0007905140519142151,0.0854845866560936,0.07234728336334229,0.6351732611656189,-0.2000911980867386,-0.13953658938407898,0.10038363869160678,-0.11829768196063616,-1.0671115719056175
1687101895.369211,0.0871679037809372,0.1053149625658989,-0.99061119556427,-0.0007422715425491333,-0.12419000267982483,-0.01564490795135498,-0.1599160134792328,-0.216828852891922,-0.020205071195960045,0.08776800443074978,-0.1055106209755085,-1.0726859915117197
1687101895.3824902,0.08308224380016327,0.11421302706003189,-0.9899761080741882,-0.022718630731105804,0.0006857290863990784,0.022019565105438232,-0.1008852943778038,0.00804788339883089,0.007178661413490772,0.08372728376297894,-0.11446280979041544,-1.0721599312175978
1687101895.426282,0.08739837259054184,0.11539874970912933,-0.9894668459892273,-0.014629364013671875,0.030948370695114136,0.010005176067352295,0.028755202889442444,0.19758543372154236,0.022137459367513657,0.08810011099287231,-0.1156564245221551,-1.0712033384411193
1687101895.519051,0.09131420403718948,0.1118488684296608,-0.9895208477973938,0.03231234848499298,0.030332595109939575,-0.016857266426086426,0.1559770703315735,0.012196130119264126,-0.006132372654974461,0.09202060853039118,-0.11208340060282213,-1.0710240038533685
1687101895.533504,0.09319843351840973,0.10640005767345428,-0.9899460077285767,0.0016805604100227356,-0.01667829602956772,0.00322115421295166,-0.020256496965885162,0.02138659358024597,0.009987007826566696,0.0938682916633194,-0.1066018440717547,-1.0719509101177715
1687101895.576843,0.09257874637842178,0.1109478622674942,-0.9895048141479492,0.009258262813091278,-0.020173251628875732,0.013430595397949219,-0.07097357511520386,-0.007794515695422888,0.004247297532856464,0.09328910958603408,-0.11117675245228552,-1.0707768014483288
1687101895.6691852,0.09426473081111908,0.1140361949801445,-0.9889944195747375,-0.011699579656124115,-0.0036082640290260315,-0.002536952495574951,-0.08682028949260712,0.018683109432458878,0.019048791378736496,0.09502664426578292,-0.11428480992220545,-1.0700287455822919
1687101895.68231,0.09468235075473785,0.1148611307144165,-0.9888589978218079,0.005323596298694611,0.01584572345018387,-0.014803051948547363,0.039178282022476196,-0.001943923649378121,0.0005418411456048489,0.0954580795202133,-0.11511520362086912,-1.0699140157144786
1687101895.7265959,0.09755542874336243,0.11366061866283417,-0.9887184500694275,-0.0003876239061355591,-0.010816313326358795,0.019419193267822266,-0.025219295173883438,0.05218897759914398,0.01952696219086647,0.09835022744677913,-0.1139067741787602,-1.0694005504741504
1687101895.817255,0.0981377512216568,0.11528243124485016,-0.9884730577468872,-0.0011835545301437378,-0.0012839436531066895,-0.00014388561248779297,0.00801753904670477,-0.001740937470458448,-0.0020657707937061787,0.09895788202013775,-0.11553931858444666,-1.0687455909255332
1687101895.829897,0.09877994656562805,0.1118108406662941,-0.9888077974319458,-0.00017780065536499023,-8.590519428253174e-05,0.0244675874710083,0.1150812953710556,0.07951178401708603,0.007128837518393993,0.09956768468902026,-0.1120451290457081,-1.0689194820572177
1687101895.9069362,0.10003460198640823,0.10606017708778381,-0.9893150925636292,-0.008527792990207672,0.011371538043022156,-0.0032538771629333496,0.10881397873163223,-0.09569071233272552,0.019951514899730682,0.1007725005235585,-0.10626003038707632,-1.068716452632387
1687101895.999848,0.10260262340307236,0.09535511583089828,-0.9901414513587952,-0.0976131483912468,0.010907173156738281,0.07035690546035767,0.2145208716392517,0.2773911952972412,0.08219919353723526,0.10325567162062335,-0.09550021523582151,-1.0678467952968542
1687101896.0121531,0.11008734256029129,0.10094761103391647,-0.9887822866439819,0.022557146847248077,-0.1256515085697174,-0.056307435035705566,-0.21445298194885254,0.21933716535568237,0.12684404850006104,0.11087964641124375,-0.1011198513656632,-1.0612753465268192
1687101896.088715,0.12718738615512848,0.10173764824867249,-0.9866472482681274,0.0030004531145095825,0.17183727025985718,-0.04396188259124756,-0.0047859265469014645,0.46284228563308716,0.2428254783153534,0.1282016592114244,-0.10191397490818056,-1.0524517670725972
1687101896.094554,0.13854452967643738,0.12978267669677734,-0.9818155765533447,0.10426843166351318,-0.14195911586284637,-0.012889623641967773,-1.0918489694595337,-0.11813098937273026,0.3684329688549042,0.1401849601600284,-0.1301498070506687,-1.0335660234747641
1687101896.1785622,0.13134676218032837,0.14778564870357513,-0.9802588820457458,0.0462043434381485,0.10683782398700714,-0.00487905740737915,-0.2060481458902359,-0.1578328013420105,-0.04866185784339905,0.13319855856152632,-0.1483289619297185,-1.0287007673216024
1687101896.1841002,0.12742063403129578,0.15876486897468567,-0.9790595769882202,-0.003214240074157715,0.0007658600807189941,-0.021154046058654785,-0.12412760406732559,-0.06671695411205292,-0.007331017404794693,0.12941852041086713,-0.15943952215529464,-1.0286615691119048
1687101896.267569,0.12521396577358246,0.15807655453681946,-0.9794555902481079,-0.001556888222694397,0.014057934284210205,0.01261293888092041,0.06798254698514938,-0.0499778687953949,0.028973039239645004,0.12715067591181325,-0.15874241260499053,-1.0277804058798397
1687101896.281098,0.12311338633298874,0.15814846754074097,-0.9797102212905884,-0.0022639259696006775,-0.020147889852523804,0.014530777931213379,0.005291528068482876,-0.012968025170266628,0.011031456291675568,0.12500780222585467,-0.15881523613709408,-1.0267773818016364
1687101896.3297791,0.12186793982982635,0.1564951390028,-0.9801313281059265,0.00470355898141861,0.009703651070594788,-0.009080648422241211,0.03942260146141052,-0.015166198834776878,0.0065229907631874084,0.12370349240993317,-0.15714107071788694,-1.026491963505427
1687101896.447002,0.12014874070882797,0.1547527313232422,-0.9806201457977295,0.007384076714515686,0.0029164254665374756,-0.002381563186645508,0.028566651046276093,-0.03680603206157684,0.002849448937922716,0.12191557990187823,-0.1553771580888795,-1.0263592079640511
1687101896.459186,0.11978713423013687,0.1538539081811905,-0.9808058142662048,-0.0031338483095169067,0.0053105950355529785,0.005998075008392334,0.015642596408724785,-0.00426753144711256,0.012208729051053524,0.12152948550861074,-0.15446744994983874,-1.026184393825554
1687101896.536176,0.11936885118484497,0.1544678658246994,-0.9807602763175964,-0.001800037920475006,-0.016513094305992126,0.01779341697692871,-0.049811191856861115,-0.0040982612408697605,-0.0023794015869498253,0.12111482877572943,-0.15508883050918837,-1.025869398267966
1687101896.549512,0.1195809468626976,0.15665608644485474,-0.9803873300552368,0.0014058500528335571,0.004873529076576233,0.001581728458404541,-0.022471819072961807,0.015092957764863968,-0.001799143385142088,0.12137362804164639,-0.1573040221900951,-1.0257431026975345
1687101896.629503,0.11956476420164108,0.15643255412578583,-0.9804249405860901,0.011355482041835785,-0.0010369718074798584,-0.006955981254577637,-0.005293631926178932,-0.019943589344620705,0.0030834288336336613,0.12135274990114944,-0.15707769650979472,-1.0257205965983232
1687101896.642729,0.11932286620140076,0.15844722092151642,-0.9801308512687683,0.002182707190513611,0.001892194151878357,-0.004732370376586914,-0.021304823458194733,0.00794609822332859,-0.003859630785882473,0.12114561372172132,-0.15911780612275953,-1.0257830969157458
1687101896.720042,0.11948134005069733,0.15838190913200378,-0.9801221489906311,0.0018869191408157349,-0.011866956949234009,0.011402666568756104,-0.01996125839650631,0.009542662650346756,-0.001558926422148943,0.12130600487678621,-0.15905165866332188,-1.0257305095177978
1687101896.733447,0.11910294741392136,0.1579863727092743,-0.9802320003509521,0.006507262587547302,0.023394927382469177,0.0069043636322021484,0.04887176305055618,0.02916611358523369,0.0009102681651711464,0.12091215087904793,-0.15865107929917002,-1.0258519633275085
1687101896.77636,0.12233590334653854,0.1534424126148224,-0.9805556535720825,0.001443237066268921,0.018722593784332275,-0.0024460554122924805,0.09995178133249283,0.12158914655447006,0.020044591277837753,0.1241204721899711,-0.15405100430595384,-1.0262886857529445
1687101896.8692489,0.12591315805912018,0.1518600881099701,-0.9803491234779358,0.03682167828083038,-0.08409571647644043,0.03230530023574829,0.1870281994342804,-0.10434699058532715,-0.09905683249235153,0.12773773499434435,-0.1524499144133028,-1.027953195983561
1687101896.882735,0.11810944229364395,0.13227859139442444,-0.9841506481170654,-0.005621813237667084,0.02551262080669403,0.039387524127960205,0.49080890417099,-0.15291091799736023,-0.15735134482383728,0.11944031118913946,-0.13266741953793287,-1.036686667468315
1687101896.927127,0.10818742960691452,0.11776887625455856,-0.9871301651000977,0.010129079222679138,0.007490605115890503,-0.014883995056152344,0.11739137768745422,-0.0844423696398735,-0.14657406508922577,0.10916225018189821,-0.11804282434376438,-1.046578013395828
1687101897.015679,0.10149228572845459,0.12364906817674637,-0.9871221780776978,0.020165883004665375,0.006325371563434601,-0.02885371446609497,-0.12625829875469208,-0.12861008942127228,-0.07623899728059769,0.10245631610663139,-0.12396633257267708,-1.0518244250154374
1687101897.029976,0.0956483855843544,0.1249115988612175,-0.9875466823577881,0.023461565375328064,0.014141827821731567,0.005948781967163086,0.12434084713459015,-0.11067146807909012,-0.07127972692251205,0.09655337962888683,-0.1252387305309633,-1.0547711973192517
1687101897.074955,0.08727461099624634,0.11805835366249084,-0.9891639947891235,-0.005960673093795776,-0.011277265846729279,0.008435845375061035,0.07757365703582764,-0.16110439598560333,-0.049859460443258286,0.08800279756480373,-0.1183343297326303,-1.058773397831487
1687101897.1687489,0.07731806486845016,0.11383143067359924,-0.9904869198799133,0.0223827064037323,0.034987613558769226,0.01673203706741333,0.09219372272491455,-0.1725519299507141,-0.08140859752893448,0.07790268983381655,-0.11407870602983224,-1.0626541080026493
1687101897.181721,0.06773082911968231,0.1168232187628746,-0.990840494632721,0.01253025233745575,-0.059648461639881134,-0.023273885250091553,-0.1960098296403885,-0.20110101997852325,-0.02412240207195282,0.06825077010684923,-0.11709059198280843,-1.0649970949678218
1687101897.2268,0.060632236301898956,0.12743352353572845,-0.9899921417236328,0.005682308226823807,-0.02460445463657379,0.011140823364257812,-0.2287978231906891,-0.07936430722475052,0.013918566517531872,0.06116876580166877,-0.12778096840694353,-1.0643021479555248
1687101897.319584,0.05503765121102333,0.1339741349220276,-0.9894552826881409,0.008743930608034134,0.022825241088867188,0.0012656450271606445,-0.054611220955848694,-0.12673373520374298,-0.00673171691596508,0.05556693099792697,-0.13437819084851052,-1.0636799358679014
1687101897.332937,0.05139702931046486,0.1338973045349121,-0.989661455154419,-0.005605548620223999,0.01075609028339386,0.0037453770637512207,0.014213010668754578,0.0024047524202615023,0.015200833790004253,0.051887334045320206,-0.13430066304365823,-1.063623686147418
1687101897.374624,0.05178717523813248,0.13312038779258728,-0.9897459745407104,-0.004012051969766617,0.008786424994468689,0.005981326103210449,0.037603553384542465,0.021252475678920746,-0.004650501534342766,0.05227603183642948,-0.1335167333799478,-1.0630779000060075
1687101897.468976,0.05287553369998932,0.1311187893152237,-0.9899556040763855,-0.0018808059394359589,-0.0007628798484802246,0.004436194896697998,0.017929187044501305,0.05684935301542282,0.006883871741592884,0.053361319534011194,-0.13149742209483958,-1.06333985764318
1687101897.481382,0.05670681595802307,0.13232752680778503,-0.9895825982093811,-0.00560528039932251,-0.015292540192604065,0.0025373101234436035,-0.09034130722284317,0.04988827556371689,0.02023174613714218,0.05724117272542882,-0.13271679296664743,-1.0624658270602656
1687101897.5870972,0.057929180562496185,0.13519157469272614,-0.989124596118927,0.004555415362119675,0.002427518367767334,0.010975182056427002,0.003400364425033331,0.039567459374666214,0.011608895845711231,0.05849928908419202,-0.13560681492065305,-1.06172026307362
1687101897.60012,0.062177740037441254,0.13416191935539246,-0.9890068173408508,-0.006407015025615692,0.011300191283226013,-0.00968092679977417,0.0049766357988119125,0.08922567218542099,0.02617698535323143,0.06278623325723647,-0.134567689169886,-1.0605730879272584
1687101897.676883,0.0644218847155571,0.13387887179851532,-0.9889015555381775,0.010315515100955963,6.285309791564941e-05,0.00913470983505249,0.05496502295136452,0.02462685853242874,0.008384274318814278,0.0650529732742882,-0.13428206862770203,-1.0598364273942944
1687101897.682605,0.0669751986861229,0.12917296588420868,-0.9893577098846436,-0.0026137828826904297,0.01184883713722229,-0.0005257129669189453,0.10254617780447006,0.057481374591588974,0.025292661041021347,0.06759251060974647,-0.12953491786065335,-1.059423205049568
1687101897.767112,0.0690440833568573,0.1234830915927887,-0.9899418354034424,0.011064410209655762,0.011969253420829773,-0.004122495651245117,0.1258600652217865,0.03715096414089203,0.020648308098316193,0.06963283265773573,-0.12379907944581214,-1.058738396385716
1687101897.7803879,0.07624570280313492,0.1162940114736557,-0.9902839660644531,-0.013928957283496857,0.0035485923290252686,0.004413604736328125,0.11794009804725647,0.13424581289291382,0.04559866338968277,0.07684217437202193,-0.11655775417145399,-1.0577421870883175
1687101897.824928,0.08119112998247147,0.10862325876951218,-0.9907618165016174,-0.0020439401268959045,0.01375231146812439,-0.0006932616233825684,0.26048940420150757,0.1273556351661682,0.03720606863498688,0.08176547775465776,-0.10883800732059452,-1.0565097001235133
1687101897.917417,0.09475483000278473,0.10308924317359924,-0.9901485443115234,0.026994898915290833,-0.08032304793596268,-0.06443214416503906,-0.18124762177467346,0.029293997213244438,0.05827835202217102,0.09540705049231991,-0.10327271734971116,-1.0539222737034928
1687101897.930469,0.09657879173755646,0.1038026213645935,-0.9898977279663086,-0.01518857479095459,0.04561151564121246,0.09783846139907837,0.31885436177253723,0.5673710703849792,0.10189571231603622,0.09725660490953282,-0.10398993942670706,-1.0507139880047598
1687101897.973547,0.11634399741888046,0.11393967270851135,-0.9866518378257751,-0.012004546821117401,0.08370750397443771,-0.11309486627578735,-0.38800549507141113,0.4583583176136017,0.18643753230571747,0.11737596954441874,-0.1141876588651944,-1.042182694159261
1687101898.040533,0.13814900815486908,0.1638854295015335,-0.9767581224441528,-0.07876195013523102,-0.18025803565979004,-0.04475677013397217,-0.9940637350082397,0.2303379327058792,0.5881563425064087,0.14050430684184625,-0.1646280603913411,-1.004267797814206
1687101898.128026,0.1391647607088089,0.1752261519432068,-0.9746429920196533,0.35821056365966797,-0.20072349905967712,-0.06449580192565918,-0.3917505145072937,-0.16879379749298096,-0.08844131976366043,0.14182671189942705,-0.176135468223019,-1.0017887844091733
1687101898.1342402,0.13203826546669006,0.18713872134685516,-0.9734192490577698,-0.011326134204864502,-0.0007220208644866943,-0.040817201137542725,-0.13550862669944763,-0.022456016391515732,-0.04690692573785782,0.13482092780779667,-0.18824859584885678,-1.0042255485860625
1687101898.2489939,0.13123196363449097,0.18255449831485748,-0.9743982553482056,0.036355167627334595,0.06274586915969849,-0.009030699729919434,0.17849436402320862,-0.06166424602270126,0.07330865412950516,0.13387445080273433,-0.1835839908125641,-1.002176323767561
1687101898.2611089,0.1283038854598999,0.17925550043582916,-0.9754002094268799,0.004996746778488159,-0.0064801424741744995,-0.026186704635620117,-0.023702092468738556,0.034992415457963943,0.001905491342768073,0.13078884930172005,-0.1802296359198027,-1.0006003408075625
1687101898.337368,0.1273762583732605,0.17979498207569122,-0.9754225015640259,0.031162410974502563,-0.01385556161403656,0.01984083652496338,0.06560999155044556,-0.041500598192214966,-0.0017925305292010307,0.12985095496562138,-0.18077802876735366,-1.0008901854907826
1687101898.349782,0.12513744831085205,0.17730799317359924,-0.9761672616004944,-0.01394680142402649,0.005309268832206726,-0.011702001094818115,-0.03686599060893059,0.031707726418972015,-0.014147509820759296,0.12749726002376705,-0.17825043229013804,-1.0016397741987197
1687101898.427429,0.12346149235963821,0.17703084647655487,-0.9764308929443359,0.028424344956874847,0.006837636232376099,-0.010095536708831787,0.04035843163728714,-0.06524108350276947,0.0001294291578233242,0.12577416743387423,-0.17796881861669211,-1.0017137620845329
1687101898.433054,0.12227698415517807,0.17564058303833008,-0.9768309593200684,-0.010781161487102509,-0.012524038553237915,0.02170705795288086,-0.006904630921781063,-0.006802381481975317,-0.0029832073487341404,0.12452948629205814,-0.17655642687115042,-1.0016318172649723
1687101898.5173101,0.12190232425928116,0.17664800584316254,-0.9766961336135864,0.012786865234375,-0.012081891298294067,-0.005664706230163574,-0.029634764418005943,-0.0327443927526474,-0.020441938191652298,0.12416880000023768,-0.17757985487638003,-1.0024493041521767
1687101898.529683,0.12083101272583008,0.17818161845207214,-0.9765506386756897,0.0046571120619773865,-0.0025833994150161743,0.0029941797256469727,-0.0383235402405262,0.0001817583106458187,-0.014662877656519413,0.12310676222646548,-0.17913818229665118,-1.0032631951760984
1687101898.573865,0.11986764520406723,0.17864380776882172,-0.9765849113464355,0.016759388148784637,-0.007607981562614441,-0.005745351314544678,-0.019233735278248787,-0.031901340931653976,-0.010526766069233418,0.12213077514202433,-0.17960791969873463,-1.003853703491314
1687101898.66662,0.11961697787046432,0.18027468025684357,-0.9763159155845642,-0.006396926939487457,0.0006488412618637085,0.0008368492126464844,-0.023622145876288414,0.014164525084197521,-0.023431379348039627,0.12191114862850518,-0.1812657064624863,-1.0048047297149174
1687101898.6802912,0.11863454431295395,0.18067201972007751,-0.9763623476028442,0.0023522526025772095,-0.0016405731439590454,0.0004712343215942383,0.012447121553122997,-0.022744648158550262,-0.00846294965595007,0.12091394351416818,-0.1816696744952714,-1.0055916405178646
1687101898.759243,0.1174803078174591,0.17939607799053192,-0.9767371416091919,-0.002795405685901642,-0.009840339422225952,0.012595295906066895,0.022762984037399292,-0.033052362501621246,-0.0025516198948025703,0.11970329511830584,-0.18037254230500754,-1.0055788073019567
1687101898.847439,0.11596468091011047,0.17843319475650787,-0.9770945906639099,-0.002851426601409912,0.004031464457511902,-0.013551771640777588,0.0023484155535697937,-0.028309058398008347,-0.012564106844365597,0.11813058699176696,-0.17939386534813925,-1.0061772593353762
1687101898.860019,0.11483804136514664,0.17791034281253815,-0.9773229360580444,0.0033258721232414246,0.0026317238807678223,0.011868834495544434,0.05467643961310387,-0.026785410940647125,-0.004158571362495422,0.116966312018043,-0.1788625133314314,-1.0067470377729288
1687101898.930758,0.11222318559885025,0.17504537105560303,-0.9781436920166016,0.007237717509269714,-0.003109261393547058,0.0023593902587890625,0.03833182156085968,-0.04198700189590454,-0.021738365292549133,0.11423131328808213,-0.17595185565043875,-1.0078682605948381
1687101898.94087,0.11000476032495499,0.17130322754383087,-0.979057788848877,0.015346035361289978,-0.0005878210067749023,0.017799854278564453,0.16193407773971558,-0.09157297760248184,-0.021288245916366577,0.11188852030869345,-0.17215229590328177,-1.0090934783453551
1687101899.027739,0.10294337570667267,0.15672650933265686,-0.9822624325752258,0.01183309406042099,0.02990381419658661,0.03788071870803833,0.500577986240387,-0.14467556774616241,-0.040289256721735,0.10442112210256733,-0.1573753298061977,-1.0123741715787962
1687101899.03356,0.08879748731851578,0.12880314886569977,-0.9876865744590759,0.039132051169872284,0.011318385601043701,-0.03504902124404907,0.43445226550102234,-0.4405308961868286,-0.18379926681518555,0.08966346095423809,-0.12916197921866504,-1.0214819493282832
1687101899.117409,0.07566361874341965,0.10729700326919556,-0.9913437366485596,-0.042109690606594086,0.07580854743719101,0.00841832160949707,0.4585854411125183,-0.11785519123077393,-0.1821819394826889,0.0761766104168512,-0.10750395839752468,-1.0326986763613977
1687101899.13058,0.0599181242287159,0.10090433806180954,-0.9930902123451233,0.023211613297462463,-0.0009591951966285706,-0.05108398199081421,-0.1561480164527893,-0.22433768212795258,-0.1745375692844391,0.06026197411616853,-0.10107635870646033,-1.0443260404867265
1687101899.1748571,0.04672372713685036,0.1194274052977562,-0.9917429089546204,0.020124882459640503,-0.06939375400543213,0.03167515993118286,-0.37524792551994324,-0.22991637885570526,-0.10776326060295105,0.047077930178494466,-0.11971313833954204,-1.0497637858497542
1687101899.2667809,0.03241755813360214,0.12632231414318085,-0.9914594292640686,0.01673085242509842,0.06696084141731262,0.016789019107818604,0.13833345472812653,-0.3535594046115875,-0.1605386584997177,0.03268516462068068,-0.1266607106376961,-1.0559951708216282
1687101899.279179,0.014993385411798954,0.12436825037002563,-0.9921228289604187,-0.03067956492304802,-0.09108875691890717,0.027630090713500977,-0.1809868961572647,-0.30785953998565674,-0.0028762812726199627,0.01511127831263662,-0.12469110937960684,-1.0606974606647117
1687101899.358043,0.00435010576620698,0.13644610345363617,-0.9906379580497742,-0.03349453583359718,-0.0157642662525177,0.01561659574508667,-0.3093491792678833,-0.10645227879285812,0.02456490695476532,0.004391188265040756,-0.13687306984944203,-1.0596830500357024
1687101899.446455,-0.003419126383960247,0.15414072573184967,-0.9880430102348328,0.02530008740723133,-0.0204736590385437,-0.0015657544136047363,-0.30341118574142456,-0.202607199549675,0.025390733033418655,-0.0034604898114672013,-0.1547577261570111,-1.0576852504925112
1687101899.459888,-0.00962855014950037,0.1595764011144638,-0.9871386289596558,-0.005264170467853546,0.05105599761009216,0.0012072324752807617,0.018749600276350975,-0.0491437129676342,-0.013313652947545052,-0.00975369025167517,-0.16026154183807623,-1.0581413907365633
1687101899.5293999,-0.009254829958081245,0.15720324218273163,-0.9875229001045227,-0.011192088946700096,0.007271319627761841,0.016072094440460205,0.07709892839193344,0.045790523290634155,-0.01059722900390625,-0.009371487674751917,-0.157858041232787,-1.058479751026637
1687101899.536958,-0.006892701610922813,0.15471746027469635,-0.9879347085952759,-0.004215837921947241,-0.016838982701301575,0.011540114879608154,0.004084104206413031,0.0862407460808754,0.009113358333706856,-0.006976766609865004,-0.15534146818822508,-1.058698311598278
1687101899.620296,-0.003739694831892848,0.15619173645973206,-0.9877196550369263,0.0018016844987869263,-0.0014675408601760864,0.017001330852508545,-0.013308574445545673,0.0904064029455185,0.0007340998854488134,-0.0037861723182655723,-0.15683388718236443,-1.058486780623405
1687101899.628964,0.0005762763903476298,0.15798327326774597,-0.9874415993690491,7.971003651618958e-05,-0.026757627725601196,0.0011745691299438477,-0.10500398278236389,0.0387524776160717,0.028078550472855568,0.0005836054829117173,-0.15864794638856153,-1.057707197607237
1687101899.689915,0.002642539795488119,0.1592717468738556,-0.9872312545776367,0.002819962799549103,0.02589373290538788,0.007357597351074219,0.05795745551586151,0.07202505320310593,-0.0093718646094203,0.0026767118644343067,-0.1599529410531033,-1.0575814476053391
1687101899.777392,0.006709161214530468,0.15703341364860535,-0.9875705242156982,0.003788743168115616,-0.020131483674049377,-0.013833284378051758,-0.028044484555721283,0.0725482627749443,0.023171143606305122,0.0067934979353827816,-0.15768607451694447,-1.057211797743195
1687101899.783049,0.009922442957758904,0.1592351496219635,-0.987190842628479,0.011546529829502106,0.0020503252744674683,0.010689377784729004,-0.01727578043937683,0.06491921097040176,0.009605621919035912,0.010050852141342898,-0.15991587055717066,-1.0564170300859201
1687101899.83783,0.011063193902373314,0.15901124477386475,-0.9872148036956787,0.011870618909597397,0.00949162244796753,-0.01652359962463379,0.05053991451859474,0.005143973045051098,-0.0023871250450611115,0.011206002068769962,-0.15968907738780788,-1.0561490500680826
1687101899.9563642,0.01273522898554802,0.15310636162757874,-0.9881276488304138,-0.00998879037797451,0.012817785143852234,0.02041524648666382,0.16389583051204681,0.097207210958004,0.014534867368638515,0.01288752908710137,-0.15371093189555038,-1.0561850042029992
1687101899.962237,0.019654225558042526,0.14796115458011627,-0.9887978434562683,0.006453417241573334,-0.021770894527435303,-0.010759592056274414,0.006096708122640848,0.10485613346099854,0.03004937805235386,0.019874271658471825,-0.14850641144909038,-1.0550012086137326
1687101900.049031,0.024520963430404663,0.13809877634048462,-0.9901148676872253,-0.026367424055933952,0.047539710998535156,0.05760455131530762,0.37032952904701233,0.32949137687683105,0.06361304223537445,0.0247607147589014,-0.1385415392653673,-1.0539993010319226
1687101900.0618129,0.04030458629131317,0.12928202748298645,-0.9907884001731873,0.01853315532207489,-0.04892915487289429,-0.059001028537750244,-0.18046540021896362,0.0683736503124237,0.08002583682537079,0.040656892137982965,-0.12964489240140517,-1.0501762633816207
1687101900.13912,0.047459814697504044,0.13320627808570862,-0.9899513125419617,0.008188843727111816,0.07767026126384735,-0.020287275314331055,-0.15886224806308746,0.09698110818862915,0.0865689367055893,0.04790488356811927,-0.13360338933114727,-1.0464827406651638
1687101900.145402,0.05306071415543556,0.15153756737709045,-0.9870262742042542,0.006814621388912201,-0.031786516308784485,-0.035022616386413574,-0.9423577785491943,0.1438743770122528,0.12486501783132553,0.053706461362457644,-0.15212362070932733,-1.0406875042691783
1687101900.228537,0.07695507258176804,0.15571728348731995,-0.9847995042800903,-0.060094259679317474,0.3224169611930847,0.26501190662384033,0.049067024141550064,0.04495775327086449,0.06484528630971909,0.07798440808614657,-0.15635355131236817,-1.0295765430955162
1687101900.234109,0.06697013974189758,0.16683761775493622,-0.9837073683738708,-0.05686897039413452,0.08899131417274475,0.02690500020980835,-0.23448315262794495,0.02648409642279148,0.013912107795476913,0.06797444686422317,-0.16762146031466596,-1.0284482127763444
1687101900.288079,0.06482130289077759,0.1780257225036621,-0.9818885326385498,-0.007662028074264526,-0.04828016459941864,0.019654035568237305,-0.22518818080425262,-0.006130838766694069,-0.023792527616024017,0.06592131492693555,-0.17897975995227405,-1.0283195612524134
1687101900.37844,0.0662790983915329,0.18258045613765717,-0.9809543490409851,0.015919849276542664,0.049170106649398804,-0.011812984943389893,-0.010034164413809776,0.03193766251206398,0.00857548974454403,0.06746340089959127,-0.18361039532576026,-1.0281016692383587
1687101900.384939,0.06643103808164597,0.1860235035419464,-0.9802969694137573,0.001409389078617096,-0.001376822590827942,-0.0346565842628479,-0.16914153099060059,0.0611293688416481,0.0027043502777814865,0.06766279016828071,-0.18711344142894448,-1.0279282388779651
1687101900.4372149,0.07437993586063385,0.18937160074710846,-0.9790842533111572,0.0032566338777542114,0.05301433801651001,0.012516260147094727,-0.021863874047994614,0.07273079454898834,0.056929685175418854,0.07582323927103092,-0.19052213024633416,-1.0247610597079542
1687101900.529377,0.0769064649939537,0.19416506588459015,-0.9779495596885681,0.012616708874702454,-0.06269526481628418,0.023588597774505615,-0.08984126895666122,-0.054794784635305405,-0.015980521216988564,0.07847900829053753,-0.19540625362495462,-1.0229957870860449
1687101900.5426269,0.07844787836074829,0.1984468698501587,-0.9769671559333801,-0.01471206545829773,-0.002920672297477722,0.001610100269317627,-0.1016247421503067,0.08544392138719559,0.02656378783285618,0.08012544110560627,-0.1997730176564816,-1.0226066660876536
1687101900.585665,0.08175568282604218,0.2021855115890503,-0.975928783416748,0.0036476030945777893,0.03946799039840698,-0.020363271236419678,0.037613511085510254,0.014710207469761372,0.048358213156461716,0.08357703449603773,-0.20358900686261988,-1.0200679574010278
1687101900.6772342,0.08193837851285934,0.2028011530637741,-0.9757857322692871,0.004304148256778717,-0.02045854926109314,0.005662441253662109,-0.04182165861129761,-0.017840279266238213,-0.006157007068395615,0.08377515321869324,-0.20421767491281634,-1.0191270715179628
1687101900.683337,0.08141342550516129,0.20409062504768372,-0.9755607843399048,-0.005989372730255127,-0.00580260157585144,0.007405877113342285,0.0015522902831435204,0.005589732900261879,0.004311524331569672,0.08326002318657447,-0.20553469643824898,-1.0192688575502933
1687101900.737967,0.08151494711637497,0.20334166288375854,-0.9757087230682373,0.011288866400718689,0.003277689218521118,-0.011977434158325195,-0.023929262533783913,-0.0031547031830996275,0.0030423502903431654,0.08335078562103053,-0.20476967987341574,-1.018961757315825
1687101900.8305202,0.08120255172252655,0.2037491351366043,-0.9756497740745544,0.004383847117424011,-0.01054227352142334,0.005373895168304443,-0.011848789639770985,0.00836192350834608,0.008511707186698914,0.08303781594655744,-0.20518586897812827,-1.0188069756483462
1687101900.843186,0.08112433552742004,0.20279042422771454,-0.9758559465408325,0.016241848468780518,0.009062692523002625,-0.009709179401397705,0.0032697091810405254,-0.015900006517767906,0.0026483130641281605,0.08294075029105208,-0.2042067134081082,-1.0183260616484697
1687101900.8857841,0.08079401403665543,0.20189498364925385,-0.9760690331459045,-0.0066364482045173645,0.00339682400226593,0.014093935489654541,0.02879781275987625,-0.006436942610889673,0.012725603766739368,0.08258662334068177,-0.2032923706933316,-1.0178282957172036
