Timestamp,gravityX,gravityY,gravityZ,accelerationX,accelerationY,accelerationZ,rotationRateX,rotationRateY,rotationRateZ,attitudeRoll,attitudePitch,attitudeYaw
1687099299.857682,0.8445879220962524,0.4166196584701538,-0.3363025188446045,0.08319228887557983,-0.1510709524154663,0.14436212182044983,0.2239350974559784,-0.07761747390031815,-1.066642165184021,1.191855299169776,-0.4297237126266687,0.23511190200344337
1687099299.949439,0.8228847980499268,0.4615371525287628,-0.33142712712287903,0.04852932691574097,-0.17609110474586487,0.13114023208618164,-0.4537622630596161,0.06815565377473831,-0.8648583889007568,1.1879107732991574,-0.47972716934952053,0.2265976273161219
1687099299.962507,0.8071810603141785,0.49537214636802673,-0.32103753089904785,0.06894809007644653,-0.15040156245231628,0.041221797466278076,-0.057944152504205704,0.10403386503458023,-0.5215479731559753,1.1922511341278066,-0.5182631929419508,0.22711748331536766
1687099300.042295,0.8017444014549255,0.5063046216964722,-0.3175869882106781,0.03970146179199219,-0.14271825551986694,0.05097007751464844,0.29904043674468994,0.22259306907653809,-0.15444521605968475,1.1936392574161938,-0.5308941200386151,0.21257511904132445
1687099300.052864,0.805243194103241,0.5005108118057251,-0.3179185688495636,0.03428006172180176,-0.17494940757751465,-0.0027297139167785645,0.2948962152004242,0.18171773850917816,0.20054027438163757,1.194771527559186,-0.5241887184648473,0.19458838702262202
1687099300.097542,0.8184465169906616,0.4821007251739502,-0.3126084506511688,0.027744829654693604,-0.17597898840904236,-0.01200711727142334,-0.09275773912668228,0.18979845941066742,0.6249977946281433,1.2059434874273995,-0.5030509094794052,0.19803602734438755
1687099300.162065,0.8386114835739136,0.45298653841018677,-0.3025457262992859,0.03611379861831665,-0.10911452770233154,-0.06537425518035889,-0.22827684879302979,0.06918555498123169,0.8803752660751343,1.2245594115587835,-0.4701124399740323,0.22326967836834846
1687099300.252335,0.859308660030365,0.4162338078022003,-0.29721665382385254,0.04343169927597046,-0.026158243417739868,-0.06586626172065735,-0.14790859818458557,-0.028152238577604294,0.9825754761695862,1.2377976669444937,-0.42929933414396626,0.2522652635634546
1687099300.257745,0.8769552707672119,0.37577006220817566,-0.29957687854766846,0.043195486068725586,0.04242748022079468,-0.05834859609603882,0.010115966200828552,-0.12316034734249115,0.8748670220375061,1.241615162057521,-0.3852275848261969,0.27110815214678236
1687099300.308173,0.8878470659255981,0.3429511785507202,-0.30677685141563416,0.040833353996276855,0.04392009973526001,-0.048234254121780396,-0.27030977606773376,-0.2999695837497711,0.6765871644020081,1.2381101998532815,-0.35005682622203604,0.2891403406676655
1687099300.401589,0.891451358795166,0.3251948952674866,-0.31553569436073303,0.005170345306396484,0.05267372727394104,-0.014649361371994019,-0.6934316158294678,-0.4537939727306366,0.44562235474586487,1.2306004596844615,-0.3312178138224507,0.32442074243235697
1687099300.407903,0.8890631198883057,0.3227079510688782,-0.32469409704208374,0.005361199378967285,0.09939584136009216,0.003328680992126465,-0.5607767701148987,-0.4326399862766266,0.1774323433637619,1.2206368329649777,-0.32858913137995927,0.3636564893503026
1687099300.457968,0.8833373785018921,0.32825803756713867,-0.33460694551467896,-0.029898107051849365,0.06554070115089417,0.02879023551940918,-0.46623173356056213,-0.38945478200912476,-0.0022911042906343937,1.208699558647725,-0.3344588471594873,0.39012621564705646
1687099300.54989,0.877495288848877,0.33605775237083435,-0.3421507179737091,-0.08199363946914673,0.046541035175323486,0.02777385711669922,-0.2494329959154129,-0.2195325344800949,-0.12646926939487457,1.1990119144267857,-0.34272807332830735,0.40635655868435255
1687099300.5609279,0.8720095157623291,0.3479468822479248,-0.3442850112915039,-0.08804357051849365,0.014678150415420532,0.02763459086418152,-0.21071435511112213,-0.0341954305768013,-0.19193273782730103,1.1947651989773609,-0.35538025492819264,0.4138761306251635
1687099300.608995,0.8715226650238037,0.35273271799087524,-0.3406284749507904,0.042570292949676514,0.036900341510772705,-0.051736027002334595,0.10280898958444595,0.12934012711048126,-0.01810593158006668,1.1982088041649683,-0.3604899273879673,0.41446355837739546
1687099300.731626,0.8710970282554626,0.3561091721057892,-0.3381953239440918,-0.019488871097564697,-0.0039059221744537354,-0.08392390608787537,-0.15884791314601898,-0.0276540145277977,-0.08937946707010269,1.20046818724006,-0.3641007809443747,0.4123426069398493
1687099300.742841,0.867932915687561,0.3657349944114685,-0.33605119585990906,-0.00733715295791626,-0.05819416046142578,-0.11684498190879822,-0.7420454025268555,-0.2220122069120407,-0.005224664695560932,1.2013853581623817,-0.37442239306588304,0.4334281233617353
1687099300.823046,0.8652424812316895,0.37820276618003845,-0.32911694049835205,0.010016798973083496,-0.006773471832275391,-0.14294424653053284,-0.8419898152351379,-0.21580666303634644,0.1196320503950119,1.2073213402869536,-0.3878540861478712,0.4798970666417192
1687099300.8285642,0.8639760613441467,0.37809547781944275,-0.332549512386322,0.071891188621521,0.11935621500015259,-0.25050413608551025,0.299326092004776,-0.2256212681531906,0.06423428654670715,1.2033693958569958,-0.3877382005383307,0.49636067787020216
1687099300.911,0.8562735319137573,0.37370938062667847,-0.3565625548362732,0.009021759033203125,0.02654382586479187,-0.12935364246368408,0.5163067579269409,-0.4620024263858795,-0.2727414071559906,1.1762222496234824,-0.38300495650761945,0.4679222980132861
1687099300.9233332,0.8404867053031921,0.3807123005390167,-0.3855389356613159,0.008893728256225586,-0.10524547100067139,0.03515130281448364,0.006621313747018576,-0.6588748097419739,-0.22925792634487152,1.1407235241801332,-0.39056647209263723,0.44991103015373185
1687099301.0602179,0.8251855373382568,0.390048086643219,-0.4085722267627716,0.06572932004928589,-0.07808220386505127,0.14529699087142944,-0.5484619140625,-0.619644284248352,0.030706927180290222,1.1110541386913404,-0.4006838171427659,0.4567068334497443
1687099301.072206,0.8124361038208008,0.403886616230011,-0.42050328850746155,0.07655614614486694,-0.06927672028541565,0.13936007022857666,-1.2923879623413086,-0.8761666417121887,0.18107819557189941,1.0931812854123035,-0.4157614497359541,0.5050977072298011
1687099301.0869122,0.7991108298301697,0.42691248655319214,-0.423281729221344,0.11247968673706055,-0.03982764482498169,0.17747783660888672,-1.9211405515670776,-0.9666824340820312,0.13032940030097961,1.0836791173241478,-0.4410757393882358,0.5869145778636091
1687099301.090208,0.7666771411895752,0.5333473086357117,-0.357416570186615,-0.06623774766921997,0.4002158045768738,-0.3392082452774048,-6.559426784515381,-1.1997170448303223,-2.6326279640197754,1.1345613507130976,-0.5625527849161065,0.7784895687427255
1687099301.11405,0.5995323061943054,0.7725104689598083,-0.20925767719745636,0.06300431489944458,1.5095787048339844,-0.7415328621864319,-2.5821828842163086,-0.9045043587684631,-5.8010735511779785,1.2349815742016779,-0.8827851442220048,1.009194247697872
1687099301.176355,0.2996900677680969,0.9357298016548157,-0.1859985738992691,0.8453904390335083,1.22479248046875,-0.04811714589595795,0.6055679321289062,-0.29783469438552856,-7.063368320465088,1.015341018139413,-1.210322437974846,0.791141284352899
1687099301.24196,-0.06420581042766571,0.9492438435554504,-0.3079184293746948,0.9958159923553467,1.2704216241836548,-0.12546181678771973,3.9064114093780518,-0.7475387454032898,-8.143755912780762,-0.20557011461940666,-1.2508230244442646,-0.4539040598447544
1687099301.30049,-0.439339816570282,0.7655897736549377,-0.4699498116970062,1.3158810138702393,0.8301438093185425,0.16515541076660156,3.8887500762939453,-1.6709994077682495,-7.805021286010742,-0.751747256428242,-0.8719575504707426,-0.9967094596708148
1687099301.360104,-0.7220374941825867,0.453775018453598,-0.5222547054290771,1.2185434103012085,0.7090057134628296,0.3202893137931824,2.858468532562256,-1.543492078781128,-7.596922874450684,-0.944598809613082,-0.47099705735627984,-1.1702362273394895
1687099301.453007,-0.8645621538162231,0.08326827734708786,-0.49557891488075256,1.2549126148223877,0.7690266370773315,0.2840920388698578,3.3216075897216797,-1.8523242473602295,-6.843115329742432,-1.0503054970330012,-0.083364801810938,-1.2368939803789631
1687099301.458998,-0.8785122632980347,-0.28482794761657715,-0.3835219442844391,1.0655851364135742,0.6094129085540771,0.22927069664001465,3.559419870376587,-2.5596513748168945,-6.103583812713623,-1.15917645775608,0.28882692176080216,-1.2321977701092723
1687099301.507962,-0.8040482997894287,-0.5636998414993286,-0.18907378613948822,0.8418442606925964,0.4106237292289734,0.3618031442165375,3.343658685684204,-2.51131534576416,-4.87186336517334,-1.339840065554059,0.5988583493057819,-1.1383032998257716
1687099301.600635,-0.6729493737220764,-0.7394148707389832,-0.020109597593545914,0.7731235027313232,0.2031906247138977,0.2845289707183838,2.0088183879852295,-2.000943660736084,-3.685689926147461,-1.5409224376757915,0.8322008092782314,-0.9931725578584261
1687099301.612736,-0.5423347353935242,-0.8369017243385315,0.07394872605800629,0.7223427295684814,0.05382072925567627,0.32532787322998047,0.2324400097131729,-1.405192255973816,-2.752207040786743,-1.7063131570458248,0.9915980227809915,-0.8993406821045336
1687099301.656003,-0.4394499361515045,-0.8934584856033325,0.09281827509403229,0.3887603282928467,-0.07437574863433838,0.30462729930877686,0.2395123988389969,0.02124449796974659,-1.8172506093978882,-1.778951601328951,1.1049873594349953,-0.8518799473110618
1687099301.7235498,-0.3867337703704834,-0.9163798689842224,0.10336658358573914,0.4507444500923157,-0.16667360067367554,0.17672359943389893,-0.10726040601730347,0.17147836089134216,-0.6192879676818848,-1.8319721819415948,1.1589413926892445,-0.7873998241984743
1687099301.8124208,-0.3769250810146332,-0.9245476126670837,0.05602670833468437,0.16710150241851807,-0.20031499862670898,0.14970731735229492,-1.1842557191848755,0.7839298844337463,0.021026557311415672,-1.7183573976765962,1.1798467643554973,-0.8788769393720686
1687099301.825273,-0.39450234174728394,-0.9188292026519775,0.010992844589054585,0.25982823967933655,0.029119670391082764,-0.056952476501464844,-0.31060370802879333,0.016408463940024376,0.5213718414306641,-1.5986542117389124,1.1651035042259237,-0.9924934058078794
1687099301.9039202,-0.4077700078487396,-0.9130800366401672,-0.0029009266290813684,-0.16731852293014526,0.10993367433547974,0.042070090770721436,-0.10466227680444717,0.7839887142181396,0.03169717639684677,-1.5636823221522789,1.150774521367702,-1.0089391046790739
1687099301.90956,-0.41090676188468933,-0.9113993644714355,-0.022511279210448265,-0.014325141906738281,-0.0924915075302124,-0.05192124843597412,-0.3410428762435913,0.15952487289905548,0.191149041056633,-1.5160666416779618,1.1466718110701082,-1.0328558048625578
1687099302.021282,-0.4249328076839447,-0.9045594334602356,-0.03470023721456528,0.03377377986907959,-0.019283831119537354,0.03244173526763916,0.1360173374414444,0.7605070471763611,0.6009067296981812,-1.4893165886244426,1.1303452950748973,-1.043179358341882
1687099302.026063,-0.47585949301719666,-0.8773779273033142,-0.061364900320768356,0.637266993522644,-0.16218799352645874,0.2498260736465454,-0.4590509235858917,1.279901385307312,1.7340199947357178,-1.4425481844946162,1.0703697145401372,-1.0290471629414177
1687099302.1162472,-0.5660492181777954,-0.8126164078712463,-0.13871797919273376,0.72434401512146,-0.1946161389350891,0.3222810626029968,-1.2927072048187256,1.702262043952942,3.176159381866455,-1.3304691845712915,0.9486275013925457,-1.0839948445675045
1687099302.1288939,-0.7039273977279663,-0.6652618646621704,-0.24882245063781738,1.0165190696716309,-0.08186936378479004,0.45765411853790283,-1.5912803411483765,1.7723793983459473,4.965718746185303,-1.2310269392275006,0.7278444877195983,-1.0923554124435175
1687099302.200367,-0.818111777305603,-0.42089998722076416,-0.39183691143989563,0.8682675361633301,0.16935893893241882,0.5642305612564087,-3.645629405975342,2.2258009910583496,5.536288738250732,-1.1241278158069592,0.43443725708953174,-1.1061424872460113
1687099302.21382,-0.8443531394004822,-0.0493524968624115,-0.5335093140602112,1.1035540103912354,0.125600665807724,0.6209880113601685,-4.61414098739624,1.970717191696167,7.358351230621338,-1.0072822929891279,0.049372552248458164,-1.146359571250046
1687099302.2594671,-0.7292349934577942,0.3960312008857727,-0.5580102801322937,1.1151909828186035,0.4506332278251648,0.5701256990432739,-5.598186016082764,1.4497504234313965,7.44248104095459,-0.9176382685333401,-0.4071905928266818,-1.136450834886348
1687099302.382684,-0.44469574093818665,0.7688426971435547,-0.4594849646091461,0.9233945608139038,0.16436946392059326,0.28538215160369873,-3.3914127349853516,1.0856012105941772,9.56381893157959,-0.7690431268299077,-0.8770292868736673,-1.0101190664259916
1687099302.395988,-0.021447323262691498,0.9057809114456177,-0.4232029616832733,0.720620334148407,0.846202552318573,0.23429909348487854,0.5215961933135986,2.2336881160736084,7.944280624389648,-0.05063525662051624,-1.133218967832507,-0.2637775571720902
1687099302.474082,0.3733007311820984,0.7998979091644287,-0.46990394592285156,1.2919976711273193,0.5513134598731995,0.1401614248752594,1.1543872356414795,2.574359178543091,7.941382884979248,0.6713287664393148,-0.9271250630612774,0.39526208257190104
1687099302.479706,0.6815520524978638,0.6248496770858765,-0.3808536231517792,0.6237457394599915,0.5369085669517517,0.3738955557346344,-0.582048773765564,2.015489339828491,5.198981761932373,1.0612193747178154,-0.674938980004013,0.6968893423511485
1687099302.559709,0.848869264125824,0.4049167335033417,-0.3397991359233856,0.8071671724319458,1.0033931732177734,-0.19341936707496643,-0.20110471546649933,1.5007871389389038,4.074301242828369,1.190034639898669,-0.4168877493590877,0.8178729623683783
1687099302.573618,0.9324079155921936,0.2660703957080841,-0.24458502233028412,0.27970439195632935,0.8382080793380737,-0.6904431581497192,-0.8766721487045288,2.3107001781463623,2.233377456665039,1.3142606329337436,-0.26931418940111873,0.9056918546365348
1687099302.652673,0.9654589891433716,0.2092299908399582,-0.15527945756912231,0.11896783113479614,1.1232742071151733,-1.252938985824585,0.4737604856491089,0.9938244819641113,0.0649913102388382,1.4113271584081566,-0.21078746253664807,0.903973035556741
1687099302.658153,0.9605988264083862,0.2307811677455902,-0.15488658845424652,0.0024900436401367188,0.6568835973739624,-0.8350884914398193,-1.8365657329559326,-1.1736371517181396,-0.35982754826545715,1.4109326282413508,-0.23288044426891194,1.001995038242977
1687099302.707951,0.930918276309967,0.2843841314315796,-0.22916533052921295,-0.10920208692550659,0.8277373909950256,-0.412588894367218,1.0128874778747559,-1.703956961631775,-1.78800630569458,1.3294244099163237,-0.28836398293395327,0.9605211860845634
1687099302.838037,0.8801516890525818,0.3809964656829834,-0.28315117955207825,0.31105607748031616,0.12599197030067444,-0.0011659562587738037,-2.311042308807373,-1.3206993341445923,-2.1546132564544678,1.2595454871353826,-0.390873797734111,0.9567717872973788
1687099302.844106,0.7944554090499878,0.5540182590484619,-0.24880599975585938,0.11846262216567993,0.049924492835998535,0.021739840507507324,-4.160681247711182,-0.9645457863807678,-3.531864643096924,1.267293839674856,-0.5871832237662226,1.0885247598645627
1687099302.9253669,0.6626521348953247,0.7278416752815247,-0.17646123468875885,0.3199070692062378,0.6486688852310181,-0.0959845781326294,-1.852908730506897,-0.08988601714372635,-5.10620641708374,1.3105405606054723,-0.8151692366500071,1.2063523385781558
1687099302.930408,0.4078877568244934,0.906106173992157,-0.11224478483200073,0.9205271005630493,0.7964388132095337,-0.10121052712202072,-0.4975714683532715,0.5418554544448853,-6.5992655754089355,1.3022576799707826,-1.1339872580911758,1.1790269144515537
1687099303.0104132,0.0656137466430664,0.9842543005943298,-0.16412881016731262,0.8855276703834534,1.316969394683838,-0.05794776976108551,3.2193613052368164,1.0829328298568726,-7.931594371795654,0.3803079516882403,-1.3931046311005746,0.18815305266355822
1687099303.025261,-0.3173861503601074,0.8731083869934082,-0.37006449699401855,1.304004192352295,1.0592035055160522,0.049782395362854004,4.545186519622803,-0.4230916202068329,-8.373063087463379,-0.7089190515192945,-1.061542232275795,-0.9620647016260128
1687099303.104034,-0.6505861878395081,0.5688137412071228,-0.5031782388687134,1.2996952533721924,0.7676576972007751,0.1966443657875061,4.515654563903809,-1.409256100654602,-8.300447463989258,-0.912472339881337,-0.6050628209344118,-1.1637360561194525
1687099303.110251,-0.8412113189697266,0.1317199319601059,-0.5244171023368835,1.2418462038040161,0.9715820550918579,0.34593498706817627,5.377671718597412,-2.1251533031463623,-7.67327880859375,-1.0133432992522773,-0.13210383733061545,-1.1877612186644877
1687099303.160273,-0.8749605417251587,-0.2910028398036957,-0.386989951133728,1.2730777263641357,0.6692377328872681,0.36268261075019836,4.565069198608398,-3.3167107105255127,-6.176848888397217,-1.154369030036139,0.29527486819701415,-1.1343312695999839
1687099303.2790031,-0.8091892004013062,-0.5713331699371338,-0.1370803862810135,0.9738011956214905,0.33369284868240356,0.31814098358154297,3.1692943572998047,-3.7188427448272705,-4.566470146179199,-1.4029848822203488,0.6081293103166125,-0.9998141543689338
1687099303.292272,-0.6786609888076782,-0.7342686057090759,0.01640021800994873,0.6518665552139282,0.2453465461730957,0.3118772506713867,0.05977693945169449,-2.2073941230773926,-3.880073070526123,-1.5949571765686494,0.8245886961494789,-0.9262497996080706
1687099303.3734899,-0.5434487462043762,-0.8359014987945557,0.07701873034238815,0.7930673956871033,0.20983350276947021,0.1601332426071167,0.6929608583450317,-1.5040909051895142,-2.6030776500701904,-1.7115809233703563,0.9897731277030137,-0.8951912284319549
1687099303.378967,-0.44266757369041443,-0.8876199126243591,0.12718415260314941,0.5228221416473389,-0.009383022785186768,0.43198928236961365,0.44956156611442566,-0.17920614778995514,-1.8837666511535645,-1.8505734232095898,1.0921515155486305,-0.7901801400192429
1687099303.463431,-0.385351300239563,-0.9149648547172546,0.11976391822099686,0.21964091062545776,-0.08056414127349854,0.21859954297542572,-0.3836561441421509,0.8895576596260071,-0.8051474094390869,-1.8721239603315363,1.155420787970593,-0.7372940968725147
1687099303.477337,-0.37161657214164734,-0.9263054728507996,0.06212230026721954,0.2799265384674072,-0.1664373278617859,0.11172091960906982,-1.2277506589889526,0.7082405090332031,-0.07789760082960129,-1.7364324829108766,1.1844859156096346,-0.8439847498155169
1687099303.5527148,-0.38180190324783325,-0.924056887626648,0.018593912944197655,0.09238854050636292,0.02668774127960205,-0.028512243181467056,0.2858293056488037,0.9028365612030029,0.44960129261016846,-1.6194582989594293,1.1785609317358239,-0.9246735585772914
1687099303.558004,-0.40673333406448364,-0.9130553603172302,0.02996310591697693,0.15967831015586853,0.0161895751953125,-0.04929614067077637,0.144821897149086,0.6295213103294373,0.6358467936515808,-1.6443311884903005,1.1507139267737254,-0.8629512279712778
1687099303.6086931,-0.4745551347732544,-0.8799834251403809,-0.020643802359700203,0.559821367263794,-0.29582810401916504,0.2806686758995056,-0.993836522102356,1.751076102256775,2.4629228115081787,-1.5273223574499213,1.0758273390271897,-0.9216273487365003
1687099303.700239,-0.5981450080871582,-0.7933881878852844,-0.11294899880886078,0.995728075504303,0.026634156703948975,0.21156644821166992,-1.6482174396514893,1.1218430995941162,3.568492889404297,-1.3841617972859257,0.9163551517931179,-1.0044825412941492
1687099303.705867,-0.7383509278297424,-0.6333556771278381,-0.23172935843467712,0.7005854845046997,0.02091372013092041,0.40918898582458496,-2.4261279106140137,1.7383383512496948,4.856855869293213,-1.266684614244157,0.6858818322308133,-1.073779557385617
1687099303.7596998,-0.8518581390380859,-0.3760600686073303,-0.3645773231983185,0.8954830765724182,0.1125103235244751,0.35066115856170654,-2.4230525493621826,1.6267025470733643,6.371148109436035,-1.1664052088481722,0.38554055706000795,-1.093455570045605
1687099303.848068,-0.8753740191459656,-0.01443842239677906,-0.4832306206226349,0.8528521060943604,0.2962072491645813,0.5144805312156677,-3.7939682006835938,2.483342409133911,6.901764869689941,-1.0663977570247423,0.014438923956069969,-1.0834283707072851
1687099303.863733,-0.7383999824523926,0.3996114432811737,-0.5432090163230896,0.8226286172866821,0.0800180435180664,0.2905997037887573,-4.321929931640625,2.0651581287384033,7.953886032104492,-0.9365381979239388,-0.41109293534669217,-1.052850447954236
1687099303.907586,-0.4624718725681305,0.742611825466156,-0.4844041168689728,0.6922540664672852,0.6340970993041992,0.17422336339950562,-4.139215469360352,2.264862060546875,7.091759204864502,-0.7622395760204709,-0.8369618079070569,-0.9483903960202296
1687099304.0017939,-0.09868945181369781,0.934535026550293,-0.3419131338596344,0.7048296332359314,0.24106299877166748,0.22019362449645996,-2.935704469680786,1.1589399576187134,8.183158874511719,-0.2810015198364761,-1.206950241699682,-0.49955185617344244
1687099304.00754,0.26661068201065063,0.9071451425552368,-0.3255862891674042,0.4635986387729645,1.1843311786651611,-0.014394879341125488,2.3150274753570557,2.178280830383301,7.221558094024658,0.6861376161927775,-1.1364496495099188,0.4545460445825105
1687099304.0898871,0.618077278137207,0.7202245593070984,-0.315050333738327,0.7152813673019409,0.22537773847579956,0.39486899971961975,0.3434654474258423,2.4022274017333984,7.286271095275879,1.099397903398711,-0.8041259552940251,0.8000064273252544
1687099304.179843,0.8280801773071289,0.48352524638175964,-0.28370121121406555,0.745024561882019,1.2636669874191284,-0.4117791950702667,1.824628233909607,1.109636664390564,4.645879745483398,1.2407280686282096,-0.5046775973635826,0.9012066755920248
1687099304.194627,0.9095683693885803,0.3157058656215668,-0.27021324634552,0.5702136754989624,0.7305586934089661,-0.43100446462631226,1.1640524864196777,1.252724289894104,2.4015285968780518,1.282021919377923,-0.32120046949708636,0.870003976931755
1687099304.274586,0.9522709846496582,0.23327714204788208,-0.1968802958726883,0.0601191520690918,0.7824393510818481,-0.6632729768753052,2.0301601886749268,2.4246954917907715,0.31295284628868103,1.3669206289061278,-0.23544644774283738,0.8311196848248998
1687099304.2797298,0.965591311454773,0.22713060677051544,-0.1266690492630005,0.034774839878082275,0.5757105350494385,-0.7807711958885193,3.2037949562072754,1.2931344509124756,-0.413521409034729,1.440358271146267,-0.22913026560520283,0.6671086543614712
1687099304.361505,0.9680198431015015,0.21321065723896027,-0.132206991314888,0.057919979095458984,0.011703819036483765,-0.36326122283935547,1.3265517950057983,-0.18929031491279602,-0.2540956437587738,1.4350614438627167,-0.21486000572837807,0.5539817414730305
1687099304.376894,0.9453874230384827,0.29046431183815,-0.14789584279060364,0.05687093734741211,0.015474379062652588,-0.2988815903663635,-1.6429708003997803,-0.7261046767234802,-1.9238780736923218,1.4156147107317287,-0.29471202336085583,0.5626174095404155
1687099304.452314,0.9153225421905518,0.35569092631340027,-0.18886040151119232,0.047171175479888916,0.06845754384994507,-0.39478829503059387,-0.40714651346206665,-1.4692327976226807,-0.911862850189209,1.367319709203508,-0.36365322152493684,0.6163638692283692
1687099304.457645,0.879236102104187,0.4009902775287628,-0.2571972906589508,0.17624473571777344,0.40607747435569763,-0.20503726601600647,0.338409423828125,-1.5793304443359375,-1.7864264249801636,1.2862126774282623,-0.41259758120341977,0.5840923648247058
1687099304.5445008,0.7701113820075989,0.5793331265449524,-0.26702308654785156,0.4292445182800293,0.07366663217544556,-0.14359095692634583,-6.136548042297363,-2.4865124225616455,-4.489500045776367,1.2370348676986778,-0.6179102937715912,0.6672316953751604
1687099304.558504,0.5496919751167297,0.820500373840332,-0.15690018236637115,0.42940348386764526,1.3930766582489014,-0.5421966314315796,-1.9062899351119995,-1.2802916765213013,-7.221676826477051,1.292756805272853,-0.9622858022269785,0.8988581250348922
1687099304.631129,0.18704544007778168,0.9383574724197388,-0.2906872034072876,1.3056761026382446,1.5640838146209717,-0.19478648900985718,5.300940990447998,-1.260235071182251,-7.96444845199585,0.5717635408870773,-1.2178474418158038,0.1596281275363768
1687099304.720945,-0.21981686353683472,0.8338600993156433,-0.5063177943229675,1.456496000289917,0.8359547853469849,0.17384397983551025,3.9700615406036377,-2.6351072788238525,-8.257492065429688,-0.40959351850496045,-0.9860644155986898,-0.8052067401484198
1687099304.726841,-0.5953138470649719,0.5564563274383545,-0.5796186327934265,1.4376602172851562,0.9082042574882507,0.39031803607940674,3.5822436809539795,-2.758878707885742,-8.43082046508789,-0.7987558145921357,-0.5901146885070748,-1.1498650174018152
1687099304.809318,-0.8272793292999268,0.1494317352771759,-0.5415523052215576,1.4300473928451538,0.898190975189209,0.45364636182785034,4.311699867248535,-3.11236834526062,-7.682217597961426,-0.9911812336200524,-0.14999352935458246,-1.2522813696838666
1687099304.824966,-0.8781436681747437,-0.27614152431488037,-0.3906525671482086,1.2370152473449707,0.8359407186508179,0.38464054465293884,4.369001388549805,-3.3852522373199463,-7.074077129364014,-1.1522235245446368,0.27977719377379207,-1.240815142819824
1687099304.901655,-0.7909255027770996,-0.5929133296012878,-0.15129591524600983,0.9866195917129517,0.3280818462371826,0.4161425828933716,3.2831249237060547,-3.3734726905822754,-5.356264114379883,-1.3817899070118265,0.6346719099037174,-1.1369077850003613
1687099304.90698,-0.6365686655044556,-0.7712115049362183,0.0036118195857852697,0.6396509408950806,0.22426027059555054,0.38199281692504883,0.5313541293144226,-1.9608898162841797,-4.238872528076172,-1.576470154659084,0.8807420694966246,-1.0402772574349533
1687099304.961035,-0.49426591396331787,-0.8677562475204468,0.051963504403829575,0.6042665839195251,-0.006984293460845947,0.3544389009475708,0.09461615234613419,-0.6263248920440674,-2.5156970024108887,-1.675544222790235,1.0506697113944956,-0.9999731974721314
1687099305.021838,-0.4052874445915222,-0.9129435420036316,0.047707099467515945,0.4779345989227295,0.0030773282051086426,0.26818013191223145,-0.19398906826972961,0.3866131007671356,-1.4429731369018555,-1.6879688934495523,1.150439947538728,-0.9920763844900898
1687099305.113075,-0.36717450618743896,-0.9295605421066284,0.03316569700837135,0.35531845688819885,-0.06457996368408203,0.1627875566482544,-0.16413700580596924,0.5870553255081177,-0.3196339011192322,-1.6608786547233036,1.1932190781760383,-0.9901884564683127
1687099305.127831,-0.36424118280410767,-0.931273341178894,-0.007625787518918514,0.13947924971580505,-0.04951578378677368,0.12238705158233643,-0.8818475008010864,1.073204517364502,0.06797739863395691,-1.549863291125534,1.1978925240299048,-1.0682215709728726
1687099305.203754,-0.37114956974983215,-0.9265962243080139,-0.06055855751037598,0.22519928216934204,0.05687588453292847,-0.02450937032699585,-0.6174752116203308,0.5071603059768677,0.2591324746608734,-1.4090567562898682,1.1852582589140335,-1.1718894356826497
1687099305.208777,-0.37665867805480957,-0.9223227500915527,-0.08630647510290146,-0.04367515444755554,0.09486925601959229,-0.07355999946594238,-0.00323856039904058,0.5615955591201782,0.10805259644985199,-1.345547639531506,1.174048989169696,-1.2141474715872742
1687099305.260423,-0.38026848435401917,-0.9211837649345398,-0.08255869150161743,0.009663105010986328,-0.0025830864906311035,-0.08440309017896652,0.024142304435372353,-0.005797505844384432,0.015968039631843567,-1.3570077893991703,1.1711117514646523,-1.1893013605716827
1687099305.349644,-0.38043129444122314,-0.9200937151908875,-0.09327120333909988,-0.05703815817832947,-0.072581946849823,-0.03694748878479004,-0.24608907103538513,-0.033768102526664734,0.09286055713891983,-1.3303665422786901,1.168319665863711,-1.2155741580811845
1687099305.366064,-0.38699936866760254,-0.9173197746276855,-0.0935717299580574,0.015890419483184814,0.015983283519744873,-0.014277510344982147,0.046063635498285294,-0.014118659310042858,0.15499064326286316,-1.3335615860371446,1.1612956622236648,-1.216252021847806
1687099305.4099631,-0.40007737278938293,-0.911309540271759,-0.09722478687763214,0.1454387903213501,-0.043661534786224365,0.03258843719959259,-0.15972910821437836,0.0153998713940382,0.5038710236549377,-1.332402538139084,1.1464536614523677,-1.2174698027912685
1687099305.501198,-0.4369167387485504,-0.8928124904632568,-0.10949571430683136,0.3529171645641327,0.018865525722503662,0.23312228918075562,-0.20317281782627106,0.6452006697654724,1.2930102348327637,-1.3252436012194213,1.1035511073646473,-1.209335082036688
1687099305.5070748,-0.5083541870117188,-0.8461744785308838,-0.15989018976688385,0.7024154663085938,0.04949784278869629,0.3224114179611206,-1.5466967821121216,0.754152774810791,2.196423053741455,-1.2660675147704057,1.0087652747461706,-1.233078082431873
1687099305.5602078,-0.6133278608322144,-0.7420110106468201,-0.27064448595046997,0.7361001372337341,0.09194087982177734,0.4725486636161804,-2.3224146366119385,1.140834927558899,3.8241753578186035,-1.1552241936291006,0.8360651365926,-1.317317338840017
1687099305.654378,-0.7470153570175171,-0.5364577174186707,-0.39265918731689453,0.9474090933799744,0.14313191175460815,0.5627639889717102,-2.582705497741699,1.5666779279708862,5.77360725402832,-1.086849803214802,0.5662340688511392,-1.3153011532809389
1687099305.660217,-0.8213933706283569,-0.20039421319961548,-0.5339991450309753,0.8187536597251892,0.32894954085350037,0.6871209740638733,-4.769651412963867,2.265901565551758,6.818848133087158,-0.9943411525476953,0.2017602825537008,-1.3052222905286819
1687099305.710644,-0.7402780055999756,0.24756483733654022,-0.6250600814819336,0.8498057126998901,0.4129118323326111,0.5693959593772888,-5.847233772277832,2.44476056098938,7.642699241638184,-0.8695865373179682,-0.25016603794649295,-1.3110333352200891
1687099305.802851,-0.4622255265712738,0.6919567584991455,-0.5545658469200134,0.7914187908172607,0.41702139377593994,0.3222813010215759,-5.178911209106445,1.9137942790985107,9.040763854980469,-0.694831161266274,-0.7641959286643223,-1.1912392017893334
1687099305.808796,-0.08539917320013046,0.9005345106124878,-0.42631497979164124,0.558742105960846,0.7881250381469727,-0.06750530004501343,-3.8254268169403076,1.8513704538345337,8.05207633972168,-0.19770268863503251,-1.1209973469617804,-0.6986404675231278
1687099305.85668,0.3359270393848419,0.9218656420707703,-0.19317547976970673,0.6125288009643555,0.28484511375427246,0.0715475082397461,-3.140054225921631,0.5735349059104919,9.345121383666992,1.0489230659023678,-1.172867646409725,0.5568146104053033
1687099305.953394,0.6723659038543701,0.7031511664390564,-0.23130585253238678,0.7230808734893799,1.8854718208312988,0.1793190836906433,6.382225513458252,1.0508297681808472,7.2104973793029785,1.2394607423331179,-0.7798196277713979,0.701232973550369
1687099305.958983,0.8541457056999207,0.4115271270275116,-0.31793147325515747,0.4579879641532898,0.7727379202842712,-0.8761909008026123,3.384638786315918,1.0636283159255981,3.6153008937835693,1.214463745325637,-0.4241290075439474,0.5074220081721926
1687099306.07378,0.9068254232406616,0.30317097902297974,-0.292838990688324,0.41638606786727905,0.3891812264919281,-0.3599015176296234,-2.2310984134674072,0.6086495518684387,1.1823029518127441,1.2584399657007979,-0.30801848080152017,0.5385438233393718
1687099306.0787358,0.9248930215835571,0.31099221110343933,-0.21876119077205658,-0.08300477266311646,0.5879486799240112,-0.5863994359970093,-0.4234658479690552,0.9024328589439392,0.20916211605072021,1.3385387713606265,-0.3162368374465346,0.6512809367988468
1687099306.134177,0.9376871585845947,0.278313547372818,-0.208048477768898,-0.2959636449813843,0.7674779891967773,-0.40125030279159546,4.331616401672363,1.1838163137435913,-0.22154127061367035,1.3524591636755188,-0.2820378412945731,0.5351569069040141
1687099306.1493158,0.9412704110145569,0.2589092254638672,-0.21673887968063354,-0.17334145307540894,0.42273128032684326,-0.021298274397850037,4.5744309425354,0.8001535534858704,-1.0772349834442139,1.3444790367179875,-0.2618927594592316,0.2909762701201697
1687099306.18707,0.928373396396637,0.2671183943748474,-0.2583998739719391,0.25406062602996826,-0.027448654174804688,0.0540999174118042,1.6326390504837036,-0.43017706274986267,-0.80812007188797,1.2993311829112006,-0.2704015170697204,0.10103651368404726
1687099306.2477698,0.9051904082298279,0.31884628534317017,-0.28101107478141785,-0.031441688537597656,-0.05621206760406494,0.16414397954940796,-0.8042959570884705,-0.46057841181755066,-1.2462351322174072,1.269785485108611,-0.3245119916113267,0.0881568244803557
1687099306.341558,0.8821104168891907,0.3662862181663513,-0.2961679697036743,0.01847851276397705,0.0720224380493164,0.0033823251724243164,1.4598150253295898,-0.05560160055756569,-1.0565128326416016,1.2468729595477417,-0.3750147092021901,0.05816520930402142
1687099306.4310632,0.8637820482254028,0.3811776638031006,-0.32952097058296204,0.03436553478240967,-0.08910930156707764,0.10524725914001465,1.5567152500152588,0.026318034157156944,-0.819916844367981,1.2063512399541207,-0.39106980240513795,-0.049027764534874896
1687099306.447371,0.8489848971366882,0.3942459523677826,-0.35184499621391296,0.09178048372268677,-0.15976420044898987,0.15535753965377808,0.4163098931312561,-0.09417620301246643,-0.6449965834617615,1.1779123260558249,-0.4052472010522378,-0.11678066310283951
1687099306.524138,0.8382951617240906,0.41892120242118835,-0.3489498794078827,0.027793586254119873,-0.21399575471878052,0.1863827407360077,-0.5389177799224854,0.0781920999288559,-0.3597600758075714,1.1763506017144705,-0.432256911758695,-0.12014294153588875
1687099306.529237,0.8370373249053955,0.43333181738853455,-0.3340536057949066,0.040464937686920166,-0.1074347198009491,0.07950642704963684,-0.09871608018875122,0.16105426847934723,-0.05457337200641632,1.191074302546146,-0.4481864441864818,-0.1035215583116053
1687099306.610811,0.8410871028900146,0.4326626658439636,-0.3246156871318817,0.021598994731903076,-0.1163632869720459,0.08003252744674683,-0.13657882809638977,0.23565912246704102,0.17761917412281036,1.202462343513777,-0.44744411570566345,-0.09867962013069716
1687099306.629356,0.85201096534729,0.421593576669693,-0.31038060784339905,0.03078627586364746,-0.05028623342514038,0.03660738468170166,0.14540694653987885,0.3844253420829773,0.353116899728775,1.2214465516617037,-0.43520198044554836,-0.09068260795172202
1687099306.697798,0.8653704524040222,0.4007232189178467,-0.30092349648475647,0.02061593532562256,-0.015164166688919067,-0.036616235971450806,0.49533331394195557,0.34865128993988037,0.35958370566368103,1.2361367359230426,-0.4123060800563741,-0.1027774741371429
1687099306.712698,0.8774138689041138,0.3787045180797577,-0.29449573159217834,0.032604992389678955,-0.02122172713279724,-0.021498560905456543,0.3001740574836731,0.3225419819355011,0.35369643568992615,1.2469706594386112,-0.3883961687940214,-0.11706312879498382
1687099306.757942,0.8867260217666626,0.36261865496635437,-0.28674864768981934,0.030540883541107178,0.008108824491500854,-0.05803897976875305,0.20449744164943695,0.19532202184200287,0.23295506834983826,1.2580311672088547,-0.3710762710800726,-0.12468575070892644
1687099306.850455,0.8918960094451904,0.3519570231437683,-0.2839849591255188,0.015711843967437744,0.005861490964889526,-0.05659124255180359,0.018863491714000702,0.041084568947553635,0.16142518818378448,1.2625400691059128,-0.3596610861398019,-0.12752062286909424
1687099306.867134,0.8941757678985596,0.34691694378852844,-0.28301581740379333,0.0023694634437561035,0.03652104735374451,-0.037952810525894165,-0.03275325521826744,-0.022641358897089958,0.08452093601226807,1.2642621522418653,-0.3542818949071227,-0.12375355907162447
1687099306.9717898,0.8944463133811951,0.3436415195465088,-0.28614017367362976,-0.005728781223297119,0.049470603466033936,-0.04058101773262024,0.1252817064523697,-0.06078672409057617,0.02094138041138649,1.2611771921130077,-0.35079181821606914,-0.1260303050129246
1687099306.976828,0.892776608467102,0.34304940700531006,-0.2920047342777252,0.0013272762298583984,0.03903058171272278,-0.00596889853477478,0.13021180033683777,-0.07241818308830261,-0.05991616100072861,1.2546889720881407,-0.35016138683723425,-0.1333722422139243
1687099307.061898,0.8893155455589294,0.3476690948009491,-0.2970586121082306,0.0009735822677612305,0.00692981481552124,0.01521351933479309,-0.0062257214449346066,-0.07361090928316116,-0.10393231362104416,1.248418357949116,-0.35508395959774214,-0.13818460060982599
1687099307.078927,0.8855350613594055,0.35406750440597534,-0.3007718324661255,0.020882725715637207,0.016476869583129883,0.006139874458312988,0.07423796504735947,-0.07274245470762253,-0.16102120280265808,1.2433717355431617,-0.361916779394823,-0.1415096130298112
1687099307.147636,0.8813199996948242,0.36200961470603943,-0.3036840856075287,0.006009042263031006,-0.017237305641174316,0.0227697491645813,0.02799515426158905,-0.06034580618143082,-0.19985872507095337,1.2389593128726994,-0.37042281606404315,-0.14718165131920122
1687099307.161555,0.8777176141738892,0.369132936000824,-0.3055364787578583,0.007337808609008789,-0.029090911149978638,0.020136088132858276,0.014076832681894302,-0.035032518208026886,-0.14428341388702393,1.235812124596087,-0.3780759095515958,-0.15144871222277442
1687099307.2070398,0.8762332797050476,0.3722532391548157,-0.3060111701488495,-0.00039398670196533203,-0.02883896231651306,0.014171510934829712,0.027884632349014282,-0.024297792464494705,-0.07886987924575806,1.2348033579816424,-0.38143555117964245,-0.15326229900874294
1687099307.2991471,0.8763006925582886,0.37213683128356934,-0.3059593737125397,0.00696951150894165,-0.028859972953796387,0.013311028480529785,0.05344091355800629,0.009584966115653515,0.002181564224883914,1.2348799736183111,-0.38131013957928733,-0.1555357242589609
1687099307.31794,0.8772690296173096,0.36935627460479736,-0.3065531551837921,0.015766799449920654,-0.02890223264694214,0.0040476322174072266,-0.0022520723287016153,-0.005745200905948877,0.04407328739762306,1.2346202182327146,-0.3783162226011062,-0.1570645101651926
1687099307.3585181,0.878848671913147,0.3662528693675995,-0.30575111508369446,0.006603538990020752,-0.02239614725112915,-0.000416487455368042,-0.022981585934758186,-0.003198686521500349,0.06886614114046097,1.2359938995499082,-0.37497886930812485,-0.15451221010272667
1687099307.446529,0.8805521726608276,0.36163750290870667,-0.3063432574272156,-0.002607285976409912,-0.009296894073486328,-0.006965517997741699,0.0013798931613564491,-0.024837296456098557,0.09540334343910217,1.2359944247820276,-0.3700236732990591,-0.15325134209757063
1687099307.462078,0.8820589184761047,0.3564566671848297,-0.30807551741600037,0.003133833408355713,-0.004131346940994263,-0.004744917154312134,-0.04365117847919464,-0.05984412133693695,0.10876356065273285,1.2347732024679419,-0.36447269753985195,-0.15096246887115847
