Timestamp,gravityX,gravityY,gravityZ,accelerationX,accelerationY,accelerationZ,rotationRateX,rotationRateY,rotationRateZ,attitudeRoll,attitudePitch,attitudeYaw
1687107153.4931788,0.4929925501346588,0.8324373364448547,-0.25299474596977234,-0.010769069194793701,0.010839641094207764,0.016575098037719727,0.10507780313491821,0.09776141494512558,-0.006782710086554289,1.0966590882900211,-0.9834918208284842,-1.509507546737768
1687107153.51137,0.49475276470184326,0.8308714628219604,-0.25470003485679626,-0.004106491804122925,0.0006867051124572754,-0.008590340614318848,0.06611772626638412,0.07723542302846909,0.019261319190263748,1.095376860094316,-0.9806718952895825,-1.5156087717727427
1687107153.580482,0.49726784229278564,0.8302761912345886,-0.25172632932662964,0.018723368644714355,-0.000594794750213623,-0.015607595443725586,-0.09892986714839935,0.006025262176990509,0.09671536087989807,1.1021860541283646,-0.9796030873237691,-1.510650790116361
1687107153.584713,0.49981188774108887,0.8294693231582642,-0.24933621287345886,0.0005695223808288574,0.02638077735900879,-0.019508332014083862,-0.1461765319108963,-0.047942522913217545,0.04581327736377716,1.1080610673103144,-0.9781569472979686,-1.5009275411348155
1687107153.674788,0.5008021593093872,0.8313948512077332,-0.2407899796962738,0.021109461784362793,0.01314854621887207,-0.01851785182952881,-0.20591388642787933,-0.06516838818788528,0.019264869391918182,1.122619366612403,-0.9816131882642859,-1.4808175281709905
1687107153.6924229,0.4986807703971863,0.8330966830253601,-0.23930564522743225,-0.001152724027633667,0.027788817882537842,-0.010450229048728943,0.030703488737344742,-0.07157445698976517,-0.04897654801607132,1.123375962493304,-0.9846828571259135,-1.4748736212073297
1687107153.7322168,0.4957185685634613,0.8342720866203308,-0.2413567453622818,0.02039465308189392,-0.008481740951538086,0.012780144810676575,-0.01588377356529236,-0.012044977396726608,-0.0646992102265358,1.1176976053099432,-0.9868112153482023,-1.4791414383134198
1687107153.8233728,0.4940583109855652,0.8346282839775085,-0.24352005124092102,0.012762337923049927,-0.017794787883758545,0.020344987511634827,0.14309921860694885,0.05393163859844208,-0.011005373671650887,1.1128469391997022,-0.987457549663628,-1.4864683058161972
1687107153.840647,0.4948662519454956,0.8333173394203186,-0.2463526576757431,0.0067359209060668945,-0.016163408756256104,0.02424567937850952,0.0684279128909111,0.06196826323866844,0.013966932892799377,1.108896929559241,-0.9850818031879973,-1.4948678903830213
1687107153.879177,0.4973675310611725,0.831674337387085,-0.24686676263809204,0.007469475269317627,-0.022546589374542236,0.013269975781440735,0.06257082521915436,0.06936332583427429,0.04857763648033142,1.1100755776992692,-0.982116333450376,-1.4976360801024517
1687107153.975422,0.5001556873321533,0.8312117457389832,-0.24275749921798706,-0.0003693103790283203,-0.0014235973358154297,0.01552361249923706,-0.13869427144527435,0.07930629700422287,0.037630897015333176,1.1189260392438067,-0.9812837426596815,-1.4918284347629505
1687107153.991603,0.5017979145050049,0.8318984508514404,-0.23694674670696259,-0.0013096332550048828,0.024394214153289795,-0.016852736473083496,-0.052968449890613556,0.06593535840511322,0.00031490297988057137,1.129638644369251,-0.9825200803946748,-1.4830495518315763
1687107154.026297,0.5029293298721313,0.8317944407463074,-0.23490457236766815,-0.015823006629943848,0.026069939136505127,-0.032261550426483154,-0.00760293984785676,0.02482808567583561,0.013016671873629093,1.1338357679788513,-0.9823326220767271,-1.481220312195985
1687107154.12307,0.5025476813316345,0.8322716355323792,-0.23402972519397736,-0.0028375983238220215,0.02005380392074585,-0.03856855630874634,-0.05608583986759186,-0.05158615857362747,-0.010855859145522118,1.1349742817883364,-0.9831928223800139,-1.478520355865776
1687107154.139248,0.5012167096138,0.8334941267967224,-0.23252816498279572,-0.005885899066925049,0.026002943515777588,-0.020859241485595703,-0.02233176678419113,-0.027518315240740776,-0.05384163185954094,1.1364208949173726,-0.9854017595386744,-1.4752630859429146
1687107154.178453,0.49696439504623413,0.8355718851089478,-0.23419174551963806,9.056925773620605e-05,0.01997298002243042,-0.020599499344825745,0.00509708933532238,-0.06656564027070999,-0.12132789194583893,1.1304165865389646,-0.9891729214105589,-1.4791032646050712
1687107154.273775,0.49100446701049805,0.8385161757469177,-0.23623152077198029,-0.01424357295036316,-0.0034636855125427246,-0.002415955066680908,0.08351423591375351,-0.0582895465195179,-0.10878939181566238,1.1223673843175208,-0.994554280748903,-1.4844521935844752
1687107154.289985,0.48547178506851196,0.8394505381584167,-0.24421317875385284,-0.009641706943511963,-0.005725562572479248,0.008968472480773926,0.12892939150333405,-0.04404376447200775,-0.11468494683504105,1.1047172886424257,-0.9962713279635026,-1.5024583367735416
1687107154.39364,0.4823767840862274,0.8409037590026855,-0.24534419178962708,0.0037835538387298584,-0.03607887029647827,0.020063430070877075,-0.023754213005304337,-0.017324695363640785,-0.014366749674081802,1.100280293721236,-0.9989510574429996,-1.5062522068984714
1687107154.410888,0.48263755440711975,0.8406121134757996,-0.24582989513874054,-0.005159527063369751,-0.022939443588256836,0.02328050136566162,0.030968153849244118,0.0005991781363263726,0.0322769433259964,1.0996992575712923,-0.9984123712748828,-1.506398039703575
1687107154.4815922,0.485747754573822,0.8390509486198425,-0.24503594636917114,0.01705986261367798,-0.04449528455734253,0.03788262605667114,-0.07658999413251877,0.017297465354204178,0.11692240834236145,1.103594266971364,-0.9955364431804624,-1.5025375287468754
1687107154.4863858,0.4928332567214966,0.836402952671051,-0.2398863136768341,0.011088252067565918,-0.022514402866363525,0.022799551486968994,-0.1535019874572754,0.016980068758130074,0.19463899731636047,1.117805232205163,-0.99068735588262,-1.4867629085439997
1687107154.572401,0.5013200640678406,0.8337652683258057,-0.23133036494255066,0.015083134174346924,0.00028014183044433594,-0.003334522247314453,-0.2191585898399353,-0.005535679869353771,0.1900954693555832,1.1384676879012674,-0.9858926713522456,-1.4619387880932346
1687107154.589216,0.5069932341575623,0.8324204683303833,-0.22368210554122925,-0.028554022312164307,0.05196356773376465,-0.00733591616153717,-0.06956292688846588,0.05000869929790497,0.0634123757481575,1.1552900091367067,-0.9834613914261737,-1.443453798631875
1687107154.630214,0.5083593130111694,0.8308911323547363,-0.22625386714935303,-0.002133786678314209,0.05018186569213867,-0.007739648222923279,0.1812392622232437,0.08965027332305908,-0.021873846650123596,1.152052386519852,-0.9807072300194842,-1.4513325154691883
1687107154.723783,0.5076301693916321,0.8303282260894775,-0.22992782294750214,-0.00744706392288208,0.02312636375427246,-0.009680986404418945,0.12403231859207153,0.06885067373514175,-0.03310801088809967,1.145497197872554,-0.9796964228915939,-1.4645189507857879
1687107154.7406049,0.5067300796508789,0.8303444385528564,-0.23184606432914734,-0.009079992771148682,0.02249974012374878,-0.009700566530227661,0.055958885699510574,0.058970823884010315,-0.05122625082731247,1.1416950962534524,-0.9797254651390793,-1.4733434553216627
1687107154.779395,0.5043914318084717,0.8310768604278564,-0.23430846631526947,-0.008908092975616455,0.00989598035812378,-0.020681127905845642,0.11192276328802109,0.003499147482216358,-0.06922966241836548,1.1359194549691727,-0.9810411507875512,-1.4815946636709127
1687107154.871444,0.502334713935852,0.8306628465652466,-0.240122452378273,0.019851505756378174,-0.020573854446411133,-0.0014699548482894897,0.11854200065135956,-0.024524390697479248,0.011337172240018845,1.124892630025,-0.9802971796688036,-1.4944579835791416
1687107154.889292,0.5063163638114929,0.8262669444084167,-0.24683354794979095,-0.00321882963180542,-0.04767197370529175,-0.009666681289672852,0.09814799576997757,-0.09901370108127594,0.20299172401428223,1.1171917075497892,-0.9724477303325668,-1.4993505763341166
1687107154.930433,0.5160815715789795,0.8199694752693176,-0.2476080358028412,0.0018321871757507324,-0.0660938024520874,-0.012859448790550232,-0.11590933054685593,-0.28213340044021606,0.43800508975982666,1.1234513685205574,-0.9613577239237628,-1.4831470738411303
1687107155.053062,0.5349206924438477,0.8041174411773682,-0.25933602452278137,-0.06554508209228516,0.050832509994506836,0.0030188560485839844,0.15039314329624176,-0.23044107854366302,0.5850276350975037,1.1193727128321995,-0.9341893115314391,-1.4695506877049542
1687107155.069385,0.5512071847915649,0.7917717695236206,-0.26318880915641785,0.03785836696624756,0.017844438552856445,0.006566494703292847,-0.3161562979221344,-0.25223082304000854,0.2989014983177185,1.1253288713441376,-0.9137041983574106,-1.4463136390782831
1687107155.141185,0.5544701814651489,0.7928043007850647,-0.25302979350090027,0.0270116925239563,0.05160176753997803,0.02803894877433777,-0.3022269308567047,-0.07321411371231079,0.004523030016571283,1.1426783132208185,-0.9153964893057409,-1.4125481507755169
1687107155.155616,0.5502470135688782,0.7971121668815613,-0.24867738783359528,-0.005676150321960449,0.01874476671218872,0.007573261857032776,0.01801762916147709,0.10262269526720047,-0.17550139129161835,1.146332137035885,-0.9224974427901707,-1.4080360213729146
1687107155.201258,0.544916570186615,0.7999927401542664,-0.25115299224853516,0.007085442543029785,0.02134227752685547,-0.03693297505378723,0.22740574181079865,0.007964628748595715,-0.12337801605463028,1.1389136066763597,-0.9272830777753029,-1.4240972582370466
1687107155.204679,0.5390934944152832,0.801952600479126,-0.2573911249637604,-0.0463719367980957,0.022296667098999023,0.05258762836456299,-0.11524583399295807,-0.15585370361804962,-0.10901293903589249,1.125349505595014,-0.9305566651344922,-1.4360749144144844
1687107155.260051,0.5321992635726929,0.8086156249046326,-0.2508082091808319,0.010265946388244629,0.06328696012496948,0.1520838439464569,-0.3001270592212677,0.20343825221061707,-0.5185009837150574,1.130397806861049,-0.941795292348547,-1.4243975045869812
1687107155.38301,0.4897893965244293,0.8450035452842712,-0.2146516889333725,0.10635623335838318,0.38070446252822876,0.4707247018814087,0.42257773876190186,1.479577660560608,-1.723989725112915,1.1577540083881923,-1.0065718211133314,-1.4547644524165029
1687107155.388963,0.4310453236103058,0.873405933380127,-0.22663207352161407,-0.07348614931106567,0.21567487716674805,0.28092288970947266,1.4790410995483398,1.622653841972351,-2.0209481716156006,1.0867433904787556,-1.0621528990895233,-1.6192692428185718
1687107155.472254,0.3504490852355957,0.8938428163528442,-0.2796970307826996,0.09817454218864441,0.366807758808136,0.35617414116859436,2.1617591381073,2.357213020324707,-2.7320613861083984,0.8972087087726454,-1.1058436829822669,-1.9506597112499426
1687107155.490044,0.25504204630851746,0.9213778376579285,-0.2932855784893036,0.27547550201416016,0.13425570726394653,0.44710949063301086,0.7449694275856018,3.0527327060699463,-3.1454989910125732,0.7157651454393815,-1.1716106704051885,-2.299558828239555
1687107155.528953,0.1364440619945526,0.9431087374687195,-0.30319783091545105,0.4628143310546875,0.23194003105163574,0.36359211802482605,1.0025944709777832,2.8015763759613037,-3.860372543334961,0.4228677383787312,-1.231859578743289,-2.7723064211592074
1687107155.65455,-0.02080150507390499,0.937741756439209,-0.34670984745025635,0.5695685744285583,0.463686466217041,0.37535059452056885,0.4270767271518707,3.2958595752716064,-5.078159332275391,-0.05992503424680951,-1.2160704642013367,2.8487299802815857
1687107155.6707048,-0.18407340347766876,0.9218038320541382,-0.34116652607917786,1.0134954452514648,-0.03523772954940796,0.15044692158699036,-0.5049430727958679,3.24202561378479,-4.040416240692139,-0.49477798224646835,-1.1727081533217494,2.201942099973319
1687107155.7425342,-0.30077996850013733,0.8774657249450684,-0.37361130118370056,0.8877550363540649,-0.23554372787475586,-0.35073864459991455,-0.2806547284126282,2.34562611579895,-3.4582505226135254,-0.6778194738859276,-1.0705526427752743,1.8222269251947418
1687107155.758758,-0.37380141019821167,0.8571140766143799,-0.3544404208660126,0.5545112490653992,-0.8167393207550049,-0.5380308628082275,-1.417384147644043,0.7061203122138977,-0.9053870439529419,-0.8119778385075116,-1.0296408885636832,1.60873634353123
1687107155.8311439,-0.387891948223114,0.8686762452125549,-0.30812546610832214,0.186628520488739,-0.3213893175125122,-0.5257368087768555,-0.5702090859413147,0.08830367773771286,-0.14650610089302063,-0.899504477522704,-1.0525238320560908,1.4687150671286013
1687107155.835937,-0.38260379433631897,0.8654223680496216,-0.3235095739364624,-0.27311211824417114,-0.06357306241989136,-0.2818065583705902,0.5502299070358276,0.7107791304588318,-0.10133036226034164,-0.868893032942329,-1.0459927083409961,1.4855303816612624
1687107155.923635,-0.38175272941589355,0.8492504358291626,-0.3647446930408478,-0.24353718757629395,-0.0356518030166626,-0.2670607566833496,0.7980851531028748,0.1790264993906021,-0.10950096696615219,-0.8081779824199491,-1.0145639608268004,1.5312959328537503
1687107155.940361,-0.3795846700668335,0.8336122035980225,-0.40125566720962524,-0.406624436378479,-0.047418415546417236,-0.13492289185523987,1.2286300659179688,0.225927472114563,-0.03251780942082405,-0.7576518539143201,-0.9856154521482603,1.5821715694336829
1687107155.9779239,-0.3887731730937958,0.800226628780365,-0.45660990476608276,-0.25613951683044434,0.12567657232284546,-0.21305254101753235,0.9300532341003418,-0.24499647319316864,-0.3040373623371124,-0.705325964595503,-0.9276730427631383,1.6414067998388417
1687107156.10339,-0.3937712013721466,0.779732882976532,-0.4867861866950989,-0.2942017912864685,-0.16321682929992676,0.12381014227867126,1.105424165725708,-0.026189718395471573,0.5200590491294861,-0.6801565041127129,-0.8942390708536168,1.6895651240467782
1687107156.12143,-0.37512850761413574,0.7758535146713257,-0.5072771310806274,-0.0014431774616241455,-0.037999510765075684,-0.08282601833343506,-0.4556151330471039,-0.511596143245697,0.6887902617454529,-0.6367434477924253,-0.8880667780894966,1.7571877740692492
1687107156.19122,-0.33459851145744324,0.8219594359397888,-0.46089765429496765,0.006855010986328125,-0.20435988903045654,0.06737345457077026,-0.17725567519664764,-0.7033173441886902,2.03549861907959,-0.6279446284383112,-0.9648428272839401,1.803596906558885
1687107156.205873,-0.22500501573085785,0.8426153659820557,-0.48925673961639404,0.11817824840545654,-0.23708558082580566,0.05177199840545654,0.8283407092094421,-0.09913790971040726,3.8153440952301025,-0.4310491708226112,-1.0021215550657963,2.063465767961072
1687107156.280216,-0.06505773216485977,0.8805138468742371,-0.46953481435775757,0.7473850250244141,-0.09375542402267456,0.6252812743186951,-1.9853713512420654,0.2761935889720917,2.828345537185669,-0.13768122710012437,-1.076945103095525,2.4012277688771206
1687107156.284035,-0.0049431053921580315,0.9168683886528015,-0.39915889501571655,0.6281883716583252,0.2149217128753662,-0.18447449803352356,-0.6576213240623474,-1.0096435546875,0.4387003183364868,-0.012383170910487552,-1.1601634718367735,2.574804285294382
1687107156.3736749,-0.008808130398392677,0.9220530390739441,-0.38696345686912537,-0.17278671264648438,0.08997094631195068,0.08255058526992798,0.21655698120594025,0.22379328310489655,-0.05962708219885826,-0.022758247481463035,-1.1733516268890236,2.5683776521429893
1687107156.391501,-0.017348067834973335,0.9172987937927246,-0.3978213965892792,0.010100157931447029,0.026899755001068115,0.00948527455329895,0.44137293100357056,0.371510773897171,-0.23793552815914154,-0.043580065938521324,-1.1612429940194888,2.5390742486779234
1687107156.462411,-0.014988522045314312,0.9063670039176941,-0.4222252368927002,-0.0038255443796515465,-0.008677244186401367,-0.007508009672164917,0.2640366852283478,0.11390528082847595,0.09301858395338058,-0.03548397831615004,-1.1346041060370058,2.5330938778068868
1687107156.5539088,-0.0037758476100862026,0.9040833711624146,-0.42733925580978394,-0.038994550704956055,0.0190732479095459,-0.05694413185119629,-0.020197294652462006,-0.1359855681657791,0.26933935284614563,-0.008835484560333572,-1.1292299378770112,2.561138526912623
1687107156.572778,0.0028517155442386866,0.9089822173118591,-0.41682493686676025,0.03350996971130371,-0.02699381113052368,0.03949037194252014,-0.4639100134372711,-0.1417718082666397,0.18702572584152222,0.0068414117979330395,-1.1408358935863936,2.589952614706405
1687107156.6400099,0.0003328222082927823,0.9192411303520203,-0.39369478821754456,0.08027935028076172,0.007302999496459961,-0.027463078498840332,-0.21567384898662567,0.08653326332569122,-0.29148802161216736,0.000845381089060801,-1.1661485812221277,2.583440244760094
1687107156.653758,-0.027531316503882408,0.9186670184135437,-0.3940722644329071,0.12759843468666077,-0.006420314311981201,-0.022767305374145508,-0.039301797747612,0.32652759552001953,-1.0301798582077026,-0.06975029038592902,-1.1646927660502053,2.4926717564168053
1687107156.729487,-0.08435941487550735,0.9172033071517944,-0.3893861472606659,0.31870388984680176,0.049379944801330566,-0.05310344696044922,0.07314500212669373,0.495366632938385,-1.924027919769287,-0.2133500493624802,-1.1610032429912638,2.3087884525176747
1687107156.733564,-0.18079523742198944,0.8908937573432922,-0.4166789948940277,0.46689751744270325,0.12853068113327026,0.028800606727600098,0.3892935514450073,0.702420711517334,-3.056270122528076,-0.40938122458019366,-1.0993090941717405,2.0646730661781327
1687107156.825303,-0.3044966161251068,0.8517379760742188,-0.4264085590839386,0.7446821928024292,-0.08242034912109375,0.02844405174255371,0.27767956256866455,0.23077107965946198,-2.6901299953460693,-0.6201238236657762,-1.0192933159277322,1.7955545384086113
1687107156.842778,-0.4125034213066101,0.7896513342857361,-0.4541932940483093,0.6113712787628174,0.12209177017211914,0.11514303088188171,0.59589022397995,-0.03790475055575371,-2.5278007984161377,-0.7373331732991336,-0.9102404737487089,1.6427364061037764
1687107156.942758,-0.4878069758415222,0.748321533203125,-0.44951003789901733,0.4488818049430847,-0.196441650390625,0.16095107793807983,-0.040100909769535065,-1.205581784248352,-0.6564266085624695,-0.8262335090827805,-0.8455280710041846,1.5756257236228484
1687107156.9606361,-0.5143206715583801,0.7636997699737549,-0.3901754915714264,-0.4854046106338501,-0.37180835008621216,0.1623312532901764,-1.1200872659683228,-0.8199368119239807,0.5876016616821289,-0.9217993047118815,-0.8690248787654674,1.5097105235315254
1687107157.0305672,-0.488296777009964,0.8038363456726074,-0.33972567319869995,-0.7353665828704834,-0.23533952236175537,0.011829584836959839,-0.7566514015197754,-0.9811963438987732,1.3042473793029785,-0.9629378003401335,-0.933716647716259,1.513465455415451
1687107157.035311,-0.45400020480155945,0.8426721692085266,-0.2894603908061981,-0.8798315525054932,-0.10513865947723389,-0.09602236747741699,-0.9806375503540039,-0.24740727245807648,0.6453791856765747,-1.0032034802831031,-1.0022270393636858,1.4985510858224549
1687107157.1251268,-0.43376147747039795,0.860137939453125,-0.26835405826568604,-0.5008699297904968,-0.01358020305633545,-0.09170761704444885,0.2691582441329956,0.5125851631164551,0.20979607105255127,-1.0167638300811221,-1.0355400595976685,1.4803231569306023
1687107157.142623,-0.4154509902000427,0.8515508770942688,-0.31978338956832886,-0.028900176286697388,-0.06596744060516357,-0.32099416851997375,0.9497888088226318,0.49092572927474976,0.4275592863559723,-0.9147896965198509,-1.018936368932315,1.5635248864595548
1687107157.208359,-0.3887360394001007,0.8560064435005188,-0.3407891094684601,0.21153578162193298,-0.15710818767547607,-0.3831336200237274,0.2626708447933197,-0.39960697293281555,0.8946478366851807,-0.8510272725735496,-1.0274945003305558,1.628689613662989
1687107157.303798,-0.35892587900161743,0.8744920492172241,-0.326244980096817,0.23262891173362732,-0.12935960292816162,-0.3485139012336731,0.07314692437648773,-1.4837677478790283,1.3094943761825562,-0.8330594798798135,-1.0643876202429299,1.7149730954372897
1687107157.322814,-0.320604532957077,0.8910704851150513,-0.32125720381736755,0.27121180295944214,0.0032776594161987305,-0.25222909450531006,0.3901659846305847,-1.7597800493240356,1.4010862112045288,-0.7843813261017484,-1.0996983278860275,1.8542610783066342
1687107157.392422,-0.2811902165412903,0.9209524393081665,-0.2697754502296448,0.3724988102912903,-0.0718618631362915,-0.1664886474609375,-0.4989314079284668,-2.75110125541687,1.683728575706482,-0.8061129492600579,-1.170517590171879,1.9555326945520375
1687107157.396069,-0.24059730768203735,0.9401373863220215,-0.241360142827034,0.24931007623672485,-0.041715145111083984,-0.1367374062538147,0.4014989137649536,-2.904146194458008,1.861829161643982,-0.7838153828455422,-1.2230332048870658,2.131653879376573
1687107157.4825978,-0.17759378254413605,0.9680875539779663,-0.17682525515556335,0.20748572051525116,-0.21584439277648926,0.0038821548223495483,-1.5938434600830078,-3.1988027095794678,2.2309319972991943,-0.7875666006380084,-1.317483780860383,2.285216175031319
1687107157.4886642,-0.07614082098007202,0.9936863780021667,-0.08240041136741638,0.22703498601913452,-0.279681921005249,-0.031460635364055634,-0.7268058061599731,-3.841374635696411,2.853766918182373,-0.7459362058940131,-1.458366090529604,2.5064852659966603
1687107157.573645,0.08371394872665405,0.9903612732887268,-0.11034709960222244,0.21642643213272095,-0.2866107225418091,0.09710247069597244,1.4647836685180664,-3.9311816692352295,4.337479591369629,0.6490091134081817,-1.4318411119586447,-2.1733576859064576
1687107157.591974,0.3110075891017914,0.9301080703735352,-0.19537945091724396,0.34623420238494873,-0.21688181161880493,0.48001688718795776,-0.3071393072605133,-2.2607295513153076,5.668798446655273,1.0098888951512024,-1.1947068995097148,-1.6301588205234445
1687107157.628957,0.5208662152290344,0.843599796295166,-0.13052862882614136,0.9165727496147156,0.283963680267334,0.39696234464645386,-1.6763269901275635,-2.1972787380218506,3.881380558013916,1.325253840319522,-1.0039522569693036,-1.1806604473229898
1687107157.721592,0.5828620791435242,0.786837100982666,-0.202877014875412,0.041817426681518555,0.8379644751548767,0.4796714186668396,0.6150552034378052,-1.178359031677246,0.8504640460014343,1.2358415826103988,-0.9056671614360056,-1.158227361830704
1687107157.737409,0.5944737792015076,0.7680762410163879,-0.23803360760211945,-0.2388828992843628,0.42189568281173706,0.277370810508728,0.9637543559074402,0.02350231073796749,-0.08972746133804321,1.1899360018766598,-0.8758315327078398,-1.1859596240409298
1687107157.7780418,0.5929728746414185,0.7591410279273987,-0.2684924900531769,-0.007187962532043457,0.11152547597885132,0.236616849899292,0.6499583125114441,0.2287319004535675,0.07918224483728409,1.1456242194016155,-0.8619925236683351,-1.254624475491773
1687107157.905044,0.5988531112670898,0.7470344305038452,-0.28864291310310364,-0.05432790517807007,0.16960686445236206,0.029579132795333862,0.31340885162353516,-0.07920846343040466,0.1999097317457199,1.1216579506228619,-0.8435898462613856,-1.2878373883836072
1687107157.923203,0.6023876667022705,0.7439563870429993,-0.2892371416091919,-0.0016186237335205078,0.10109061002731323,0.046988606452941895,-0.0033742659725248814,-0.027612432837486267,-0.06447117030620575,1.1231534936172953,-0.8389717574645347,-1.2820330024412636
1687107157.990044,0.5934547781944275,0.7504672408103943,-0.29087838530540466,-0.048960208892822266,0.05623435974121094,0.07345595955848694,-0.11402972042560577,0.3166867196559906,-0.5604260563850403,1.1150644305429298,-0.8487687857525851,-1.299047906068696
1687107157.994283,0.5700583457946777,0.7776603698730469,-0.2650996148586273,0.031427860260009766,0.14708328247070312,0.09894669055938721,0.24141114950180054,0.7582743763923645,-0.9985989928245544,1.1355062411183483,-0.8909357329313667,-1.3161066679130156
1687107158.143837,0.5349194407463074,0.8055440187454224,-0.25487250089645386,0.002067863941192627,0.14782506227493286,0.09566229581832886,-0.10305515676736832,0.7169229388237,-1.248751163482666,1.1261501473396704,-0.9365930405576658,-1.3706419357918886
1687107158.1623921,0.4889410734176636,0.8390477299690247,-0.2386116087436676,-0.03310003876686096,0.24377691745758057,0.1457313448190689,0.5921859741210938,1.1368911266326904,-1.9080802202224731,1.1167808994400714,-0.9955305156557366,-1.434745725534612
1687107158.203267,0.41208207607269287,0.8744145631790161,-0.25610053539276123,0.17913493514060974,0.2464655041694641,0.3156556189060211,1.732157826423645,1.853094220161438,-2.5854358673095703,1.0147326484523609,-1.0642278145466522,-1.6386142165933926
1687107158.21693,0.2883039712905884,0.903762698173523,-0.3163761496543884,0.3957780599594116,0.45379650592803955,0.7479404807090759,2.3045010566711426,3.164433002471924,-4.7663044929504395,0.7390066510123243,-1.1284801123135744,-2.087807748290314
1687107158.219454,0.10817928612232208,0.923372745513916,-0.36834782361984253,0.8664758205413818,0.23832464218139648,0.45784062147140503,1.2588623762130737,2.0255656242370605,-4.907749652862549,0.2856558198645258,-1.1767750338986973,-2.7359470412120017
1687107158.2586498,-0.08862286061048508,0.9162206649780273,-0.3907499313354492,0.3881986737251282,0.2427605390548706,0.5524473786354065,-0.270365834236145,3.0492520332336426,-5.362539291381836,-0.22302894159611536,-1.1585439578500802,2.865904840891656
1687107158.35048,-0.24530358612537384,0.8910129070281982,-0.3819974958896637,0.5950960516929626,-0.11196017265319824,0.18137496709823608,-0.8657475709915161,2.9203383922576904,-4.3047027587890625,-0.5708441682758589,-1.0995714554613896,2.3257387534837095
1687107158.443743,-0.3426153063774109,0.8492476940155029,-0.401737779378891,0.6184636950492859,-0.21489405632019043,0.11475050449371338,-1.227131724357605,3.6242518424987793,-2.9513330459594727,-0.7061365938041572,-1.0145587934255385,1.9821772982198331
1687107158.46166,-0.37377792596817017,0.8431901335716248,-0.38642001152038574,0.7168717980384827,-0.5132493376731873,-0.5569088459014893,-0.9420456290245056,1.7080391645431519,-1.266822099685669,-0.7687697026854379,-1.0031897560834513,1.7364566717617196
1687107158.530281,-0.3821153938770294,0.8520814776420593,-0.3576940894126892,0.39287281036376953,-0.33975231647491455,-0.5316950082778931,-1.9930827617645264,1.3056845664978027,-0.36005404591560364,-0.8183964390489021,-1.0199493117600948,1.584628268034093
1687107158.5346599,-0.3764741122722626,0.8678240180015564,-0.3242664039134979,0.2823273539543152,0.17602968215942383,-0.6479930877685547,0.1774313598871231,0.17891670763492584,-0.12772490084171295,-0.8597643721502369,-1.0508061224469494,1.5155759844508407
1687107158.624124,-0.3728407323360443,0.8641843795776367,-0.33789798617362976,-0.0104752779006958,-0.0758238434791565,-0.26612117886543274,-0.032952822744846344,0.5167595744132996,-0.14434568583965302,-0.8345226155357958,-1.0435271684476455,1.5082645353052524
1687107158.641646,-0.3772556781768799,0.8516714572906494,-0.3637770712375641,-0.18202468752861023,0.10615319013595581,-0.1838761270046234,0.6199110150337219,0.5162929892539978,-0.3311394155025482,-0.8035851425866952,-1.0191663750873594,1.521301773282834
1687107158.676516,-0.38472163677215576,0.831893265247345,-0.39992865920066833,-0.33163273334503174,-0.020293474197387695,-0.20692861080169678,0.9684604406356812,0.19551311433315277,-0.40483081340789795,-0.7660199365391279,-0.9825106427469257,1.545737896723792
1687107158.7722712,-0.3986970782279968,0.807447075843811,-0.4348215162754059,-0.3305509388446808,-0.02578514814376831,-0.16072896122932434,0.5789214372634888,-0.01984260603785515,-0.21699193120002747,-0.742085561655501,-0.9398117960492012,1.5720004519075892
1687107158.7873502,-0.4000336825847626,0.7855876088142395,-0.4720434844493866,-0.21759632229804993,0.0007435083389282227,-0.11511474847793579,1.2288941144943237,-0.11286363005638123,0.14703986048698425,-0.7030123288127976,-0.9036452700264237,1.622390201638951
1687107158.8267698,-0.37893804907798767,0.7783533930778503,-0.5005714893341064,-0.22187674045562744,-0.24380755424499512,0.15407490730285645,0.530899167060852,0.28571072220802307,1.121820330619812,-0.6479729818494464,-0.8920388170041685,1.6866839534548719
1687107158.921432,-0.3200947046279907,0.7577059864997864,-0.5687011480331421,0.04198801517486572,-0.028152763843536377,-0.06078493595123291,2.577843427658081,-0.2970896363258362,2.0367276668548584,-0.5126569848830728,-0.859790662383287,1.873985793218149
1687107158.937886,-0.21043461561203003,0.7551699876785278,-0.6208345890045166,0.16717594861984253,-0.46801483631134033,0.4567720890045166,-0.45177289843559265,0.46542856097221375,3.5910799503326416,-0.3268009580426516,-0.8559133883798693,2.109112618750042
1687107158.976918,-0.05236911028623581,0.8383615016937256,-0.542593240737915,0.6250925064086914,-0.14784032106399536,0.2696135640144348,-2.484166145324707,0.01100287027657032,3.7505886554718018,-0.09621829472537259,-0.994270502103863,2.378296316458587
1687107159.074967,0.07439620792865753,0.8663163185119629,-0.49392440915107727,0.48407548666000366,0.06294393539428711,-0.03717297315597534,0.00678212521597743,-0.8453997373580933,2.063840627670288,0.14949884100140043,-1.0477796708873226,2.688862131899138
1687107159.080256,0.09381712228059769,0.8696801662445068,-0.4846181869506836,0.06583559513092041,0.24302124977111816,0.1397085189819336,-1.052919864654541,-0.06616616249084473,0.05424031987786293,0.1912243429340948,-1.0545540011980579,2.7707287483220915
1687107159.132263,0.090549997985363,0.8884878158569336,-0.44987791776657104,-0.037190020084381104,0.0751504898071289,-0.09071046113967896,0.1250755786895752,0.11689122021198273,-0.41392552852630615,0.19862297812558619,-1.094039379707945,2.7813400510007327
1687107159.224307,0.0763387456536293,0.876345694065094,-0.4755948781967163,0.04113864153623581,0.08285224437713623,-0.027823060750961304,0.7458195090293884,0.3248402774333954,-0.4279879927635193,0.15915456923221669,-1.0682225320097463,2.717744447980374
1687107159.242425,0.06259211152791977,0.8715060949325562,-0.4863736629486084,0.045333318412303925,-0.04270976781845093,-0.024902552366256714,-0.31637224555015564,0.1670592576265335,-0.50032639503479,0.12798794336793773,-1.0582652249632984,2.6703313224400924
1687107159.311939,0.036791831254959106,0.874289870262146,-0.48400768637657166,0.0947389304637909,0.05382591485977173,-0.15821942687034607,0.5605193972587585,0.20799949765205383,-1.0447577238082886,0.07586906716201279,-1.0639709554292833,2.6013290180962807
1687107159.4335961,-0.027834443375468254,0.8684232831001282,-0.4950416088104248,0.2637505829334259,0.01123058795928955,0.006821393966674805,-0.10993991047143936,-0.1449277698993683,-1.5902659893035889,-0.05616733272105819,-1.0520134428251724,2.4442536203138467
1687107159.440051,-0.09260385483503342,0.8538861870765686,-0.5121551156044006,0.1462079882621765,0.08787107467651367,0.056100428104400635,0.4724586009979248,0.2880014479160309,-1.916011929512024,-0.1788794593172078,-1.0234070555109362,2.2985144519353824
1687107159.493717,-0.1852978616952896,0.8377248048782349,-0.5136942863464355,0.3879193365573883,0.03703105449676514,0.026114940643310547,0.5610690116882324,-0.06269510835409164,-2.0960445404052734,-0.34618947687560625,-0.9931035170534881,2.091867989956089
1687107159.509645,-0.2649170756340027,0.7808690667152405,-0.5657405853271484,0.2795197069644928,0.13957154750823975,0.18106651306152344,0.7049633860588074,0.43826350569725037,-2.4902687072753906,-0.43793964105500743,-0.8960557917340372,1.964319429798549
1687107159.512567,-0.34941551089286804,0.7498096227645874,-0.5618668794631958,0.43942713737487793,-0.0562061071395874,0.1007157564163208,0.0022774944081902504,-0.39531055092811584,-1.8044682741165161,-0.5563547998524739,-0.8477742620284855,1.814576021263851
1687107159.5482988,-0.43080952763557434,0.7187867164611816,-0.5456636548042297,0.42072346806526184,0.22869253158569336,0.25058919191360474,-0.8733881115913391,-0.6565577983856201,-1.6346359252929688,-0.6683147416112817,-0.8020555548549495,1.6947122029489454
1687107159.609613,-0.49046483635902405,0.7213590145111084,-0.48896366357803345,0.11563265323638916,-0.1095426082611084,0.13105350732803345,-0.5394521355628967,-1.2461316585540771,-0.4049864411354065,-0.7869308705914965,-0.8057626177495834,1.6070957542527757
1687107159.66918,-0.5064808130264282,0.7489936351776123,-0.4271835684776306,-0.5740855932235718,-0.4002387523651123,0.21345365047454834,-1.8405653238296509,-0.2634974420070648,0.5396931171417236,-0.8701260657477458,-0.8465419282199789,1.535819836356169
1687107159.73332,-0.47896096110343933,0.7930604815483093,-0.37636613845825195,-0.7153291702270508,-0.2552645206451416,-0.24751994013786316,-0.3804127275943756,-0.19202779233455658,0.9420453906059265,-0.9047758793596679,-0.915816888855796,1.507438463036128
1687107159.823977,-0.44476139545440674,0.8215134739875793,-0.35679522156715393,-0.6232165098190308,-0.23553025722503662,-0.35472211241722107,-0.9128559827804565,0.045135170221328735,0.6426095366477966,-0.8947049240366062,-0.9640603206212526,1.519402764255365
1687107159.842171,-0.4274485111236572,0.8429791331291199,-0.3266097605228424,-0.2496296763420105,-0.001838386058807373,-0.3865707218647003,0.2623133957386017,0.28899869322776794,0.3806343674659729,-0.9183375180353045,-1.0027973754424653,1.4865501209869803
1687107159.910193,-0.4043596386909485,0.8207798004150391,-0.4035017490386963,0.18051326274871826,0.13544267416000366,-0.5059678554534912,2.1631484031677246,-0.3559040129184723,0.4133336842060089,-0.7864600823505202,-0.9627748165650614,1.6358346426973307
1687107160.0080261,-0.38377809524536133,0.8283387422561646,-0.4081292152404785,0.19470641016960144,-0.45838940143585205,-0.23818731307983398,-1.3046128749847412,-1.0841225385665894,1.4926137924194336,-0.7546578533931029,-0.9761358449219553,1.7161422709804905
1687107160.02684,-0.3414725363254547,0.8859113454818726,-0.31393906474113464,0.3564718961715698,-0.16333138942718506,-0.45432567596435547,-1.1673028469085693,-2.3645260334014893,1.8931020498275757,-0.8273828834023167,-1.0884549991527452,1.7320663665728042
1687107160.089694,-0.2922368347644806,0.9298008680343628,-0.22375856339931488,0.3868566155433655,-0.05145925283432007,-0.23818598687648773,-0.5191916227340698,-3.0269296169281006,1.9030627012252808,-0.9173381714883679,-1.1938713905594287,1.7820791518957206
1687107160.1030211,-0.22927546501159668,0.9469273090362549,-0.225302591919899,0.23043514788150787,0.09166210889816284,-0.1974116414785385,1.940693974494934,-2.9872918128967285,2.187706470489502,-0.7941376447238727,-1.2435383687312647,2.072582531406066
1687107160.180134,-0.13591453433036804,0.9604311585426331,-0.24310347437858582,0.42233729362487793,-0.24369531869888306,-0.04800371825695038,-0.5934711694717407,-3.4878809452056885,3.006798267364502,-0.5097884365522167,-1.2885460596658314,2.5399926596617157
1687107160.183998,-0.026938442140817642,0.9864901304244995,-0.1615910530090332,0.38471126556396484,-0.1362704038619995,-0.0603480339050293,-1.0649336576461792,-4.077390193939209,3.2009692192077637,-0.16518841229947118,-1.4062338454792194,3.0856807165393034
1687107160.2756538,0.11452281475067139,0.9812315106391907,-0.15514260530471802,0.3943578004837036,-0.12391644716262817,0.17236977815628052,0.17784595489501953,-3.9528512954711914,3.8935861587524414,0.6358918177043508,-1.376747412246918,-2.1768471686101933
1687107160.293158,0.2974857985973358,0.9164519906044006,-0.26761531829833984,0.4641566574573517,-0.13303524255752563,0.24460506439208984,2.3501949310302734,-3.1584372520446777,5.177018165588379,0.8382076443067811,-1.1591215819044984,-1.773998165744613
1687107160.330316,0.49148786067962646,0.7963876724243164,-0.352429062128067,0.6560035347938538,0.17248427867889404,0.6123625040054321,0.6974654793739319,-1.5894389152526855,4.9442830085754395,0.9487084707694357,-0.9212985929338252,-1.52833075378274
1687107160.423301,0.5741668939590454,0.7120394110679626,-0.4041438400745392,0.3838256597518921,0.5902372002601624,0.5408778786659241,-1.1409155130386353,-1.7056214809417725,2.003596305847168,0.957471962162737,-0.7923985018945603,-1.390929861793938
1687107160.4427629,0.5949733853340149,0.6896747350692749,-0.4127413034439087,-0.39866912364959717,0.8349376320838928,0.3367983102798462,1.1187341213226318,0.10628907382488251,-0.08104372024536133,0.9643017210951945,-0.7610398080850577,-1.331321566514021
1687107160.507856,0.5933015942573547,0.6721498370170593,-0.4429534077644348,0.007406353950500488,0.23168915510177612,0.2860930860042572,0.772107720375061,0.35530972480773926,-0.09692705422639847,0.9294808171228485,-0.7371085293566727,-1.4037378251094204
1687107160.6074739,0.5979282855987549,0.6575623154640198,-0.45835956931114197,-0.03527575731277466,0.25054919719696045,0.09797748923301697,0.5538709759712219,0.2314109206199646,-0.01396947167813778,0.9167685317691632,-0.7175785877568386,-1.4432241336210694
1687107160.625607,0.6007134318351746,0.65708988904953,-0.4553857147693634,-0.023442983627319336,0.0771172046661377,0.1023278534412384,-0.2200285941362381,0.32487034797668457,-0.2985821068286896,0.9221473348020465,-0.7169517268572138,-1.4549151489868315
1687107160.6285,0.5917770862579346,0.6776365637779236,-0.4365876019001007,-0.01163792610168457,0.07263815402984619,0.07710576057434082,-0.07783114165067673,0.5726799368858337,-0.8323417901992798,0.9351769873021569,-0.7445440024992093,-1.4651833447932896
1687107160.6888762,0.5666050910949707,0.7098119258880615,-0.4184802770614624,0.027114391326904297,0.2395135760307312,0.2444385290145874,0.5807819366455078,1.5326660871505737,-1.9915498495101929,0.9346474963885392,-0.7892312127841085,-1.5360060209735644
1687107160.7844648,0.501775860786438,0.7698469758033752,-0.39440682530403137,0.213617205619812,0.32138532400131226,0.2814459800720215,1.2828692197799683,2.3909664154052734,-3.3723127841949463,0.9046368736156503,-0.8786013275227901,-1.7094032225550517
1687107160.790639,0.38143375515937805,0.8284971117973328,-0.41000092029571533,0.5065667033195496,0.44613051414489746,0.12299838662147522,2.0012121200561523,1.7945467233657837,-4.6480607986450195,0.7493184157333439,-0.9764185496103854,-2.0460814000988847
1687107160.874864,0.20687833428382874,0.8722223043441772,-0.44320398569107056,0.5350040197372437,0.38765013217926025,0.30288416147232056,0.7851696610450745,1.949675440788269,-5.423495292663574,0.43671942694938265,-1.0597276057617326,-2.52084793107334
1687107160.892945,0.01603294350206852,0.8839465975761414,-0.46731287240982056,0.6074411869049072,-0.08391302824020386,0.14921289682388306,0.7093145847320557,1.277403712272644,-4.767914772033691,0.0342953474647813,-1.0842363480505661,-3.071530983476156
1687107160.9319701,-0.160884290933609,0.8489121794700623,-0.503452479839325,0.4080614447593689,0.06501299142837524,0.22880953550338745,0.49538454413414,1.724449872970581,-4.756657600402832,-0.3093056049942659,-1.0139236521269825,2.7351225467452047
1687107161.023515,-0.2906472086906433,0.8132150769233704,-0.5041877627372742,0.5629555583000183,-0.28906047344207764,0.30980610847473145,-1.2979141473770142,1.916656494140625,-3.6339662075042725,-0.522935467488812,-0.9496555500809953,2.3726032012105382
1687107161.0401912,-0.36553728580474854,0.7957290410995483,-0.48290562629699707,0.5725990533828735,-0.11694180965423584,0.08997654914855957,-1.608062744140625,2.4093892574310303,-3.018587112426758,-0.647936762689569,-0.9202103952766005,2.072047060727053
1687107161.0775251,-0.3997768759727478,0.792596697807312,-0.46040084958076477,0.4927944839000702,-0.397485613822937,-0.10566973686218262,-1.6175227165222168,2.0876760482788086,-1.4752819538116455,-0.7150361006221749,-0.915055942484381,1.8426861273171609
1687107161.1703029,-0.4157416522502899,0.7994535565376282,-0.43362757563591003,0.33274906873703003,-0.13359051942825317,-0.5169950127601624,-1.613671898841858,0.5771902203559875,-0.7417077422142029,-0.7643433786939825,-0.9263850342294173,1.7069785995717128
1687107161.186619,-0.41902750730514526,0.8306505084037781,-0.36665481328964233,-0.038003742694854736,-0.21529406309127808,-0.5886827111244202,-1.2017529010772705,0.14208456873893738,-0.07496265321969986,-0.8519585591215063,-0.9802749546399404,1.5719493068178938
1687107161.230989,-0.4294317066669464,0.8332059979438782,-0.34836217761039734,-0.2456018626689911,0.12968456745147705,-0.3154561519622803,-0.40314003825187683,1.042083978652954,-0.6238182783126831,-0.889253248429331,-0.984880471730113,1.4900650144273342
1687107161.32128,-0.45214930176734924,0.7965320944786072,-0.40136972069740295,-0.31187355518341064,0.11565351486206055,-0.47604113817214966,2.1875884532928467,0.2019122689962387,-1.0598448514938354,-0.844822465996371,-0.9215374486872676,1.5127111628176546
1687107161.339699,-0.4840998947620392,0.746890127658844,-0.45585352182388306,-0.5446934103965759,-0.2585325837135315,-0.10786718130111694,0.24698933959007263,0.21930739283561707,-0.5025759935379028,-0.8154399426016131,-0.8433728382516148,1.5335962228895863
1687107161.411518,-0.4965862035751343,0.7159593105316162,-0.4907183051109314,-0.2687794268131256,0.10284256935119629,-0.1434522271156311,1.7124125957489014,0.08134973794221878,-0.29202526807785034,-0.7913414405292813,-0.797997248064813,1.563962944422788
1687107161.504085,-0.48299282789230347,0.6828084588050842,-0.5481702089309692,-0.13607150316238403,-0.27582597732543945,0.13642704486846924,1.7213704586029053,0.15552005171775818,1.169736385345459,-0.7222745005911423,-0.7515997897471193,1.6545967898125726
1687107161.5232348,-0.41861510276794434,0.6698283553123474,-0.6132627725601196,0.010396778583526611,-0.07523918151855469,0.019299209117889404,0.9124467968940735,0.29690635204315186,1.7768696546554565,-0.5989545684088563,-0.7339775977037454,1.8166642893721607
1687107161.5889912,-0.31604889035224915,0.7202023863792419,-0.6175934672355652,0.30361300706863403,-0.33346837759017944,0.22472542524337769,-0.4293680787086487,0.19306965172290802,3.6115951538085938,-0.4729975154766793,-0.8040939635842264,1.9763754567346066
1687107161.602756,-0.13664455711841583,0.7882498502731323,-0.599992036819458,0.48623865842819214,-0.21966159343719482,0.4589550495147705,-1.1498669385910034,1.2110254764556885,4.454345226287842,-0.22392462549231198,-0.9079596711944168,2.258651646463826
1687107161.680157,0.048957157880067825,0.8061050176620483,-0.5897438526153564,0.7863699793815613,-0.14745944738388062,-0.04880589246749878,0.8201271891593933,-0.30056747794151306,3.3868117332458496,0.08282436255068137,-0.9375403849364435,2.605002538417771
1687107161.684132,0.0902642011642456,0.8028563261032104,-0.5892996788024902,0.2381812334060669,0.26219189167022705,0.07640600204467773,-2.0366458892822266,-0.5219624638557434,0.4131212532520294,0.1519906870297497,-0.9320709836747603,2.744371013918445
1687107161.805009,0.09204907715320587,0.8686870336532593,-0.4867338240146637,-0.06360667943954468,0.03744089603424072,-0.12389242649078369,-1.3763577938079834,-0.06235571578145027,-0.4312477111816406,0.18690845851084406,-1.0525456445850718,2.788765181335984
1687107161.823946,0.061696119606494904,0.8722342252731323,-0.4851815402507782,0.05140203237533569,0.19430935382843018,-0.054552316665649414,0.7013111114501953,0.6170724034309387,-0.9226298928260803,0.12648207977092307,-1.0597520421667836,2.702823520569153
1687107161.95441,0.03640301153063774,0.8536339998245239,-0.5195996165275574,0.06642594933509827,0.050861239433288574,-0.06458306312561035,0.3965136408805847,0.3216395080089569,-0.9928411841392517,0.0699454448220653,-1.0229226962535758,2.613901244095595
1687107161.974793,-0.006189907900989056,0.8550812005996704,-0.5184571743011475,0.12638336420059204,0.06831967830657959,-0.15143418312072754,0.20651783049106598,-0.021330248564481735,-1.1683018207550049,-0.011938525166072363,-1.0257074604479983,2.511401834257783
1687107161.977645,-0.08289898931980133,0.8473580479621887,-0.5245112776756287,0.28440654277801514,0.160194993019104,0.05620378255844116,-0.3016930818557739,0.4151874780654907,-2.661423683166504,-0.15675333633726538,-1.0109901590942056,2.331738752599135
1687107162.038955,-0.18938376009464264,0.8181407451629639,-0.5429359674453735,0.5365975499153137,0.022908389568328857,-0.00035321712493896484,1.3354864120483398,0.1479334980249405,-2.8074395656585693,-0.3356180181379803,-0.9581701568111144,2.100559686249461
1687107162.052998,-0.29882320761680603,0.7497402429580688,-0.5904186964035034,0.6231335401535034,0.03375279903411865,0.2545269727706909,0.78877192735672,0.11172516644001007,-2.6416351795196533,-0.46853230424047637,-0.8476694743856443,1.9137254687295742
1687107162.128767,-0.3822658658027649,0.6903259754180908,-0.6142662167549133,0.3079403042793274,-0.04468083381652832,0.21184617280960083,0.5518797039985657,-0.06884077191352844,-1.8972026109695435,-0.5566647707644383,-0.7619394838557255,1.8049684627488678
1687107162.142377,-0.44083914160728455,0.6598511338233948,-0.6084876656532288,0.45789849758148193,-0.08540356159210205,0.17811357975006104,-0.15927428007125854,-1.4255539178848267,-0.38999995589256287,-0.6269694039929223,-0.7206206381804494,1.7377979689201208
1687107162.21907,-0.47259506583213806,0.6931998133659363,-0.5441763401031494,-0.18243423104286194,-0.16082072257995605,0.3753378987312317,-1.8880332708358765,-0.9945644736289978,0.9680153131484985,-0.7151135383274273,-0.7659192149514207,1.717602732735627
1687107162.2230492,-0.4422590732574463,0.7910532355308533,-0.4226601719856262,-0.3027970492839813,-0.18590497970581055,0.1847451627254486,-2.5230958461761475,-1.3864059448242188,1.816863775253296,-0.8080540819671066,-0.9125287591884281,1.6795081933595886
1687107162.2772322,-0.3774615228176117,0.8597241640090942,-0.34408897161483765,-0.7798413038253784,-0.007475018501281738,-0.07478004693984985,-0.9576690793037415,-0.5120834112167358,1.843358039855957,-0.8316163819726852,-1.0347293844644003,1.6943797769404272
1687107162.373927,-0.32868701219558716,0.9029687643051147,-0.27678942680358887,-0.8807398080825806,-0.12631165981292725,-0.42191052436828613,-1.5795910358428955,0.14065386354923248,0.5606834292411804,-0.8709028312209167,-1.1266289357315802,1.6640215045020808
1687107162.465714,-0.3208027780056,0.9015787839889526,-0.29024362564086914,-0.49688521027565,0.17164814472198486,-0.5637907981872559,2.1401827335357666,0.3644246459007263,-0.23095320165157318,-0.8353676951791716,-1.1234050819226424,1.6846972390839436
1687107162.471,-0.3196605443954468,0.8521808385848999,-0.4142521619796753,-0.054393380880355835,-0.09700816869735718,-0.4148493707180023,2.3669259548187256,-0.1410094052553177,0.2813427150249481,-0.6572180626817953,-1.0201391107650724,1.87649837518511
1687107162.553724,-0.30175796151161194,0.8434555530548096,-0.4444376826286316,0.14970415830612183,-0.35929417610168457,-0.3236897587776184,-0.3863130807876587,-0.8017618060112,1.2453519105911255,-0.5964690617677061,-1.0036836741527135,1.975096058996608
1687107162.57213,-0.2518020570278168,0.8843634724617004,-0.39306119084358215,0.3757339417934418,-0.28524237871170044,-0.36407995223999023,-0.6668002009391785,-1.7190004587173462,2.195742607116699,-0.5697514312143287,-1.0851286547134327,2.080513680732095
1687107162.6404638,-0.1853378564119339,0.9180073142051697,-0.35058870911598206,0.4906967580318451,-0.11124467849731445,-0.36201202869415283,-0.5805384516716003,-2.64499568939209,2.496650218963623,-0.48630211801746176,-1.163026015638558,2.296787571488003
1687107162.654993,-0.10502542555332184,0.9554364085197449,-0.275882363319397,0.37319865822792053,-0.2140728235244751,-0.04829061031341553,-0.8576579093933105,-3.0482404232025146,2.9992964267730713,-0.36374907046157806,-1.2711345521145674,2.5751043433936673
1687107162.730176,0.0076016029343008995,0.9618615508079529,-0.2734311819076538,0.2974826395511627,-0.08596128225326538,0.10515725612640381,-0.294961541891098,-2.811326503753662,3.3166251182556152,0.027793632715212537,-1.2937281337314543,-3.1397185435563952
1687107162.734391,0.14916078746318817,0.9526667594909668,-0.26490992307662964,0.45197445154190063,-0.2037043571472168,0.10808002948760986,0.7999723553657532,-3.3243672847747803,4.227406024932861,0.5128164899129651,-1.261890389347571,-2.477041899611154
1687107162.8554668,0.32619011402130127,0.8724566102027893,-0.3638949692249298,0.2815674841403961,-0.20750904083251953,0.36145350337028503,1.1731619834899902,-2.4985451698303223,5.548349380493164,0.7308144260581199,-1.0602069548993112,-2.080069188084833
1687107162.874671,0.5183720588684082,0.7572761178016663,-0.397269606590271,0.8001551032066345,0.10406720638275146,0.5329660177230835,-0.28027069568634033,-1.9902162551879883,5.427780628204346,0.9168946024253247,-0.8591322709153328,-1.7352429002395007
1687107162.978592,0.5996625423431396,0.6328310966491699,-0.4898262321949005,0.33554863929748535,0.6656002998352051,0.3603706359863281,0.6032109260559082,-1.889317512512207,2.620070219039917,0.8858732334297185,-0.6852041534304155,-1.6137191736181296
1687107162.997264,0.6225254535675049,0.5889572501182556,-0.5153558254241943,-0.3218204379081726,0.6239639520645142,0.38602226972579956,-0.25849804282188416,-0.1445789486169815,0.373922735452652,0.8793046289731306,-0.6297679500502946,-1.545146313598823
1687107163.061044,0.6256034970283508,0.6056873798370361,-0.4916941225528717,-0.03907090425491333,0.37897753715515137,0.24447119235992432,-0.6185639500617981,0.7934103012084961,-0.6036412119865417,0.9046803047730704,-0.6506294509697403,-1.5376952892005995
1687107163.0755239,0.6229279041290283,0.6300386190414429,-0.46369391679763794,0.04893183708190918,0.34917885065078735,0.03231269121170044,0.6961592435836792,0.6575119495391846,-0.647971510887146,0.9309029423885193,-0.6816029768399744,-1.5574708057772062
1687107163.1477141,0.6174102425575256,0.6308558583259583,-0.469920814037323,0.015509068965911865,0.04587143659591675,0.027461707592010498,0.1351720094680786,0.3472943902015686,-0.43504032492637634,0.9202188351831743,-0.6826557966682143,-1.6131808819604785
1687107163.151439,0.6120967268943787,0.6474066972732544,-0.4540950655937195,0.011117994785308838,-0.08583742380142212,0.009957432746887207,-0.30781540274620056,0.3381969630718231,-0.3549332618713379,0.9325199677277504,-0.7041768615772638,-1.6173293755712994
1687107163.243515,0.610329806804657,0.6582342386245728,-0.4407099783420563,0.012564480304718018,-0.07540953159332275,-0.050912946462631226,0.13576951622962952,0.32919496297836304,-0.26743292808532715,0.945401470894682,-0.7184707829013296,-1.6246644493559492
1687107163.2617478,0.6105177402496338,0.6582130789756775,-0.4404810965061188,0.023957908153533936,-0.09852069616317749,-0.04586225748062134,0.4361610412597656,0.327366441488266,-0.18081599473953247,0.9457941263882296,-0.7184427229120326,-1.6482329880151316
1687107163.332508,0.6118054389953613,0.651286780834198,-0.44890955090522766,0.007564067840576172,-0.104320228099823,-0.04701638221740723,0.5551856160163879,0.28057438135147095,-0.09541692584753036,0.9377794303363736,-0.70927894770772,-1.6842785189512932
1687107163.336101,0.6164771318435669,0.6419087648391724,-0.4559706747531891,0.016335368156433105,-0.08760273456573486,-0.0286027193069458,0.38929200172424316,0.21891622245311737,0.022048361599445343,0.9339591374987068,-0.6969849909051381,-1.710006371268509
1687107163.4238238,0.6232801675796509,0.6325013637542725,-0.4598521292209625,0.010463118553161621,-0.07181715965270996,-0.027559340000152588,0.09493259340524673,0.06819399446249008,0.22359199821949005,0.9351531488581089,-0.6847783998733237,-1.7187175869206772
1687107163.442735,0.6330471634864807,0.6213682889938354,-0.4616846740245819,0.007333695888519287,-0.03143298625946045,0.0015254020690917969,0.23335054516792297,0.06853854656219482,0.30269715189933777,0.9406718884498729,-0.6704878564158682,-1.7139250716531285
1687107163.480056,0.6455554962158203,0.6025198101997375,-0.4692845046520233,0.0012340545654296875,-0.016780734062194824,0.0417790412902832,0.545769453048706,0.23244573175907135,0.29855066537857056,0.9422132503632995,-0.6466546270172879,-1.7224697540920002
1687107163.6371732,0.6627996563911438,0.5755093097686768,-0.47904667258262634,0.0031397342681884766,-0.05043905973434448,0.11057746410369873,0.8076590299606323,0.4700176417827606,0.26576411724090576,0.944956367627859,-0.6132267812046555,-1.7482364397602133
1687107163.6567302,0.6830547451972961,0.5480490326881409,-0.48278191685676575,-0.0013837814331054688,-0.055541157722473145,0.13057845830917358,0.9465290307998657,0.7328957319259644,0.24841362237930298,0.9555222975676149,-0.5800299710016209,-1.7802102355567546
1687107163.752631,0.7093290090560913,0.517585277557373,-0.4784955382347107,-0.01702249050140381,-0.007804393768310547,0.1333875060081482,0.9632015824317932,0.9591048359870911,0.08212980628013611,0.9773387509249322,-0.5440263859299672,-1.8224548032066596
1687107163.75804,0.7388526797294617,0.4903047978878021,-0.46227458119392395,-0.004447221755981445,0.0025998055934906006,0.16466715931892395,0.9411503076553345,1.286364197731018,0.1829686462879181,1.0117186473644788,-0.5124394312688648,-1.8652420963935594
1687107163.762157,0.7710872292518616,0.4635017514228821,-0.43656668066978455,-0.005614936351776123,0.04267802834510803,0.05091610550880432,0.8597762584686279,1.1767476797103882,0.2653067409992218,1.0556231272915648,-0.4819430305587533,-1.9019442056265918
1687107163.842002,0.8059337735176086,0.43137192726135254,-0.4054490029811859,0.007954716682434082,0.07566234469413757,0.1258622109889984,0.6600075960159302,1.374749779701233,0.34788545966148376,1.1046879281398216,-0.4460129210151378,-1.9326300616185585
1687107163.859427,0.8342339396476746,0.4136664867401123,-0.3646005392074585,0.007547557353973389,0.11582866311073303,-0.015205949544906616,0.5681005716323853,1.2996140718460083,0.0466754324734211,1.1587650660856634,-0.42647760840678745,-1.958290063378154
1687107163.934943,0.8583276271820068,0.40399351716041565,-0.31632745265960693,0.036585092544555664,0.07055482268333435,-0.013125061988830566,0.6218580007553101,1.4843195676803589,-0.08222100883722305,1.2177018314910197,-0.4158782886444336,-1.9856637321373567
1687107163.9386039,0.8742399215698242,0.40481889247894287,-0.2680041790008545,0.04041767120361328,0.07018721103668213,-0.1344616413116455,0.7488660216331482,1.314111590385437,-0.46627292037010193,1.2733350333386788,-0.4167807637451432,-2.0288076204831595
1687107163.989207,0.8798875212669373,0.41767773032188416,-0.22659042477607727,0.057948172092437744,-0.053755611181259155,-0.10566967725753784,-0.03972939774394035,0.9763874411582947,-0.27905529737472534,1.3187507305965038,-0.4308879278141942,-2.0558649112199547
1687107164.083524,0.8855284452438354,0.42790931463241577,-0.18092289566993713,0.03393566608428955,-0.0022806525230407715,-0.19407707452774048,-0.47826462984085083,0.7745609283447266,-0.04509998485445976,1.3692593619223032,-0.44217832918711114,-2.0412757048048844
1687107164.08982,0.8928045034408569,0.42771559953689575,-0.1412787288427353,-0.012631773948669434,0.006503790616989136,-0.260012149810791,-0.08738596737384796,0.6559163928031921,0.15526460111141205,1.413856136494983,-0.4419640144091237,-2.0195488696513366
1687107164.202738,0.9007275700569153,0.41510236263275146,-0.12798383831977844,0.028471648693084717,0.08491292595863342,-0.33370131254196167,1.4142917394638062,0.5238249897956848,0.2278594672679901,1.429651738584124,-0.42805530045606044,-2.052276621997803
1687107164.2083,0.9083934426307678,0.39081424474716187,-0.14861275255680084,0.030434072017669678,0.08509212732315063,-0.28157830238342285,2.6956212520599365,0.3872816562652588,0.2115379124879837,1.4086333509929128,-0.4015160339681732,-2.1641707218950423
1687107164.2934918,0.9156245589256287,0.3546389937400818,-0.18937507271766663,0.024972975254058838,0.008428633213043213,-0.15089595317840576,2.7393054962158203,0.21547788381576538,0.31945037841796875,1.3668458842751345,-0.3625279373335213,-2.313295180956834
1687107164.31323,0.9230566024780273,0.31528276205062866,-0.2203710824251175,-0.0033025741577148438,-0.03861039876937866,-0.0648614764213562,1.6946464776992798,0.05418000742793083,0.40003034472465515,1.336442500277368,-0.3207546034738896,-2.4251909733128634
1687107164.443315,0.9291825890541077,0.2798384726047516,-0.24147486686706543,-0.006453096866607666,-0.024894624948501587,-0.02270054817199707,0.7615582942962646,-0.1721174120903015,0.5143924355506897,1.3165417873354768,-0.2836258570163042,-2.4806908852747163
1687107164.461767,0.9326948523521423,0.24939581751823425,-0.260542094707489,-0.03323489427566528,0.045358240604400635,0.014082103967666626,0.3820563554763794,-0.33378589153289795,0.4847433269023895,1.2983966555790478,-0.2520563138639387,-2.499259017728234
1687107164.502841,0.9326117634773254,0.22520115971565247,-0.2819921672344208,-0.043253302574157715,0.07680077850818634,0.06102970242500305,0.30121758580207825,-0.39290651679039,0.3455698490142822,1.2771682501526143,-0.22714948706733024,-2.510881056757551
1687107164.505765,0.9296038746833801,0.21094545722007751,-0.3022230863571167,-0.022743523120880127,0.08895079791545868,0.1149977445602417,0.1401119977235794,-0.3475743532180786,0.12154867500066757,1.2564653401084531,-0.21254207390569463,-2.517507057986342
1687107164.5085711,0.9247341752052307,0.21114319562911987,-0.31667837500572205,0.009515643119812012,0.07765989005565643,0.15199026465415955,-0.0701722577214241,-0.22332429885864258,-0.18536262214183807,1.2408602914753066,-0.2127443831057348,-2.5208867125352334
1687107164.557868,0.9193114638328552,0.22978246212005615,-0.31947827339172363,0.0381622314453125,0.039947137236595154,0.16768386960029602,-0.3821779191493988,-0.0072157615795731544,-0.431590735912323,1.2363333830698002,-0.23185415506504373,-2.5143882632240206
1687107164.619547,0.9148078560829163,0.2580795884132385,-0.3106793761253357,0.06561523675918579,0.03708645701408386,0.1343487799167633,-0.17085397243499756,0.2055327147245407,-0.5443869829177856,1.2434060051339402,-0.2610339333891187,-2.5068760745481815
1687107164.682259,0.9122479557991028,0.282650887966156,-0.29649993777275085,0.04707211256027222,0.027468740940093994,0.11406582593917847,0.2625545561313629,0.42960983514785767,-0.5324527621269226,1.2565452435625228,-0.2865565668620039,-2.5180473467379914
1687107164.740641,0.9122985601425171,0.2980553209781647,-0.2808457612991333,0.038827478885650635,-0.0013023912906646729,0.06624609231948853,0.5514749884605408,0.5154679417610168,-0.3938979208469391,1.2721587228236122,-0.3026547340913893,-2.5476978673117774
1687107164.866689,0.9144309759140015,0.30999818444252014,-0.2602252960205078,-0.00017011165618896484,0.02697691321372986,0.06204414367675781,0.20571595430374146,0.6201599836349487,-0.34420841932296753,1.2935491644186552,-0.3151911371970489,-2.5726371931003116
1687107164.872459,0.916836678981781,0.31971460580825806,-0.2391502857208252,-0.03474146127700806,0.07011690735816956,-0.008881300687789917,0.7249200344085693,0.6084252595901489,-0.30843842029571533,1.3156389649199225,-0.32542827944536395,-2.5951328043321675
