Timestamp,gravityX,gravityY,gravityZ,accelerationX,accelerationY,accelerationZ,rotationRateX,rotationRateY,rotationRateZ,attitudeRoll,attitudePitch,attitudeYaw
1687101910.6332111,0.9389671087265015,0.3294528126716614,-0.0990028828382492,-0.03196948766708374,0.0871882438659668,0.000446319580078125,0.12165354937314987,0.10606248676776886,-0.24783897399902344,1.465746392070838,-0.3357239691586448,-3.1054622846593793
1687101910.6441221,0.9345815777778625,0.34302419424057007,-0.09429455548524857,-0.0010184049606323242,0.014077037572860718,0.01452154666185379,-0.022281082347035408,0.1008455753326416,-0.2838200628757477,1.470241671789837,-0.35013453684487755,-3.109828913597184
1687101910.730253,0.9300205707550049,0.35713332891464233,-0.08670417964458466,0.011553645133972168,-0.029420465230941772,0.004840724170207977,-0.1806230992078781,0.12209956347942352,-0.2476317584514618,1.4778367821100553,-0.3651970260344027,-3.103579302098741
1687101910.819896,0.9270852208137512,0.36654943227767944,-0.07845022529363632,0.021889448165893555,-0.05078423023223877,-0.005030699074268341,-0.10857261717319489,0.10115327686071396,-0.1282142996788025,1.4863771464797642,-0.37529759699584414,-3.0957749176964846
1687101910.8333158,0.9260703921318054,0.3701036870479584,-0.07359661161899567,-4.5180320739746094e-05,-0.061327069997787476,-0.025112614035606384,-0.07851383835077286,0.05773133784532547,-0.024442382156848907,1.4914910603203904,-0.3791206380984366,-3.0928658936059574
1687101910.908946,0.9267648458480835,0.368780255317688,-0.07147065550088882,-0.006904006004333496,-0.03311756253242493,-0.030290305614471436,0.008279222063720226,0.013684303499758244,0.027731318026781082,1.4938302295444936,-0.3776964396653868,-3.0906253287440872
1687101910.914846,0.9281743764877319,0.3647501766681671,-0.07381989806890488,0.006899356842041016,-0.019764453172683716,-0.03309845179319382,0.10117320716381073,-0.03919249027967453,0.09731394052505493,1.4914310293297068,-0.373364486104832,-3.094338181569072
1687101910.9993582,0.9299971461296082,0.35949668288230896,-0.07659877091646194,0.0038560032844543457,-0.013641178607940674,-0.024811267852783203,-0.14660990238189697,-0.08527860045433044,0.10720424354076385,1.488617302046446,-0.3677284723356487,-3.0918904943680143
1687101911.012104,0.9314932227134705,0.3548544645309448,-0.07999084144830704,-0.008641719818115234,0.021594911813735962,-0.032039277255535126,-0.08620014786720276,-0.1110301986336708,0.08890195190906525,1.4851327108569659,-0.36275840047215907,-3.0862716403661348
1687101911.090945,0.9322478771209717,0.35209953784942627,-0.0833045095205307,-0.007550060749053955,0.024166733026504517,-0.023705415427684784,-0.1573534607887268,-0.11096084862947464,0.03777727484703064,1.4816742838243802,-0.3598133381911223,-3.07960870655476
1687101911.096498,0.9321686029434204,0.3514094352722168,-0.08702211827039719,-0.012536704540252686,0.0293428897857666,-0.012205831706523895,-0.05003985017538071,-0.1102755069732666,0.02430720254778862,1.4777116264890875,-0.35907614360547935,-3.073573040062149
1687101911.147846,0.9316813349723816,0.35138341784477234,-0.092191681265831,0.004262149333953857,0.018245279788970947,-0.0025044605135917664,-0.022076020017266273,-0.12547731399536133,0.020293353125452995,1.4721654572038474,-0.35904832573598006,-3.0715007060020683
1687101911.2401881,0.9311652183532715,0.351797491312027,-0.0957588329911232,-0.0015845298767089844,0.000588834285736084,0.026605963706970215,-0.21755875647068024,-0.11534494161605835,0.0057093058712780476,1.4683189238021566,-0.35949065427587157,-3.0652558330229827
1687101911.245882,0.9303324818611145,0.353485643863678,-0.09761859476566315,-0.009052574634552002,0.022521287202835083,0.020683705806732178,0.012186238542199135,-0.064891517162323,-0.018187638372182846,1.4662501706114988,-0.3612946854477292,-3.059095544983786
1687101911.3271332,0.9298285841941833,0.35445666313171387,-0.09889043867588043,0.004284024238586426,-0.0006665289402008057,0.03866390883922577,-0.0864933654665947,-0.014601660892367363,-0.03669685125350952,1.4648412143181468,-0.3623329266837457,-3.0584795672448992
1687101911.451642,0.9291900992393494,0.3564890921115875,-0.09757548570632935,0.005059659481048584,-0.007154583930969238,0.015635736286640167,0.02482304349541664,0.003942993935197592,0.0005815448239445686,1.4661684668783277,-0.36450738501509916,-3.055297436372959
1687101911.465211,0.9293572902679443,0.35662055015563965,-0.09548116475343704,-0.003087759017944336,-0.016944825649261475,0.026221394538879395,-0.12311609089374542,0.02380884438753128,-0.0067533766850829124,1.4684166100556413,-0.36464810937305636,-3.0528013552231514
1687101911.567803,0.9296048879623413,0.35631951689720154,-0.09418587386608124,0.001867830753326416,-0.0020106732845306396,-0.010840408504009247,0.032634999603033066,0.014075042679905891,0.02825249917805195,1.4698227219173097,-0.3643259107279398,-3.05140443106183
1687101911.579509,0.9304324388504028,0.35448703169822693,-0.09292194992303848,-0.0010805130004882812,-0.003550320863723755,-0.0007060840725898743,-0.05781218037009239,0.0013930173590779305,0.03940954431891441,1.471256745791396,-0.36236541141780976,-3.049443263129198
1687101911.583619,0.9309657216072083,0.35314425826072693,-0.09269315749406815,-0.004894554615020752,0.007497072219848633,-0.008640527725219727,-0.02065463736653328,0.0015087581705302,0.022807886824011803,1.4715567337391988,-0.36092976630622287,-3.0473926078952496
1687101911.658568,0.931224524974823,0.3526704013347626,-0.09189382940530777,-0.008632302284240723,0.0012112557888031006,-0.008737988770008087,-0.06894584745168686,-0.00731221679598093,0.015533152967691422,1.4724341440241582,-0.360423352671334,-3.0453162032159424
1687101911.664085,0.9313420057296753,0.3525106906890869,-0.0913156196475029,0.005273103713989258,0.00042495131492614746,-0.004921682178974152,-0.05626456066966057,-0.02725498005747795,0.02995605580508709,1.4730613561081154,-0.36025266654889826,-3.040838244852146
1687101911.780155,0.9319813847541809,0.35067272186279297,-0.09186581522226334,-0.007146179676055908,-0.018672198057174683,0.003105342388153076,-0.21954861283302307,-0.06482435017824173,0.07212220132350922,1.4725432825637674,-0.35828934803320006,-3.035313059287735
1687101911.794378,0.933681070804596,0.3453547954559326,-0.09470926970243454,0.0014691948890686035,0.011563360691070557,-0.028078332543373108,0.045510269701480865,-0.10015848278999329,0.15907303988933563,1.4697056762816179,-0.35261683099450736,-3.0303157523692064
1687101911.89894,0.9354470372200012,0.3399532735347748,-0.09680067747831345,-0.002662062644958496,-0.028536885976791382,0.006605871021747589,-0.27720242738723755,-0.08863013982772827,0.1034993827342987,1.4676826751011218,-0.3468672153244485,-3.0219537993129353
1687101911.911765,0.9362340569496155,0.33790263533592224,-0.09637244790792465,-0.022827625274658203,0.022540360689163208,0.028348669409751892,-0.056981541216373444,0.0024771899916231632,0.011433593928813934,1.468221324706134,-0.34468756437790865,-3.0128725591997734
1687101912.020571,0.9362949728965759,0.3379201889038086,-0.09571734815835953,0.001464545726776123,0.009705394506454468,0.004622265696525574,0.06948569416999817,0.01497199572622776,0.019353702664375305,1.46892033502356,-0.3447062071220285,-3.012965422707038
1687101912.032882,0.9365586638450623,0.33753013610839844,-0.0945047065615654,-0.005757331848144531,0.07753923535346985,-0.015007726848125458,-0.48668721318244934,-0.10061995685100555,0.001616072142496705,1.4702303896942504,-0.3442918030018696,-3.005120780381215
1687101912.036761,0.9340937733650208,0.34595397114753723,-0.08823052793741226,-0.003338158130645752,0.25830915570259094,-0.054027259349823,-1.0366239547729492,-0.14154747128486633,-0.3213580548763275,1.47661999120358,-0.35325533930275377,-2.9664809554685543
1687101912.115047,0.9185137748718262,0.3907029628753662,-0.060693368315696716,0.013737201690673828,0.568082869052887,-0.05980539321899414,-2.4908578395843506,-0.05926968902349472,-1.3600929975509644,1.5048144456044845,-0.4013951232516918,-2.8707868269115777
1687101912.1268291,0.8723839521408081,0.48882099986076355,-0.000269501528237015,0.06029421091079712,0.8573397397994995,0.11919635534286499,-1.5207128524780273,0.7408378720283508,-2.881666421890259,1.5704874014529573,-0.5107377568348412,-2.757247601202637
1687101912.130094,0.7727342844009399,0.6298113465309143,0.07886356115341187,0.2498030662536621,0.6547039151191711,0.1107267215847969,-1.1869431734085083,1.2975735664367676,-3.9582126140594482,1.672501986999395,-0.6813103033330301,-2.664369390199098
1687101912.1640558,0.6016026139259338,0.7808958292007446,0.16815505921840668,0.5616207718849182,0.6747621297836304,0.2901730537414551,-0.5969452857971191,2.126197099685669,-5.246725082397461,1.8433523081542191,-0.8960985977079297,-2.544906615181068
1687101912.2276912,0.31907162070274353,0.9215202927589417,0.22134478390216827,1.0512592792510986,0.7673223614692688,0.1695394515991211,0.6724560856819153,2.5768203735351562,-6.5607218742370605,2.1772917385993256,-1.1719773684304797,-2.29921768217848
1687101912.322299,-0.04785634204745293,0.978580117225647,0.20022694766521454,1.2614184617996216,0.7888912558555603,0.3386676609516144,0.43603551387786865,2.765280246734619,-7.662369728088379,-2.9069835021695547,-1.363447492752613,-1.1968426321923882
1687101912.4079409,-0.44503650069236755,0.886073887348175,0.1296759843826294,1.5430285930633545,0.767521321773529,0.2696007788181305,1.694830060005188,2.883620023727417,-7.891357421875,-1.854328818288652,-1.088805576866615,-0.24476023714128867
1687101912.414397,-0.7622964382171631,0.6465634107589722,-0.02931859716773033,1.3624248504638672,0.5970278978347778,0.39861172437667847,1.6696323156356812,2.5573346614837646,-7.988837242126465,-1.532354387178886,-0.7030709405769815,-0.014909465810824574
1687101912.502903,-0.9365288615226746,0.30530738830566406,-0.1723393201828003,1.1500757932662964,0.4397793710231781,0.2658146023750305,2.1629726886749268,2.1623804569244385,-7.445424556732178,-1.3888130334627438,-0.31026121987749194,0.03992999002185352
1687101912.516868,-0.9601550698280334,-0.06501304358243942,-0.27180027961730957,1.0935627222061157,0.42957618832588196,0.3640701174736023,2.2499208450317383,1.3485263586044312,-6.861858367919922,-1.2949342318513135,0.06505893023644554,0.0693327812369685
1687101912.589933,-0.8642992973327637,-0.3995458483695984,-0.30553218722343445,0.8495287895202637,0.4194892942905426,0.2515159845352173,1.732944369316101,0.9231230616569519,-6.2820844650268555,-1.2310044055249252,0.4110213879922766,0.05731188426819901
1687101912.595938,-0.7003659009933472,-0.6580966114997864,-0.276398628950119,0.8814266920089722,0.3082738518714905,0.28617945313453674,1.5833203792572021,0.21308134496212006,-5.565168857574463,-1.1949114814524757,0.7182880010874277,0.031009949828717787
1687101912.645993,-0.5130946636199951,-0.8321965336799622,-0.21019655466079712,0.8065058588981628,0.22355419397354126,0.011755898594856262,2.136312484741211,-0.36869028210639954,-4.433767795562744,-1.1819865335349327,0.9830573895797766,0.012076228864626715
1687101912.740041,-0.3451995551586151,-0.9328879714012146,-0.10274824500083923,0.701766848564148,-0.00668710470199585,0.048701465129852295,1.9751245975494385,-0.6203573346138,-3.232069969177246,-1.2814979622581846,1.202349824919072,0.09243965681679414
1687101912.7460961,-0.22774340212345123,-0.973603367805481,-0.015134704299271107,0.5390530824661255,-0.18974173069000244,0.21523833274841309,1.022273063659668,0.3077424168586731,-1.6068633794784546,-1.5044388234734984,1.340520020662812,0.3085951415316061
1687101912.798198,-0.18477265536785126,-0.9806909561157227,-0.06406346708536148,0.2692146301269531,-0.8058842420578003,0.29675984382629395,-1.7684249877929688,0.8270379304885864,-0.14708301424980164,-1.2370509487788204,1.3739638319699572,0.06647941704179484
1687101912.953875,-0.1935575157403946,-0.9780381321907043,-0.07731076329946518,0.15351833403110504,0.15281236171722412,-0.20522111654281616,1.2973966598510742,0.6041797995567322,0.5305991172790527,-1.1907899709173142,1.360830934254442,0.0626648761474469
1687101912.9683142,-0.22845539450645447,-0.9706140756607056,-0.07560602575540543,0.3533026874065399,-0.09422039985656738,-0.2688155174255371,-0.938619077205658,-0.4957870543003082,1.095398187637329,-1.2511973954588804,1.3277697267458157,0.12931061694231202
1687101913.073602,-0.3206615746021271,-0.9414206147193909,-0.1044187918305397,0.8188761472702026,0.06884688138961792,0.004031062126159668,-1.1328262090682983,-1.0173752307891846,2.875049352645874,-1.2559897368669346,1.2268184004625475,0.09741440779361214
1687101913.078164,-0.5026172399520874,-0.8454852104187012,-0.18036232888698578,1.0255205631256104,-0.1654704213142395,0.3010134696960449,-2.3942105770111084,-1.1118180751800537,4.882116317749023,-1.226262492709137,1.0074731982515326,0.0052372635091700185
1687101913.082048,-0.7356091737747192,-0.6444275975227356,-0.20878764986991882,1.0784893035888672,0.15362882614135742,0.21104583144187927,-1.0781960487365723,-0.8826282024383545,7.007889270782471,-1.2942399830485907,0.700274510207258,0.03311849195169955
1687101913.159843,-0.9340956211090088,-0.2901175618171692,-0.2080792933702469,1.1800062656402588,0.08798456192016602,0.3225811719894409,-0.9897119998931885,-0.3886485695838928,8.783923149108887,-1.3516148172232134,0.29434968868987393,0.08208653868933465
1687101913.1646361,-0.961586058139801,0.17197273671627045,-0.2139565497636795,1.1950304508209229,0.141244575381279,0.32540667057037354,-0.5563160181045532,0.4220103919506073,10.112944602966309,-1.3518590707044873,-0.17283189916741654,0.15541153934204271
1687101913.248255,-0.7359485030174255,0.6428072452545166,-0.2125522941350937,1.1289540529251099,0.0983273983001709,0.2597019076347351,-1.2551697492599487,0.6558393836021423,10.684855461120605,-1.2896331574888382,-0.6981573633928044,0.2350682881809161
1687101913.261804,-0.310168981552124,0.9387362003326416,-0.1502317488193512,1.3519171476364136,0.5849149823188782,0.44954806566238403,-3.6138648986816406,-0.13432039320468903,10.344165802001953,-1.1197432648823522,-1.2189447965418683,0.3919637697641405
1687101913.3720999,0.19503232836723328,0.979421854019165,-0.051914699375629425,1.3125362396240234,0.7935730218887329,-0.3534961938858032,0.8725460171699524,-3.017306089401245,11.044238090515137,1.310643590988325,-1.3675767375831391,2.9483435700856058
1687101913.376967,0.6909116506576538,0.716746985912323,-0.09441811591386795,2.5846621990203857,0.6239053606987,0.4351468086242676,-0.7860679030418396,-2.058281660079956,10.852550506591797,1.4349803199445286,-0.7991261142624625,-3.0890579805158653
1687101913.4586592,0.9031848311424255,0.4066634774208069,-0.13741092383861542,1.0462474822998047,1.8654005527496338,1.1008813381195068,-5.239448547363281,-1.381759524345398,4.143565654754639,1.4198137108664162,-0.4187989192579495,-2.9322524068693085
1687101913.464339,0.9367204904556274,0.3386736214160919,-0.08862663060426712,-0.10166811943054199,0.9571635723114014,0.05426371842622757,2.7513420581817627,-0.33144059777259827,2.8016562461853027,1.4764634020240017,-0.34550684344427335,-2.7793806715440246
1687101913.550788,0.96827232837677,0.2073318511247635,-0.13950711488723755,0.40477454662323,1.3910261392593384,-0.114002525806427,2.340362310409546,0.08027153462171555,1.8280051946640015,1.4277026488866404,-0.20884675335647565,-3.0098350360883375
1687101913.565102,0.9714162945747375,0.1863783895969391,-0.14701543748378754,-0.04369711875915527,0.994071900844574,-0.10568548738956451,-3.94865083694458,-0.6139459609985352,-0.21380744874477386,1.4205948102094508,-0.1874746434735392,-2.8749325350616197
1687101913.641883,0.9606778621673584,0.23916399478912354,-0.14106254279613495,-0.13238507509231567,1.022676706314087,0.030512452125549316,0.516888439655304,0.1334804892539978,-1.2391778230667114,1.4250017332007594,-0.2415047671371766,-2.8146910892836803
1687101913.646649,0.9401267170906067,0.31048089265823364,-0.14058272540569305,0.1319863200187683,0.3825273811817169,0.011920452117919922,-1.0144630670547485,0.01555624045431614,-1.8728413581848145,1.4223602640871376,-0.31569887674983377,-2.8337079644827345
1687101913.76056,0.9021432995796204,0.4158250391483307,-0.115008145570755,0.26649677753448486,0.6182934641838074,-0.11034905910491943,-1.274359941482544,0.18798840045928955,-2.437626838684082,1.4439970523663253,-0.4288498111112547,-2.7710431781219556
1687101913.766179,0.8257296085357666,0.5621148943901062,-0.046876490116119385,0.4473264217376709,0.5845524072647095,0.13862746953964233,-2.030351400375366,0.8497719764709473,-3.9344358444213867,1.5140874092319432,-0.5969407111072085,-2.6803043446866486
1687101913.8516169,0.6505638360977173,0.7561928033828735,0.0702781230211258,0.46712726354599,1.000917673110962,0.14781558513641357,-1.289492130279541,2.422213554382324,-6.416200160980225,1.6784055190424427,-0.8574750636108123,-2.5575831239300673
1687101913.8658829,0.3240596354007721,0.9344796538352966,0.1474214494228363,1.3669042587280273,1.0918874740600586,0.13385891914367676,0.6070514917373657,2.8846895694732666,-8.011870384216309,1.9977348234969403,-1.2067947243259611,-2.3451597977468666
1687101913.97077,-0.10639747977256775,0.9863981008529663,0.12529286742210388,1.9349498748779297,0.8868775963783264,0.3077514171600342,1.0610456466674805,2.538804292678833,-8.712327003479004,-2.4375688884467124,-1.4056729056233477,-0.6052632574224152
1687101914.0317569,-0.5352174043655396,0.8439928293228149,0.03490271046757698,2.005829334259033,0.8127759695053101,0.35190749168395996,0.9815822839736938,2.4728946685791016,-9.099278450012207,-1.6359163332272149,-1.0046846039981934,0.09973365897047427
1687101914.046838,-0.8447487950325012,0.5260481238365173,-0.09834993630647659,1.830451488494873,0.6468797922134399,0.3818886876106262,2.2721986770629883,2.023681640625,-8.603963851928711,-1.4548930598225303,-0.5539470472731333,0.187010782973156
1687101914.050498,-0.9703454375267029,0.1178961917757988,-0.2110210657119751,1.6673518419265747,0.5060510635375977,0.4500194489955902,1.7727329730987549,1.3181054592132568,-8.190886497497559,-1.3566604546839438,-0.11817103453152704,0.2279708450531324
1687101914.150878,-0.9244147539138794,-0.2827480137348175,-0.2559508681297302,1.394049882888794,0.5419340133666992,0.30010971426963806,1.6007914543151855,0.8627098798751831,-7.591984748840332,-1.3006842237284961,0.2866578229474812,0.21144385119743583
1687101914.270307,-0.7525489926338196,-0.6142363548278809,-0.23745232820510864,1.3158576488494873,0.4843689799308777,0.08289587497711182,2.601834297180176,0.31382858753204346,-6.830342769622803,-1.2651527685463275,0.6614179087042092,0.2016160561186327
1687101914.284737,-0.5225779414176941,-0.8411956429481506,-0.1389310508966446,1.0844676494598389,0.07525044679641724,0.12614406645298004,2.282623291015625,-0.3725182116031647,-5.397496223449707,-1.310949916590714,0.9994906198815245,0.2514150047907636
1687101914.2883868,-0.3295633792877197,-0.9436200857162476,-0.03112703375518322,0.9970895051956177,-0.18112033605575562,0.10993850231170654,1.7892829179763794,-0.4012349247932434,-3.4064364433288574,-1.4766263696899178,1.2334009920797093,0.40913696221945034
1687101914.35623,-0.20983995497226715,-0.9776196479797363,-0.01506764441728592,0.4563455581665039,-0.6561846137046814,0.378836989402771,-0.8200387954711914,0.5100652575492859,-1.5793046951293945,-1.4991139464441998,1.3588324668150262,0.43529771031959386
1687101914.360859,-0.17544816434383392,-0.9836878180503845,-0.0396975502371788,0.17602787911891937,-0.3011782765388489,0.2798859477043152,0.40330690145492554,0.6723408699035645,0.002974528120830655,-1.3482794079044396,1.3899277195531259,0.32843673161164905
1687101914.4789572,-0.18210932612419128,-0.9825342893600464,-0.03823933005332947,-0.018849030137062073,-0.10613435506820679,-0.10612428188323975,-0.21851754188537598,0.08980298042297363,0.22328869998455048,-1.3638232224111357,1.383623757447102,0.35754207226415674
1687101914.48522,-0.18813152611255646,-0.9806256890296936,-0.054586928337812424,-0.015069901943206787,0.035145461559295654,-0.04471743106842041,-0.3543581962585449,-0.09628352522850037,0.051722269505262375,-1.2883977762100653,1.373630401822643,0.27865976823912164
1687101914.5687032,-0.1941637396812439,-0.9790400266647339,-0.061489421874284744,0.11234600841999054,0.031026840209960938,0.004909638315439224,-0.018486611545085907,-0.0827556848526001,0.1948641538619995,-1.264100179497767,1.365693444763703,0.25021114495325697
1687101914.585088,-0.2217743694782257,-0.9724518656730652,-0.07178620249032974,0.33412474393844604,-0.11324131488800049,0.1127711609005928,-0.5038577318191528,0.12414855509996414,1.1691653728485107,-1.2577495005765214,1.3355281228780225,0.24720920075764752
1687101914.6582608,-0.3250272274017334,-0.9404219388961792,-0.099818654358387,0.7731014490127563,-0.20659637451171875,0.19633030891418457,-0.6927947402000427,0.10753250122070312,3.2547688484191895,-1.2728307195599744,1.2238691906121169,0.27017132497170404
1687101914.6637769,-0.5105821490287781,-0.841721773147583,-0.17552773654460907,1.0029680728912354,-0.047163426876068115,0.3809109330177307,-2.607154369354248,0.04370942339301109,5.095991611480713,-1.2396737506205042,1.0004643783880531,0.2357458634008438
1687101914.7517362,-0.7386360168457031,-0.61531001329422,-0.27533623576164246,1.1928291320800781,0.03610193729400635,0.37435048818588257,-2.471418619155884,-0.22646687924861908,7.316263675689697,-1.2139882397575616,0.6627792152454212,0.19769310971489742
1687101914.766428,-0.9192345142364502,-0.22993284463882446,-0.31959155201911926,1.4109947681427002,0.007688730955123901,0.4029806852340698,-3.1616647243499756,-0.3469304144382477,9.14339828491211,-1.2361974940389369,0.23200867397685201,0.21804949659773895
1687101914.870389,-0.9113633632659912,0.3001839816570282,-0.2816135585308075,1.6488208770751953,-0.0023170411586761475,0.6619235277175903,-3.948854923248291,-0.8995799422264099,10.937200546264648,-1.271100963407305,-0.3048855171996311,0.2011402321047947
1687101914.931747,-0.6085084080696106,0.7757765650749207,-0.16699771583080292,1.594958782196045,0.0762895941734314,0.45848631858825684,-2.340604543685913,-0.4076901078224182,10.94475269317627,-1.3029528395651502,-0.887944859606129,0.19902492647057077
1687101914.946502,-0.11420638114213943,0.9892337322235107,-0.09150726348161697,1.6043951511383057,1.1967556476593018,0.0804750919342041,-0.6632238626480103,-1.6505907773971558,10.709418296813965,-0.8952968341970555,-1.4239244812773153,0.6924415092336997
1687101914.95031,0.4253978133201599,0.9018430113792419,-0.0756034255027771,1.2603780031204224,0.7515840530395508,0.15183627605438232,-1.4730533361434937,-1.333550214767456,11.575237274169922,1.3949087818068413,-1.1240162452897937,3.0787443545021973
1687101914.986336,0.817181408405304,0.5657454133033752,-0.11021178215742111,3.560473680496216,1.5178725719451904,0.25108081102371216,-1.1227988004684448,-3.1291418075561523,8.86941909790039,1.436737053713684,-0.6013369851625984,-2.9936427723673225
1687101915.046216,0.9112642407417297,0.39354315400123596,-0.12133131921291351,-0.9822481274604797,1.7369955778121948,-0.021597862243652344,-0.35534074902534485,-0.07758073508739471,0.336829274892807,1.4384287191284453,-0.4044825913611426,-2.8141263195319035
1687101915.144985,0.937049388885498,0.3136350214481354,-0.1535298228263855,0.20825999975204468,1.869928002357483,-0.02342645823955536,3.89158296585083,0.9943084716796875,1.0159788131713867,1.4083953840579493,-0.31901880124275456,-2.9899340259521465
1687101915.149839,0.951673150062561,0.26136112213134766,-0.1612720489501953,0.786302924156189,0.558676540851593,0.16644465923309326,-3.33009672164917,-0.8584476709365845,0.7560842037200928,1.4029295054903819,-0.2644320624894912,-2.93500183271026
1687101915.1971478,0.9487009048461914,0.27142366766929626,-0.16215945780277252,-0.2618265151977539,0.9309840202331543,-0.16961246728897095,1.384104609489441,0.17420218884944916,-0.6100785136222839,1.4015044659200602,-0.27487191511149023,-2.901890311936267
1687101915.292725,0.9402828812599182,0.2918245792388916,-0.17523272335529327,0.030374526977539062,0.26066550612449646,-0.01644827425479889,0.13318558037281036,-0.1848071664571762,-0.6398341655731201,1.3865482421504955,-0.2961338867307109,-2.9539733098817385
1687101915.4434772,0.9267019033432007,0.32854995131492615,-0.18242324888706207,0.11443561315536499,0.33561915159225464,0.033955127000808716,-0.6994825601577759,-0.2970544397830963,-0.9083535671234131,1.3764293853438747,-0.33476789440408095,-2.9399808162497574
1687101915.448677,0.9007166028022766,0.3959166407585144,-0.17877312004566193,0.14264899492263794,0.691149890422821,-0.05909623205661774,-0.4612247347831726,-0.007609053049236536,-1.783089280128479,1.3748639124958855,-0.4070658529513633,-2.918778260333779
1687101915.453186,0.843079686164856,0.5167961716651917,-0.1487894207239151,0.26125991344451904,0.860553503036499,0.08750998973846436,-0.9313513040542603,0.56952303647995,-3.4959893226623535,1.3961118798472956,-0.5431043981876842,-2.9065168233940186
1687101915.456929,0.7079625129699707,0.703784704208374,-0.05895889922976494,0.5520778298377991,0.8155632615089417,0.194960355758667,-1.7367173433303833,1.5407055616378784,-5.491413116455078,1.4877083679147367,-0.7807110012037978,-2.848496435523035
1687101915.5262141,0.455951452255249,0.889507532119751,0.029745083302259445,0.9264644980430603,0.9249303340911865,-0.00938999280333519,0.22286614775657654,2.193265676498413,-6.865206241607666,1.6359414037600744,-1.0962661778703406,-2.782954031336233
1687101915.6187139,0.1045563593506813,0.9938411712646484,0.036706991493701935,1.5324677228927612,0.6240022778511047,0.14296507835388184,0.7894097566604614,1.7876803874969482,-7.58836030960083,1.9084273806212178,-1.4597544424751645,-2.6106715256726503
1687101915.635138,-0.28428688645362854,0.9583776593208313,-0.026333032175898552,1.5261540412902832,0.7082789540290833,0.18951040506362915,0.8974563479423523,1.8790616989135742,-8.197152137756348,-1.478431514062624,-1.2812644439354806,0.20208123700155295
1687101915.709055,-0.634817898273468,0.7613605856895447,-0.13166776299476624,1.8497076034545898,0.6344983577728271,0.22621117532253265,2.6459617614746094,1.6125710010528564,-8.035144805908203,-1.3662857452527992,-0.8654091623889822,0.2295654794171953
1687101915.714113,-0.8641888499259949,0.42915889620780945,-0.26267924904823303,1.5774915218353271,0.40951013565063477,0.32209691405296326,2.1868553161621094,0.8995901346206665,-7.977080821990967,-1.2757100309643339,-0.4435613500775667,0.26821293627815596
1687101915.8285332,-0.949023962020874,0.05386771634221077,-0.31056663393974304,1.397647738456726,0.2719533443450928,0.37405839562416077,1.4784222841262817,0.4707883596420288,-7.374684810638428,-1.254532125067999,-0.05389380134497777,0.23173718266761398
1687101915.8353539,-0.8991226553916931,-0.30274978280067444,-0.3161028325557709,1.2369675636291504,0.24482756853103638,0.1690995693206787,1.665612816810608,-0.10257769376039505,-6.674891948699951,-1.2327252271207152,0.3075765351735056,0.18871498163264613
1687101915.918308,-0.7552004456520081,-0.5941544771194458,-0.2768620252609253,1.0592622756958008,0.3173297643661499,0.38416174054145813,0.3304799795150757,-0.4917846620082855,-6.420691013336182,-1.219403837640997,0.6362140451470335,0.12237046350560392
1687101915.934699,-0.5583673119544983,-0.7995920181274414,-0.22108472883701324,0.8490013480186462,0.03889578580856323,-0.031951844692230225,2.111448287963867,-0.6558484435081482,-5.160173416137695,-1.1937874311785825,0.926615552690504,0.04122651059507455
1687101916.006808,-0.37453600764274597,-0.9218828678131104,-0.0992703065276146,0.8213742971420288,-0.16973072290420532,0.09086257964372635,2.1936354637145996,-0.8649714589118958,-3.4688382148742676,-1.3117050287934,1.1729121318386075,0.13306695874386967
1687101916.01174,-0.24911236763000488,-0.96770179271698,-0.03867919743061066,0.36503326892852783,-0.4617566466331482,0.35006511211395264,-0.3161267042160034,0.20490704476833344,-1.8095453977584839,-1.4167582485850991,1.3159490081017668,0.2156074400128514
1687101916.101804,-0.1964200735092163,-0.976649284362793,-0.08703690022230148,0.24024319648742676,-0.7361192107200623,-0.03924494981765747,0.13088972866535187,0.2761949598789215,-0.11481999605894089,-1.1536817937086816,1.3542683064221437,-0.02524727819853971
1687101916.118026,-0.20803460478782654,-0.9767225384712219,-0.052293647080659866,-0.0028725117444992065,-0.11908727884292603,-0.19164878129959106,-0.17439354956150055,-0.01999291218817234,0.09750799834728241,-1.3245287229222005,1.3546096852102794,0.1550865049757699
1687101916.2221231,-0.20158100128173828,-0.9756348729133606,-0.0866115614771843,-0.07458797097206116,0.12150901556015015,-0.018292784690856934,-0.16602212190628052,0.13343700766563416,-0.23333099484443665,-1.1649841213269725,1.3495963232124102,-0.005511366864983326
1687101916.239262,-0.192302405834198,-0.9788478016853333,-0.06983312964439392,0.028270304203033447,-0.030826151371002197,0.006478488445281982,0.16011759638786316,0.22102876007556915,-0.09061290323734283,-1.2224617840071423,1.3647516978732546,0.06440942984298041
1687101916.313204,-0.18907950818538666,-0.9784709811210632,-0.08272397518157959,0.0683366060256958,0.009477019309997559,-0.023446790874004364,-0.24893803894519806,0.1455932855606079,0.004589159041643143,-1.1583783977828157,1.3629178387540508,0.009038845123330601
1687101916.328624,-0.19471591711044312,-0.9763724207878113,-0.0937146320939064,0.12917928397655487,0.012871623039245605,-0.13493847846984863,-0.2466822862625122,-0.0862208753824234,0.33535265922546387,-1.122229259099856,1.3529835580230933,-0.026168038754335134
1687101916.4310122,-0.23426833748817444,-0.965563178062439,-0.11316381394863129,0.4600372314453125,-0.017194271087646484,0.13547205924987793,-0.31186753511428833,0.014526715502142906,1.3470097780227661,-1.1207987093388347,1.30759936531825,-0.032474920707207276
1687101916.448391,-0.3390853703022003,-0.9313094615936279,-0.13297952711582184,0.7471053600311279,-0.17931658029556274,0.020995154976844788,-1.142218828201294,-0.14008858799934387,3.063781499862671,-1.1970570657613175,1.1979915757173074,0.04560831864010048
1687101916.51784,-0.5280045866966248,-0.8279854655265808,-0.18881458044052124,0.9911088347434998,-0.10473829507827759,0.07396151125431061,-1.5031790733337402,-0.44512224197387695,5.273841381072998,-1.227366799210486,0.9755055477386367,0.059294113737998325
1687101916.5312681,-0.7580201029777527,-0.607905387878418,-0.23633913695812225,1.0520570278167725,-0.06389307975769043,0.23266170918941498,-1.6045433282852173,-0.3452678322792053,7.265470027923584,-1.2685631618115396,0.6534198918607875,0.09295557205711863
1687101916.607332,-0.9432203769683838,-0.23137056827545166,-0.23833349347114563,1.4107801914215088,-0.059232890605926514,0.17684048414230347,-1.079740047454834,-0.508920431137085,9.303970336914062,-1.3232963437610576,0.23348623713738534,0.1612324939761968
1687101916.6120272,-0.9363564848899841,0.2731863558292389,-0.22046728432178497,1.3862314224243164,-0.21794936060905457,0.505562424659729,-2.4666147232055664,-0.15699689090251923,10.849468231201172,-1.33955577854235,-0.27670382262698695,0.17466586738847853
1687101916.698213,-0.6404953598976135,0.7465856671333313,-0.17993173003196716,1.6343767642974854,0.08248543739318848,0.5826263427734375,-1.3387757539749146,0.01825237087905407,11.0738525390625,-1.296929266460281,-0.8429151238752083,0.2711862885341541
1687101916.7142801,-0.14342769980430603,0.9770803451538086,-0.15729673206806183,1.850062370300293,0.43418967723846436,-0.02156686782836914,2.005680799484253,-1.1940330266952515,11.524528503417969,-0.7393120814770395,-1.3562841694507088,0.8714415438764808
1687101916.79178,0.4199964702129364,0.8619508743286133,-0.2839781939983368,1.3153095245361328,0.7610805630683899,0.30431807041168213,0.6521022319793701,2.3290793895721436,11.615090370178223,0.9762609840901777,-1.0391051194682521,2.626345651408412
1687101916.7967792,0.8046417832374573,0.5417763590812683,-0.24296019971370697,2.9768829345703125,1.4581775665283203,0.06579037010669708,-3.027545690536499,-0.2946847677230835,8.46130657196045,1.2775530778059738,-0.572549093407263,3.011609242759394
1687101916.847024,0.9036901593208313,0.40924951434135437,-0.12593218684196472,-0.2643163800239563,1.7431856393814087,0.22369515895843506,-5.238681793212891,0.08364932984113693,1.6330958604812622,1.4323347290581738,-0.42163137497011927,-2.8428359489642556
1687101916.9434009,0.9357961416244507,0.33636927604675293,-0.10555145144462585,0.5233102440834045,1.406184196472168,-0.07326637953519821,2.099971055984497,0.07679158449172974,1.5322163105010986,1.4584778315297542,-0.34305885293983535,-2.7662285706669376
1687101916.948525,0.9600340723991394,0.24365046620368958,-0.13772733509540558,0.6537964344024658,1.2870042324066162,0.10952901840209961,2.748594045639038,-0.16644909977912903,1.5110434293746948,1.4283076642206693,-0.24612798784780787,-2.9319869706292723
1687101916.996554,0.9697468876838684,0.20124287903308868,-0.13817359507083893,-0.08334875106811523,0.6134389638900757,0.13101710379123688,-2.1245181560516357,-0.014121174812316895,0.2574579119682312,1.4292647948094592,-0.2026265868306153,-2.902518762216949
1687101917.1510792,0.9673699140548706,0.222563236951828,-0.1210828572511673,-0.19628220796585083,0.8265088796615601,-0.24598266184329987,1.9729676246643066,0.5563232898712158,-0.8574673533439636,1.4462768344821002,-0.224442859462167,-2.9073991979996254
1687101917.167474,0.9587136507034302,0.25856804847717285,-0.11836623400449753,0.04334622621536255,0.17104297876358032,0.054462313652038574,0.7385991215705872,0.26880842447280884,-0.9277803897857666,1.4479543919368032,-0.26153954129882,-2.9873282845121443
1687101917.2398782,0.9462758898735046,0.30187150835990906,-0.11591123789548874,0.07313323020935059,0.031410783529281616,-0.025415770709514618,-0.1170850396156311,0.0777641087770462,-0.941055953502655,1.448911488661757,-0.3066551433619804,-3.0133841326674284
1687101917.2446098,0.9322354793548584,0.3456225097179413,-0.10715405642986298,0.07714861631393433,-0.091350257396698,-0.015908174216747284,0.03629983216524124,0.12072522193193436,-0.8557342886924744,1.456355432395883,-0.35290210190966903,-3.0048773378089195
1687101917.248466,0.9177037477493286,0.38291066884994507,-0.10582630336284637,0.008901476860046387,-0.1597510278224945,0.05603677034378052,0.34592944383621216,0.18757353723049164,-0.767254650592804,1.4559870259046879,-0.392945039149105,-3.0279191888429295
1687101917.300439,0.9085001945495605,0.4044049084186554,-0.10527981072664261,0.06589549779891968,-0.24673601984977722,0.039377033710479736,-0.21545372903347015,0.09219721704721451,-0.35938793420791626,1.4554278244232854,-0.41632805853120475,-3.037754640486505
1687101917.390401,0.9042534232139587,0.41596752405166626,-0.09641864150762558,0.040219783782958984,-0.20303130149841309,0.05039805918931961,0.061977073550224304,0.14714914560317993,-0.09971698373556137,1.4645697921304488,-0.42900647087548466,-3.0314129270551673
1687101917.4789,0.9047636389732361,0.4158863425254822,-0.0918763130903244,-0.003106534481048584,-0.22351893782615662,0.02040410041809082,0.0904584601521492,0.2162199467420578,0.006916495505720377,1.469595924080826,-0.4289172016261462,-3.0384919552319536
1687101917.485256,0.908189058303833,0.40975213050842285,-0.08541425317525864,0.014998137950897217,-0.15688365697860718,-0.02565455436706543,0.15356716513633728,0.21672983467578888,0.2176610827445984,1.4770231838745973,-0.42218232650259313,-3.0462748305645846
1687101917.572108,0.91447514295578,0.397261381149292,-0.07693009078502655,0.02798384428024292,-0.08608916401863098,-0.01425652951002121,0.23678834736347198,0.240532785654068,0.3193906247615814,1.4868690867006429,-0.40853071489224496,-3.0513939079098753
1687101917.590384,0.9220001101493835,0.38089215755462646,-0.06954758614301682,0.052380383014678955,-0.11673218011856079,-0.02641505002975464,-0.11716967076063156,0.148080512881279,0.4255492091178894,1.4955076955835678,-0.3907609951937207,-3.0571188426437343
1687101917.6538181,0.9300417900085449,0.3620848059654236,-0.06258408725261688,-0.015506267547607422,0.07816159725189209,-0.057289063930511475,0.2618255317211151,0.1582765281200409,0.4017506539821625,1.503605927261813,-0.37050349381671777,-3.056995591360511
1687101917.658442,0.937515914440155,0.34286314249038696,-0.05923585593700409,-0.02279716730117798,0.03975081443786621,-0.03965640813112259,-0.09685295075178146,0.061954155564308167,0.371187686920166,1.507696363311707,-0.34996308863013353,-3.0582424483901347
1687101917.752015,0.9423787593841553,0.32963258028030396,-0.057135723531246185,-0.0022237300872802734,0.11912822723388672,-0.04782956838607788,-0.038043003529310226,-0.004929859656840563,0.2065189927816391,1.5102411940159521,-0.33591436582993706,-3.054534796888771
1687101917.7688432,0.9442685842514038,0.3238024413585663,-0.05923527106642723,0.0024935007095336914,0.188221275806427,-0.07734626531600952,0.24470657110214233,0.009421595372259617,0.0073079802095890045,1.5081470390894507,-0.3297457141456758,-3.0599226691581527
1687101917.832722,0.9439355134963989,0.32336100935935974,-0.06650788336992264,0.008121311664581299,0.11418458819389343,-0.04706341028213501,0.08186689019203186,-0.14646674692630768,-0.04266523942351341,1.5004544963739495,-0.32927918030253406,-3.0699652876967285
1687101917.846581,0.9408910274505615,0.33064505457878113,-0.07347080111503601,-0.014224767684936523,0.11442312598228455,0.015838265419006348,0.07002274692058563,-0.10388839989900589,-0.2308289259672165,1.492868051713269,-0.3369870019579498,-3.0739325803577064
1687101917.893791,0.9361862540245056,0.34251701831817627,-0.07897628098726273,-0.0012649893760681152,0.03702989220619202,0.014675676822662354,0.12211252748966217,-0.07064511626958847,-0.2448815256357193,1.486636010562351,-0.34959466583954363,-3.080422314154351
1687101918.019232,0.9310360550880432,0.3556826710700989,-0.08161944895982742,0.0063114166259765625,0.018432170152664185,0.05282597988843918,0.210995152592659,0.006109528709203005,-0.26277825236320496,1.4833546836342726,-0.36364440737273535,-3.0876107091879312
1687101918.0369039,0.9267591834068298,0.36586514115333557,-0.08520457148551941,0.020689427852630615,-0.057119011878967285,0.06422365456819534,0.12011515349149704,0.03918790817260742,-0.2300175130367279,1.4791158579109678,-0.37456222549143364,-3.100478985773972
1687101918.110867,0.9228435754776001,0.3761182725429535,-0.08303293585777283,0.0058214664459228516,-0.06348118185997009,0.05858827382326126,0.17533376812934875,0.13935422897338867,-0.21420854330062866,1.4810628628977702,-0.3856033870425808,-3.1069917682259156
1687101918.1156502,0.9204428195953369,0.3826339840888977,-0.07984928041696548,0.022519707679748535,-0.0985918641090393,0.04583735018968582,0.19501304626464844,0.1821020245552063,-0.09800177812576294,1.484262030695567,-0.3926455626695408,-3.120453654057077
1687101918.198041,0.9200837016105652,0.38509401679039,-0.07175156474113464,0.008581340312957764,-0.08760890364646912,0.03929603844881058,0.07623233646154404,0.2294445037841797,-0.017159637063741684,1.4929701001909064,-0.3953097088194718,-3.124743912195163
1687101918.215334,0.9214984178543091,0.3831422030925751,-0.06358364969491959,0.012949943542480469,-0.07828697562217712,0.006088428199291229,0.07840403914451599,0.2176050990819931,0.08234414458274841,1.501905241702381,-0.393195713950497,-3.131109521768174
1687101918.318881,0.9241686463356018,0.3779493570327759,-0.055376093834638596,0.00022405385971069336,-0.035084545612335205,-0.027204573154449463,0.18365488946437836,0.19718840718269348,0.1257217526435852,1.5109479844215057,-0.38758035145235303,-3.135744462533346
1687101918.336266,0.9278727769851685,0.36926230788230896,-0.051937494426965714,-0.005402565002441406,-0.014922857284545898,-0.058978743851184845,0.1295953243970871,0.1296432912349701,0.16894297301769257,1.5148798733749174,-0.3782150902592692,3.138218373415461
1687101918.405663,0.9309068918228149,0.3617144227027893,-0.050745151937007904,0.013505339622497559,0.022059202194213867,-0.06711381673812866,0.1426195651292801,0.04168243706226349,0.1488426923751831,1.516338700414199,-0.370106173410627,3.131741564009026
1687101918.4207358,0.933242678642273,0.3549477756023407,-0.05540905520319939,0.004455685615539551,0.03254896402359009,-0.05497312545776367,-0.04153962805867195,-0.07091015577316284,0.11657237261533737,1.5114933310910592,-0.3628582125868147,3.127309449475217
1687101918.532103,0.9341244101524353,0.35154467821121216,-0.061869390308856964,-0.0033687949180603027,0.06833118200302124,-0.05339556559920311,0.1593935787677765,-0.09578988701105118,0.04072454944252968,1.5046604269074333,-0.35922060154957075,3.1247958936426903
1687101918.550695,0.9334375262260437,0.3522029221057892,-0.06817186623811722,-0.014705836772918701,0.0384371280670166,-0.012959182262420654,0.06562384217977524,-0.06216726079583168,-0.04692334309220314,1.4978926271302748,-0.35992382060665745,3.118976574919777
1687101918.6147928,0.9320001006126404,0.35463306307792664,-0.07490488141775131,0.011374354362487793,0.027507811784744263,-0.008072488009929657,0.1093333512544632,-0.10935895889997482,-0.02913782186806202,1.4905986676876384,-0.3625215974193953,3.1120252911963497
1687101918.62891,0.9304338693618774,0.3573329448699951,-0.08127619326114655,0.010285735130310059,0.01841449737548828,0.029304690659046173,0.038825783878564835,-0.12433396279811859,-0.0548054575920105,1.483664496296107,-0.3654107530548651,3.1098848226402005
