Timestamp,gravityX,gravityY,gravityZ,accelerationX,accelerationY,accelerationZ,rotationRateX,rotationRateY,rotationRateZ,attitudeRoll,attitudePitch,attitudeYaw
1687088748.641542,0.9067533612251282,0.39572542905807495,0.14560221135616302,-0.0063169002532958984,0.014995396137237549,0.020703434944152832,0.03974144905805588,0.00983930379152298,-0.008213493973016739,1.7300125079361883,-0.40685762598462205,2.97664190218099
1687088748.648268,0.9053525328636169,0.39796170592308044,0.14820069074630737,-0.006640315055847168,0.0007657408714294434,0.022438406944274902,0.027263369411230087,0.03070591762661934,-0.020371289923787117,1.7330512066064536,-0.40929395061756657,2.97582675279704
1687088748.736034,0.9041239023208618,0.3998149335384369,0.15069107711315155,0.005788087844848633,-0.0007671117782592773,0.010548561811447144,0.11451869457960129,0.0399019718170166,-0.015359398908913136,1.7359490522795222,-0.4113149312664352,2.9733491579188662
1687088748.822435,0.9031295776367188,0.4012751281261444,0.15275947749614716,0.0007858872413635254,0.002197772264480591,0.012066125869750977,0.12239696830511093,0.05839581415057182,-0.005277914460748434,1.7383549730622354,-0.412908561907108,2.967851404694629
1687088748.829156,0.9022963047027588,0.40252283215522766,0.15439286828041077,-0.004056990146636963,0.0025827884674072266,-0.004826053977012634,0.12359843403100967,0.08829943835735321,-0.012097514234483242,1.7402661248840612,-0.41427115342524345,2.9609169437318923
1687088748.914113,0.9011371731758118,0.40386611223220825,0.15762007236480713,0.0009014606475830078,0.006015479564666748,0.003345012664794922,0.09831608086824417,0.08985850214958191,-0.013256767764687538,1.7439570060152039,-0.41573902531819223,2.9564741084097137
1687088748.9307609,0.9001705646514893,0.4052866995334625,0.15948644280433655,0.007818996906280518,-0.013990283012390137,-0.00964510440826416,0.023772604763507843,0.08225864171981812,-0.0216976348310709,1.7461502048316466,-0.4172924167603381,2.951678918908556
1687088749.00016,0.8995161652565002,0.4059790074825287,0.16140618920326233,-0.0007581710815429688,-0.0009954869747161865,-0.01586782932281494,0.07505262643098831,0.07405680418014526,-0.006482595112174749,1.7483435608105407,-0.418049846387954,2.949128827661825
1687088749.00448,0.8992632627487183,0.40631452202796936,0.16197098791599274,0.009611368179321289,-0.004931986331939697,-0.0198504775762558,0.033994775265455246,0.047157593071460724,-0.006507141049951315,1.749000852410995,-0.4184169886545636,2.9460463447427503
1687088749.093042,0.8992436528205872,0.4067005515098572,0.16110678017139435,-0.0007146596908569336,0.002631664276123047,-0.011372223496437073,0.0762171670794487,0.05911684036254883,0.006117374636232853,1.7480736655322315,-0.4188395028937588,2.9421805006311783
1687088749.11006,0.8994600176811218,0.40679407119750977,0.1596577763557434,0.0077362060546875,-0.00429767370223999,-0.010243639349937439,0.06921982020139694,0.029489757493138313,0.0071705663576722145,1.7464705709230754,-0.41894187632443225,2.9364783934141236
1687088749.14763,0.8996739387512207,0.40650638937950134,0.15918415784835815,0.004165291786193848,-0.00993037223815918,-0.013203248381614685,-0.009652731008827686,0.026920286938548088,0.008247770369052887,1.745919256191408,-0.4186269994319571,2.9344734856635037
1687088749.244896,0.9002189636230469,0.4056786894798279,0.15821079909801483,0.001743316650390625,0.0038824379444122314,-0.008964553475379944,0.028444161638617516,0.02261081337928772,0.01968422718346119,1.7447667149608856,-0.41772125644956326,2.932899878933304
1687088749.26085,0.9004919528961182,0.40503621101379395,0.15830448269844055,0.007314622402191162,-0.006507068872451782,-0.01842711865901947,-0.0004394720308482647,0.009632003493607044,0.01123707927763462,1.74481595934216,-0.41701844069600935,2.9324045091594666
1687088749.299705,0.9009128212928772,0.40447941422462463,0.15732930600643158,0.0011257529258728027,-0.008101880550384521,-0.013270989060401917,0.016251198947429657,-0.020821988582611084,0.013152025640010834,1.7436860775435845,-0.41640952389150093,2.931433088429095
1687088749.3920379,0.9018402099609375,0.4036206901073456,0.1541910320520401,0.004409909248352051,-0.002741694450378418,-0.013672813773155212,0.026009660214185715,-0.02818504348397255,0.030322201550006866,1.7401327501952766,-0.41547077092337636,2.9285343116680527
1687088749.4084911,0.9028866291046143,0.4025267958641052,0.15089066326618195,0.006491422653198242,0.0004273653030395508,-0.0006830692291259766,0.03607182577252388,-0.047518156468868256,0.027669139206409454,1.7363863138748148,-0.41427546833761625,2.9267679044498585
1687088749.446813,0.9037212133407593,0.40178540349006653,0.14783921837806702,-0.0016521811485290527,0.011788785457611084,0.016116484999656677,0.009524958208203316,-0.042720574885606766,0.00799754448235035,1.7329494224448356,-0.413465725672809,2.9253461348686094
1687088749.542293,0.9038958549499512,0.40179815888404846,0.14673274755477905,-0.009120523929595947,0.019695371389389038,0.013698205351829529,0.07064557075500488,0.01095037441700697,-0.00040701497346162796,1.7317261901892484,-0.41347963573341184,2.923088334760387
1687088749.5588732,0.9031379222869873,0.40274521708488464,0.14878962934017181,-0.0018622875213623047,-0.010838478803634644,0.01574598252773285,-0.021950941532850266,0.03828958794474602,-0.013054988346993923,1.7340770372478833,-0.41451409082710655,2.921695734524367
1687088749.597563,0.902216374874115,0.40341928601264954,0.15250886976718903,0.004659414291381836,-0.009086310863494873,-0.008145317435264587,-0.030484668910503387,0.017029892653226852,-0.004722178913652897,1.7382513709765242,-0.4152506315037115,2.9245832937020264
1687088749.692986,0.9019991159439087,0.40333497524261475,0.15400850772857666,0.006890714168548584,-0.019790053367614746,-0.02249288558959961,-0.005181549582630396,-0.007019038312137127,0.007067146711051464,1.7399068810818064,-0.41515851425869604,2.9258082384185276
1687088749.708705,0.9027942419052124,0.40211808681488037,0.15252409875392914,0.005271494388580322,-0.02553120255470276,-0.020169273018836975,-0.003623654367402196,-0.015036910772323608,0.03402606025338173,1.7381625859959557,-0.4138290396196831,2.9251494184322464
1687088749.747108,0.9039349555969238,0.4001501202583313,0.15093640983104706,0.0017811059951782227,0.00011849403381347656,0.028415456414222717,-0.09167660027742386,0.00010007084347307682,0.010046469047665596,1.7362469987302185,-0.411680655616017,2.92639048393077
1687088749.8459249,0.9033269286155701,0.39926886558532715,0.15679632127285004,0.004128575325012207,0.01158931851387024,0.10199283063411713,-0.39278367161750793,0.1592741757631302,-0.05901164561510086,1.7426604589157781,-0.41071923592984005,2.9371723937483445
1687088749.860642,0.8989796042442322,0.39990076422691345,0.17864857614040375,-0.018974661827087402,0.038713157176971436,0.1686415672302246,-0.36065492033958435,0.42146721482276917,-0.13760718703269958,1.7669644012956183,-0.41140855877831767,2.9642565476281963
1687088749.897732,0.8883705735206604,0.4092462658882141,0.20812362432479858,-0.047901153564453125,0.10657709836959839,0.2112337350845337,0.3453870713710785,0.9419662952423096,-0.3256920874118805,1.8009217660361851,-0.4216278421176965,2.967972038029582
1687088749.9856791,0.8626330494880676,0.43508145213127136,0.2580089271068573,-0.01804375648498535,0.14675146341323853,0.33258259296417236,0.07540415972471237,1.6114333868026733,-0.7180755734443665,1.8614223208242537,-0.45012874896992483,2.9611307628780237
1687088749.989285,0.8129952549934387,0.47611722350120544,0.33518877625465393,0.0871361494064331,0.2575559616088867,0.27497974038124084,0.749081552028656,2.349139451980591,-0.9972419142723083,1.961851347070099,-0.49623404853778824,2.961940639215807
1687088750.110348,0.7353855967521667,0.5411633849143982,0.4078608751296997,0.16398274898529053,0.2327013611793518,0.35103511810302734,1.649378776550293,2.906909227371216,-1.240393877029419,2.0771810050722466,-0.5718199424513254,2.930156884855002
1687088750.1267471,0.6274623274803162,0.6408396363258362,0.44228482246398926,0.32952314615249634,0.3337240219116211,0.3423222303390503,3.116655111312866,3.116443395614624,-1.7139272689819336,2.184789066873062,-0.695591508554032,2.8525518856830434
1687088750.202055,0.48250818252563477,0.773729145526886,0.4105234742164612,0.5143943428993225,0.33114469051361084,0.44508272409439087,3.2248339653015137,3.0827107429504395,-2.598376989364624,2.275761251717362,-0.8847065651340729,2.7546389701844665
1687088750.207117,0.2929529547691345,0.883255124092102,0.3661135137081146,0.7176519632339478,0.19230645895004272,0.33971238136291504,1.7718042135238647,2.8184432983398438,-3.8725616931915283,2.4667482121377224,-1.0827595738507187,2.8067299473023612
1687088750.2928581,0.04372142255306244,0.9380134344100952,0.3438303470611572,0.8298289775848389,0.17363512516021729,0.30567535758018494,0.4233434498310089,3.2677316665649414,-4.477752208709717,3.015111583255148,-1.2168534332062197,-3.044119042359366
1687088750.308847,-0.22176213562488556,0.9286603927612305,0.2973407804965973,0.9823059439659119,-0.06751537322998047,0.09351325035095215,1.3030041456222534,3.0334789752960205,-4.342259407043457,-2.500773340426397,-1.1907849564272435,-2.3963835373224702
1687088750.348511,-0.4275176525115967,0.8879992365837097,0.1693699061870575,0.8717467784881592,-0.9765459895133972,-0.34936249256134033,1.8838831186294556,1.9823569059371948,-3.2113304138183594,-1.9479971255882333,-1.0929758192726613,-1.9297854180324607
1687088750.446028,-0.525098979473114,0.8473794460296631,0.07886257022619247,0.5844098329544067,-1.297055959701538,-0.5426075458526611,1.1147873401641846,0.4285432994365692,-0.7711753845214844,-1.7198682801459744,-1.0110304847129647,-1.7429778621276297
1687088750.460295,-0.514310359954834,0.8569014072418213,0.03471212461590767,0.19611889123916626,-0.8134443759918213,-0.3715651035308838,1.0806477069854736,-0.43611985445022583,1.0221481323242188,-1.6381866893955264,-1.0292281845938032,-1.637654859954488
1687088750.531956,-0.45937901735305786,0.888083815574646,0.016682369634509087,0.031705617904663086,0.02620762586593628,-0.004765152931213379,0.1858043372631073,-0.5143300890922546,1.1586809158325195,-1.607095421786893,-1.0931597499461374,-1.5722863066441954
1687088750.5459309,-0.4247415363788605,0.9050354361534119,0.022483838722109795,-0.15353608131408691,0.46083980798721313,0.08597564697265625,-0.06052757799625397,-0.04916153848171234,0.42289599776268005,-1.6236823073873285,-1.1314630609179008,-1.574013246463933
1687088750.587362,-0.417347252368927,0.908372700214386,0.02608639746904373,-0.18003436923027039,0.1733992099761963,-0.03257131576538086,-0.05324622616171837,0.055817075073719025,-0.028565194457769394,-1.633220375803765,-1.1393759629831286,-1.586934499626026
1687088750.651321,-0.42261797189712524,0.9060793519020081,0.02035846747457981,-0.13121503591537476,-0.02261066436767578,-0.07054448127746582,0.14616212248802185,-0.07128739356994629,-0.15071286261081696,-1.6189313883157364,-1.1339237382488012,-1.571189625357146
1687088750.746691,-0.4306055009365082,0.9023358225822449,0.019213732331991196,-0.09898132085800171,-0.07733887434005737,-0.01977825164794922,0.08899837732315063,-0.140431210398674,-0.210005983710289,-1.6153870162831756,-1.1251583264521647,-1.561024112646996
1687088750.7618608,-0.43874219059944153,0.8984171152114868,0.018759552389383316,-0.06168505549430847,-0.10567730665206909,0.02697109989821911,0.03686417266726494,-0.0671558752655983,-0.11605793237686157,-1.6135278751473705,-1.116151626642806,-1.551916545363401
1687088750.799076,-0.4450601041316986,0.8953596353530884,0.01589243859052658,0.011817306280136108,-0.034535109996795654,0.01909601502120495,0.13201220333576202,-0.14859816431999207,-0.04513023421168327,-1.606489684640828,-1.109238156149772,-1.5376542902946153
1687088750.892653,-0.44764313101768494,0.893964409828186,0.021052759140729904,-0.055667996406555176,-0.07101219892501831,-0.02628648653626442,-0.04524971544742584,-0.2590385377407074,-0.030682895332574844,-1.617791928792075,-1.1061149227452285,-1.5387927556241094
1687088750.909095,-0.4506424367427826,0.8920626044273376,0.0338510237634182,-0.19854280352592468,-0.08952653408050537,0.006737470626831055,-0.549422025680542,-0.09259125590324402,-0.0914667472243309,-1.6457727718133341,-1.1018890326675475,-1.5579825309577515
1687088750.9474912,-0.4539336860179901,0.8884660005569458,0.06761845201253891,-0.2783966362476349,0.002891361713409424,0.007256500422954559,-0.44731220602989197,0.2085408866405487,-0.19385814666748047,-1.7186700616462693,-1.0939918122816394,-1.647002758956743
1687088751.071303,-0.4724445044994354,0.8792206645011902,0.061377208679914474,-0.3474254608154297,0.07431626319885254,0.10404347628355026,-0.02034500241279602,0.6300076842308044,-0.5725163817405701,-1.6999868667420446,-1.0742239171919317,-1.6481676871149613
1687088751.077349,-0.4972800612449646,0.865240752696991,0.0638035237789154,-0.4805793762207031,-0.18958163261413574,0.03597377985715866,-0.9683500528335571,0.93062824010849,-0.3204953968524933,-1.6984041474078724,-1.0456303609115023,-1.696048104176983
1687088751.160681,-0.5104079246520996,0.8592366576194763,0.034584783017635345,-0.4262832999229431,0.053788185119628906,0.020743604749441147,1.0379821062088013,0.8164615035057068,-0.05122099444270134,-1.6384520096506825,-1.0337757025005916,-1.670768115844054
1687088751.176766,-0.4892374873161316,0.8719115853309631,0.02041613683104515,-0.45261120796203613,-0.3720489740371704,-0.012023689225316048,-1.0880430936813354,0.6257453560829163,1.0339977741241455,-1.6125026512216283,-1.0590927689527039,-1.6894471847498163
1687088751.252163,-0.4228038489818573,0.9054229855537415,-0.03802650049328804,-0.4876117706298828,0.03084099292755127,-0.1443312168121338,3.2756359577178955,0.24777452647686005,2.248298406600952,-1.481098785310098,-1.1323750804134243,-1.5611216820442813
1687088751.2569451,-0.2559613883495331,0.9598211050033569,-0.11501020193099976,0.03000923991203308,-0.9863560795783997,-0.19777965545654297,-0.9440922737121582,1.4410815238952637,4.811635494232178,-1.1485027292692545,-1.286364024505022,-1.2376556576873543
1687088751.343725,-0.0019043886568397284,0.9936637878417969,-0.11237749457359314,2.055417060852051,0.5866432785987854,0.3340572714805603,0.6695132255554199,-2.284787654876709,4.247653484344482,-0.016944730032384683,-1.458164883086692,-0.13261492693735744
1687088751.359328,-0.03333325684070587,0.9986980557441711,-0.03861524537205696,0.5399555563926697,1.2217304706573486,1.28242027759552,-4.428542137145996,-3.2106051445007324,-3.8768811225891113,-0.7121161616619794,-1.5197622075281008,-0.6185010296992233
1687088751.398738,-0.10744921863079071,0.9876267910003662,-0.11422860622406006,-0.1587098389863968,-0.35479891300201416,-0.22183085978031158,5.360484600067139,3.165964365005493,1.51699697971344,-0.7548255221331464,-1.4133237623502113,-0.7673832906300899
1687088751.493753,-0.048443373292684555,0.9789072275161743,-0.19847945868968964,0.5642820000648499,-0.644388735294342,0.2614525556564331,-2.444563865661621,-1.5780389308929443,-0.7419015765190125,-0.2393920979255241,-1.3650422674770584,-0.23239648668583904
1687088751.511044,-0.10449520498514175,0.9888144135475159,-0.10642887651920319,-0.26762092113494873,-0.18939101696014404,-0.39671432971954346,1.0737040042877197,0.44388267397880554,0.15838585793972015,-0.7762307969075908,-1.42108640026274,-0.7349485648876248
1687088751.54812,-0.06915035843849182,0.9820946455001831,-0.17523880302906036,0.053357504308223724,-0.24688023328781128,0.15524981915950775,0.08599602431058884,0.1744104027748108,0.2641579210758209,-0.37584810058285906,-1.3812756508719672,-0.3702217350639267
1687088751.612901,-0.0736846849322319,0.9877505302429199,-0.13754871487617493,0.006713837385177612,0.07600075006484985,0.015753090381622314,-0.7374382615089417,-0.31311866641044617,-0.026489172130823135,-0.4917971438188842,-1.4141147615070857,-0.46649060384559393
1687088751.6273022,-0.07414945214986801,0.9894718527793884,-0.12428702414035797,-0.014427803456783295,0.24084430932998657,0.055210597813129425,-0.1230345219373703,0.21140165627002716,-0.12174968421459198,-0.5379146429629146,-1.4255609891051468,-0.5108471516257299
1687088751.666696,-0.08251737058162689,0.9901416897773743,-0.11318356543779373,0.0844857394695282,-0.026060819625854492,-0.08113706111907959,-0.10573744773864746,0.14239655435085297,-0.16111628711223602,-0.6299628828435013,-1.4302648787719148,-0.6145479387326741
1687088751.728777,-0.08866725862026215,0.9902750253677368,-0.10720926523208618,0.12376245856285095,0.011083126068115234,0.022889256477355957,-0.4284893870353699,0.22152039408683777,-0.378152072429657,-0.6910176863820552,-1.4312198206226645,-0.6860453920327423
1687088751.790288,-0.11635502427816391,0.9900084137916565,-0.07965458929538727,0.18225771188735962,-0.081912100315094,-0.08738326281309128,-0.2717818319797516,0.27789339423179626,-0.5971192121505737,-0.9704929433310349,-1.4293166357906901,-0.9789422273024281
1687088751.851849,-0.14959000051021576,0.986786425113678,-0.062253549695014954,0.20938920974731445,0.0647730827331543,0.20193254947662354,-1.1404610872268677,0.43858304619789124,-1.0983411073684692,-1.1764359845423193,-1.4080526750695752,-1.2070162114357441
1687088751.9427829,-0.19491168856620789,0.9795485734939575,-0.049941159784793854,0.067088782787323,-0.006526052951812744,-0.044205427169799805,0.3759820759296417,0.8706293106079102,-0.5209499001502991,-1.3199678883366273,-1.3682055080854867,-1.3796933476562618
1687088751.960178,-0.2533999979496002,0.9670482277870178,-0.024621902033686638,0.4920627176761627,0.14113658666610718,0.28586769104003906,-1.5638848543167114,0.36631932854652405,-2.016247510910034,-1.473934251638732,-1.3133691927033224,-1.580804502479471
1687088751.997504,-0.3439154028892517,0.9371598958969116,-0.058765754103660583,0.2534308135509491,0.4761701226234436,-0.00870852917432785,2.6472816467285156,1.2514375448226929,-1.8802632093429565,-1.401558106237617,-1.2143990402941465,-1.5374403061653412
1687088752.093182,-0.4281301498413086,0.8885616660118103,-0.16481074690818787,0.413115531206131,-0.35488563776016235,0.009049087762832642,0.9250483512878418,0.04915235564112663,-1.9254125356674194,-1.2033268614175323,-1.0942002929169143,-1.3755320153303379
1687088752.1104832,-0.47706910967826843,0.8586045503616333,-0.18762530386447906,-0.19341734051704407,-0.5390855669975281,-0.1502499282360077,-0.08218877017498016,0.5451787114143372,-0.45224708318710327,-1.1960899674244985,-1.0325413109075414,-1.3797823227790114
1687088752.147984,-0.49411043524742126,0.8524973392486572,-0.17059656977653503,0.22389253973960876,-0.14040017127990723,-0.10747955739498138,-0.6677983403205872,-0.5843117833137512,-0.44324585795402527,-1.2383504469767441,-1.020744339137359,-1.4267813135517453
1687088752.243015,-0.5110432505607605,0.8504721522331238,-0.12462815642356873,-0.12575185298919678,0.1079477071762085,-0.04985606670379639,-0.26364436745643616,-0.40543171763420105,-0.19710677862167358,-1.3315952695482134,-1.0168822770384427,-1.494607286623338
1687088752.259856,-0.5280552506446838,0.8453781008720398,-0.08058257400989532,0.24453169107437134,0.2376754879951477,0.115937240421772,-1.2687196731567383,-1.136576771736145,-0.5918139219284058,-1.4193620750670934,-1.0072726198502635,-1.56789727676063
1687088752.298949,-0.5560593008995056,0.8306414484977722,-0.028861872851848602,-0.36511385440826416,-0.04177725315093994,0.07222741842269897,0.11652203649282455,-0.27603089809417725,-0.26734867691993713,-1.5189385572145133,-0.980258666605761,-1.6241625549363117
1687088752.393995,-0.5504531264305115,0.8348459601402283,-0.005786305293440819,-0.14775854349136353,-0.43988752365112305,0.022403180599212646,-0.5916070342063904,-0.931553840637207,0.47049766778945923,-1.5602848198528634,-0.9878529094871247,-1.6463583354792655
1687088752.4109201,-0.5168073773384094,0.8557578921318054,0.024260487407445908,-0.3843461275100708,-0.2720939517021179,-0.1183004379272461,0.0032145981676876545,-0.36247408390045166,1.005603551864624,-1.6177048866468198,-1.0270138955245895,-1.6742888776888303
1687088752.447689,-0.47432705760002136,0.879263699054718,0.04369866102933884,-0.3120500147342682,-0.02728903293609619,-0.005368467420339584,-0.6346445083618164,-0.39074262976646423,0.8396750688552856,-1.6626647005135378,-1.0743142250735462,-1.700176272576321
1687088752.542923,-0.4467218518257141,0.8905441164970398,0.0858556255698204,-0.25852417945861816,0.21342945098876953,-0.007364265620708466,-0.36188918352127075,-0.15136003494262695,0.36150026321411133,-1.760671445993507,-1.098539917674141,-1.7908740246750607
1687088752.5602689,-0.4354041516780853,0.8960813879966736,0.08637809753417969,-0.1409507691860199,0.060125768184661865,-0.02880670130252838,-0.12317454814910889,0.11209999769926071,0.1784333884716034,-1.7666395043994856,-1.1108613583021478,-1.8028049528547314
1687088752.599163,-0.4266769587993622,0.8986796736717224,0.1015961691737175,-0.006169140338897705,-0.04720866680145264,-0.10466313362121582,-0.33276283740997314,-0.09144560992717743,0.22244885563850403,-1.8045537337027546,-1.1167499384652595,-1.8460474681806542
1687088752.6918569,-0.4135895371437073,0.9052556157112122,0.09724094718694687,0.06704717874526978,-0.012448728084564209,-0.17428256571292877,0.5736956000328064,-0.2772200405597687,0.363800048828125,-1.8017169006118257,-1.131980962663667,-1.8302869869408709
1687088752.697888,-0.3884844481945038,0.9172886610031128,0.08752940595149994,0.07187983393669128,-0.1807774305343628,-0.09857679158449173,0.019832510501146317,-0.4351089596748352,0.6588698029518127,-1.7924057435649698,-1.1612176018109526,-1.802574178447396
1687088752.752202,-0.3465977907180786,0.9324515461921692,0.10200100392103195,0.05668079853057861,-0.2252677083015442,-0.09543967992067337,-0.12758053839206696,-0.555060625076294,1.0955545902252197,-1.8570083425549115,-1.201139949924249,-1.8440739002542659
1687088752.842905,-0.27552321553230286,0.9535332322120667,0.12190760672092438,0.08481886982917786,-0.5053368210792542,-0.12846875190734863,-0.5315412282943726,-0.6457510590553284,1.8655955791473389,-1.9873611137178995,-1.2647533779496278,-1.9497500329936117
1687088752.860234,-0.15955056250095367,0.9706693887710571,0.17984600365161896,0.21652688086032867,-0.39210188388824463,-0.14133276045322418,-1.320613145828247,-1.0794166326522827,2.613147258758545,-2.415921963166087,-1.3279995271185252,-2.35425664109091
1687088752.898567,-0.01103280857205391,0.9676483273506165,0.25206124782562256,0.2682349681854248,-0.235440194606781,-0.21922427415847778,-1.7659690380096436,-1.7718693017959595,2.779984474182129,-3.097850224891788,-1.3157369247548134,-2.979045566454912
1687088753.027874,0.1516527533531189,0.9192575216293335,0.36327317357063293,0.3564649224281311,0.08350443840026855,-0.10600981116294861,-2.55183482170105,-2.636928081512451,2.5596859455108643,2.746124030194176,-1.1661902036724205,2.9532682439567797
1687088753.0461268,0.33146193623542786,0.8497844338417053,0.40987738966941833,0.14850327372550964,0.027809500694274902,-0.20141178369522095,-1.6358678340911865,-2.755121946334839,2.797964572906494,2.4615780242208127,-1.0155762020864443,2.803285813046047
1687088753.1081471,0.502177357673645,0.7472860217094421,0.43517982959747314,0.3957412838935852,0.05631810426712036,0.10763639211654663,-2.5321385860443115,-3.3145592212677,2.5240135192871094,2.28484089361312,-0.843968375166551,2.762904279505961
1687088753.111984,0.6549407243728638,0.6176747679710388,0.4353509843349457,0.26824653148651123,-0.0027455687522888184,0.1668371558189392,-2.820225954055786,-3.4066567420959473,2.168886184692383,2.157448749403337,-0.6657825526961757,2.820922543421484
1687088753.202509,0.7827145457267761,0.508520245552063,0.35883885622024536,0.4258732199668884,0.09853541851043701,0.3146383762359619,-1.3171048164367676,-3.8725955486297607,1.529090404510498,2.000658581982296,-0.5334653888315045,2.8778025241706136
1687088753.20805,0.868705689907074,0.4434194266796112,0.22074855864048004,0.3088608980178833,0.24829202890396118,0.3897252082824707,0.2710186243057251,-3.250688314437866,1.2621877193450928,1.8196413751915848,-0.45941008427865443,2.875487061416579
1687088753.293332,0.9099343419075012,0.40153297781944275,0.10387865453958511,0.18926304578781128,0.29503071308135986,0.6165194511413574,-0.520061194896698,-1.8669352531433105,0.48247030377388,1.6844648304602308,-0.41319007544852193,2.8643521096945905
1687088753.310477,0.9201334714889526,0.38618776202201843,0.0649128407239914,-0.03487950563430786,0.27842408418655396,0.08729362487792969,0.39413341879844666,-0.1677560955286026,0.2915923595428467,1.6412268397142826,-0.39649513972253386,2.8749576326092647
1687088753.3472419,0.9252049326896667,0.37665826082229614,0.04609421268105507,-0.07641935348510742,0.13577771186828613,0.2597987651824951,0.011278968304395676,-0.3762224614620209,0.1850949376821518,1.6205757106550465,-0.3861862302524863,2.855608053515261
1687088753.4422212,0.9278724789619446,0.37172257900238037,0.02958502806723118,-0.051865220069885254,0.08929124474525452,0.2034626007080078,-0.21940948069095612,-0.3734738826751709,-0.06111607700586319,1.6026703275122904,-0.38086388365972645,2.8642017523565246
1687088753.4597468,0.9258494973182678,0.3771507740020752,0.023662080988287926,-0.007346808910369873,0.01162785291671753,0.15590345859527588,-0.0390753336250782,-0.028460415080189705,-0.1532726138830185,1.596347920295632,-0.3867179403336675,2.8693881466460813
1687088753.530744,0.9223512411117554,0.38540950417518616,0.026979800313711166,-0.025546371936798096,-0.04254451394081116,0.09850859642028809,-0.27161866426467896,0.08321812748908997,-0.16640903055667877,1.6000391008589165,-0.39565157787297106,2.877600304363747
1687088753.622371,0.9192869067192078,0.3917856216430664,0.03762797638773918,-0.03090488910675049,-0.05558866262435913,0.0589907169342041,-0.30923008918762207,0.11983387917280197,-0.13957229256629944,1.6117051916569036,-0.4025715566119441,2.8939711196546094
1687088753.628366,0.9172396063804626,0.3954467475414276,0.04789126664400101,-0.006793320178985596,-0.04998776316642761,0.05000925064086914,-0.10656137764453888,0.11428891122341156,-0.018648270517587662,1.622961342502941,-0.40655419818287447,2.906491479244791
1687088753.712088,0.9172079563140869,0.3948134481906891,0.053402747958898544,0.01466149091720581,-0.020240724086761475,-0.006756551563739777,0.12151668965816498,0.2060272991657257,0.046190712600946426,1.6289538315738055,-0.4058648106971958,2.904163129020914
1687088753.729692,0.9178791046142578,0.39162907004356384,0.06422554701566696,0.0005627274513244629,-0.023632854223251343,-0.04625058174133301,0.027023736387491226,0.16581836342811584,0.028153344988822937,1.640654153109416,-0.4024014182740469,2.9016350408428404
1687088753.799567,0.918606162071228,0.3894020915031433,0.0672982782125473,-0.018108665943145752,0.0063498616218566895,-0.042884111404418945,0.01449846476316452,0.07815966755151749,0.03533613681793213,1.6439269724916648,-0.39998236302757884,2.8996480210010915
1687088753.814252,0.9195966720581055,0.387673020362854,0.06365299969911575,0.017766058444976807,0.0034097135066986084,-0.021996505558490753,-0.01991650089621544,0.0680985078215599,0.030504673719406128,1.6399044885456695,-0.39810586029022654,2.896905182153808
1687088753.890269,0.9199289679527283,0.3874661922454834,0.060007691383361816,0.022713303565979004,0.0034945309162139893,-0.019205570220947266,0.034975189715623856,0.051869045943021774,0.040411364287137985,1.6359348274007746,-0.39788148974230797,2.8928223396366333
1687088753.895011,0.9207866191864014,0.3858253061771393,0.05736682564020157,-0.007227659225463867,0.009529918432235718,-0.007211089134216309,-0.024075612425804138,-0.0031004627235233784,0.026027565822005272,1.6330178790628676,-0.39610223920373633,2.8919486667596535
1687088753.9527612,0.9214144349098206,0.3845672011375427,0.05571068078279495,-0.004559516906738281,0.01461803913116455,-0.010269880294799805,0.01592368260025978,0.018878445029258728,0.028258008882403374,1.6311849436312702,-0.3947389199773428,2.8902597880029575
1687088754.042962,0.9218464493751526,0.3836711049079895,0.054735954850912094,0.0021649599075317383,-0.011585474014282227,0.0027134492993354797,-0.061204925179481506,-0.04318652302026749,0.03563261032104492,1.6301031308671772,-0.3937683838520839,2.8913782659681693
1687088754.060604,0.9225639700889587,0.3823355436325073,0.051917124539613724,0.00040972232818603516,-0.016170382499694824,0.044762611389160156,0.05431634560227394,-0.05832153186202049,0.0414712131023407,1.6270118616447493,-0.39232256909630575,2.8931236594706156
1687088754.099282,0.9235740303993225,0.3799407482147217,0.05154066160321236,-0.023366332054138184,-0.0014159083366394043,0.05101371556520462,0.1176474317908287,0.10173434019088745,0.03504152223467827,1.6265441676552732,-0.3897322525543522,2.887013949339748
1687088754.192518,0.9235215187072754,0.3791625201702118,0.05782795697450638,-0.03063809871673584,0.004031479358673096,0.14811992645263672,0.2134038805961609,0.1920778751373291,-0.008331118151545525,1.633331476176868,-0.3888910605503968,2.880418723353623
1687088754.2094278,0.92169189453125,0.3812820017337799,0.07147032767534256,-0.07206732034683228,0.020527660846710205,0.2936420440673828,0.10839353501796722,0.4973260462284088,-0.10450099408626556,1.6481840003172725,-0.39118265745442476,2.870980927605736
1687088754.248901,0.9115554094314575,0.392618864774704,0.12213726341724396,-0.015238702297210693,0.047322601079940796,0.6021822690963745,-1.2953706979751587,1.3873809576034546,-0.5300790071487427,1.7039907973443338,-0.40347739376593544,2.899941235316129
1687088754.373868,0.8757138848304749,0.41198188066482544,0.25178635120391846,0.17792081832885742,0.20947808027267456,0.5945119857788086,-1.5935356616973877,2.9245259761810303,-0.9407944679260254,1.8507657849344197,-0.42462805208826526,2.9966972482045455
1687088754.38007,0.7914794087409973,0.43619465827941895,0.4281298816204071,0.2761630415916443,0.4463127553462982,0.5534682273864746,-0.32051676511764526,4.369379043579102,-1.0466564893722534,2.0666443924708364,-0.4513654773980808,3.0688951045090365
1687088754.463512,0.6307193636894226,0.49000659584999084,0.6017365455627441,0.5805996060371399,0.5900715589523315,0.5332428216934204,0.5424737930297852,5.522826194763184,-1.7515199184417725,2.332682500997878,-0.5120973103456696,3.1056522430304896
1687088754.4808722,0.3726358115673065,0.5528722405433655,0.7453017234802246,0.9202871322631836,0.38249146938323975,0.5379928946495056,-0.26438185572624207,6.066887855529785,-2.552945375442505,2.677961211426166,-0.5858072631250466,-3.0831452247043463
1687088754.550159,0.05524676293134689,0.5595302581787109,0.8269668817520142,1.0109306573867798,0.11930280923843384,0.31248342990875244,-0.5657014846801758,6.267191410064697,-2.5092146396636963,3.07488527254434,-0.5938189474414884,-2.9257796277359827
1687088754.565084,-0.2529728412628174,0.5490355491638184,0.7965958118438721,1.1690037250518799,-0.08915090560913086,-0.0747329592704773,0.16561239957809448,5.373413562774658,-2.1281192302703857,-2.8340979357857976,-0.5812098583566085,-2.7844701559862144
1687088754.637677,-0.4766170084476471,0.5017207264900208,0.7218815684318542,1.1596919298171997,-0.452617883682251,-0.46356528997421265,-0.681541383266449,3.7847976684570312,-1.4215431213378906,-2.5580506137010226,-0.5255868432274771,-2.6987455381587857
1687088754.642527,-0.6013163924217224,0.45226505398750305,0.6586920022964478,0.8869761228561401,-0.25666263699531555,-0.9806065559387207,-0.2928577959537506,1.6046570539474487,-0.5788319706916809,-2.4016989765481105,-0.4693033279768408,-2.67398331836956
1687088754.702592,-0.6362103819847107,0.4542035460472107,0.6236472129821777,0.22452813386917114,-0.18534356355667114,-0.850148618221283,0.7337751388549805,0.19370810687541962,0.10225307196378708,-2.34622294429713,-0.47147800602783196,-2.6457493933737846
1687088754.7898378,-0.6168434023857117,0.47436395287513733,0.6280791759490967,0.05089479684829712,-0.23071151971817017,-0.4292418360710144,0.32688891887664795,-0.9110415577888489,0.4232243597507477,-2.365219532242998,-0.49424136393438456,-2.6434074756881114
1687088754.795082,-0.5747756361961365,0.5149210691452026,0.6359952688217163,-0.06702446937561035,-0.026883840560913086,-0.05536752939224243,1.3167895078659058,-0.8380494117736816,0.6085737943649292,-2.406713989729693,-0.5409155410450326,-2.6345284588512827
1687088754.852519,-0.5385745763778687,0.5777391195297241,0.6133147478103638,-0.20489460229873657,0.059300005435943604,0.1497315764427185,1.0240108966827393,-0.31251904368400574,0.5189847946166992,-2.4209885223397754,-0.6159560428574595,-2.6028754894241124
1687088754.945284,-0.5220130085945129,0.620217502117157,0.5855194926261902,-0.1956689953804016,0.2096012830734253,-0.018655359745025635,2.0762743949890137,-0.254123330116272,0.27701735496520996,-2.4134723187359044,-0.669019983677985,-2.5735921399295107
1687088754.9625468,-0.5157711505889893,0.688102126121521,0.5103877782821655,-0.16081881523132324,-0.1495736837387085,0.025501012802124023,1.3758354187011719,0.22483107447624207,0.17207664251327515,-2.3509483853386897,-0.7588702714014051,-2.479151122702084
1687088754.9970021,-0.5106614232063293,0.7249496579170227,0.4622478485107422,0.01394200325012207,0.1964370608329773,-0.013227462768554688,2.1550447940826416,-0.3536140024662018,0.15667298436164856,-2.306473867910795,-0.81096134465086,-2.4131605644773244
1687088755.093178,-0.5000995397567749,0.7749035358428955,0.38655537366867065,-0.10256153345108032,-0.16827517747879028,-0.0656171441078186,1.7521591186523438,-0.22999629378318787,0.1703079491853714,-2.2288286604695875,-0.8865624279598763,-2.293551710493658
1687088755.111181,-0.48864370584487915,0.813494861125946,0.31536269187927246,-0.24185556173324585,-0.02498161792755127,-0.05545973777770996,2.330564022064209,-0.3399137854576111,0.2522315979003906,-2.1439195284295627,-0.9501363979577085,-2.1677117146065257
1687088755.147273,-0.4796990752220154,0.8376840949058533,0.2611022889614105,-0.3398352563381195,-0.2338327169418335,0.10042428970336914,0.6645123362541199,-0.28512683510780334,0.1744135320186615,-2.0692561338231035,-0.9930289085180346,-2.0671418400594037
1687088755.2437081,-0.4732629954814911,0.8665543794631958,0.15844711661338806,-0.6496617197990417,-0.17717760801315308,-0.06751991808414459,3.7859058380126953,0.3873150050640106,0.03120710328221321,-1.8938637460212722,-1.0482564766226479,-1.8597458814495769
1687088755.260014,-0.44209563732147217,0.8927111029624939,0.08728425949811935,-0.8454409837722778,-0.5779680013656616,-0.024433255195617676,1.1696947813034058,0.6150655150413513,1.2053641080856323,-1.765722385762428,-1.1033260048640894,-1.751807060943654
1687088755.297576,-0.3825630843639374,0.9144930243492126,-0.1317121386528015,-1.2046408653259277,-0.25160539150238037,0.06568741798400879,5.029921054840088,1.2044785022735596,1.9844942092895508,-1.2392185911533509,-1.1542531324663647,-1.2178189647698057
1687088755.3913589,-0.1430646926164627,0.9570150375366211,-0.25229892134666443,-0.11056689918041229,-1.053938865661621,-0.2345937192440033,0.28252530097961426,3.0296497344970703,7.8045759201049805,-0.5158349048706405,-1.2765294975811892,-0.5548993026933345
1687088755.3966532,0.21671725809574127,0.9142415523529053,-0.3423391878604889,6.74104642868042,0.9413340091705322,-0.09744960069656372,2.8795218467712402,-3.0345265865325928,1.89543616771698,0.5643659906466798,-1.1536320886035427,0.5627354026488192
1687088755.449349,-0.024027178063988686,0.9876894950866699,-0.1545710265636444,-0.6290794610977173,0.16738563776016235,0.3709560036659241,0.31549352407455444,0.7682080268859863,-2.8933370113372803,-0.1542100924486972,-1.4137239613369172,-0.016420657636331853
1687088755.543443,0.07458503544330597,0.9104926586151123,-0.40674349665641785,-0.050613462924957275,-2.5163276195526123,0.5245871543884277,-0.7237188816070557,2.3237454891204834,2.6152303218841553,0.18135639925672423,-1.1444738944629413,0.1777803673845705
1687088755.56111,0.030943864956498146,0.9596645832061768,-0.27943965792655945,0.8458261489868164,1.0554568767547607,0.3453729748725891,-1.2731605768203735,-1.547663927078247,-1.7736868858337402,0.11028608287716257,-1.2858067032961107,0.13733388383449338
1687088755.598798,0.0003201495565008372,0.9496996402740479,-0.31316235661506653,-0.5627285838127136,-0.3699113130569458,0.008719086647033691,0.02816719375550747,1.2683731317520142,0.638869047164917,0.001022311388011088,-1.2522753180232449,0.05007204421581683
1687088755.693896,0.0068601034581661224,0.9627177119255066,-0.2704213857650757,0.21983972191810608,0.21280419826507568,-0.04165130853652954,-1.306841492652893,-0.8920941352844238,-0.463500052690506,0.0253627579264819,-1.2968756653026936,0.07376981393528466
1687088755.711622,-0.010462782345712185,0.9680878520011902,-0.2503925859928131,-0.11203479766845703,0.20929557085037231,0.007014960050582886,0.5213770866394043,0.24152658879756927,-0.045762114226818085,-0.041761219218917324,-1.3174849253620018,0.014040468093475696
1687088755.747899,-0.015107093378901482,0.9669752717018127,-0.25442221760749817,0.030060678720474243,-0.03303050994873047,0.03979218006134033,-0.1563856154680252,-0.0797954574227333,-0.14820478856563568,-0.05930840119060102,-1.313082924795676,-0.005301527854792416
1687088755.842287,-0.021076934412121773,0.967110812664032,-0.25348058342933655,0.014073135331273079,-0.06630820035934448,0.024614065885543823,-0.10216131061315536,0.21684324741363525,-0.11862717568874359,-0.08295925758637308,-1.3136151944790753,-0.0331682324808352
1687088755.859658,-0.028188401833176613,0.9716652035713196,-0.2346750944852829,0.08843010663986206,-0.07135075330734253,-0.0077717602252960205,-0.4183690547943115,-0.010986455716192722,-0.20006808638572693,-0.11954398503067719,-1.332176975089659,-0.07536871361855292
1687088755.897231,-0.03434794768691063,0.9744994640350342,-0.2217460721731186,0.04190105199813843,-0.05367720127105713,-0.02265387773513794,-0.24734064936637878,0.15759441256523132,-0.18354392051696777,-0.1536763593666581,-1.3444794105663527,-0.11434237636452035
1687088755.992459,-0.04733998328447342,0.9765756130218506,-0.209902822971344,0.05159717798233032,-0.056424736976623535,-0.06515204906463623,-0.19633057713508606,0.1539788395166397,-0.2639215290546417,-0.22182156346305645,-1.3539257194505105,-0.18933065134169266
1687088756.0102348,-0.060503438115119934,0.9787360429763794,-0.19599828124046326,0.12629935145378113,-0.11365419626235962,-0.034455180168151855,-0.5847094655036926,0.03535499796271324,-0.4324426054954529,-0.2994134666942809,-1.3642061820942826,-0.27503777825963804
1687088756.048044,-0.0880996584892273,0.9826383590698242,-0.16328024864196777,0.0721084251999855,-0.08360570669174194,-0.03273402154445648,-0.4647975564002991,0.29400089383125305,-0.42107754945755005,-0.49479332024898093,-1.3841838503791326,-0.4739629712852871
1687088756.1420121,-0.11895806342363358,0.9835070967674255,-0.1362447589635849,0.337433397769928,0.06928825378417969,0.14945901930332184,-1.0279983282089233,0.4535999596118927,-1.1779756546020508,-0.7177644239996291,-1.3889257855075101,-0.7261188661127759
1687088756.146939,-0.18548546731472015,0.9771338701248169,-0.10394515842199326,0.28395044803619385,0.029579997062683105,0.027651317417621613,-0.2916087210178375,0.6248611211776733,-1.4286335706710815,-1.060007234726788,-1.3565355824545156,-1.092283878088307
1687088756.200743,-0.2582431137561798,0.9628075361251831,-0.0794491395354271,0.5105624794960022,-0.034569621086120605,0.11445284634828568,-1.0035367012023926,0.6342418789863586,-1.8314141035079956,-1.272333760380794,-1.2972078949403754,-1.3537337757870036
1687088756.292845,-0.3463159501552582,0.9370951652526855,-0.04379596188664436,0.4351221024990082,-0.02365821599960327,0.057696763426065445,-0.8620960116386414,0.3519037067890167,-1.7449793815612793,-1.4450016502305394,-1.2142135130070104,-1.5609626876875948
1687088756.311492,-0.4035508334636688,0.9149408340454102,-0.005506688728928566,0.06358498334884644,-0.2955406904220581,0.003141641616821289,-1.103407382965088,0.4448867738246918,-0.6480944752693176,-1.5571515851694882,-1.155361243590512,-1.6963354920893512
1687088756.34898,-0.42077580094337463,0.9062391519546509,0.04096932336688042,0.08602842688560486,-0.0914502739906311,-0.13943421840667725,-0.5385835766792297,-0.4676145613193512,-0.14966365694999695,-1.667856542553677,-1.1343016636278143,-1.821692878546677
1687088756.4420052,-0.3963839113712311,0.9159625768661499,0.062391962856054306,-0.3131345808506012,-0.19075793027877808,0.049119360744953156,-0.978278636932373,0.20855501294136047,0.9545629024505615,-1.726918253948351,-1.157900257803957,-1.886514436206094
1687088756.4475698,-0.3514452278614044,0.9312771558761597,0.09596531093120575,-0.4100141227245331,0.06844830513000488,-0.20830045640468597,0.0005054171197116375,0.11986103653907776,1.1146764755249023,-1.837357174725454,-1.1979029535609125,-1.9980769258324853
1687088756.499806,-0.2952450215816498,0.9506555795669556,0.09531300514936447,-0.3414584994316101,0.09745544195175171,-0.1441563367843628,-0.3781047463417053,-0.13188225030899048,1.055975317955017,-1.8830613957230387,-1.2553421677680137,-2.0570479100247714
1687088756.594123,-0.2618671953678131,0.9573057293891907,0.12243888527154922,-0.4535411298274994,0.23170489072799683,-0.10338056832551956,-0.27854591608047485,-0.23630931973457336,0.37753576040267944,-2.008157601951205,-1.2775334315863824,-2.168853860194401
1687088756.613545,-0.25027692317962646,0.9600392580032349,0.12524563074111938,-0.3474709391593933,0.13337522745132446,-0.054292187094688416,-0.0823768898844719,-0.15244728326797485,0.13124968111515045,-2.0347864558086672,-1.2871423704166756,-2.1892189057356854
1687088756.648309,-0.2447815090417862,0.9604531526565552,0.13270995020866394,-0.167510986328125,-0.0342140793800354,0.03516733646392822,-0.01434202492237091,-0.12432888150215149,0.08275405317544937,-2.0675979311294563,-1.2886251868715617,-2.2139686560655876
1687088756.742432,-0.23652569949626923,0.9633561968803406,0.12649257481098175,-0.03285297751426697,-0.11660027503967285,0.009173378348350525,0.23218663036823273,0.16489045321941376,0.3063463568687439,-2.061890338118224,-1.2992458141103,-2.2111259404689845
1687088756.759362,-0.21545743942260742,0.9695250988006592,0.11661596596240997,0.07504607737064362,-0.18449091911315918,-0.0702444389462471,0.052835360169410706,-0.05219306796789169,0.5450478792190552,-2.066895525410878,-1.3232849531595385,-2.218943738348892
1687088756.797425,-0.18437661230564117,0.9740321636199951,0.1314024031162262,0.09477700293064117,-0.1478756070137024,-0.17951323091983795,-0.4031265676021576,-0.40085357427597046,0.6718232035636902,-2.1899848991277198,-1.3424063343416999,-2.334757521627017
1687088756.891242,-0.14319920539855957,0.9789535999298096,0.14541001617908478,0.12317964434623718,-0.0882369875907898,-0.2049497365951538,0.15058045089244843,-0.8160527348518372,0.8948878645896912,-2.3638545864872125,-1.3652695744547236,-2.4791247623740333
1687088756.897043,-0.07950129359960556,0.9869769811630249,0.13984347879886627,0.10193172097206116,-0.3061297535896301,-0.20812654495239258,-0.13564176857471466,-0.7914937138557434,1.4909648895263672,-2.624655538675137,-1.409232787806531,-2.7050849652189766
1687088756.9519,0.010876156389713287,0.9833404421806335,0.18144890666007996,0.16238737106323242,-0.16830730438232422,-0.1124638170003891,-0.971660315990448,-1.4423280954360962,1.782139539718628,3.0817236858642363,-1.3880066501494646,3.0475094178217947
1687088757.043192,0.12570855021476746,0.9738503694534302,0.18924306333065033,0.09676457941532135,-0.19670498371124268,-0.276157021522522,0.24647949635982513,-1.6871646642684937,2.3443832397460938,2.5552508973738672,-1.3416046501967578,2.5927319436318697
1687088757.060601,0.25201573967933655,0.9441868662834167,0.21213079988956451,0.19100797176361084,-0.13446390628814697,0.04983210563659668,-2.558518409729004,-1.8960390090942383,2.081700563430786,2.2704732978076003,-1.2351172694104393,2.3892021472870324
1687088757.098545,0.3717604875564575,0.8805330395698547,0.2940341532230377,0.18423932790756226,0.11205124855041504,-0.08926105499267578,-1.605188012123108,-2.7216386795043945,1.8684449195861816,2.2399783247033263,-1.0769856018608677,2.4858097684257308
1687088757.1592832,0.49473249912261963,0.801788866519928,0.33522316813468933,0.15690940618515015,-0.1642765998840332,0.11088287830352783,-3.3998584747314453,-2.8003220558166504,1.710843801498413,2.1663195397836557,-0.930282616867118,2.56783881655742
1687088757.253602,0.6070839762687683,0.7136497497558594,0.3495042026042938,0.10325843095779419,0.02717965841293335,0.07755884528160095,-1.5929371118545532,-2.8137896060943604,1.6892528533935547,2.0931638658643963,-0.7946947060617586,2.6625280371540563
1687088757.2593842,0.709405779838562,0.6246269345283508,0.32647374272346497,0.3181975483894348,-0.022575974464416504,0.2805667817592621,-2.5155816078186035,-2.9920852184295654,1.463093638420105,2.0021061576545383,-0.6746536818661348,2.734466063059788
1687088757.342618,0.7908913493156433,0.5454123616218567,0.2775188982486725,0.20331048965454102,0.11309599876403809,0.2810291349887848,-1.5441384315490723,-2.839824676513672,1.037886381149292,1.908267229596719,-0.5768810020141409,2.834072146196828
1687088757.361854,0.8446053266525269,0.49840667843818665,0.19553242623806,0.1225273609161377,0.08972817659378052,0.22284844517707825,-0.5501343011856079,-2.3557167053222656,0.7058802247047424,1.7982959563984684,-0.5217599442368307,2.875427456366904
1687088757.429034,0.8774271011352539,0.46510767936706543,0.11745992302894592,0.04708772897720337,0.13837748765945435,0.24479913711547852,-0.16071195900440216,-1.7565646171569824,0.7485029697418213,1.7038737258786258,-0.48375622915319305,2.8804955331695696
1687088757.523648,0.8983227014541626,0.43628057837486267,0.05172530561685562,0.06070739030838013,0.14163076877593994,0.23457551002502441,-0.2437543272972107,-1.3480595350265503,0.5011379718780518,1.6283126910825878,-0.4514609486295898,2.8885362518636133
1687088757.53017,0.9069048762321472,0.421276718378067,0.007031774614006281,-0.002379119396209717,0.1153290867805481,0.23759722709655762,-0.25722718238830566,-0.8154858946800232,0.18073585629463196,1.5785497678144036,-0.4348526091998104,2.9035388827386144
1687088757.612102,0.9093985557556152,0.4157179892063141,-0.013156895525753498,-0.06734210252761841,0.1322709619998932,0.1872139573097229,0.021780239418148994,-0.22100499272346497,0.0687035471200943,1.5563296477727764,-0.42873209383622557,2.908105525269987
1687088757.630422,0.9098218679428101,0.41460517048835754,-0.018078356981277466,-0.05726754665374756,0.06531426310539246,0.19121992588043213,0.020096268504858017,0.035370178520679474,-0.020303668454289436,1.5509287260290479,-0.42750886902214363,2.9053325255636007
1687088757.698607,0.908599853515625,0.4174930155277252,-0.012086893431842327,-0.01255786418914795,-0.00042444467544555664,0.19656574726104736,-0.10710664093494415,0.12570209801197052,-0.08418384939432144,1.5574943436708943,-0.4306846258095433,2.909113541573346
1687088757.702814,0.9066997766494751,0.4217711389064789,0.002260619541630149,-0.020881056785583496,0.0055818259716033936,0.07125627994537354,0.019997891038656235,0.28434720635414124,-0.05291352421045303,1.573289560909907,-0.4353978128195772,2.912736810328138
1687088757.79352,0.9063391089439392,0.42216378450393677,0.018095480278134346,-0.012219786643981934,-0.03727605938911438,-0.0014327764511108398,0.19931964576244354,0.3296377956867218,0.03858645632863045,1.5907591384705733,-0.4358308987001247,2.9097931873405862
1687088757.811727,0.9069705009460449,0.42033979296684265,0.026820385828614235,0.018658339977264404,-0.04080784320831299,-0.03771507367491722,0.16746442019939423,0.2382282167673111,0.044769205152988434,1.6003591092419898,-0.4338197619794792,2.897736428815511
1687088757.846519,0.9082733392715454,0.417189359664917,0.03150821104645729,0.013006627559661865,-0.016829252243041992,-0.04258608818054199,0.25715553760528564,0.15726710855960846,0.07246895134449005,1.6054726491900193,-0.43035048723228797,2.886857734818516
1687088757.942688,0.9092035293579102,0.41512829065322876,0.031897228211164474,-0.005074501037597656,-0.02152782678604126,-0.05364096537232399,0.47120487689971924,0.20757310092449188,0.06808595359325409,1.6058645490307688,-0.42808379874516256,2.867205781316264
1687088757.960046,0.9102354645729065,0.41296181082725525,0.030560944229364395,-0.007952749729156494,0.030580639839172363,0.05279790982604027,0.5298594236373901,0.28915202617645264,0.042707208544015884,1.6043584884615256,-0.4257037279455864,2.8349173886691763
1687088758.029408,0.9085493683815002,0.415585994720459,0.04273495823144913,0.016163766384124756,-0.05373910069465637,0.08188366889953613,-0.02727806381881237,0.5172796249389648,-0.10642965137958527,1.617798156996054,-0.42858698905635767,2.8213855357503723
1687088758.12317,0.9033649563789368,0.4226198196411133,0.07296822220087051,0.018616855144500732,0.032641440629959106,0.20487916469573975,-0.23567473888397217,0.7748103141784668,-0.24645984172821045,1.651395140771804,-0.43633401664327476,2.8303070778481625
1687088758.129284,0.8906305432319641,0.4369421899318695,0.12593315541744232,0.007166266441345215,0.018471717834472656,0.17289496958255768,-0.03495350480079651,1.3623641729354858,-0.40267425775527954,1.7112628899781221,-0.452196357932231,2.842658804670762
1687088758.2123132,0.8663175702095032,0.4606989026069641,0.1930036097764969,-0.02252185344696045,0.1294041872024536,0.2816821038722992,0.39477667212486267,2.0660691261291504,-0.5428516864776611,1.7900026658580224,-0.4787824979695559,2.8322171950195334
1687088758.23036,0.8228529095649719,0.4926992654800415,0.2831268012523651,0.10590386390686035,0.08245033025741577,0.15094006061553955,0.2275397926568985,2.4912986755371094,-0.8019700050354004,1.9021870356354706,-0.5151889193488693,2.8305910057882517
1687088758.298646,0.7551309466362,0.5374158620834351,0.37544912099838257,0.13891226053237915,0.227766752243042,0.18483850359916687,0.63433837890625,2.743713617324829,-1.1035127639770508,2.0321993211103524,-0.5673698847656523,2.824422051478694
1687088758.302927,0.6614941954612732,0.6008690595626831,0.44875621795654297,0.1906939148902893,0.16460341215133667,0.19348633289337158,1.3152414560317993,2.835597515106201,-1.3872058391571045,2.1668765626963546,-0.6445878438505674,2.818241541175463
1687088758.3933,0.544846773147583,0.6891921758651733,0.47765687108039856,0.3568408489227295,0.29924166202545166,0.12343263626098633,2.192152976989746,2.8720340728759766,-1.547998309135437,2.2905776622884506,-0.760373588331215,2.7822804352143238
1687088758.412027,0.41780173778533936,0.780796468257904,0.4645414650440216,0.35754308104515076,0.04639774560928345,0.20889005064964294,1.939314603805542,2.697112798690796,-1.8789842128753662,2.4091172994359784,-0.8959396248501562,2.755448468431133
1687088758.44876,0.2695392370223999,0.8667145371437073,0.4197079539299011,0.41818967461586,0.0968780517578125,0.09971654415130615,2.7160472869873047,2.7312421798706055,-2.1838390827178955,2.5707155893227114,-1.0485774606786935,2.7826930694944174
1687088758.574158,0.11957985907793045,0.9431378245353699,0.31014785170555115,0.39528220891952515,-0.06229376792907715,0.09445425868034363,2.562021255493164,2.1456034183502197,-2.628722906112671,2.773598289223909,-1.2319472205122481,2.8752870173380445
1687088758.579503,-0.032599736005067825,0.9731966257095337,0.2276533991098404,0.41319969296455383,-0.1575225591659546,-0.04026001691818237,1.3646188974380493,1.416311264038086,-2.624180316925049,-2.9993606064625964,-1.3387448411850453,-2.9734403382552417
1687088758.662345,-0.1636393964290619,0.973550021648407,0.15944522619247437,0.3853800892829895,-0.2170344591140747,-0.11888730525970459,0.9728126525878906,0.814346194267273,-2.3265397548675537,-2.3432135981546223,-1.3402863689121642,-2.3545637315861008
1687088758.681735,-0.26988738775253296,0.954919159412384,0.12365409731864929,0.31902065873146057,-0.33921176195144653,-0.19514143466949463,0.5403851270675659,0.5526636838912964,-1.835548996925354,-2.0004229893235617,-1.2693873341675836,-2.0355347609760193
1687088758.748719,-0.34007728099823,0.9363454580307007,0.0872061550617218,0.1955001950263977,-0.45047491788864136,-0.15587067604064941,0.42648154497146606,0.3089083433151245,-0.9793810248374939,-1.8218179335846165,-1.2120720309170125,-1.8690624178246207
1687088758.7528028,-0.3731512725353241,0.9247233271598816,0.07513363659381866,0.12247985601425171,-0.3446909189224243,-0.039687395095825195,0.13837482035160065,0.04278047755360603,-0.4026731848716736,-1.7694886575568534,-1.1803080257025014,-1.8232644314738413
1687088758.843964,-0.3777063488960266,0.9241463541984558,0.057374000549316406,0.061681538820266724,-0.23151934146881104,-0.039658546447753906,0.49265816807746887,-0.08553563058376312,0.15538941323757172,-1.7215449880671936,-1.1787950142895482,-1.7684516754736523
1687088758.862953,-0.362709105014801,0.9304534196853638,0.05194742977619171,0.016639739274978638,-0.16841423511505127,0.007424592971801758,-0.1095498725771904,-0.060722801834344864,0.36072832345962524,-1.7130495873086298,-1.1956484451915805,-1.7555500328177036
1687088758.897592,-0.34602195024490356,0.9357139468193054,0.06861715018749237,-0.013642966747283936,0.09187394380569458,0.004777662456035614,-0.18304575979709625,-0.13148517906665802,0.26747316122055054,-1.7665595191950072,-1.2102775644975496,-1.8083538597880082
1687088758.9889,-0.3387126922607422,0.9388185143470764,0.06240003928542137,-0.09073072671890259,0.12059932947158813,-0.011679761111736298,0.19567959010601044,0.05399249121546745,0.05527133867144585,-1.752980620331431,-1.2191837481482979,-1.7900996337212944
1687088758.9939852,-0.34229278564453125,0.9380969405174255,0.05300911143422127,-0.09261322021484375,0.04594242572784424,-0.0917205810546875,0.36464592814445496,-0.11917252838611603,-0.14791645109653473,-1.7244406161311314,-1.2170944909026182,-1.7593003225643065
1687088759.048434,-0.35009896755218506,0.9361758232116699,0.03170745447278023,-0.24316272139549255,-0.06532633304595947,-0.0773768424987793,0.429899662733078,-0.05718031898140907,-0.2290903627872467,-1.6611170275468286,-1.2115892008500257,-1.682058689382447
1687088759.112715,-0.363909512758255,0.9310659170150757,0.02619522623717785,-0.3325169086456299,-0.036275267601013184,-0.08228647708892822,0.03373687341809273,0.004226319491863251,-0.45909321308135986,-1.642655188217185,-1.1973235127331319,-1.6630636323729826
1687088759.203018,-0.3928917348384857,0.9193218350410461,0.02199638821184635,-0.49205708503723145,0.025365173816680908,0.045462846755981445,-0.21270085871219635,0.26525816321372986,-0.7125588655471802,-1.6267238174520902,-1.1663536618719306,-1.6494919124986545
1687088759.209542,-0.4229608178138733,0.9057994484901428,0.025133594870567322,-0.6247839331626892,-0.07218122482299805,-0.07847833633422852,0.29691174626350403,0.5598246455192566,-0.7111422419548035,-1.6301495174792109,-1.1332627150087249,-1.6776509249166462
1687088759.259461,-0.44473540782928467,0.8956307172775269,-0.007487283553928137,-0.8538028001785278,-0.23719871044158936,0.05510997772216797,-0.2398974448442459,0.8495798707008362,0.010901388712227345,-1.553962550671877,-1.1098472022972052,-1.6363973317507288
1687088759.3512979,-0.4280732572078705,0.9019787907600403,-0.05646008998155594,-0.7531859278678894,0.10250735282897949,-0.05956768989562988,1.7526741027832031,0.6120045185089111,0.818869411945343,-1.4396597189421865,-1.124330719186202,-1.5509606511445186
1687088759.371731,-0.3483518064022064,0.9301941990852356,-0.11571431159973145,-0.2917238771915436,-0.5316041111946106,-0.08229892700910568,-0.33139193058013916,0.5073988437652588,2.829209327697754,-1.2500872117776498,-1.1949416039356584,-1.3726054138508572
1687088759.407697,-0.16769269108772278,0.9796311855316162,-0.11046258360147476,0.9372696876525879,0.18400412797927856,-0.05013608932495117,0.5501978397369385,0.05113443732261658,4.87876558303833,-0.988315259406098,-1.3686164156990774,-1.1022956986264576
1687088759.501678,0.0008291288977488875,0.9946615695953369,-0.10318824648857117,3.5555062294006348,0.3030221462249756,0.7529380917549133,0.18099193274974823,-4.869831085205078,0.09131303429603577,0.008034936998626018,-1.4674213677587153,-0.005660988714629891
1687088759.5193992,-0.15211178362369537,0.9857792258262634,0.07142488658428192,-0.9618713855743408,-0.8110202550888062,-1.0437911748886108,-0.11160843819379807,3.4086601734161377,-1.00211501121521,-2.009792858076713,-1.4019496709310304,-1.8705211858930622
1687088759.558306,-0.09692826867103577,0.981292724609375,-0.16634207963943481,0.8310896158218384,-0.6096038222312927,0.5081237554550171,1.6265316009521484,0.07722766697406769,1.1845922470092773,-0.5276050985564609,-1.3770650772888333,-0.5320317021305179
1687088759.6529078,-0.1442456841468811,0.9888480305671692,-0.03705230727791786,0.24550297856330872,0.20678496360778809,-0.04754233360290527,-2.666431427001953,-1.906201958656311,-1.006029725074768,-1.3193628269809186,-1.4213122241326739,-1.224347773607713
1687088759.6586518,-0.13358263671398163,0.9875215291976929,-0.08340807259082794,-0.19945569336414337,0.12679731845855713,0.15849661827087402,1.7467762231826782,1.0132306814193726,0.6075454950332642,-1.0126335797931663,-1.412653778703642,-0.9389639159656521
1687088759.708102,-0.12222877144813538,0.9882328510284424,-0.09195806831121445,0.08229650557041168,-0.11129480600357056,0.07164870947599411,-0.5465742945671082,-0.2702596187591553,0.08440639078617096,-0.9257968341306707,-1.4172365608532105,-0.8522051630472884
1687088759.803616,-0.11487697809934616,0.990852952003479,-0.0708063542842865,-0.029944196343421936,0.030387163162231445,0.06305492669343948,-0.4913988709449768,0.07845591753721237,0.08998391032218933,-1.018429250962327,-1.435437522573575,-0.9507596493480167
1687088759.809375,-0.11036276072263718,0.9917246103286743,-0.06559257209300995,-0.04689430445432663,0.060689330101013184,-0.010701291263103485,0.22285513579845428,0.34373193979263306,0.10059381276369095,-1.0345518611352518,-1.4420575380086877,-0.9761023469652576
1687088759.859237,-0.10624421387910843,0.9917356371879578,-0.07192128896713257,0.05811796337366104,-0.040411174297332764,-0.06038760393857956,-0.07432018965482712,0.2026653289794922,0.06913331151008606,-0.9757129770542806,-1.4421433103386543,-0.9300714559501141
1687088759.952105,-0.10709850490093231,0.9920977354049683,-0.06536068767309189,0.08906260132789612,-0.009065508842468262,-0.05818963050842285,-0.1283520609140396,0.05630342289805412,-0.05768140032887459,-1.0228481098429478,-1.4449975372120742,-0.983393343905971
1687088759.957767,-0.1059587299823761,0.9917961359024048,-0.07150547951459885,-0.008939974009990692,0.07959967851638794,-0.052655212581157684,0.138495072722435,0.26080942153930664,-0.09116756170988083,-0.9771547293937581,-1.4426160550513876,-0.944432999834684
1687088760.009872,-0.11759170144796371,0.9908915758132935,-0.06562235951423645,0.05652603507041931,0.07345479726791382,-0.03133189678192139,-0.23177137970924377,0.1149078831076622,-0.3775809109210968,-1.0617916744158462,-1.4357239812882925,-1.0399862089679475
1687088760.102493,-0.13114212453365326,0.98921138048172,-0.06528954952955246,-0.04102283716201782,0.0759284496307373,-0.009936213493347168,0.1084275171160698,0.2905547022819519,-0.2379431128501892,-1.108867504867717,-1.42377202101657,-1.0965937736371125
1687088760.108671,-0.15176449716091156,0.9866074919700623,-0.05977704003453255,0.09219419956207275,0.07627403736114502,0.09742051362991333,-0.3959501385688782,0.2716909945011139,-0.5941558480262756,-1.1955766752136527,-1.4069517757622751,-1.1956039528010316
1687088760.157387,-0.19035650789737701,0.9807639718055725,-0.04320227727293968,0.15124823153018951,0.02588886022567749,0.10655683279037476,-0.40410667657852173,0.43377771973609924,-0.940445065498352,-1.3476222874852082,-1.3743374585755372,-1.3666192927732215
1687088760.2510362,-0.23516513407230377,0.9710217118263245,-0.04259473457932472,0.2176785171031952,0.020311355590820312,0.0551680326461792,-0.05521158501505852,0.8959550857543945,-0.9869717955589294,-1.3916120552590163,-1.3294693867421197,-1.4509964233459887
1687088760.270349,-0.29189354181289673,0.9559659957885742,-0.03044787421822548,0.35169273614883423,-0.142001211643219,0.06867122650146484,-0.6305977702140808,0.2865164279937744,-1.2943642139434814,-1.466860641590836,-1.2729339627410303,-1.559579576182377
1687088760.3093371,-0.3438572287559509,0.9372937679290771,-0.05694396048784256,0.25436440110206604,0.09030932188034058,0.03129405155777931,0.7285131216049194,1.106937050819397,-1.067046880722046,-1.4066822656030873,-1.2147830290701058,-1.5406435988960234
1687088760.40185,-0.3956755995750427,0.9153354167938232,-0.07484687119722366,0.3726958632469177,-0.11228054761886597,-0.008374512195587158,-0.01729413866996765,0.21721379458904266,-1.1611428260803223,-1.3838430999232145,-1.15634003796964,-1.5468947391689318
1687088760.420228,-0.43193188309669495,0.8966890573501587,-0.09687048196792603,0.17785769701004028,-0.06276553869247437,-0.00011433660984039307,0.057515066117048264,0.472371906042099,-0.6756969094276428,-1.350174357639139,-1.1122322218134186,-1.5310188656071226
1687088760.455974,-0.45894595980644226,0.8865665793418884,-0.05803757160902023,0.23033878207206726,-0.15162700414657593,-0.016547318547964096,-1.4033722877502441,0.2484533041715622,-0.5726690292358398,-1.4450056272750356,-1.089869595561117,-1.655405236939648
1687088760.5504808,-0.47423747181892395,0.8800756335258484,-0.02379240281879902,0.022027909755706787,-0.002481520175933838,-0.08030295372009277,-0.19412830471992493,-0.021656038239598274,0.00043086009100079536,-1.5206685476155728,-1.0760215222386567,-1.7403294802085925
1687088760.5553231,-0.4616091847419739,0.8866077065467834,-0.029052764177322388,-0.0893094539642334,-0.02788865566253662,-0.09658801555633545,-0.35824358463287354,-0.11088024079799652,0.4835953116416931,-1.5079412217391948,-1.0899584824316932,-1.7326262658361427
1687088760.610322,-0.4375961422920227,0.8987733721733093,0.026759464293718338,-0.18950960040092468,0.018050968647003174,0.01663660816848278,-1.076719880104065,-0.6134406328201294,0.7033475041389465,-1.6318713249822268,-1.1169635574797288,-1.8423461277200506
1687088760.7003012,-0.40198904275894165,0.9143661856651306,0.048367489129304886,-0.31964486837387085,0.04385530948638916,-0.08648395538330078,0.31604650616645813,-0.3042639195919037,0.8012474775314331,-1.690541115967349,-1.1539396828653659,-1.8844947291241905
1687088760.719471,-0.3633686900138855,0.9307208061218262,0.041498493403196335,-0.3754923939704895,-0.021129071712493896,-0.037164926528930664,-0.24232353270053864,-0.1576727330684662,0.7976651787757874,-1.6845085891560372,-1.1963788213938513,-1.8698490715426412
1687088760.757273,-0.33265408873558044,0.9403886795043945,0.07078605890274048,-0.29790017008781433,0.18120872974395752,-0.005783557891845703,-0.26302310824394226,-0.38753995299339294,0.3364902138710022,-1.780460896237184,-1.2237713435773854,-1.9537363684134428
1687088760.851721,-0.324280321598053,0.9435240626335144,0.06785853207111359,-0.2811884582042694,0.08371293544769287,-0.10097002983093262,0.25643840432167053,-0.009907608851790428,0.05871207267045975,-1.7770785984942703,-1.2331110797528857,-1.94351196305497
1687088760.870105,-0.31768998503685,0.9453705549240112,0.07312629371881485,-0.16406047344207764,-0.14320087432861328,-0.10018004477024078,-0.3968464732170105,-0.12555617094039917,0.23302768170833588,-1.7970369033144056,-1.2387295032415313,-1.9620755250465063
1687088760.907723,-0.30060121417045593,0.95008784532547,0.08349817991256714,-0.022290021181106567,-0.08282411098480225,-0.12771809101104736,0.2531619668006897,-0.24013426899909973,0.40552979707717896,-1.8417365158443426,-1.2535173830865225,-1.9997861454984187
1687088760.999197,-0.27690449357032776,0.9581244587898254,0.0729500874876976,0.06753861904144287,-0.14556336402893066,-0.06426775455474854,0.12076802551746368,-0.4079470932483673,0.5839616060256958,-1.8283918594000994,-1.2803790062109615,-1.9676586971388126
1687088761.0165792,-0.2378358393907547,0.9683224558830261,0.07606323063373566,0.0545014888048172,-0.23403912782669067,-0.10830499231815338,0.08104169368743896,-0.5827962160110474,0.9773769378662109,-1.8803305425378607,-1.3184228350277525,-1.995329399774062
1687088761.057255,-0.17590127885341644,0.9813311696052551,0.07777033746242523,0.11602579057216644,-0.2759324312210083,-0.16733932495117188,0.04240588843822479,-0.90910804271698,1.4974472522735596,-1.9870820421868962,-1.3772648543352026,-2.0667849907561733
1687088761.150875,-0.0834929347038269,0.9921092391014099,0.09353245794773102,0.1539122462272644,-0.34730327129364014,-0.16097617149353027,-0.3416929244995117,-1.2873234748840332,2.007829427719116,-2.412846158860059,-1.44508907598174,-2.4415427034407875
1687088761.1683831,0.029962148517370224,0.9924374222755432,0.11903892457485199,0.19350284337997437,-0.1631985306739807,-0.12511181831359863,-0.622693657875061,-1.6465414762496948,2.289125680923462,2.895014224334191,-1.4477344718563825,2.9365405795096966
1687088761.23768,0.1613188087940216,0.971643328666687,0.17287477850914001,0.2106294482946396,-0.15711379051208496,-0.017952188849449158,-1.8806838989257812,-1.8551503419876099,2.532513380050659,2.3907593777729814,-1.3320844256921724,2.512035508883556
1687088761.360501,0.30121874809265137,0.9228041172027588,0.24020886421203613,0.1744435429573059,0.012620866298675537,-0.043263643980026245,-1.8793654441833496,-2.178708553314209,2.3753952980041504,2.2439844730437484,-1.1752965745853132,2.4670940099013254
1687088761.38026,0.42705127596855164,0.853350043296814,0.2990337610244751,0.14741164445877075,0.1851174235343933,0.18161821365356445,-2.52413272857666,-2.216695785522461,2.006554365158081,2.1816760953360785,-1.0223777128741165,2.515007306756122
1687088761.421179,0.5424762964248657,0.769742488861084,0.3364756107330322,0.06778359413146973,0.02293628454208374,0.13515836000442505,-2.153351068496704,-2.3199362754821777,1.7207399606704712,2.125978853057714,-0.8784376502604979,2.5957590113428775
1687088761.424366,0.6372483372688293,0.6881409287452698,0.34695348143577576,0.18236225843429565,0.13627618551254272,0.259308785200119,-2.3107433319091797,-2.5202066898345947,1.2015597820281982,2.069372915166234,-0.7589237211919073,2.679119322961001
1687088761.4272718,0.7123375535011292,0.6171731948852539,0.3341747224330902,0.039920806884765625,0.0761709213256836,0.14849138259887695,-1.7242743968963623,-2.194465398788452,0.9685871601104736,2.0094395869869683,-0.6651449768038485,2.770936176827661
1687088761.477859,0.7740265727043152,0.5620360374450684,0.291544646024704,0.08778977394104004,0.05306100845336914,0.1113027036190033,-0.8756041526794434,-2.1767311096191406,0.9089609980583191,1.9310213302528805,-0.5968453448148869,2.8239417118885366
1687088761.539092,0.8265318274497986,0.516202449798584,0.22445622086524963,0.09038424491882324,0.030001282691955566,0.12411573529243469,-0.3988100290298462,-1.9286203384399414,0.953885555267334,1.835965231103835,-0.5424110003588776,2.838345759375251
1687088761.604497,0.8637407422065735,0.4784036874771118,0.15837350487709045,0.1263716220855713,0.08769744634628296,0.18954229354858398,-0.3649529814720154,-1.5921677350997925,0.6909052133560181,1.752139662774542,-0.4988359756444893,2.8494226735699275
1687088761.662267,0.8861459493637085,0.45126330852508545,0.10538887977600098,0.08527427911758423,0.12693798542022705,0.19485841691493988,-0.12748056650161743,-1.1448003053665161,0.46396198868751526,1.6891698013647476,-0.4681804788191378,2.8603018119701877
1687088761.7537398,0.8992999792098999,0.4327240288257599,0.06331955641508102,-0.017494618892669678,0.14660638570785522,0.08086084574460983,0.08515255153179169,-0.7612815499305725,0.3693891763687134,1.6410901466448977,-0.4475121603198302,2.8560286253976717
1687088761.759371,0.907133162021637,0.4195711612701416,0.03270687162876129,-0.011442184448242188,0.10311868786811829,0.16632890701293945,-0.2968592047691345,-0.6954208612442017,0.1776377558708191,1.6068359203743547,-0.4329728293677714,2.862523127189205
1687088761.809346,0.9086800813674927,0.4172811806201935,0.013304033316671848,-0.0167427659034729,0.11229032278060913,0.1423814296722412,-0.1501930207014084,-0.3271545171737671,-0.06032776087522507,1.5854363340349786,-0.43045153257128527,2.8768083929907804
1687088761.903043,0.9066783785820007,0.421709269285202,0.00977642647922039,0.007155239582061768,0.036420613527297974,0.13635706901550293,-0.15181295573711395,-0.019831985235214233,-0.12416695058345795,1.5815785931366995,-0.43532957495301133,2.8838400668294932
1687088761.908774,0.9041778445243835,0.4269552528858185,0.013114194385707378,-0.012332022190093994,-0.033873558044433594,0.0900963544845581,-0.13244560360908508,0.0074365464970469475,-0.09948994219303131,1.585299309155521,-0.44112300759603823,2.891285922775983
1687088761.958657,0.9025681614875793,0.4302092492580414,0.01705029048025608,-0.005610764026641846,-0.04948720335960388,0.05268239974975586,0.001023455522954464,0.05011407658457756,-0.05257374793291092,1.5896849415854188,-0.44472455044662323,2.8952807089264785
1687088762.0832329,0.9024131298065186,0.43022021651268005,0.023697281256318092,0.010383069515228271,-0.06332254409790039,0.005248788744211197,0.08415328711271286,0.09225422888994217,0.03906660154461861,1.5970501960181056,-0.44473671100973494,2.8946804750687125
1687088762.102704,0.9046478867530823,0.4251651465892792,0.029097743332386017,0.01786792278289795,-0.03998759388923645,0.008972998708486557,0.08193017542362213,0.02212180197238922,0.08091649413108826,1.602949957883788,-0.43914433898028365,2.891617452361587
1687088762.168375,0.9077264070510864,0.41861671209335327,0.02815459854900837,-0.011715114116668701,-0.0031962692737579346,-0.0014364775270223618,0.10261261463165283,0.01408400945365429,0.07626647502183914,1.601802999531898,-0.4319216008314684,2.8864310103613042
1687088762.184391,0.9108425974845886,0.41188907623291016,0.026706865057349205,0.0021213293075561523,0.028906822204589844,-0.018894314765930176,0.27079784870147705,0.056817200034856796,0.11346666514873505,1.600108982406142,-0.42452620032613286,2.8767835155189143
1687088762.258908,0.9121344089508057,0.40915173292160034,0.02460840530693531,-0.0009101033210754395,0.007504701614379883,0.025211568921804428,0.10943658649921417,0.11557089537382126,0.02729303389787674,1.5977687098323956,-0.4215242162935616,2.864458932420154
1687088762.262629,0.9121899604797363,0.4088289439678192,0.027726098895072937,-0.021107017993927002,-3.0606985092163086e-05,-0.028656836599111557,0.19376200437545776,0.20766082406044006,0.1062871664762497,1.6011820649926658,-0.4211704859265162,2.8557734561554557
1687088762.352934,0.9142986536026001,0.4039384722709656,0.029861051589250565,0.009910941123962402,0.026344120502471924,0.0019078254699707031,0.2438066005706787,0.04613121226429939,0.11960799992084503,1.6034447842156037,-0.415818122705512,2.8433881207368685
1687088762.358557,0.9154559373855591,0.4015035629272461,0.027122387662529945,-0.015339791774749756,0.006379187107086182,-0.01079535111784935,0.10263236612081528,0.08784041553735733,0.037951402366161346,1.6004148529496365,-0.41315796351941503,2.833099391605412
1687088762.409411,0.9155741333961487,0.40119409561157227,0.027697693556547165,0.014616847038269043,0.02403777837753296,-0.006182674318552017,0.1026974618434906,0.037634022533893585,0.012306472286581993,1.6010388254064827,-0.4128200819200152,2.8272295890639794
1687088762.502203,0.9151225090026855,0.402302622795105,0.026528282091021538,-0.0006325840950012207,0.016612231731414795,0.018027428537607193,0.13201604783535004,0.0592658668756485,-0.011214056052267551,1.599776987642384,-0.41403059498660644,2.8213404748227044
1687088762.508843,0.9149625301361084,0.4027726948261261,0.02485528215765953,-0.0010983943939208984,0.009840220212936401,0.01864766888320446,0.3352756202220917,0.06593399494886398,0.023135151714086533,1.5979550037269739,-0.41454410405920217,2.807323506837833
1687088762.5943918,0.9148167371749878,0.40319764614105225,0.023281265050172806,-0.010458827018737793,-0.008239179849624634,0.053485751152038574,0.31289225816726685,0.1335778534412384,0.013272089883685112,1.5962399376922196,-0.41500841920782294,2.7886900007555027
1687088762.683398,0.9148398041725159,0.40283113718032837,0.028202565386891365,-0.0008230209350585938,-0.03163057565689087,0.025294780731201172,0.08414417505264282,0.18646499514579773,0.03653162717819214,1.601614440337697,-0.414607955296557,2.7795803238933283
1687088762.702009,0.9153957366943359,0.40109580755233765,0.03424530103802681,0.004632890224456787,-0.010303020477294922,0.03864597901701927,0.06538859754800797,0.12535397708415985,0.03238824009895325,1.6081892664278659,-0.4127127932164629,2.7750924856579977
