Timestamp,gravityX,gravityY,gravityZ,accelerationX,accelerationY,accelerationZ,rotationRateX,rotationRateY,rotationRateZ,attitudeRoll,attitudePitch,attitudeYaw
1686936019.943306,0.8340958952903748,0.5490699410438538,0.05297772213816643,-0.054005444049835205,0.013750553131103516,-0.021574974060058594,0.21013645827770233,-0.13611184060573578,0.03879161179065704,1.6342262689231801,-0.5812510151408177,-1.7485899542665602
1686936019.9490519,0.8360649347305298,0.5469371676445007,0.043072186410427094,-0.001989006996154785,0.010435879230499268,0.035785432904958725,0.18469850718975067,-0.06241081282496452,0.03244882822036743,1.6222685756441535,-0.5787013121475222,-1.7610080384872675
1686936019.953813,0.8362780809402466,0.5466198921203613,0.042964816093444824,0.026148736476898193,-0.05229610204696655,0.04835915565490723,-0.3286646902561188,-0.054460879415273666,0.03379565104842186,1.6221274255331424,-0.5783223731253758,-1.7542475105879631
1686936020.000193,0.8367621302604675,0.5453341603279114,0.04939880222082138,0.0563654899597168,0.0017698407173156738,-0.0018370077013969421,-0.19492419064044952,0.07544190436601639,0.02848627418279648,1.6297635457932438,-0.5767877034227921,-1.7422107283119215
1686936020.010262,0.8388888835906982,0.5409405827522278,0.06040618568658829,0.03855258226394653,-0.008057832717895508,-0.04867208003997803,-0.28671565651893616,0.03646082431077957,0.10725242644548416,1.6426796332284361,-0.5715550106607638,-1.7249550825157443
1686936020.013208,0.8414407968521118,0.5364586114883423,0.06472862511873245,-0.033793091773986816,0.042032718658447266,-0.0659949779510498,-0.17273811995983124,-0.0701904445886612,0.06387905776500702,1.6475710631807539,-0.5662351668946528,-1.715142915966786
1686936020.49142,0.8434100151062012,0.5331520438194275,0.06639784574508667,-0.044566571712493896,0.03679424524307251,-0.02861691266298294,-0.25342273712158203,-0.13741736114025116,0.022043323144316673,1.649359752673564,-0.5623219403743328,-1.6987501469964512
1686936020.4969602,0.8433921337127686,0.5335778594017029,0.06312445551156998,0.039283156394958496,0.06258314847946167,-0.02822744846343994,0.06480459123849869,-0.07274627685546875,0.0002285719383507967,1.6455029538326222,-0.5628253059751778,-1.6976913642965732
1686936020.5750232,0.8431547284126282,0.5341441035270691,0.06148542836308479,-0.013305366039276123,0.004689574241638184,0.02313995361328125,-0.15864533185958862,-0.10888618230819702,-0.02018006332218647,1.6435905446397459,-0.5634950100657914,-1.6918150888154622
1686936020.5808349,0.8419433236122131,0.5361301898956299,0.06079507991671562,-0.012231409549713135,-0.004376590251922607,0.03126131743192673,-0.12692436575889587,-0.05479151010513306,-0.050810907036066055,1.6428792647203538,-0.5658460247895494,-1.6840057339745362
1686936020.585682,0.8407533168792725,0.5378916263580322,0.06169930845499039,0.00517880916595459,0.0020560026168823242,0.02671027183532715,-0.03546299785375595,-0.021749524399638176,-0.03507925197482109,1.6440507552464916,-0.567934085044111,-1.6789380546111843
1686936020.596984,0.8401523232460022,0.5388281345367432,0.061714258044958115,0.018032550811767578,-0.009302258491516113,0.0161057710647583,0.010130112059414387,-0.044806335121393204,-0.006733530201017857,1.6441206700795368,-0.5690453848643289,-1.6784241071846997
1686936020.606828,0.8404615521430969,0.5383639931678772,0.061554960906505585,-0.002479255199432373,5.7756900787353516e-05,0.044615864753723145,0.020748861134052277,-0.006341765634715557,0.012014191597700119,1.6439052675351,-0.5684945203778442,-1.677430139861468
1686936020.643059,0.8407144546508789,0.5378313064575195,0.06274577975273132,-0.005188882350921631,0.006663382053375244,0.04890298843383789,-0.016284111887216568,0.048077479004859924,0.001828000065870583,1.6452920872216887,-0.5678625697047543,-1.6783579656516638
1686936020.646045,0.8407055139541626,0.5374067425727844,0.06639852374792099,-0.011756300926208496,0.001625359058380127,0.02899957448244095,0.05258340388536453,0.0879768431186676,0.0003702854737639427,1.6496122462198541,-0.5673590273982017,-1.6775911109342092
1686936020.648734,0.8397884964942932,0.5381758213043213,0.0715700313448906,0.011545181274414062,-0.024000346660614014,0.0030150413513183594,-0.1182592436671257,0.08900724351406097,0.00873094704002142,1.655814766152305,-0.5682712514560687,-1.6764531967306247
1686936020.651219,0.8396824598312378,0.5378885865211487,0.0748983770608902,0.01760232448577881,0.02343660593032837,-0.022270672023296356,0.07425553351640701,0.030211569741368294,0.016605515033006668,1.6597593420136443,-0.5679304958580433,-1.6768095962181448
1686936020.690071,0.8406563401222229,0.536196768283844,0.07609527558088303,-0.004489719867706299,-0.007784783840179443,-0.0191492959856987,0.0910477563738823,0.018448175862431526,0.03226809948682785,1.6610691956948724,-0.5659249117887613,-1.6765608833180239
1686936020.692574,0.8414135575294495,0.5354000926017761,0.07328275591135025,-1.3232231140136719e-05,-0.021758615970611572,-0.006586425006389618,-0.04658365622162819,-0.012860824353992939,0.04190681129693985,1.6576719196361491,-0.5649813880648922,-1.6827673163584211
1686936020.695519,0.8426315784454346,0.5336686372756958,0.07190332561731339,0.003605663776397705,0.033393800258636475,-0.001041412353515625,0.11144904792308807,0.021088913083076477,0.014908415265381336,1.6559219799030656,-0.5629326799017309,-1.6851321979474962
1686936020.6976728,0.8430359959602356,0.5329241752624512,0.07268165796995163,0.0061157941818237305,0.005772233009338379,0.010311014950275421,-0.04079399257898331,0.03233906254172325,0.007521871477365494,1.6567978465528432,-0.5620526289594739,-1.6859309227517008
1686936020.738312,0.842399537563324,0.5338324308395386,0.07339031249284744,0.012947142124176025,0.0221826434135437,-0.023066647350788116,0.053797900676727295,0.042702168226242065,-0.021425757557153702,1.657697455711894,-0.5631263394892013,-1.689031708509835
1686936020.7454019,0.8418363928794861,0.5344486236572266,0.07534368336200714,0.002539396286010742,0.00012791156768798828,-0.004649512469768524,0.010579375550150871,0.01699821650981903,-0.00921136885881424,1.6600576997307426,-0.5638552853070139,-1.6875439189095633
1686936020.785336,0.8411982655525208,0.5355899930000305,0.07435745000839233,0.004092872142791748,-0.012976467609405518,-0.011201150715351105,-0.02938624657690525,0.014759937301278114,-0.018431896343827248,1.658961853895729,-0.5652062365962545,-1.689811396898828
1686936020.7956061,0.8407119512557983,0.5362595915794373,0.07502691447734833,0.0026260018348693848,0.0016737580299377441,-0.010970361530780792,-0.020376108586788177,-0.006176756229251623,-0.0150870680809021,1.6598026596810194,-0.5659993722020618,-1.6889040122809629
1686936020.7978148,0.8407415747642517,0.5361770391464233,0.07528611272573471,-4.3332576751708984e-05,-0.0076583027839660645,-0.006499297916889191,-0.0008140634745359421,0.00583278201520443,-0.01573072001338005,1.6601053936268335,-0.5659015480602316,-1.6871070520159104
1686936020.799973,0.8407389521598816,0.5361847281455994,0.07525961101055145,0.009343445301055908,-0.011358678340911865,-0.008334405720233917,-0.026398325338959694,-0.008917668834328651,0.00713744480162859,1.660074389707243,-0.5659106959557667,-1.6875379010506728
1686936020.850883,0.8411861062049866,0.5354594588279724,0.07542891055345535,-0.007430434226989746,0.003923594951629639,0.012126214802265167,-0.009596514515578747,0.010872362181544304,-0.017186203971505165,1.6602268519928804,-0.5650516767307404,-1.6866463188477183
1686936020.9125872,0.8416228890419006,0.534757137298584,0.07553879171609879,0.0029970407485961914,-0.0004705190658569336,-0.005210869014263153,-0.02324550598859787,-0.0007903669029474258,0.016060564666986465,1.660310203687666,-0.5642203248997788,-1.6866672605409947
1686936020.962974,0.8422151207923889,0.5336516499519348,0.07674680650234222,0.00272524356842041,-0.015768229961395264,0.01846826821565628,-0.03196394443511963,-0.0020988574251532555,0.03458597883582115,1.6616702979643754,-0.5629125860704414,-1.6824766094451713
1686936021.0384688,0.8428204655647278,0.5327020883560181,0.07669609785079956,-0.005280792713165283,-0.023394227027893066,-0.01610327512025833,-0.0704951137304306,0.0035388413816690445,0.03694434463977814,1.6615457147797907,-0.5617901883065309,-1.6834811467035595
1686936021.0931082,0.843829870223999,0.5308799147605896,0.07821563631296158,0.003368556499481201,0.003742218017578125,0.0011149495840072632,0.04472079873085022,0.01741618663072586,0.03375038132071495,1.663223473620015,-0.5596385339435378,-1.6814392112956038
1686936021.131568,0.8448323607444763,0.5291730761528015,0.07895905524492264,-0.005049467086791992,-0.008222639560699463,-0.003824584186077118,-0.077557273209095,0.015615491196513176,0.03405524417757988,1.6639868262576947,-0.5576257294631415,-1.6808738556731813
1686936021.175832,0.8457685112953186,0.5276124477386475,0.07937747240066528,0.007228255271911621,0.02579331398010254,-0.0009166151285171509,-0.009986486285924911,-0.003349438076838851,0.03521498292684555,1.6643746921406826,-0.555787505380079,-1.6802123734605454
1686936021.2274098,0.8464282751083374,0.5265547037124634,0.07936926186084747,-0.017845511436462402,0.02431809902191162,-0.00119829922914505,-0.002329692244529724,0.004221090115606785,-0.0011646938510239124,1.6642925662924122,-0.5545428620374026,-1.6797444678015532
1686936021.267558,0.8462358713150024,0.5268040299415588,0.07976675778627396,-0.0015091896057128906,0.015356063842773438,0.006704926490783691,-0.08388641476631165,-0.017943814396858215,0.004323548637330532,1.6647793003905538,-0.5548361709285566,-1.6779749283164143
1686936021.338789,0.846482515335083,0.5263997316360474,0.07981839030981064,-0.0016643404960632324,0.0034465789794921875,0.003342151641845703,-0.020589210093021393,-0.02888883277773857,0.012795296497642994,1.6648125367977213,-0.5543605342484773,-1.675220690400053
1686936021.381277,0.8473907113075256,0.5249701738357544,0.07959525287151337,0.012457311153411865,-0.02042299509048462,0.0012917444109916687,-0.06645762175321579,-0.1122298315167427,0.0725657194852829,1.6644513583212774,-0.552680041060045,-1.6698647551982149
1686936021.420961,0.8488091230392456,0.5234203338623047,0.07452787458896637,-0.015313029289245605,0.03936964273452759,-0.017032630741596222,-0.42966920137405396,-0.30212414264678955,-0.009085334837436676,1.658374593676889,-0.5508601167292547,-1.6653946596607336
1686936021.47858,0.8477884531021118,0.5253812670707703,0.07231482118368149,-0.12273651361465454,0.326990008354187,0.08033430576324463,-1.1148878335952759,-0.5256214141845703,-0.33536380529403687,1.655888545612915,-0.553163165287089,-1.619132420598793
1686936021.5190902,0.8317404985427856,0.548375129699707,0.08655986189842224,-0.19778358936309814,0.8018598556518555,0.20515787601470947,-1.3039730787277222,-0.18817134201526642,-1.2141797542572021,1.6744937779121623,-0.5804198981119862,-1.5377030163663261
1686936021.58617,0.7790592312812805,0.6122197508811951,0.13510754704475403,-0.05951571464538574,1.0372554063796997,0.3803039789199829,-1.0724185705184937,0.7133328914642334,-2.357436418533325,1.742512404445201,-0.6588649484531854,-1.4451581459445295
1686936021.63229,0.675869882106781,0.7085677981376648,0.20280961692333221,0.284518301486969,0.92454993724823,0.24857604503631592,-0.7435495853424072,1.2644717693328857,-3.2275173664093018,1.8623191595259516,-0.7874665310207587,-1.343566262681306
1686936021.662898,0.5172759890556335,0.8178820013999939,0.2519821524620056,0.6197022199630737,0.7304274439811707,0.05435347557067871,0.7519346475601196,1.7230825424194336,-3.9801132678985596,2.024097393504371,-0.9577203092781242,-1.2358357467614085
1686936021.743239,0.31808018684387207,0.9206341505050659,0.22640296816825867,0.7453354001045227,0.4707998037338257,-0.08498427271842957,1.081308126449585,1.2348027229309082,-4.305332660675049,2.1893843711085452,-1.1697016203019088,-1.1296838413988373
1686936021.7826672,0.1104215532541275,0.9691310524940491,0.22043730318546295,1.0059877634048462,0.09803831577301025,-0.11077213287353516,0.4356250464916229,0.5688439607620239,-4.066422939300537,2.677208978497238,-1.3216814422776395,-0.6641041626208815
1686936021.8223472,-0.09848862886428833,0.9869830012321472,0.12714232504367828,0.815178632736206,0.29335176944732666,-0.09653303027153015,2.2199227809906006,0.47601082921028137,-4.193730354309082,-2.482511993797938,-1.4092700917102852,0.4519203934052701
1686936021.86789,-0.2923044264316559,0.9519187808036804,0.09170012176036835,0.871787428855896,-0.17222511768341064,-0.06891858577728271,0.7560064196586609,-0.07679874449968338,-3.9547641277313232,-1.874787225632053,-1.2594394979388728,1.0757718041133493
1686936021.933227,-0.4926896393299103,0.8690502047538757,0.04482132941484451,0.9465927481651306,-0.022248387336730957,0.2035309076309204,-0.3984031081199646,0.1299261599779129,-4.696966171264648,-1.6615193466811464,-1.0532792637928563,1.2929102189990724
1686936021.9795,-0.6899302005767822,0.7204709649085999,0.0701313316822052,0.8816567659378052,0.1729617714881897,0.014066822826862335,0.28800979256629944,0.5936601161956787,-5.206160545349121,-1.6720982687885941,-0.8044811790011305,1.26930316845854
1686936022.021789,-0.8612285852432251,0.5080855488777161,0.011604074388742447,0.9860148429870605,0.18205422163009644,0.1628040075302124,1.6399352550506592,0.3953072726726532,-5.597388744354248,-1.5842693733140076,-0.5329605963023698,1.3676697059626717
1686936022.0693269,-0.9684450030326843,0.2471625655889511,-0.032019637525081635,0.7764435410499573,0.24648979306221008,0.12773817777633667,1.1239027976989746,0.16377203166484833,-5.647819995880127,-1.5377454284324754,-0.24975086340335254,1.4477845783058065
1686936022.112659,-0.999177873134613,-0.028719699010252953,-0.028619084507226944,0.6644304394721985,0.1617305427789688,0.07848495244979858,0.4641098082065582,-0.24727478623390198,-5.407358646392822,-1.542161522631745,0.028723649043128692,1.4710533281295624
1686936022.161996,-0.9562567472457886,-0.2922263741493225,-0.013309555128216743,0.5912511348724365,0.21127843856811523,0.027729272842407227,0.0008297727908939123,-0.3933948278427124,-5.191049098968506,-1.5568788346306304,0.2965539981467545,1.4768479363030071
1686936022.2402182,-0.8527380228042603,-0.5222329497337341,0.010537659749388695,0.3963780403137207,-0.09484779834747314,-0.04663980007171631,0.24620187282562256,-0.5251819491386414,-4.748715877532959,-1.5831531383089155,0.5494671889608018,1.4707422986965817
1686936022.294811,-0.71429443359375,-0.6993067264556885,0.027458319440484047,0.48368823528289795,-0.054004549980163574,0.05365753173828125,-0.9481790065765381,-0.7913661599159241,-4.215094566345215,-1.6092185880651035,0.7744271490822705,1.4638186890811933
1686936022.33482,-0.5643622875213623,-0.824485719203949,0.041459646075963974,0.32885807752609253,0.04795050621032715,-0.04448079690337181,1.058937668800354,-0.37439218163490295,-3.7037601470947266,-1.6441274168056565,0.9692928219728062,1.465397568322151
1686936022.431189,-0.41839781403541565,-0.9004972577095032,0.11852497607469559,0.26335328817367554,-0.1535189151763916,0.07599425315856934,2.1028800010681152,-0.2494591325521469,-2.916907787322998,-1.8468467116431955,1.1209117035657463,1.6799249495960957
1686936022.446659,-0.3144160807132721,-0.929948091506958,0.19062799215316772,0.295418918132782,-0.3250109553337097,0.3013307750225067,0.3689437806606293,0.02374633587896824,-1.4932163953781128,-2.115829522708346,1.1942716214032156,1.9737877822236722
1686936022.542597,-0.2697012424468994,-0.9359731674194336,0.22630831599235535,0.24505838751792908,-0.34336942434310913,0.07674665749073029,1.5167194604873657,0.30940115451812744,-0.6353630423545837,-2.2689325698845297,1.2110131168022236,2.147506644448269
1686936022.5590649,-0.23943322896957397,-0.9335179328918457,0.26686370372772217,-0.12447358667850494,0.16473430395126343,0.1547519862651825,-0.6305803656578064,0.3640236556529999,-0.44850629568099976,-2.410320207256112,1.2041027723220368,2.316056785106478
1686936022.591471,-0.22108592092990875,-0.9455719590187073,0.23877865076065063,0.09956493973731995,0.04092395305633545,-0.3760312795639038,0.7384681701660156,-0.013708163052797318,-0.35578030347824097,-2.3946493276130667,1.2393476890760267,2.2853005029092444
1686936022.6350842,-0.21935690939426422,-0.93843674659729,0.2668696939945221,0.20051231980323792,-0.148004412651062,-0.048272132873535156,0.20396661758422852,-0.28114190697669983,0.05305606499314308,-2.4536026150468793,1.2180768744062345,2.3392730936539805
1686936022.677041,-0.22237049043178558,-0.9333966374397278,0.2816416621208191,0.01997794210910797,0.06924575567245483,0.01926177740097046,0.26877790689468384,0.09813728928565979,0.05723387002944946,-2.4732555104535527,1.2037646658448853,2.356456101571447
1686936022.7297978,-0.22556515038013458,-0.932938277721405,0.2806183695793152,0.00017760694026947021,-0.03993159532546997,0.030661076307296753,-0.15470683574676514,0.0808495283126831,-0.004863358568400145,-2.4645300484318837,1.2024895083808844,2.3541737703169328
1686936022.775475,-0.22742444276809692,-0.9322987198829651,0.2812424302101135,-0.018226757645606995,0.011201918125152588,-0.016136109828948975,0.1055111512541771,0.10480893403291702,0.0020788698457181454,-2.4616043453640595,1.2007171211180043,2.356347743632901
1686936022.841817,-0.22905407845973969,-0.9319574236869812,0.2810512185096741,0.016300782561302185,0.005520045757293701,-0.008910566568374634,0.0658152624964714,-0.03340424969792366,0.04610511660575867,-2.4577777322906895,1.1997747510310446,2.3533359893479897
1686936022.886117,-0.23115721344947815,-0.9295135140419006,0.2873518168926239,0.016481339931488037,-0.005575597286224365,-0.025556594133377075,0.04521290212869644,-0.05022738501429558,0.05808708071708679,-2.4641504413603483,1.1930914418349527,2.359172889951379
1686936022.9256659,-0.23200541734695435,-0.9308054447174072,0.282444030046463,-0.02241954207420349,0.016498923301696777,0.0320855975151062,-0.0840684249997139,-0.010867315344512463,0.03871441259980202,-2.4539259909814843,1.1966103040436944,2.3446204296805133
1686936022.97163,-0.235966295003891,-0.9305713176727295,0.2799236476421356,0.03612196445465088,-0.03662240505218506,-0.014618873596191406,-0.12359324097633362,0.04111513867974281,0.14538466930389404,-2.4411960208431025,1.1959702814083368,2.3320942000608484
1686936023.0455709,-0.2436169683933258,-0.9336729049682617,0.2624996304512024,0.031886011362075806,0.030230343341827393,-0.02765139937400818,-0.5016502141952515,0.1865750551223755,0.19094835221767426,-2.3934861191427887,1.204535317815782,2.2849456545577618
1686936023.094356,-0.2615008056163788,-0.9376416206359863,0.22900989651679993,0.16643860936164856,-0.1566576361656189,-0.04332546889781952,-1.0231534242630005,-0.004730686545372009,0.48021262884140015,-2.2900521939393657,1.2157822559492375,2.1845306241654927
1686936023.137562,-0.2955242991447449,-0.9401714205741882,0.16953837871551514,0.2552105784416199,-0.09414559602737427,0.03514312207698822,-1.143446683883667,-0.2595692574977875,1.141658067703247,-2.0916431190360085,1.223133153716246,1.9670810853775471
1686936023.18799,-0.37054112553596497,-0.9175207614898682,0.1444127857685089,0.42568641901016235,-0.1629541516304016,0.009197577834129333,-0.4831680357456207,-0.29846253991127014,2.236696481704712,-1.942422240489212,1.1618008865618348,1.7923187189245002
1686936023.241106,-0.4992181956768036,-0.8569095134735107,0.12840300798416138,0.5224573612213135,-0.15970730781555176,0.08827196061611176,-0.7566629648208618,0.09696443378925323,3.5401546955108643,-1.8225475923630379,1.0292438998768818,1.6495262697717175
1686936023.2876558,-0.6694221496582031,-0.7390656471252441,0.07520701736211777,0.7085915207862854,-0.22625118494033813,0.07933413237333298,-1.33343505859375,-0.053993213921785355,5.035457134246826,-1.6826733816024229,0.8316822528827867,1.4811362018959435
1686936023.330268,-0.8458143472671509,-0.532026469707489,0.03932463005185127,0.7000011801719666,-0.1705036163330078,0.04551434889435768,-1.390575647354126,-0.0996970534324646,5.7555389404296875,-1.617256087738998,0.5609920372976366,1.3781346726162733
1686936023.388421,-0.9663493633270264,-0.25529783964157104,0.03149769455194473,0.6581980586051941,0.07051387429237366,-0.07281827926635742,-1.4166072607040405,-0.9164125919342041,6.242321491241455,-1.6033793145494577,0.258155746071989,1.2791642952943965
1686936023.435575,-0.9967482686042786,0.047759853303432465,0.06489875912666321,0.33930814266204834,0.03392040729522705,0.11353765428066254,-1.1508691310882568,-0.7347018718719482,6.13912296295166,-1.6358150363704689,-0.047778029446537355,1.2094899777518282
1686936023.486831,-0.9293610453605652,0.3352813422679901,0.1545141339302063,0.5862518548965454,0.07046505808830261,-0.05353142321109772,-2.0638933181762695,-1.9094723463058472,6.049190998077393,-1.7355478099114292,-0.3419038560886144,1.090619956129485
1686936023.5391312,-0.7690480351448059,0.5877822041511536,0.25115224719047546,0.5560352206230164,0.00015419721603393555,0.02281951904296875,-0.36808469891548157,-1.8374075889587402,6.091890335083008,-1.886452552014368,-0.6283147791310676,0.9531241983663198
1686936023.572205,-0.5396389365196228,0.7560269832611084,0.3704228699207306,0.6481899619102478,0.10606402158737183,-0.03141823410987854,-1.3941137790679932,-2.5470197200775146,5.577268123626709,-2.172354854583761,-0.8572217358628609,0.701852898760527
1686936023.649181,-0.27490538358688354,0.8706484436988831,0.40791991353034973,0.6264373064041138,0.3722410202026367,-0.09975326061248779,1.132476568222046,-2.6767537593841553,4.934985160827637,-2.5485853105611147,-1.0565189689228958,0.39622691102953866
1686936023.678004,-0.014468585141003132,0.8613772988319397,0.5077600479125977,0.8040345907211304,-0.043734967708587646,0.24141621589660645,-3.7653892040252686,-3.16975998878479,3.9653358459472656,-3.11310543677771,-1.0379748294842717,-0.08344465820973981
1686936023.742538,0.2156417816877365,0.8223962187767029,0.5264633893966675,0.15551306307315826,0.7401650547981262,0.07630479335784912,2.1659672260284424,-2.468169927597046,2.786348581314087,2.7528340545967036,-0.9656101932034448,-0.383536434169014
1686936023.787405,0.3777987062931061,0.8129147291183472,0.4432132840156555,0.49379855394363403,0.09316742420196533,0.19890731573104858,-0.5410057902336121,-2.1390931606292725,2.7074949741363525,2.4357020584767697,-0.9491395785230123,-0.6391265343275536
1686936023.825712,0.5062733888626099,0.7604541182518005,0.40669047832489014,0.04795640707015991,0.4593031406402588,0.2149375081062317,1.4560692310333252,-1.1219558715820312,2.0221738815307617,2.2475475201864477,-0.8640121623263319,-0.7728315272230943
1686936023.879384,0.6018220782279968,0.7260828614234924,0.33258700370788574,0.24882489442825317,0.08721065521240234,0.12774038314819336,0.5528310537338257,-0.9418634176254272,2.094724416732788,2.0756591187495586,-0.812607945429977,-0.9317680897960329
1686936023.9282851,0.6802113056182861,0.6805658936500549,0.27229151129722595,0.1764628291130066,0.25180715322494507,0.12581035494804382,1.4517747163772583,-0.6084735989570618,1.752144455909729,1.9515649974864175,-0.7485347019061718,-1.0599427753355273
1686936023.9689322,0.7494627833366394,0.6239438652992249,0.22135955095291138,-0.0037809014320373535,0.1802249550819397,0.16340628266334534,0.3694133758544922,-0.5834898352622986,1.7701176404953003,1.857988638940685,-0.6737793154795613,-1.1460567914844217
1686936024.038371,0.8009262084960938,0.5747334361076355,0.16792580485343933,0.10053259134292603,0.4108165502548218,0.03153729438781738,1.7086224555969238,-0.2743417024612427,1.4435852766036987,1.777467179411973,-0.6122783523499361,-1.2483725440091873
1686936024.0773082,0.8389327526092529,0.5298118591308594,0.12446463853120804,0.012828171253204346,0.4209023118019104,0.1926283836364746,1.4530282020568848,0.031579650938510895,1.1994943618774414,1.7180826469676003,-0.5583786879125379,-1.3486804864732858
1686936024.12495,0.8648149967193604,0.4920575022697449,0.09987249225378036,-0.03838372230529785,0.3852313458919525,0.21044564247131348,0.8015853762626648,0.19370286166667938,0.8321362137794495,1.685771237517631,-0.514451586180876,-1.4196057234627635
1686936024.172049,0.8751259446144104,0.47579512000083923,0.08816980570554733,-0.06340408325195312,0.5330398082733154,0.04958677291870117,1.453804850578308,0.4919966757297516,0.32011735439300537,1.6712084782452372,-0.4958678128357562,-1.4965378934019928
1686936024.220176,0.8745085597038269,0.4773571789264679,0.08581952750682831,-0.1865507960319519,0.2859179973602295,0.11014925688505173,0.882439136505127,0.45993852615356445,-0.1857319474220276,1.6686176887799788,-0.4976446321653023,-1.559244235257758
1686936024.2900329,0.8682457208633423,0.4870609641075134,0.09445328265428543,-0.015096127986907959,-0.05189543962478638,0.061369672417640686,0.07551811635494232,0.3943895995616913,-0.16116560995578766,1.6791565511614166,-0.5087213927838611,-1.5805892113365267
1686936024.333189,0.8629753589630127,0.494071900844574,0.10567313432693481,0.01779252290725708,-0.09348288178443909,-0.038824208080768585,0.08478249609470367,0.3361692726612091,-0.0678931251168251,1.6926418294403607,-0.5167670205369509,-1.5851563210590554
1686936024.3889961,0.8601112365722656,0.4969136118888855,0.11526484042406082,0.0904046893119812,-0.10726505517959595,-0.0814206451177597,-0.155103400349617,0.15412433445453644,0.057793132960796356,1.7040141657553098,-0.5200385803083061,-1.5881741691969316
1686936024.45767,0.8598945140838623,0.49617406725883484,0.11997073143720627,-0.03671330213546753,0.09408169984817505,-0.06419969350099564,0.3794987201690674,0.09455669671297073,-0.05089399963617325,1.7094194680470323,-0.5191865611856608,-1.5914135932973088
1686936024.477278,0.8594101071357727,0.4970642030239105,0.1197565570473671,0.02048802375793457,-0.0010924935340881348,-0.013555176556110382,0.015819374471902847,0.049346160143613815,-0.0028326651081442833,1.7092521513052406,-0.5202121037739016,-1.5977579833847713
1686936024.5276809,0.8577757477760315,0.5005782842636108,0.11680015176534653,-0.010897696018218994,0.01667940616607666,0.020529143512248993,0.15545594692230225,0.035670358687639236,-0.04071130231022835,1.7061302979501904,-0.5242666471503467,-1.6059745451054195
1686936024.568787,0.8563817143440247,0.5042574405670166,0.11106380075216293,0.023150324821472168,-0.01376354694366455,-0.018015488982200623,0.19254939258098602,0.020129961892962456,-0.02582676336169243,1.6997660706572832,-0.5285218633560927,-1.6211534271032217
1686936024.6450238,0.8561732769012451,0.5048559904098511,0.1099456176161766,-0.010821044445037842,-0.0256231427192688,0.03667628765106201,0.15115152299404144,0.0579291395843029,-0.006426767446100712,1.6985125067018298,-0.5292151404452421,-1.6260362976951088
1686936024.684565,0.8562778830528259,0.5045112371444702,0.11071087419986725,0.0026851892471313477,-0.051157236099243164,0.014014601707458496,-0.1919667273759842,0.03125457093119621,0.04121152684092522,1.6993761766844633,-0.5288157551434443,-1.6277071649200183
1686936024.727714,0.8564515709877014,0.50428307056427,0.11040522903203964,-0.02266561985015869,0.07774817943572998,-0.044136181473731995,0.2759082615375519,0.04001129791140556,-0.04402058199048042,1.6989993676190405,-0.5285515191477759,-1.634348469362142
1686936024.7755342,0.8562191128730774,0.5044879913330078,0.11126967519521713,0.004849672317504883,0.008924603462219238,-0.004839420318603516,-0.05975096672773361,-0.0011079086689278483,-0.012798747047781944,1.7000267550254125,-0.5287888286496901,-1.6342904668456986
1686936024.826621,0.8550504446029663,0.506680965423584,0.11028748750686646,0.009360015392303467,0.012331545352935791,-0.011959671974182129,0.03360440209507942,0.0004775244742631912,-0.053689323365688324,1.6990716894129854,-0.5313306246653713,-1.6357379157318954
1686936024.885858,0.8540170192718506,0.5080413222312927,0.11202429234981537,0.00639575719833374,-0.011062443256378174,0.014776483178138733,0.014042260125279427,0.023468419909477234,-0.034427106380462646,1.70122502247653,-0.5329092527207402,-1.6321945829929838
1686936024.9374828,0.8528024554252625,0.5103505849838257,0.11077222973108292,0.010784029960632324,-0.023869812488555908,0.014578811824321747,-0.0593898668885231,0.024994347244501114,-0.02989177778363228,1.6999651391407409,-0.5355923965230742,-1.6355538701214256
1686936024.985547,0.8525830507278442,0.5103508830070496,0.11244766414165497,-0.006940901279449463,-0.002385735511779785,-0.023595571517944336,0.039193443953990936,0.01027075294405222,-0.013606783002614975,1.7019300282880243,-0.5355927800585908,-1.633624730659437
1686936025.026892,0.8526875972747803,0.5100969076156616,0.11280646175146103,0.006077170372009277,-0.009242355823516846,-0.0045909881591796875,-0.007133623585104942,0.010441647842526436,0.0018693122547119856,1.702327706761917,-0.535297471877636,-1.6328611762002705
1686936025.0691109,0.8523780703544617,0.5109703540802002,0.11118178814649582,-0.0028295516967773438,0.02214139699935913,-0.018652305006980896,-0.024254431948065758,-0.00876552239060402,-0.023810816928744316,1.7005012138994338,-0.5363132364618304,-1.6368999827116855
1686936025.141633,0.8520143032073975,0.5110189914703369,0.11371613293886185,0.003668069839477539,0.019544363021850586,0.005028001964092255,-0.011081469245254993,0.012701020576059818,-0.024395182728767395,1.7034795805955385,-0.5363698659267547,-1.6297788250452214
1686936025.177743,0.8505304455757141,0.5138534307479858,0.11203953623771667,0.002237558364868164,0.006883382797241211,-0.01792311668395996,0.05289124324917793,0.04104134440422058,-0.029213305562734604,1.7017712315378564,-0.5396705763650244,-1.636173269150818
1686936025.2377229,0.8495664596557617,0.5153470039367676,0.11249222606420517,0.0012483596801757812,0.004916727542877197,-0.002491489052772522,0.023303741589188576,-0.00493610929697752,-0.03320338577032089,1.7024418515786757,-0.5414125129417294,-1.6374278551626653
1686936025.28251,0.8495805263519287,0.5151481032371521,0.11329556256532669,0.0017685294151306152,-0.02680569887161255,-0.0005938857793807983,-0.02860180102288723,0.001737798796966672,0.008294587954878807,1.7033688631858468,-0.541180445216605,-1.6338008256447998
1686936025.327839,0.8492130041122437,0.5163160562515259,0.11070241779088974,-0.008789479732513428,0.007945358753204346,-0.02040078490972519,0.09118428081274033,0.007338586263358593,-0.02303696796298027,1.7004241861418374,-0.5425436684190303,-1.6412911065599087
1686936025.375519,0.8496447801589966,0.5154262781143188,0.1115337461233139,0.0014142394065856934,-0.004211008548736572,0.0004963800311088562,0.05184917151927948,-0.004309201613068581,0.001811721595004201,1.7013210374448913,-0.5415050075684811,-1.6382322533786702
1686936025.421492,0.8494182229042053,0.5161851644515991,0.10973642766475677,0.002266526222229004,-0.018122851848602295,0.007985368371009827,-0.09900789707899094,-0.030504919588565826,-0.003441263921558857,1.6992748131243376,-0.5423908065788643,-1.640817727802707
1686936025.480925,0.8499244451522827,0.5154110789299011,0.10945325344800949,0.00021898746490478516,0.015335381031036377,-0.0013293102383613586,0.13388760387897491,-0.006324482150375843,-0.004175097681581974,1.6988713989635928,-0.5414872697978652,-1.6395526307787907
1686936025.6046681,0.8497009873390198,0.5160593390464783,0.1081257164478302,0.0066375732421875,-0.03069251775741577,0.013715855777263641,-0.024847906082868576,0.014892855659127235,0.0041409884579479694,1.6973675576792702,-0.5422439218382078,-1.642845119680712
1686936025.619639,0.8495059013366699,0.5167554616928101,0.10631924867630005,0.008724689483642578,0.016951322555541992,0.015552878379821777,0.052839599549770355,-0.010108261369168758,0.0009413338266313076,1.6953031639691185,-0.5430568176323328,-1.6480039815318348
1686936025.638332,0.8500502109527588,0.515723705291748,0.1069764643907547,-0.004438579082489014,0.0047841668128967285,-0.0020873546600341797,0.035383570939302444,0.010344070382416248,0.0066125355660915375,1.6959854372273384,-0.5418521698237434,-1.6468767140157252
1686936025.8528361,0.8503134846687317,0.515550971031189,0.10570911318063736,0.003705739974975586,-0.008837103843688965,-0.006343729794025421,-0.06434442847967148,-0.02746320143342018,0.02679789811372757,1.694479570273553,-0.5416505636370597,-1.6494468690180661
1686936025.868987,0.8507553339004517,0.5149394869804382,0.10513398796319962,-7.766485214233398e-05,0.02752584218978882,-0.02288900315761566,0.08396954089403152,-0.019715307280421257,-0.0009532722178846598,1.6937501876411332,-0.5409370243417891,-1.648199951223854
1686936025.941757,0.8509042263031006,0.5150139927864075,0.10355137288570404,0.0029624104499816895,0.006088972091674805,0.0007730722427368164,6.350874900817871e-05,-0.016320496797561646,-0.005255542695522308,1.691896535283593,-0.5410239500573919,-1.650315042915476
1686936025.946549,0.8506900072097778,0.5158258080482483,0.10124576836824417,-0.002255380153656006,0.00576549768447876,-0.01160024106502533,0.04937718063592911,-0.010509919375181198,-0.02237091213464737,1.6892551637136444,-0.5419713369704294,-1.6533266206129853
1686936025.963676,0.8504670858383179,0.516161322593689,0.1014084741473198,0.00755000114440918,-0.014513254165649414,0.00608980655670166,-0.06476447731256485,-0.0151884276419878,0.010114658623933792,1.6894745596081255,-0.5423629764742851,-1.6510392985236764
1686936025.9743571,0.85015869140625,0.5168455839157104,0.10050495713949203,-0.004592716693878174,0.014847040176391602,-0.010859355330467224,0.03599894791841507,-0.0027410658076405525,-0.01505404431372881,1.688469222095887,-0.5431621056348513,-1.653507136660042
1686936026.153343,0.8505680561065674,0.5159997344017029,0.10138219594955444,0.0018641352653503418,0.01247316598892212,0.006528124213218689,0.0532585047185421,-0.011797145009040833,-0.002116674091666937,1.6894301376798395,-0.5421743283713811,-1.6509127808877417
1686936026.168788,0.850284218788147,0.516604483127594,0.10068172216415405,0.016384541988372803,-0.015719473361968994,0.009029142558574677,-0.05170632153749466,-0.005249270237982273,0.015258487313985825,1.6886570331224096,-0.5428805296043356,-1.6515966174648202
1686936026.270702,0.8496425151824951,0.5178332328796387,0.09978446364402771,-0.007036685943603516,0.017002761363983154,-0.005484916269779205,0.051398247480392456,0.0025936325546354055,-0.03403875231742859,1.687703674447599,-0.5443162025979424,-1.6541081035785137
1686936026.330838,0.849437415599823,0.5178602337837219,0.1013779416680336,0.005833148956298828,-0.007468879222869873,0.014161840081214905,0.006571947131305933,0.028728429228067398,-0.016802042722702026,1.6895816309456952,-0.5443477466416358,-1.6512986495833364
1686936026.346117,0.8484448790550232,0.5195895433425903,0.10083731263875961,-0.007304131984710693,0.006991326808929443,-0.005469687283039093,-0.038407281041145325,-0.002333681797608733,-0.042674288153648376,1.6890910038354725,-0.5463704531804257,-1.6548781945130122
1686936026.34979,0.846912145614624,0.5215905904769897,0.10336001962423325,-0.04817551374435425,0.07544010877609253,-0.02463984489440918,-0.2305142730474472,-0.1467587947845459,-0.15972863137722015,1.6922391291967753,-0.5487141858861485,-1.6425046208431475
1686936026.38451,0.8436545729637146,0.5270190834999084,0.10245901346206665,-0.028011322021484375,0.12736934423446655,-0.08254612982273102,-0.8518826365470886,-0.6364178657531738,-0.29012033343315125,1.6916511136441463,-0.5550891878181683,-1.613395749791404
1686936026.395568,0.8346535563468933,0.5393598079681396,0.11155471205711365,-0.045774221420288086,0.34371209144592285,0.10820244252681732,-2.276045322418213,-0.819727897644043,-0.675810694694519,1.7036628285555144,-0.5696766669311703,-1.517187015839172
1686936026.44414,0.8097651600837708,0.5704607963562012,0.13731281459331512,-0.12496602535247803,0.8553966879844666,0.2623760402202606,-1.4263062477111816,-0.17805105447769165,-1.440878987312317,1.738769654083901,-0.6070668094710733,-1.400658182994302
1686936026.601198,0.751242458820343,0.6324321031570435,0.18885073065757751,0.05405545234680176,0.7730854749679565,0.2630537748336792,-1.8114111423492432,0.4180801510810852,-2.2618072032928467,1.817077658927676,-0.6846889890613003,-1.2764968002988806
1686936026.6170712,0.6482613682746887,0.713413417339325,0.2660803198814392,0.15216898918151855,0.8764609098434448,0.2897975444793701,-0.8490487337112427,1.2428096532821655,-3.2273004055023193,1.9602806210452952,-0.7943573853033196,-1.1293862606496132
1686936026.898627,0.4927520751953125,0.8002064228057861,0.3418560326099396,0.5638580918312073,0.6487073302268982,0.23417869210243225,-0.6469849348068237,1.7646522521972656,-3.754631280899048,2.177328028196261,-0.9276393478738605,-0.943059341239391
1686936026.91009,0.28339076042175293,0.8810737729072571,0.3786807358264923,0.8007919788360596,0.5339807271957397,0.058941543102264404,0.39210253953933716,2.2105698585510254,-4.341084957122803,2.4991398698491376,-1.0781277164238323,-0.6824194578733166
1686936026.9139109,0.03152358531951904,0.9194522500038147,0.39193588495254517,1.043519139289856,0.27235060930252075,0.0007949471473693848,0.1571275144815445,2.3100433349609375,-4.77959680557251,3.0613349538773327,-1.1666851261414686,-0.18915480229843876
1686936026.957897,-0.24494251608848572,0.8998550772666931,0.36092132329940796,1.1899802684783936,0.18798983097076416,0.013025999069213867,0.4108031392097473,2.381696939468384,-5.220717906951904,-2.5453335432368043,-1.1194371491159332,0.4169522209727997
1686936026.961437,-0.5100852847099304,0.8136417865753174,0.2789266109466553,1.1621696949005127,0.20245617628097534,-0.06676831841468811,1.7780147790908813,2.1307263374328613,-5.437060356140137,-2.071197505721471,-0.950389118428545,0.8375053801858608
1686936026.964658,-0.7419103384017944,0.6525252461433411,0.15420714020729065,1.3257726430892944,0.11396944522857666,0.1821119487285614,1.0011742115020752,1.3400388956069946,-5.663008689880371,-1.7757298348335677,-0.7109121326559839,1.0992821299235387
1686936027.0455809,-0.9020888209342957,0.42510002851486206,0.07433371990919113,0.7563217282295227,0.16532346606254578,0.00020550191402435303,1.838314175605774,1.4494117498397827,-5.688417911529541,-1.6530123540135917,-0.43907239572009715,1.2128744153533841
1686936027.049736,-0.9870317578315735,0.16047684848308563,0.003955732565373182,1.0331437587738037,0.05635051429271698,0.13433492183685303,1.3512871265411377,0.45952266454696655,-5.45979642868042,-1.5748040109024946,-0.1611737468019678,1.3220290105045955
1686936027.143687,-0.9945636987686157,-0.10320500284433365,-0.01385252270847559,0.7474170327186584,0.08967042714357376,0.08825451135635376,0.3702579438686371,0.03172452747821808,-5.107593536376953,-1.5568689861617357,0.10338909886614905,1.3565248408380521
1686936027.149941,-0.9381122589111328,-0.34617552161216736,-0.010404075495898724,0.445085346698761,0.09524467587471008,0.09701311588287354,0.2046983689069748,0.007150141056627035,-4.831740856170654,-1.5597063440066419,0.35349150515548156,1.3653921543462144
1686936027.154674,-0.8287485837936401,-0.5596089363098145,-0.0037205773405730724,0.43737584352493286,0.17954301834106445,0.08964300155639648,-0.5185846090316772,-0.4226642847061157,-4.688712120056152,-1.566306964720095,0.5939138599047761,1.358424767250331
1686936027.19514,-0.6861379742622375,-0.7273577451705933,0.012859526090323925,0.2680624723434448,-0.06950199604034424,-0.09551620483398438,0.6442808508872986,-0.3542310297489166,-4.246729850769043,-1.5895360274723471,0.8144637803732697,1.3627310821685004
1686936027.288686,-0.5290086269378662,-0.8465707898139954,0.058889638632535934,0.271074116230011,-0.05731421709060669,0.04970728978514671,0.6788782477378845,-0.5108671188354492,-3.6690878868103027,-1.6816606291412635,1.009509304087447,1.4537910720864475
1686936027.3042889,-0.37729838490486145,-0.9189488887786865,0.11480089277029037,0.20157817006111145,-0.09125936031341553,-0.0018551349639892578,1.474225401878357,-0.13979631662368774,-3.0709266662597656,-1.8661666836933077,1.1654069488815102,1.6402833453594248
1686936027.307904,-0.2567344307899475,-0.947606086730957,0.1900806427001953,0.28047704696655273,-0.25925755500793457,0.10200336575508118,1.6027796268463135,0.08066681027412415,-1.926270604133606,-2.2081111903910973,1.24565648947416,2.002018162038574
1686936027.439098,-0.19166028499603271,-0.948016881942749,0.25402867794036865,0.2511391043663025,-0.28890639543533325,0.10546848177909851,0.7882637977600098,0.48794814944267273,-1.0419995784759521,-2.495228651608243,1.246944993379261,2.3192289062995637
1686936027.505621,-0.1654108613729477,-0.951885998249054,0.2579774856567383,0.14224809408187866,-0.12666624784469604,0.2120848298072815,0.012341491878032684,0.6752475500106812,-0.5111224055290222,-2.571440421194779,1.2593324084399862,2.4346046300350075
1686936027.510848,-0.15859656035900116,-0.950860857963562,0.26591527462005615,0.09078651666641235,-0.17329996824264526,-0.3385317325592041,0.029845045879483223,-0.27881285548210144,-0.018808934837579727,-2.603811378508906,1.2560045665106452,2.484154527293723
1686936027.515002,-0.1573711484670639,-0.944252610206604,0.2891734838485718,-0.012840628623962402,0.06914585828781128,-0.051319420337677,0.35260915756225586,-0.17238086462020874,0.028220858424901962,-2.643205485417313,1.2353170134942697,2.5104292858231845
1686936027.5906591,-0.15605305135250092,-0.9445523619651794,0.2889094054698944,0.0025191307067871094,-0.021405398845672607,0.0766456127166748,-0.1778707057237625,-0.03471266105771065,0.0047037480399012566,-2.646346952997896,1.2362285801911903,2.5081921830828766
1686936027.5953898,-0.15511152148246765,-0.9447527527809143,0.2887602746486664,-0.026651114225387573,-0.011744320392608643,-0.024218618869781494,0.16070066392421722,-0.014679724350571632,-0.02238752506673336,-2.648657963730128,1.2368394213903784,2.5101709714614064
1686936027.679285,-0.15397921204566956,-0.9422009587287903,0.2975698411464691,0.02473728358745575,-0.008253693580627441,-0.01750984787940979,0.12157408893108368,-0.08957526087760925,-0.007773661054670811,-2.664078167035193,1.22913976161149,2.5254384095656524
1686936027.831548,-0.15339884161949158,-0.9411237239837646,0.30125629901885986,0.03160318732261658,-0.0030444860458374023,-0.017930984497070312,0.002566032810136676,-0.11075038462877274,0.05021969974040985,-2.6706144389393884,1.225939003156534,2.528387152495651
1686936027.847365,-0.15390156209468842,-0.9414680600166321,0.2999206483364105,-0.009672671556472778,0.029587507247924805,0.0030579566955566406,0.025629345327615738,-0.09367259591817856,0.0673207938671112,-2.667487641221741,1.2269590538864885,2.5182602584329548
1686936027.850811,-0.15405341982841492,-0.9410460591316223,0.30116456747055054,-0.007720232009887695,-0.02146315574645996,0.015394449234008789,0.04318656399846077,-0.05175256356596947,0.02915266528725624,-2.6687670523654945,1.225709379628551,2.515495168652759
1686936028.017858,-0.15513591468334198,-0.939842939376831,0.30434924364089966,0.0028990209102630615,-0.01848536729812622,-0.015118718147277832,-0.06054357439279556,-0.060135889798402786,0.022966641932725906,-2.670191437759693,1.222170267344706,2.515507172424113
1686936028.033029,-0.15574537217617035,-0.9395581483840942,0.3049165606498718,-0.008103474974632263,0.016477644443511963,-0.0001678764820098877,0.018289722502231598,-0.010586684569716454,0.012189693748950958,-2.6693580343966845,1.2213375249244187,2.5137978762221556
1686936028.036323,-0.1564708948135376,-0.9405931830406189,0.3013326823711395,-0.00963623821735382,0.015346050262451172,-0.0078602135181427,-0.08858262747526169,-0.016753114759922028,0.045109327882528305,-2.662653706648888,1.2243731643355824,2.5048377705559854
1686936028.132107,-0.1613440066576004,-0.944357693195343,0.28663042187690735,0.052945613861083984,-0.011315584182739258,-0.0009551048278808594,-0.5385867953300476,0.07131709158420563,0.1683204621076584,-2.6289000712480686,1.2356363079809236,2.470230067587796
1686936028.146719,-0.17978118360042572,-0.9501786231994629,0.25463661551475525,0.18393157422542572,-0.1531693935394287,-0.024198263883590698,-0.8052319288253784,0.11938352882862091,0.6589201092720032,-2.526830937334747,1.2538084665513707,2.368385965662979
1686936028.150436,-0.230341374874115,-0.9504311084747314,0.2088637351989746,0.4131569564342499,-0.1728600263595581,0.04159426689147949,-1.0112823247909546,-0.15635862946510315,1.613808512687683,-2.30733225185136,1.2546195204061519,2.137925934447009
1686936028.25102,-0.33778342604637146,-0.9280470609664917,0.15694329142570496,0.5305324792861938,-0.20951098203659058,0.030419573187828064,-1.66366708278656,-0.4237011671066284,3.140770435333252,-2.0057472353592396,1.1891347536579207,1.8024651864548111
1686936028.2662868,-0.5067939758300781,-0.8590165972709656,0.07246129959821701,0.6867865920066833,-0.3396986722946167,0.07010173797607422,-2.270256519317627,-0.7068295478820801,4.486433506011963,-1.7128135855846776,1.0333456590603474,1.4500039185688927
1686936028.372768,-0.7096529006958008,-0.7039670348167419,0.028689773753285408,0.7931643128395081,-0.30610376596450806,-0.03453374654054642,-1.3798730373382568,-0.9796333312988281,5.783252716064453,-1.6112022190745592,0.780967650674297,1.2719162244463276
1686936028.37749,-0.88553786277771,-0.4633244276046753,0.03396305814385414,0.7582337260246277,-0.12783163785934448,0.01694035530090332,-1.7627447843551636,-1.5690869092941284,6.359539985656738,-1.6091305632175392,0.4817429204403284,1.157545655485815
1686936028.462387,-0.9816308617591858,-0.16663983464241028,0.0929102748632431,0.688753604888916,0.1539139449596405,0.027985215187072754,-1.5601530075073242,-2.0291290283203125,6.4091796875,-1.665164088813728,0.16742086071582954,1.0474285489348922
1686936028.467794,-0.9708232283592224,0.13498085737228394,0.19819886982440948,0.7032144665718079,0.2764876186847687,-0.006655097007751465,0.25090810656547546,-2.360910654067993,5.901435375213623,-1.7721843247646512,-0.13539414159995444,0.9584450301412211
1686936028.4723492,-0.8690431118011475,0.41372257471084595,0.27128955721855164,0.4465271234512329,0.44601863622665405,0.07427644729614258,1.5147449970245361,-1.425171136856079,5.276042461395264,-1.8733809262765155,-0.42653922268290656,0.9583799093602658
1686936028.550379,-0.7111476063728333,0.5893197059631348,0.38336876034736633,0.7003138661384583,0.05843108892440796,0.10364624857902527,-3.1006271839141846,-2.855485677719116,4.798524379730225,-2.06522060448229,-0.6302165319047434,0.779331729302735
1686936028.565003,-0.5099998712539673,0.7185638546943665,0.47282832860946655,0.20790624618530273,0.4930603504180908,-0.024265527725219727,2.3565878868103027,-2.022977352142334,3.7280030250549316,-2.318391527435429,-0.8017350616089083,0.5983142155526069
1686936028.821378,-0.3067759573459625,0.8252846598625183,0.4741242825984955,0.5768259763717651,-0.09713530540466309,0.022259533405303955,-0.7780786156654358,-2.6216094493865967,4.177433013916016,-2.56730320712499,-0.9707060922722417,0.41685114223042924
1686936028.837641,-0.07111470401287079,0.8702648878097534,0.48742422461509705,0.2020961046218872,0.2829335927963257,0.0018489956855773926,1.8963921070098877,-2.212881326675415,3.580008029937744,-2.996715865456393,-1.055739787381748,0.06564642697135677
1686936029.152711,0.13934382796287537,0.8897055983543396,0.43474969267845154,0.5697473287582397,0.0889931321144104,0.13051220774650574,-0.4620554745197296,-2.55104660987854,3.5604047775268555,2.8314225374351083,-1.0966999298875428,-0.3134700361326441
1686936029.169245,0.31167131662368774,0.8484489917755127,0.4277799725532532,0.21326160430908203,0.39726346731185913,0.16343730688095093,0.17037127912044525,-1.4907493591308594,2.3299410343170166,2.511942811498917,-1.0130480002127762,-0.5638214279149386
1686936029.172504,0.4280655086040497,0.8213086128234863,0.37711021304130554,0.03346705436706543,0.3480944037437439,0.1559252142906189,1.4754084348678589,-0.6873862743377686,1.8265591859817505,2.292994054794378,-0.963701147331951,-0.7519533221002533
1686936029.208008,0.5077241659164429,0.8080382347106934,0.29881539940834045,0.25222456455230713,0.08119821548461914,0.018414974212646484,1.2793006896972656,-0.6955465078353882,1.932315468788147,2.1027458797258225,-0.9408145766232939,-0.9561748302341788
1686936029.21111,0.5904942750930786,0.7677515149116516,0.2487461268901825,0.09409141540527344,0.22245252132415771,0.1476316750049591,0.9535146951675415,-0.41170069575309753,1.8081328868865967,1.9694870162749247,-0.875324601522316,-1.087553077718761
1686936029.214061,0.6618077754974365,0.727734386920929,0.18003718554973602,0.21300911903381348,0.24426573514938354,-0.19946147501468658,1.4042119979858398,-0.5641371607780457,1.8359507322311401,1.83640716205203,-0.815012801624424,-1.2381890526932742
1686936029.29899,0.7258830070495605,0.6701947450637817,0.1547042578458786,0.076912522315979,0.1844959259033203,0.18222524225711823,-0.14762946963310242,-0.4707532525062561,1.5739277601242065,1.7807802185976775,-0.7344711418035381,-1.2822919994818496
1686936029.388161,0.7731847763061523,0.6239047646522522,0.11370407789945602,0.05971634387969971,0.3925900459289551,0.02585303783416748,2.1741466522216797,0.1307203322649002,1.2650120258331299,1.7168091352118986,-0.6737292611936178,-1.366289946569633
1686936029.4059238,0.8093366622924805,0.5838570594787598,0.0639190599322319,-0.016062557697296143,0.10436022281646729,0.0505678728222847,0.8060047030448914,0.022187640890479088,1.2284458875656128,1.6496098271614228,-0.6234715564841392,-1.486649451396743
1686936029.409426,0.8420263528823853,0.5366167426109314,0.055086273699998856,0.0689997673034668,0.3206831216812134,0.08952140808105469,0.7173413038253784,0.03723175451159477,1.0377708673477173,1.6361243155383436,-0.566422527065414,-1.5138453743986813
1686936029.481914,0.8641989827156067,0.5014579892158508,0.041233789175748825,-0.11438202857971191,0.31964802742004395,0.17936265468597412,0.5557150840759277,0.29869264364242554,0.6511962413787842,1.6184734742304177,-0.5252831481694568,-1.5641021303919398
1686936029.4961739,0.877072274684906,0.4785662293434143,0.04145960509777069,-0.09319764375686646,0.35033705830574036,0.10876333713531494,1.0735167264938354,0.4901254177093506,0.36495813727378845,1.61803162142564,-0.4990210715330293,-1.6048066698689745
1686936029.499288,0.877034604549408,0.47865888476371765,0.04118525609374046,-0.12044274806976318,0.2530764043331146,0.07496476173400879,0.4520701766014099,0.5287954211235046,-0.10394067317247391,1.6177215259066366,-0.4991266147886857,-1.6570182302939724
1686936029.536524,0.8722671270370483,0.48647767305374146,0.049897756427526474,0.035905539989471436,0.11206364631652832,-0.07623422145843506,0.8191852569580078,0.40856677293777466,-0.2217906415462494,1.6279387211874667,-0.5080536829526785,-1.6888899530512715
1686936029.548137,0.8673319816589355,0.49492067098617554,0.05281256511807442,0.03098362684249878,-0.10415822267532349,0.050397999584674835,0.31332677602767944,0.34206679463386536,-0.08371835947036743,1.6316120665650191,-0.5177435308207068,-1.7190931865599455
1686936029.5507212,0.8658645749092102,0.4970055818557739,0.0571339949965477,0.03272557258605957,-0.09441763162612915,-0.07668030261993408,0.1688428521156311,0.19060857594013214,0.01906793937087059,1.6366857205804384,-0.5201445736155096,-1.7326881841022088
1686936029.6590738,0.8657920956611633,0.49697405099868774,0.0584900863468647,-0.010216474533081055,0.013035804033279419,-0.09222710132598877,-0.0729968398809433,-0.006113945506513119,0.011257221922278404,1.638250567812792,-0.5201082220884434,-1.7391753025044634
1686936029.663497,0.8651272654533386,0.4983459711074829,0.05662624537944794,-0.015578806400299072,0.10591739416122437,-0.050751447677612305,0.2822760045528412,-0.024467693641781807,-0.11315351724624634,1.6361573316131246,-0.5216899115385463,-1.7418012306729582
1686936029.6671162,0.8632270693778992,0.5017520189285278,0.05553477630019188,0.045082926750183105,-0.03774744272232056,0.04717230796813965,-0.0725901871919632,0.01982051692903042,-0.02719772420823574,1.6350417062271398,-0.5256230417304169,-1.7425816708966626
1686936029.749826,0.8609853982925415,0.5059407353401184,0.052235089242458344,-0.008766591548919678,-0.005238711833953857,0.00754905492067337,0.11690125614404678,0.04109565541148186,-0.0645831823348999,1.631391015334556,-0.530472264161069,-1.753132542971165
1686936029.812849,0.8600978255271912,0.507347583770752,0.053200289607048035,-0.008794724941253662,-0.0010304450988769531,0.0118023119866848,0.22973519563674927,0.08773954957723618,-0.06611272692680359,1.6325713914014486,-0.5321040336774687,-1.7574665495889128
1686936029.818505,0.8583202362060547,0.5104514360427856,0.05221110209822655,0.0024127960205078125,-0.005293846130371094,0.0055283308029174805,0.017880165949463844,0.08984015136957169,-0.03720185533165932,1.6315508597396018,-0.5357096861841666,-1.7696605094727706
1686936029.823173,0.8577973246574402,0.5110470056533813,0.05490691214799881,-0.008310079574584961,0.012527883052825928,-0.028631098568439484,0.14955222606658936,0.05081293359398842,-0.037213243544101715,1.6347183126440892,-0.5364024247827319,-1.769970291068448
1686936029.835959,0.8573204278945923,0.5117890238761902,0.055444661527872086,0.01651996374130249,-0.021020472049713135,-0.02997756004333496,0.015839409083127975,0.023610446602106094,-0.016705570742487907,1.6353784296182043,-0.5372658897696947,-1.773080521923153
1686936029.891988,0.8562209010124207,0.5135764479637146,0.05590466037392616,-0.0063520073890686035,0.006610989570617676,-0.004680752754211426,-0.024230415001511574,0.028714794665575027,-0.052154574543237686,1.6359961169016564,-0.5393477540482147,-1.7730782100044802
1686936030.0221848,0.8553715944290161,0.5149943232536316,0.055862922221422195,-0.019067704677581787,0.006703794002532959,-0.012802474200725555,0.04968755692243576,0.03812001273036003,-0.06058627739548683,1.636012079109308,-0.5410010322500028,-1.774193240010079
1686936030.320434,0.8535526394844055,0.5180165767669678,0.05574038624763489,-0.014502286911010742,0.00027877092361450195,-0.01300036907196045,-0.09540742635726929,-0.018164683133363724,-0.07348759472370148,1.6360077104577795,-0.5445305165498089,-1.7744427004575813
1686936030.3374429,0.8525153398513794,0.5198482275009155,0.0545504055917263,0.020775794982910156,0.003589332103729248,-0.00827038288116455,0.04813409969210625,-0.03698710724711418,-0.03682052716612816,1.634696805860792,-0.5466732940867328,-1.7728386721641831
1686936030.340743,0.8525015711784363,0.5199269652366638,0.054011400789022446,0.013068556785583496,-0.04139602184295654,0.011845704168081284,-0.03567458689212799,-0.02223612368106842,0.013547706417739391,1.634068124135458,-0.5467654334342879,-1.7703756290829769
1686936030.406126,0.8527452349662781,0.5196039080619812,0.05326947197318077,0.0086134672164917,-0.0207177996635437,-0.002365950495004654,-0.06894881278276443,-0.014105665497481823,0.017349202185869217,1.633183474738087,-0.5463872931475662,-1.7705758098986972
1686936030.420051,0.8533707857131958,0.5183053612709045,0.055841922760009766,-0.011283814907073975,0.02390056848526001,-0.004297606647014618,0.09317205101251602,0.050262417644262314,-0.026185324415564537,1.6361400454219774,-0.5448681561654843,-1.7672882857554406
1686936030.423033,0.8503435254096985,0.523240327835083,0.055999789386987686,-0.05822908878326416,0.07760512828826904,-0.04791247099637985,-0.030278345569968224,0.03681835159659386,-0.17088031768798828,1.636556860724017,-0.5506489204437728,-1.772916855907401
1686936030.5306602,0.8466646075248718,0.528918981552124,0.05834284424781799,0.06733685731887817,0.028988122940063477,0.014182325452566147,-0.19793371856212616,-0.08395228534936905,-0.11034511029720306,1.6395966040502525,-0.557326272079929,-1.763432842844831
1686936030.5476952,0.8436124324798584,0.5337957143783569,0.05814255028963089,0.009155631065368652,-0.016751587390899658,-0.0018832683563232422,-0.06499306112527847,-0.05095565319061279,-0.08692404627799988,1.6396084380642308,-0.5630829545137795,-1.7564215976494377
1686936030.551182,0.8414807915687561,0.5372504591941833,0.05720481649041176,-0.020145773887634277,-0.0480230450630188,0.02272094041109085,-0.08773110061883926,-0.046758029609918594,-0.08665598928928375,1.6386730268568896,-0.5671737196459412,-1.755209723758654
1686936030.653265,0.8410884737968445,0.5374773740768433,0.06073225289583206,0.003012537956237793,-0.06508052349090576,0.03428434953093529,-0.09454148262739182,0.006111841183155775,0.0008163317106664181,1.6428779646363396,-0.5674428260452052,-1.7440017010130553
1686936030.669832,0.8415090441703796,0.5365399718284607,0.06314615160226822,0.02378636598587036,-0.04780095815658569,0.01601659506559372,-0.1103319376707077,0.04224282503128052,0.05113113299012184,1.6456951343006572,-0.5663315437319179,-1.741959552423341
1686936030.673171,0.8436817526817322,0.5327056050300598,0.06652866303920746,0.012626349925994873,0.013772726058959961,-0.0012209415435791016,0.19849804043769836,0.07729519158601761,0.06245170161128044,1.6494886503831638,-0.5617943432230172,-1.741158661723375
1686936030.705473,0.8452489972114563,0.5300552845001221,0.06779096275568008,-0.008045077323913574,-0.015879809856414795,0.00607704371213913,-0.09115080535411835,0.06788518279790878,0.07474404573440552,1.6508273746528066,-0.5586657282238444,-1.745925176643272
1686936030.8001251,0.8461929559707642,0.528298020362854,0.06970496475696564,0.00620877742767334,0.034736037254333496,-0.019488103687763214,-0.01644955575466156,0.014187650755047798,0.033854544162750244,1.652985548550162,-0.5565947859621645,-1.7450663168688063
1686936030.8284001,0.846365213394165,0.5278810262680054,0.07076568156480789,-0.011419475078582764,0.037625014781951904,-0.026331909000873566,0.08464828878641129,0.038096483796834946,-0.018039580434560776,1.6542135854330697,-0.5561037201832421,-1.7452950605344046
1686936030.832073,0.8457947373390198,0.528834342956543,0.07046534866094589,0.026244938373565674,-0.02907848358154297,0.008087024092674255,-0.14858593046665192,-0.0257116686552763,0.028362439945340157,1.653916960694114,-0.5572265551839304,-1.7447825123468186
1686936030.8356252,0.8459212183952332,0.5286516547203064,0.07031919062137604,-0.01385951042175293,0.012058794498443604,-0.01218307763338089,0.10899468511343002,0.025160793215036392,-0.006435323040932417,1.6537329907219,-0.5570113273314983,-1.7445518809201968
1686936030.8841329,0.8468252420425415,0.5269761681556702,0.07199477404356003,0.039588332176208496,-0.06767135858535767,0.04197322577238083,-0.282421737909317,-0.03317840024828911,0.09895265847444534,1.6556096557556506,-0.5550386971555556,-1.7392230145207839
1686936030.896111,0.8486211895942688,0.5239394903182983,0.07300528883934021,-0.028156042098999023,0.03775191307067871,-0.013968944549560547,0.07812298089265823,0.05181267112493515,0.03508355841040611,1.6566131649981617,-0.5514695289809532,-1.7377906110170114
1686936031.040276,0.8500900268554688,0.5209863781929016,0.07694383710622787,0.006996214389801025,0.001016855239868164,0.010168790817260742,-0.07174696028232574,0.003894466208294034,0.06379043310880661,1.661062936235489,-0.5480061380044295,-1.7328002285551567
1686936031.3404799,0.8501987457275391,0.5208510160446167,0.07665709406137466,-0.008920729160308838,0.0476609468460083,-0.03666366636753082,-0.006276351865381002,0.0181038286536932,0.0008567783515900373,1.660716920504082,-0.5478475522425061,-1.735351979902331
1686936031.34648,0.8498003482818604,0.5214665532112122,0.07689156383275986,-0.0186082124710083,0.05401873588562012,-0.006182193756103516,0.14281412959098816,0.0017041496466845274,-0.06290791928768158,1.6610325240779278,-0.5485688090058751,-1.7361723928828439
1686936031.3512502,0.8486738204956055,0.5234570503234863,0.07580187171697617,0.029957950115203857,-0.027912437915802002,0.008411534130573273,-0.047857582569122314,-0.010728764347732067,0.025177331641316414,1.6598779658562557,-0.5509032230961349,-1.737073480519315
1686936031.3644838,0.8480125069618225,0.5249797701835632,0.07260394841432571,0.018671512603759766,-0.016007542610168457,-0.011248230934143066,-0.02082167938351631,-0.057160284370183945,0.006828151643276215,1.656204644692911,-0.5526913411499841,-1.7424284765220055
1686936031.429123,0.8495054841041565,0.5225129723548889,0.07294609397649765,-0.012026667594909668,-0.004415929317474365,0.01683676987886429,0.0377003438770771,-0.03435235843062401,0.027345076203346252,1.6564550960829754,-0.5497956330283957,-1.737054938134173
1686936031.4326801,0.8500597476959229,0.5217363834381104,0.07203994691371918,0.009269475936889648,0.0010145306587219238,0.020428530871868134,-0.004013185389339924,0.019308337941765785,0.030167296528816223,1.6553412305869404,-0.5488850313265017,-1.7405473660165918
1686936031.435902,0.8507941365242004,0.5203452706336975,0.07341887056827545,-0.001657724380493164,0.033915042877197266,0.010992884635925293,0.04078371450304985,-0.0009966552024707198,0.005989688448607922,1.656877596332648,-0.5472552097677149,-1.7391039602616791
1686936031.516639,0.8505062460899353,0.5206815004348755,0.07436461746692657,0.012454569339752197,0.007745683193206787,0.011725656688213348,-0.10875607281923294,-0.006231018342077732,0.015539318323135376,1.658010239271321,-0.5476489726018413,-1.7369591981648471
1686936031.530527,0.8497311472892761,0.5218526721000671,0.07501300424337387,-0.011947274208068848,0.027143359184265137,-0.005554795265197754,0.027284296229481697,0.010341406799852848,-0.04760130122303963,1.6588465817976839,-0.5490213882157688,-1.735957204474816
1686936031.543561,0.8487284183502197,0.5232837796211243,0.07638216018676758,0.0047109127044677734,-0.012953579425811768,-0.009411223232746124,-0.012804146856069565,0.006206689402461052,-0.037115633487701416,1.6605505341210112,-0.550699896643672,-1.7342555332324097
1686936031.546041,0.8481612205505371,0.5239838361740112,0.07787034660577774,0.021528780460357666,-0.034054577350616455,-0.009617574512958527,-0.1968970000743866,-0.05105460062623024,0.012648656964302063,1.662350446900454,-0.5515215805588324,-1.729079420436526
1686936031.604094,0.8491830825805664,0.5220205187797546,0.0798913761973381,-0.03236490488052368,0.02387791872024536,-0.03303147107362747,-0.3245716691017151,-0.1836739480495453,-0.02521004155278206,1.664600488851524,-0.5492181545252467,-1.7148945371098254
1686936031.616148,0.8503928780555725,0.520267128944397,0.07845159620046616,-0.046483397483825684,0.14751869440078735,-0.06148361414670944,-1.3602697849273682,-0.8308331370353699,-0.11205638945102692,1.6627892957738173,-0.5471637154610308,-1.6696309176333224
1686936031.760329,0.8439462780952454,0.528458833694458,0.09212011098861694,-0.10476475954055786,0.5986621975898743,0.13584637641906738,-2.3840715885162354,-0.7458547949790955,-0.7802035808563232,1.6795198965978615,-0.5567841421730874,-1.5487983348380954
1686936031.766409,0.8089549541473389,0.5712718963623047,0.13870981335639954,-0.07995110750198364,1.0534839630126953,0.3827136754989624,-2.3131628036499023,0.1079597994685173,-1.9085594415664673,1.7406128176412456,-0.6080546447571036,-1.3980880543929142
1686936031.848763,0.7272124886512756,0.6500695943832397,0.22038929164409637,0.08151859045028687,1.1008152961730957,0.27727624773979187,-1.2508760690689087,1.0914720296859741,-2.9666502475738525,1.8650584419202347,-0.7076760372758437,-1.246654306848937
1686936031.8653831,0.5895472168922424,0.7446836233139038,0.31285855174064636,0.5125645995140076,0.8192964792251587,0.32091546058654785,-1.080151915550232,1.7937235832214355,-3.7272708415985107,2.0586824765008123,-0.8400607171143062,-1.0762204386596277
1686936031.868809,0.39540156722068787,0.831538736820221,0.39012953639030457,0.7762902975082397,0.6527293920516968,0.11946839094161987,-0.6924978494644165,2.1846940517425537,-4.272890090942383,2.349483185115401,-0.9818721163037565,-0.8318044305938589
1686936031.933082,0.1575334221124649,0.8790774941444397,0.4498956501483917,1.0590040683746338,0.3118709325790405,-0.06162029504776001,-0.016241405159235,2.486567735671997,-4.439162731170654,2.804779346575378,-1.073923469417822,-0.4396119350716344
1686936032.0294309,-0.11851324141025543,0.9076305627822876,0.40269356966018677,1.1656934022903442,0.314949631690979,0.20419451594352722,1.102771520614624,2.8879082202911377,-5.182873249053955,-2.8553721814193347,-1.1376046049268016,0.09775043896034845
1686936032.0351238,-0.3962743878364563,0.8495715856552124,0.34813037514686584,1.2540318965911865,0.16503101587295532,-0.0681619942188263,0.6000930666923523,2.543705701828003,-5.190055847167969,-2.291609948423144,-1.015172589381081,0.5872266131525882
1686936032.239923,-0.6488074660301208,0.7199429273605347,0.24643729627132416,1.361728549003601,0.05541723966598511,0.15106964111328125,1.1311378479003906,2.233872890472412,-5.4240570068359375,-1.9337957944840896,-0.8037200689604247,0.8746676622442944
1686936032.2457209,-0.8361588716506958,0.5324056148529053,0.1318441778421402,0.9415206909179688,0.07082009315490723,0.004065990447998047,1.2707619667053223,1.7939701080322266,-5.479193687438965,-1.7271871100227885,-0.5614398987577244,1.0565902691096998
1686936032.394052,-0.9555127620697021,0.2918046712875366,0.04295798018574715,1.1193311214447021,0.035557329654693604,0.19402635097503662,0.8647325038909912,1.218494176864624,-5.358898162841797,-1.615724109809674,-0.29611308235537864,1.130420067269008
1686936032.399869,-0.9994649887084961,0.02247432991862297,-0.02376520074903965,0.7527303099632263,0.20788757503032684,0.01784491539001465,1.0666810274124146,0.9866481423377991,-5.4453630447387695,-1.5470228850526861,-0.022476222801814775,1.2013142447119793
1686936032.4046059,-0.9674876928329468,-0.24682438373565674,-0.05518599972128868,0.7612956166267395,0.18246275186538696,0.17188537120819092,0.7491468191146851,0.44840744137763977,-5.542503356933594,-1.513817548738126,0.2494018782100958,1.2174274499375393
1686936032.477758,-0.863885223865509,-0.5010640025138855,-0.05135622248053551,0.565346896648407,0.15587955713272095,-0.044178903102874756,0.8875133991241455,0.029924042522907257,-5.289758682250977,-1.511418238807853,0.5248277894113772,1.255880884762687
1686936032.482482,-0.7090750336647034,-0.7045392990112305,-0.02893577702343464,0.4203481674194336,0.003733515739440918,0.00401836633682251,-0.018867002800107002,-0.26504942774772644,-4.985816955566406,-1.530011179775921,0.7817737484736005,1.2744368199801193
1686936032.5372849,-0.5244938731193542,-0.8513435125350952,-0.010981845669448376,0.32712143659591675,0.06414252519607544,-0.1274152398109436,1.400140643119812,-0.015148134902119637,-4.37071418762207,-1.5498613981667078,1.0185410045725831,1.281639493678727
1686936032.552269,-0.348831444978714,-0.9329946041107178,0.08853378146886826,0.3574221134185791,-0.28152894973754883,0.09078765660524368,2.6111397743225098,-0.061412326991558075,-3.366142749786377,-1.819349229166996,1.2026459083577008,1.5788217815438974
1686936032.563995,-0.22200341522693634,-0.9527127146720886,0.20749223232269287,0.2641482353210449,-0.4325869679450989,0.1489531695842743,2.100006341934204,0.12006856501102448,-1.9705045223236084,-2.3224207789584317,1.2620415318106346,2.108681739203641
1686936032.566979,-0.16120870411396027,-0.9521216750144958,0.25976213812828064,0.22257956862449646,-0.4740258455276489,0.2742345333099365,-0.004172224551439285,0.4220479726791382,-0.8015038967132568,-2.5861627627187658,1.2601024814505748,2.3981886814888917
1686936032.5963988,-0.15057922899723053,-0.9558910131454468,0.2521868646144867,0.1547144055366516,-0.14838743209838867,0.051432669162750244,0.4418033957481384,0.7542687654495239,-0.15187284350395203,-2.6033127444394073,1.2726785051811502,2.448570743831834
1686936032.625373,-0.1470528244972229,-0.953790009021759,0.2620311677455902,0.026584729552268982,0.10143399238586426,-0.038321882486343384,-0.018364258110523224,0.4976761043071747,-0.2764395773410797,-2.630188592573933,1.2656067478980924,2.511229715563344
1686936032.6852999,-0.14290598034858704,-0.958840012550354,0.2453652173280716,0.06873300671577454,-0.05922651290893555,-0.22089004516601562,-0.3575546443462372,-0.17005260288715363,-0.06258437782526016,-2.614198805104623,1.2828883516591882,2.500698745947199
1686936032.748969,-0.1451910436153412,-0.9580377340316772,0.2471504509449005,0.04056158661842346,-0.04696708917617798,-0.052554890513420105,0.23613053560256958,-0.11580055952072144,0.209318608045578,-2.610444652973789,1.28007625744505,2.490409307841507
1686936032.812379,-0.1513822078704834,-0.9552404284477234,0.25416451692581177,-0.015747323632240295,-0.028570175170898438,-0.008757323026657104,0.012583598494529724,-0.14115123450756073,0.1465815007686615,-2.604409455557697,1.270471370138216,2.4769259273925197
1686936032.900433,-0.1525336503982544,-0.9549391865730286,0.2546074092388153,-0.047478556632995605,0.02076554298400879,0.010956764221191406,0.021381579339504242,-0.07738462090492249,0.01069579366594553,-2.6018399380917585,1.2694548628730895,2.468112354360477
1686936033.0190868,-0.15254484117031097,-0.9543684720993042,0.2567317485809326,0.010088816285133362,-0.030113399028778076,-0.020388156175613403,0.034465473145246506,-0.04558877274394035,0.021001029759645462,-2.605463610908841,1.2675378293804065,2.469538812641879
1686936033.0357509,-0.15410195291042328,-0.9537349343299866,0.2581526041030884,0.01918371021747589,0.00941401720046997,-0.03924986720085144,0.03807919844985008,-0.05757255479693413,0.05884324759244919,-2.603425235219966,1.2654234201555854,2.4641594730906293
1686936033.168916,-0.15568214654922485,-0.9527433514595032,0.26085126399993896,-0.0028261542320251465,0.011672735214233398,0.012677907943725586,0.054505955427885056,0.0217021182179451,0.0494527742266655,-2.6035121455451224,1.2621424954197653,2.463388023676592
1686936033.185025,-0.157221257686615,-0.9529159069061279,0.259292870759964,-0.004521861672401428,-0.0003159046173095703,-0.009964138269424438,-0.03153083100914955,0.01145816408097744,0.05251927301287651,-2.5965198404480536,1.2627110185754669,2.456361519109402
1686936033.188208,-0.15921519696712494,-0.9519596695899963,0.2615787088871002,-0.01783253252506256,-0.005651414394378662,0.004931420087814331,0.04281063377857208,0.02380114421248436,0.042667243629693985,-2.594822300447655,1.2595730249638273,2.455173850416127
1686936033.351711,-0.16543515026569366,-0.9514787793159485,0.25945988297462463,0.044509246945381165,-0.054914653301239014,-0.05604484677314758,0.0026827638503164053,0.016345715150237083,0.2610129714012146,-2.573974238840086,1.258006359764576,2.4340398250269284
1686936033.367924,-0.1910991072654724,-0.9525972008705139,0.23672756552696228,0.2203196883201599,-0.30387258529663086,0.0028356313705444336,-1.3510386943817139,-0.10178408026695251,0.8501223921775818,-2.4624445704815083,1.2616617583313083,2.3188561680460884
1686936033.371163,-0.25516477227211,-0.9520113468170166,0.1690138578414917,0.5464550256729126,-0.06236255168914795,-0.05213141441345215,-1.4273828268051147,-0.42707476019859314,2.2256128787994385,-2.1558194107036672,1.2597416995506991,1.9817857863209913
1686936033.562154,-0.3967844545841217,-0.9129590392112732,0.09522563964128494,0.7589976191520691,-0.3157091736793518,0.06941686570644379,-1.9580206871032715,-0.9851343631744385,4.17729377746582,-1.8063350389258515,1.1504778120580486,1.5683137667113818
1686936033.567924,-0.6092642545700073,-0.791979193687439,0.03957437723875046,0.9713248014450073,-0.3650795817375183,0.04122114181518555,-2.1145942211151123,-1.7092359066009521,5.669312477111816,-1.63565957618457,0.9140439276639364,1.2959722948579315
1686936033.584693,-0.8190469741821289,-0.5727300047874451,0.03380101919174194,0.8626413345336914,-0.03902542591094971,0.048810239881277084,-1.5251219272613525,-1.7900925874710083,6.51774263381958,-1.6120416414868493,0.6098322754190555,1.139271329418217
1686936033.649582,-0.9540792107582092,-0.2878112196922302,0.08305413275957108,0.6273883581161499,-0.01617446541786194,0.1802210807800293,-1.927306890487671,-1.9912649393081665,6.614925384521484,-1.6576290374397271,0.29194056445344957,1.0256474233749115
1686936033.8074,-0.9815965294837952,0.022739259526133537,0.1896086037158966,0.7512803077697754,0.26089105010032654,-0.07757844030857086,-0.6852314472198486,-2.6271111965179443,6.308931827545166,-1.7616097461450775,-0.022741219721323962,0.900381730550281
1686936033.8128572,-0.8984636664390564,0.3354566991329193,0.28325265645980835,0.5115312337875366,0.1941910684108734,-0.1501806080341339,3.220510244369507,-2.1238081455230713,6.081832408905029,-1.8761966933258405,-0.3420899932188316,0.8972691411823361
1686936033.8175921,-0.721807599067688,0.6037101745605469,0.3384203016757965,0.5361537933349609,0.2236366868019104,0.08061671257019043,-1.0433666706085205,-2.0840563774108887,5.95574951171875,-2.0092157870322342,-0.6481469157684603,0.845376991614529
1686936033.923935,-0.46059828996658325,0.7626686096191406,0.45407748222351074,0.6912347674369812,0.2124750018119812,-0.26318973302841187,-0.09389131516218185,-3.5301382541656494,5.305522441864014,-2.349065516214221,-0.8674290503055476,0.564108960276556
1686936033.928749,-0.18609988689422607,0.8672031164169312,0.4618723392486572,0.7640874981880188,0.5485074520111084,0.06040579080581665,1.6807974576950073,-3.3004302978515625,4.712645530700684,-2.7585673170663148,-1.0495578500760627,0.2670740234904161
1686936033.9333758,0.06894989311695099,0.8690248131752014,0.48994091153144836,0.4488570988178253,0.21845382452011108,0.33568185567855835,-2.439880609512329,-3.066291093826294,3.2370221614837646,3.0017798052802034,-1.0532278636603283,-0.13434340666678699
1686936033.975748,0.24439053237438202,0.7974615097045898,0.5516597628593445,0.10647006332874298,0.5326318144798279,0.19991201162338257,-0.48587432503700256,-2.1483938694000244,1.8609609603881836,2.7245672004640276,-0.9230762598117406,-0.30430065957834784
1686936033.9793181,0.3448420763015747,0.7862573266029358,0.5127219557762146,0.12872976064682007,0.23260259628295898,0.2764933109283447,0.7536928653717041,-0.9706538915634155,1.4777233600616455,2.5495133422148233,-0.9047283378361863,-0.43793066898522276
1686936034.003794,0.4214349687099457,0.7880865931510925,0.44867846369743347,0.04916137456893921,0.19734126329421997,0.08583712577819824,1.462220549583435,-0.6763895153999329,1.3279767036437988,2.3874945377520933,-0.9076944342927654,-0.5907554121658125
1686936034.069538,0.4884320795536041,0.7853115200996399,0.38042154908180237,0.17851442098617554,0.007733702659606934,0.010600388050079346,1.4323458671569824,-0.7140606045722961,1.5077465772628784,2.2325151622811146,-0.9031991326775874,-0.7501992847099593
1686936034.083169,0.5604223608970642,0.7721660137176514,0.2994771897792816,0.03473144769668579,0.13159680366516113,0.1288829743862152,1.6786670684814453,-0.3406480848789215,1.4841910600662231,2.061566353857735,-0.882242911478221,-0.9294314123115882
1686936034.086092,0.622689425945282,0.7478625774383545,0.23012953996658325,0.17125588655471802,0.05003476142883301,-0.13122190535068512,1.0254417657852173,-0.6989860534667969,1.6257061958312988,1.9248010999192484,-0.8448365135082264,-1.0800101121618815
1686936034.157476,0.6840177178382874,0.7043545842170715,0.1897493600845337,0.12172269821166992,0.17165261507034302,0.1313415765762329,0.9966536164283752,-0.31671851873397827,1.4440851211547852,1.8413962909426844,-0.7815134848454703,-1.1604225783034772
1686936034.161477,0.7330325245857239,0.6672301292419434,0.1321651041507721,0.1394498348236084,0.11855185031890869,-0.08026979863643646,1.3126728534698486,-0.26550406217575073,1.4132357835769653,1.7491789613710464,-0.7304838596055194,-1.2794533562718364
1686936034.279805,0.7799636125564575,0.6169009804725647,0.10530972480773926,0.07323163747787476,0.0915951132774353,0.1724766492843628,0.7537486553192139,0.01981871761381626,1.3901550769805908,1.70500348557689,-0.6647990720110774,-1.3356087167676707
1686936034.373707,0.8159475922584534,0.5747155547142029,0.06270609050989151,0.004578709602355957,0.26360249519348145,0.11438751965761185,2.3388659954071045,0.5001568794250488,1.1582655906677246,1.6474962024161655,-0.612256489023799,-1.460445334155076
1686936034.379757,0.8487740755081177,0.5272625088691711,0.03971419110894203,-0.02173227071762085,0.1261342167854309,0.14799952507019043,0.6893001794815063,0.3482644855976105,1.1842737197875977,1.617552285951351,-0.5553756134326,-1.5487121569670879
1686936034.384402,0.8694162368774414,0.49218133091926575,0.04328438267111778,-0.036469221115112305,0.3765169382095337,0.03937268629670143,0.23196694254875183,0.3086455166339874,0.6562145352363586,1.6205408271200443,-0.5145938280093814,-1.5810130759794254
1686936034.48894,0.8777601718902588,0.47618967294692993,0.05273507907986641,-0.16981321573257446,0.6552649140357971,0.10220278054475784,0.6873899698257446,0.5339564681053162,-0.14450888335704803,1.630803340891127,-0.49631644511315,-1.605935026072852
1686936034.505725,0.8721665143966675,0.48445725440979004,0.0680241510272026,-0.03368055820465088,0.2100009024143219,0.071517713367939,0.04647854343056679,0.4973202049732208,-0.21030332148075104,1.6486332039982854,-0.5057426363891461,-1.6141461116274265
1686936034.615953,0.8596603274345398,0.5052167773246765,0.07576685398817062,-0.0662793517112732,-0.009168684482574463,-0.1104041263461113,-0.02590237185359001,0.2794283628463745,-0.44315820932388306,1.658704982645645,-0.5296331438547838,-1.6356378236569304
1686936034.63095,0.8501120209693909,0.5172913670539856,0.09858860075473785,0.030076146125793457,-0.08052366971969604,-0.039155468344688416,0.0258279200643301,0.26411333680152893,-0.27410778403282166,1.6862518810168114,-0.5436829051834601,-1.6117207799970241
1686936034.7319899,0.844607949256897,0.5252026915550232,0.10392323136329651,0.07110273838043213,-0.17034417390823364,-0.031352266669273376,0.29664430022239685,0.2545347511768341,-0.07069487124681473,1.69322412725216,-0.5529533045109812,-1.621857363470052
1686936034.748522,0.8431615829467773,0.5264558792114258,0.10919266194105148,0.06974130868911743,-0.15571308135986328,-0.003555901348590851,-0.19954515993595123,0.08865156769752502,0.11558153480291367,1.6995833852550528,-0.55442662275533,-1.6249386445869403
1686936034.76036,0.8451727032661438,0.5235116481781006,0.10779013484716415,-0.025348544120788574,0.055986642837524414,-0.051363006234169006,0.4243529438972473,0.09190769493579865,0.027487456798553467,1.6976477467845121,-0.550967349807801,-1.6371227552262508
1686936034.763475,0.8465030789375305,0.521385908126831,0.10765267163515091,-0.0012578368186950684,0.00533217191696167,-0.0047778114676475525,-0.008196188136935234,0.04145457223057747,0.07095793634653091,1.6972907007824316,-0.5484743009286482,-1.642643710607919
1686936034.783918,0.8461563587188721,0.5229647159576416,0.10260394215583801,-0.0076705217361450195,0.08807355165481567,-0.037402987480163574,0.3020066022872925,0.03831426426768303,-0.04764038324356079,1.6914660465814426,-0.5503255178626087,-1.657503721987828
1686936034.9109302,0.8444666266441345,0.5261894464492798,0.10000588744878769,-0.005797624588012695,0.038172245025634766,0.005478277802467346,0.2036793828010559,0.05575305595993996,-0.07821736484766006,1.6886722319397518,-0.5541132400299119,-1.6681039274791931
1686936035.033286,0.8413954973220825,0.5313118100166321,0.09880015254020691,-0.01970970630645752,-0.008240461349487305,-0.008864648640155792,0.25171181559562683,0.11902853846549988,-0.08700539916753769,1.6876852013872292,-0.5601482372901849,-1.677641845740621
1686936035.050312,0.8384923934936523,0.5367917418479919,0.09373080730438232,0.010506689548492432,-0.021563410758972168,-0.03895164281129837,0.12810856103897095,0.04708835482597351,-0.06592248380184174,1.6821190955007277,-0.5666299176977535,-1.696624333014544
1686936035.118527,0.8372197151184082,0.5384838581085205,0.09538649767637253,0.023299753665924072,-0.03221243619918823,0.022976040840148926,0.02941744029521942,0.024070242419838905,-0.03332509100437164,1.6842396194709206,-0.5686368032736208,-1.6953947709533388
1686936035.133255,0.8371337652206421,0.5388832092285156,0.09387259930372238,0.02294313907623291,-0.040180206298828125,-0.0027774646878242493,-0.11784721165895462,-0.0610370859503746,0.032337673008441925,1.6824655500455776,-0.5691108235387409,-1.6963788921453156
1686936035.1361542,0.8384513258934021,0.5366972088813782,0.09463521838188171,-0.0051076412200927734,0.007400810718536377,-0.012252792716026306,0.05182380974292755,-0.029207639396190643,0.011443009600043297,1.68318972529665,-0.5665179388668278,-1.6911739572959426
1686936035.205915,0.8399183750152588,0.5343635678291321,0.0948316678404808,0.009355425834655762,-0.038025617599487305,0.0006885528564453125,-0.048089660704135895,-0.04654005169868469,0.04332111403346062,1.6832260197473203,-0.5637545870073737,-1.688119071822713
1686936035.2187371,0.840904951095581,0.5330223441123962,0.09362972527742386,-0.0009694099426269531,0.0072457194328308105,0.025480516254901886,-0.07481033354997635,-0.004163393750786781,0.002882512053474784,1.6816835929692093,-0.5621686236976439,-1.6890970851356026
1686936035.266459,0.8424335718154907,0.5301064252853394,0.09640245884656906,0.017353594303131104,0.008651018142700195,-0.006466969847679138,0.09395875781774521,6.738444790244102e-05,0.06870446354150772,1.6847340275848814,-0.5587260843558697,-1.681987400789907
1686936035.364942,0.8420533537864685,0.5314829349517822,0.09204503893852234,-0.0051239728927612305,0.010753452777862549,-0.011020660400390625,-0.10614927113056183,-0.02426202967762947,-0.04073440656065941,1.6796742699632,-0.5603502653512553,-1.69319057015197
1686936035.3814812,0.8421525955200195,0.5302265286445618,0.09818030893802643,-0.006794750690460205,0.04138308763504028,0.00509132444858551,-0.020221535116434097,-0.03755408152937889,-0.01895401068031788,1.6868549851756978,-0.5588677090885894,-1.6754165931162521
1686936035.414665,0.840499997138977,0.5333206057548523,0.09554798901081085,0.006530821323394775,-0.015650808811187744,0.020419016480445862,-0.0014812939334660769,0.0521671362221241,-0.039691079407930374,1.683990322891748,-0.5625211733865546,-1.6817668244484067
1686936035.600689,0.8391106128692627,0.5351456999778748,0.09753329306840897,7.748603820800781e-07,0.0066481828689575195,-0.002058863639831543,-0.09457407146692276,0.016821077093482018,-0.04804714769124985,1.6865112084913672,-0.5646802048835545,-1.681101893059911
1686936035.617803,0.8385571241378784,0.5353270769119263,0.10122612118721008,0.0034837722778320312,-0.003100574016571045,-0.0021811872720718384,0.039174243807792664,0.03659064322710037,-0.01707415282726288,1.690929682596401,-0.5648949609977911,-1.6743734484936215
1686936035.629743,0.8379178047180176,0.5361207127571106,0.10231626033782959,0.009524881839752197,-0.030612170696258545,0.011361837387084961,-0.06670176237821579,0.0318354070186615,-0.0010682875290513039,1.692302559683772,-0.565834794491067,-1.6757452775784567
1686936035.632648,0.8378084897994995,0.5359523892402649,0.1040782779455185,0.0032407641410827637,-0.002001523971557617,0.004213571548461914,0.016961337998509407,0.020384520292282104,0.019362585619091988,1.6943899524562664,-0.5656354379480067,-1.6736885591518151
1686936035.635351,0.8375841975212097,0.5366289019584656,0.10238367319107056,-0.009581208229064941,0.013664066791534424,-0.03481758385896683,-0.036913707852363586,0.034191012382507324,-0.008848612196743488,1.6924297881767159,-0.5664369549550166,-1.6809086555389474
1686936035.71456,0.8377017378807068,0.5360691547393799,0.1043345034122467,-0.015314102172851562,0.04257464408874512,-0.00821925699710846,0.31515267491340637,0.06737150996923447,-0.012409225106239319,1.6947067523683912,-0.5657737784911789,-1.6807771926893371
1686936035.868298,0.8371402025222778,0.53765469789505,0.10061711817979813,0.011324763298034668,-0.04574185609817505,-0.0092320516705513,-0.1731451451778412,0.0009577858727425337,0.018852222710847855,1.6904140121911906,-0.5676531144832186,-1.691525109637369
1686936035.885323,0.8372670412063599,0.537814199924469,0.0986914187669754,-0.029268383979797363,0.07122516632080078,-0.017499208450317383,0.5446863174438477,0.06534036993980408,-0.017729155719280243,1.6881282004907618,-0.5678422708626599,-1.6965723627750744
