Timestamp,gravityX,gravityY,gravityZ,accelerationX,accelerationY,accelerationZ,rotationRateX,rotationRateY,rotationRateZ,attitudeRoll,attitudePitch,attitudeYaw
1687087737.354457,0.0941607728600502,0.27459147572517395,-0.9569395184516907,-0.0016009211540222168,-0.0056858062744140625,0.0025328397750854492,0.0033427299931645393,-0.0026759468019008636,0.003585288766771555,0.0980820910649772,-0.2781648180447841,0.03098525757256932
1687087737.443242,0.09444665163755417,0.2743358910083771,-0.9569846987724304,-0.000910244882106781,-0.0044689178466796875,0.00343245267868042,-0.00507202697917819,0.003994244150817394,-0.00043730903416872025,0.09837335453560614,-0.2778990312343058,0.03099459414890417
1687087737.4500551,0.094607412815094,0.27458077669143677,-0.95689857006073,0.0011110007762908936,0.0006267726421356201,0.0043534040451049805,-0.007431837730109692,0.0020665533374994993,-0.0006703883409500122,0.09854853037807573,-0.27815370160893554,0.031169011257656642
1687087737.50556,0.09450015425682068,0.2747943699359894,-0.9568478465080261,-0.003786623477935791,0.004121065139770508,0.004790961742401123,-0.002724566962569952,0.003017453709617257,0.003648086916655302,0.09844270984203868,-0.2783758319966196,0.03119297230712742
1687087737.5958529,0.0946195125579834,0.2749517858028412,-0.9567908048629761,0.003753937780857086,0.008007228374481201,-0.004833340644836426,0.007435343228280544,-0.003236352000385523,0.001767096109688282,0.09857207530750142,-0.2785395601108955,0.0313552050970581
1687087737.611357,0.09426522254943848,0.2748567461967468,-0.9568530917167664,0.0012243017554283142,-0.0013429522514343262,0.002354860305786133,-0.010051954537630081,-0.006392027251422405,-0.0017215916886925697,0.0981990124991739,-0.2784407130854847,0.03128918739091837
1687087737.6511688,0.09417568147182465,0.2751258611679077,-0.9567845463752747,-0.0019362717866897583,0.005406975746154785,0.004330992698669434,-0.00073458650149405,0.006066621281206608,0.0009750719182193279,0.09811330888571254,-0.2787206125590531,0.03137980801587422
1687087737.74504,0.09427745640277863,0.2749665677547455,-0.9568203687667847,0.0013341456651687622,-0.004443466663360596,0.005633234977722168,0.010648363269865513,-0.01384050864726305,-0.0015042242594063282,0.09821501258641228,-0.278554920814256,0.03142215488821364
1687087737.750859,0.09363380074501038,0.2748267948627472,-0.9569237232208252,0.0034579038619995117,-0.0025642216205596924,-0.0010535717010498047,-0.014812338165938854,-0.0033361827954649925,-0.0002095550298690796,0.09753826358302183,-0.2784095702727557,0.03133047911048119
1687087737.8036141,0.09356193989515305,0.274615079164505,-0.9569914937019348,0.0019123256206512451,-0.002169400453567505,0.0007385015487670898,0.02164969965815544,-0.018735455349087715,-0.000581598374992609,0.09745702236890001,-0.2781893726314046,0.03141985285755347
1687087737.894057,0.09281125664710999,0.27429860830307007,-0.9571553468704224,0.0018390417098999023,0.0011683404445648193,-0.0015238523483276367,-0.007521036546677351,-0.008213115856051445,-0.0025869058445096016,0.09666352053561036,-0.27786025823795407,0.03149187914756091
1687087737.899701,0.0922599583864212,0.27414360642433167,-0.9572530388832092,0.001932576298713684,0.007960915565490723,-0.0024637579917907715,0.03663312643766403,-0.03288819640874863,0.009281684644520283,0.09608313161239605,-0.2776990923822847,0.031639345334315144
1687087737.958345,0.09045647084712982,0.2710278332233429,-0.9583118557929993,-0.00015492737293243408,0.008284330368041992,0.007506191730499268,0.11676296591758728,-0.0748325064778328,0.00420426158234477,0.09411263291805443,-0.2744606683315864,0.031859500876626895
1687087738.106677,0.08641272783279419,0.2648256719112396,-0.9604166746139526,0.010984152555465698,0.021032482385635376,-0.005266308784484863,0.16379903256893158,-0.08513329178094864,-0.02133593149483204,0.08973258588218475,-0.2680231499959228,0.031529219553278316
1687087738.112856,0.08456180989742279,0.25864437222480774,-0.9622641801834106,-0.00037904083728790283,-0.012886285781860352,0.00010603666305541992,0.13758811354637146,-0.04149254783987999,-0.010094303637742996,0.08765278369349742,-0.26161855826052133,0.030494823529375555
1687087738.168097,0.08374951034784317,0.25224098563194275,-0.9640334844589233,-0.0039307549595832825,-0.0016611218452453613,-0.00277864933013916,0.16380897164344788,-0.02030276320874691,-0.014979500323534012,0.0866565074062388,-0.2549954160554022,0.029110358155189513
1687087738.181607,0.0837259292602539,0.24735969305038452,-0.9652995467185974,-0.0034951865673065186,-0.005904585123062134,-0.004213392734527588,0.05469784513115883,0.025038449093699455,-0.0163100678473711,0.08651916863899617,-0.2499543079466034,0.02788359111660407
1687087738.184877,0.0843156948685646,0.24619896709918976,-0.9655448794364929,-0.015269659459590912,-0.009733512997627258,0.007125139236450195,0.03484546020627022,0.02574203535914421,0.0003501349128782749,0.08710351643401963,-0.24875654531333957,0.02730317677363579
1687087738.2210422,0.08428657799959183,0.24291637539863586,-0.9663785099983215,0.0010711178183555603,0.00833486020565033,-0.0015475153923034668,0.044801704585552216,-0.004701718688011169,0.0016907164826989174,0.08699885181220797,-0.24537114919224612,0.026728962799275908
1687087738.283654,0.08414352685213089,0.24443235993385315,-0.9660086631774902,-0.011587955057621002,-0.008989229798316956,0.017385005950927734,-0.025316577404737473,0.014784079045057297,0.008952517062425613,0.0868850297352676,-0.24693424559789814,0.026851566903152834
1687087738.3514261,0.08528568595647812,0.24241192638874054,-0.9664174914360046,0.004832744598388672,0.006916701793670654,0.007189035415649414,0.04702293127775192,0.014329326339066029,0.0038187424652278423,0.08802129128847161,-0.24485116041810537,0.026985176725659404
1687087738.40783,0.08543515205383301,0.24070534110069275,-0.9668307900428772,0.00247076153755188,-0.0006235241889953613,-0.0026516318321228027,0.022732656449079514,0.02088148146867752,0.0002373233437538147,0.08813725769777214,-0.24309249358615118,0.026785919020958362
1687087738.4951,0.0861644521355629,0.2401983141899109,-0.9668921828269958,-0.000913567841053009,-0.012430340051651001,-0.00400930643081665,-0.01101825013756752,0.013800175860524178,0.0042456467635929585,0.08888006897357266,-0.24257014123309367,0.026631858655968895
1687087738.501285,0.0861687883734703,0.2403455525636673,-0.9668551683425903,-0.008364193141460419,-0.0018201470375061035,0.006512820720672607,0.06991884112358093,0.022721992805600166,-0.0030894444789737463,0.08888789909652402,-0.2427218259097683,0.026687377964403597
1687087738.555274,0.08703846484422684,0.2381107658147812,-0.9673300981521606,-0.006304189562797546,-0.025494784116744995,-0.00895768404006958,-0.030952926725149155,0.01772257313132286,0.009556949138641357,0.08973638931689888,-0.24042021132613017,0.026470217820651322
1687087738.646122,0.08755413442850113,0.2384997308254242,-0.967187762260437,-0.0030509382486343384,0.0239056795835495,0.014764666557312012,0.03398750722408295,-0.0005819605430588126,-0.0011905038263648748,0.09027838385225039,-0.24082070418684798,0.02680896922590463
1687087738.661866,0.0873769000172615,0.23815535008907318,-0.967288613319397,0.0011851340532302856,0.0011635124683380127,0.00043076276779174805,-0.04019797220826149,0.009457433596253395,0.009183786809444427,0.09008727581607069,-0.24046610319238185,0.026946158369947144
1687087738.701013,0.08838894218206406,0.23928120732307434,-0.9669187664985657,0.0021567344665527344,0.01604411005973816,0.01527392864227295,0.055618252605199814,0.018518706783652306,-0.009081183932721615,0.09115963868277072,-0.24162549290561589,0.027426351721928855
1687087738.79616,0.08800613135099411,0.23808811604976654,-0.9672481417655945,-0.0017634183168411255,-0.014378994703292847,-0.005362331867218018,-0.025030039250850677,0.002072335919365287,0.00734210480004549,0.09073625798594434,-0.2403968855227936,0.027246281419043634
1687087738.8105311,0.08890815079212189,0.23907659947872162,-0.9669218063354492,0.0006609708070755005,0.006437346339225769,-0.004025459289550781,0.015948086977005005,0.004065521992743015,0.0062917000614106655,0.09169185324510223,-0.24141475796533854,0.027715861914065013
1687087738.851516,0.08868509531021118,0.23916535079479218,-0.9669203162193298,0.0009603202342987061,-0.009764701128005981,0.001054227352142334,-0.0406661257147789,-0.0035063016694039106,0.005343561992049217,0.09146323209548231,-0.2415061603071581,0.02779431891151088
1687087738.944524,0.0887800082564354,0.2404138594865799,-0.9666019082069397,0.0025438740849494934,0.0173986554145813,0.007495522499084473,0.008321892470121384,0.0030957127455621958,0.0012886328622698784,0.09159056508764465,-0.24279219765960597,0.028114274227166232
1687087738.950187,0.08899891376495361,0.2407727688550949,-0.9664924740791321,0.0017451345920562744,-0.007832080125808716,0.00218278169631958,-0.0293898843228817,-0.008289091289043427,0.00040126778185367584,0.0918254769685578,-0.24316196614158067,0.02837504863691671
1687087739.002285,0.08824281394481659,0.24241122603416443,-0.9661521911621094,-0.005082383751869202,-0.010141909122467041,0.010356903076171875,-0.006851384416222572,-0.004704172722995281,0.019524522125720978,0.09108157834280674,-0.24485044337401352,0.029427854027894475
1687087739.095031,0.08854794502258301,0.2428833693265915,-0.9660056829452515,-0.00349542498588562,-0.019693031907081604,-0.011945366859436035,-0.05641868710517883,-0.010935379192233086,0.015900490805506706,0.09140856070104197,-0.24533712425199536,0.029947194279526673
1687087739.100743,0.08788399398326874,0.24594689905643463,-0.965290904045105,0.00211237370967865,0.032220855355262756,-0.0040847063064575195,-0.029178760945796967,-0.0073066893965005875,-0.0031624678522348404,0.09079374201245824,-0.24849647240298425,0.031097628859468308
1687087739.155167,0.08832113444805145,0.2466932088136673,-0.9650605320930481,-0.005557440221309662,-0.00574164092540741,-0.005749344825744629,-0.019178008660674095,0.023530567064881325,0.0009727287106215954,0.0912645191674768,-0.24926651427306826,0.03094581246120899
1687087739.244828,0.09037265181541443,0.24855197966098785,-0.9643934369087219,0.002370305359363556,-0.007447823882102966,-0.007026851177215576,-0.060184046626091,0.028832482174038887,0.00018848106265068054,0.09343644934820455,-0.2511850328384442,0.03169197084977654
1687087739.250989,0.09227482974529266,0.24983972311019897,-0.9638804197311401,0.003123149275779724,-0.009727373719215393,-0.008501172065734863,-0.015813954174518585,0.06073019281029701,0.018064577132463455,0.09544179590188553,-0.2525147203200385,0.03188385495094025
1687087739.304,0.09374865889549255,0.2511616051197052,-0.9633945226669312,0.005586080253124237,0.0087718665599823,-0.0017390847206115723,-0.03926381841301918,0.05267686769366264,-0.0031614028848707676,0.09700534251052952,-0.25388013679196836,0.03212041146409637
1687087739.3953,0.09422919899225235,0.25392231345176697,-0.962623655796051,0.006234697997570038,-0.00402909517288208,0.009193480014801025,-0.03518234193325043,0.006955811753869057,0.0011446084827184677,0.09757702173110162,-0.2567333299500881,0.03201804229177103
1687087739.4106221,0.09359975904226303,0.2548358738422394,-0.9624436497688293,0.005048349499702454,0.007859468460083008,-0.013081252574920654,0.00736774830147624,-0.011097033508121967,-0.001479031052440405,0.09694731857400685,-0.25767796923539543,0.03231441235668225
1687087739.454076,0.09399650990962982,0.25576984882354736,-0.9621571898460388,-0.001558735966682434,-0.014192700386047363,-0.0022593140602111816,-0.03622421994805336,-0.003005189821124077,-0.007113960571587086,0.09738447817795207,-0.2586439585114032,0.032305216349772195
1687087739.546735,0.09444627910852432,0.2566043734550476,-0.9618908762931824,0.002553880214691162,0.0013607442378997803,0.0062787532806396484,-0.012006632052361965,-0.004644479602575302,-0.0009421906433999538,0.09787440854238857,-0.259507298588846,0.032334195969023975
1687087739.562189,0.09407157450914383,0.25735506415367126,-0.9617270231246948,-0.0006267279386520386,0.0035397112369537354,0.0102500319480896,-0.01679970696568489,-0.003829837776720524,-0.0018493698444217443,0.09750507497498746,-0.26028407008686794,0.03239012751784192
1687087739.600941,0.09438912570476532,0.25838232040405273,-0.961420476436615,0.005235537886619568,-5.1021575927734375e-05,-0.00629192590713501,-0.010350844822824001,-0.0029585843440145254,-0.0076280031353235245,0.09786312353201208,-0.2613472974550553,0.03243119255853698
1687087739.694844,0.09426742792129517,0.25922197103500366,-0.961206316947937,0.005799740552902222,-0.006215989589691162,-0.015493512153625488,-0.007647037506103516,-0.01206644345074892,-0.0018556551076471806,0.09775937791130337,-0.2622165604379031,0.032335982056993014
1687087739.700962,0.0945158302783966,0.2596645653247833,-0.961062490940094,-0.003268234431743622,-0.0019741058349609375,0.003451406955718994,-0.008825286291539669,0.023249393329024315,-0.004034067504107952,0.09802991438447323,-0.262674833292835,0.03229160476716949
1687087739.756194,0.09447257965803146,0.25979241728782654,-0.9610322117805481,-0.001424454152584076,0.0006141066551208496,0.006228744983673096,-0.009267603978514671,-0.006712728645652533,-0.0013186016585677862,0.09798841468458887,-0.2628072237491042,0.03231591263227614
1687087739.846446,0.09422964602708817,0.2607240378856659,-0.9608036875724792,-0.0016850531101226807,-0.002392709255218506,0.005115211009979248,-0.011430506594479084,0.005948225036263466,-1.04573555290699e-05,0.09776113733020252,-0.26377210995863987,0.0323434666111706
1687087739.860983,0.09463614970445633,0.260934054851532,-0.9607067108154297,0.0031727254390716553,-0.006478458642959595,-0.004136979579925537,-0.020369190722703934,-0.0017106651794165373,-1.0190997272729874e-05,0.0981900219301048,-0.2639896406542415,0.03248562974905641
1687087739.903547,0.09449207037687302,0.2612476944923401,-0.9606356620788574,-0.0007725656032562256,0.0012950301170349121,0.006946146488189697,-0.004962770733982325,-0.005375745706260204,0.00019460637122392654,0.09804869787508397,-0.2643145514171156,0.0325898033508727
1687087740.000289,0.09471166878938675,0.26104432344436646,-0.9606693387031555,0.0010830461978912354,0.005252063274383545,0.007300198078155518,0.013284659944474697,-0.001778709003701806,0.002061109058558941,0.09827167452006076,-0.26410389333569123,0.03272170547078461
1687087740.016253,0.09476206451654434,0.2616213858127594,-0.9605073928833008,0.00031547993421554565,-0.006006121635437012,-0.0029020309448242188,-0.010470787063241005,-0.00035496405325829983,-0.0007409090176224709,0.09834010526264879,-0.26470172895427446,0.03286835943750299
1687087740.051569,0.09495078772306442,0.2619771659374237,-0.9603917598724365,-0.001109197735786438,0.004014074802398682,0.0041234493255615234,-0.004513046238571405,-0.0004852877464145422,-0.0002733645960688591,0.09854647219093642,-0.26507035506877824,0.03305986603490822
1687087740.1465878,0.09491192549467087,0.2622828185558319,-0.9603121876716614,-0.0007956773042678833,-0.0005487799644470215,0.002182304859161377,-0.016481824219226837,0.0053180065006017685,-0.0036310781724750996,0.09851450866374685,-0.2653870941261713,0.03307634999086064
1687087740.16121,0.09522335231304169,0.2628536522388458,-0.9601252675056458,0.0009986013174057007,-0.0016994476318359375,-0.001819312572479248,-0.004104900173842907,0.0040916018187999725,-0.0017010855954140425,0.09885478023880251,-0.26597866888859584,0.03311400657665223
1687087740.203364,0.09525525569915771,0.26307985186576843,-0.9600601196289062,-0.0014594495296478271,-0.004672259092330933,0.00023651123046875,-0.01513251755386591,-0.0002845043782144785,-0.0017381033394485712,0.09889434449433966,-0.26621313296410526,0.033065170011416775
1687087740.296722,0.09550197422504425,0.2635895013809204,-0.9598957896232605,-0.0005465000867843628,-0.0068450868129730225,0.003612220287322998,-0.014724703505635262,0.004060880281031132,0.0008840984664857388,0.09916567743215433,-0.26674142769061593,0.03316053678637915
1687087740.311306,0.09552150964736938,0.263873815536499,-0.9598157405853271,0.002134762704372406,-0.0024755001068115234,-0.006324946880340576,-0.016735773533582687,0.0033011757768690586,-0.004976826254278421,0.09919405126198812,-0.2670361629227876,0.03301960846955671
1687087740.3523688,0.09568147361278534,0.2647542953491211,-0.959557294845581,0.0027835220098495483,-0.0008687674999237061,-0.00215834379196167,-0.006622320041060448,0.004994755610823631,-1.0829884558916092e-05,0.09938565485340387,-0.26794910308395264,0.032953097759929925
1687087740.444581,0.0959283784031868,0.26519644260406494,-0.959410548210144,-0.0004235878586769104,0.0038160383701324463,-0.005829930305480957,-0.0005596666596829891,0.008965757675468922,0.0008972012437880039,0.09965557449424212,-0.26840766847256364,0.032858302529026454
1687087740.4504662,0.09609296917915344,0.26528605818748474,-0.9593693017959595,0.0011208057403564453,-0.0021024346351623535,-0.004482626914978027,0.001992590492591262,0.004447190556675196,0.0022448142990469933,0.09982969004195172,-0.2685005926783207,0.03284856411818965
1687087740.5032191,0.0963142067193985,0.265943706035614,-0.9591650366783142,0.0012200027704238892,-0.002744823694229126,-0.000689089298248291,-0.017352145165205002,0.0035397380124777555,0.0012695644982159138,0.10007916328236903,-0.26918274596161856,0.03283588136993741
1687087740.595951,0.0966508761048317,0.2661673426628113,-0.9590691328048706,0.002836465835571289,0.0017007291316986084,-0.0036689043045043945,-0.007887870073318481,0.0024219711776822805,-0.004240409471094608,0.10043663036708467,-0.26941475394565606,0.03285581129707403
1687087740.610959,0.09681252390146255,0.2663581669330597,-0.9589998126029968,0.0001266002655029297,-0.0016639530658721924,0.002136409282684326,-0.0033276895992457867,0.007149861194193363,-0.004768407437950373,0.10061069796804774,-0.2696127304769677,0.032829944037213434
1687087740.654148,0.09697011113166809,0.26683124899864197,-0.9588524103164673,0.003203868865966797,0.00100630521774292,-0.003641486167907715,-0.0012814830988645554,-0.0016088944394141436,-0.001600257819518447,0.10078875278325418,-0.2701035703355044,0.032822226913732176
1687087740.746283,0.09722298383712769,0.26715102791786194,-0.9587377309799194,0.00021967291831970215,-0.0013428926467895508,-0.0008875131607055664,-0.014378410764038563,0.0056444150395691395,-7.469300180673599e-05,0.10106180538788437,-0.27043538321600596,0.03287592556470586
1687087740.761018,0.09715572744607925,0.26736897230148315,-0.9586837887763977,-0.0012999773025512695,0.0032151639461517334,0.001438915729522705,0.0018915734253823757,-0.006701010745018721,0.0008279061876237392,0.10099800527779587,-0.27066157630009574,0.0328596808021561
1687087740.802665,0.09709933400154114,0.2674747407436371,-0.9586600065231323,-0.00052642822265625,-0.006534159183502197,0.007778048515319824,-0.0097194267436862,-0.0022082009818404913,-0.0012282677926123142,0.10094227379528482,-0.2707713321287387,0.03289784482403469
1687087740.895643,0.09711503237485886,0.26764795184135437,-0.9586100578308105,0.0003886595368385315,-0.0012447237968444824,0.0016398429870605469,-0.005449729971587658,-0.006400415673851967,-0.0026394228916615248,0.10096370670460987,-0.2709510985047416,0.03289067759837188
1687087740.9102268,0.09685826301574707,0.2674463391304016,-0.9586923122406006,-0.0015518292784690857,0.00029966235160827637,0.007291555404663086,0.0025647541042417288,-0.0018714061006903648,0.0010415981523692608,0.10068997658988431,-0.27074183986866257,0.032912278956919075
1687087740.9533172,0.09677177667617798,0.2680415213108063,-0.9585347771644592,0.0018915832042694092,0.0014897584915161133,9.97781753540039e-05,-0.005006180144846439,-0.006177052855491638,-0.0014889910817146301,0.10061709677440228,-0.27135958112026165,0.033001428990791004
1687087741.046792,0.09663520008325577,0.268136590719223,-0.9585220217704773,0.00204341858625412,0.004034459590911865,-0.0008438229560852051,-0.002364374464377761,-0.007441997528076172,0.004717985633760691,0.10047738546560059,-0.27145826888740304,0.033080450062373604
1687087741.060771,0.09653978049755096,0.2678755223751068,-0.9586045742034912,0.00012467056512832642,-0.0004042387008666992,0.0021379590034484863,0.008062267675995827,-0.0006276146741583943,0.0007230839692056179,0.10037024508907239,-0.271187293784748,0.033169055475743704
1687087741.102041,0.09630825370550156,0.2680746912956238,-0.9585722088813782,-0.0034432262182235718,-0.009316116571426392,0.00016766786575317383,-0.010602912865579128,-0.0066573345102369785,-0.0048235878348350525,0.10013449464738179,-0.27139402581850786,0.033174317844249915
1687087741.195259,0.09623228758573532,0.26823660731315613,-0.9585345387458801,0.0011951103806495667,0.0006538033485412598,0.0019611120223999023,-0.005109544377774,-0.004964325577020645,-0.005845016799867153,0.10005994307213774,-0.27156207766074125,0.033086182034599655
1687087741.201026,0.09609951823949814,0.26842403411865234,-0.9584953784942627,-0.00025903433561325073,-0.0026464462280273438,0.0015556812286376953,-0.00828602910041809,0.000529357697814703,0.0028979810886085033,0.09992686887370253,-0.2717566637957721,0.03300191618875062
1687087741.2528238,0.09592483937740326,0.26836299896240234,-0.9585300087928772,5.298107862472534e-05,-0.002493828535079956,0.00017124414443969727,-0.007561083883047104,-0.0017997671384364367,-0.004608245100826025,0.09974285590733213,-0.27169327960176465,0.03292366929130415
1687087741.346991,0.09582845121622086,0.26870179176330566,-0.9584447145462036,-0.0009645223617553711,0.0035913586616516113,-0.0016993284225463867,-0.002686483785510063,-0.001206852262839675,-0.0014830257277935743,0.09965210107422928,-0.2720449937230611,0.03292740707057933
1687087741.3613691,0.09568598121404648,0.26836130023002625,-0.9585543274879456,0.0016040876507759094,0.005335599184036255,0.0010347962379455566,0.011209508404135704,-0.010571078397333622,-0.0010678386315703392,0.09949362060935842,-0.27169153260174106,0.032835973808749426
1687087741.403421,0.09552189707756042,0.2682460844516754,-0.9586029648780823,-0.002244889736175537,-0.004024863243103027,-0.0021056532859802246,0.015362291596829891,-0.016574129462242126,-0.0005696145817637444,0.09931912134518178,-0.2715719375924813,0.03282658121317813
1687087741.467592,0.09211327880620956,0.26561012864112854,-0.9596699476242065,0.007831819355487823,0.00888022780418396,0.005598962306976318,0.13614429533481598,-0.16361616551876068,0.02246672846376896,0.09569118070615243,-0.26883672240547773,0.032976812777873295
1687087741.55443,0.08615131676197052,0.25233200192451477,-0.9637979865074158,0.008193805813789368,0.022600889205932617,0.015418469905853271,0.2765803933143616,-0.2557574510574341,0.0005386867560446262,0.08915038060015512,-0.25508950283727655,0.0322611510565331
1687087741.560296,0.08103647828102112,0.23807524144649506,-0.9678601622581482,-0.02044379711151123,0.004539519548416138,0.027522027492523193,0.25693023204803467,0.002052362309768796,-0.008716011419892311,0.08353263539989862,-0.24038362706442792,0.028907342727100334
1687087741.651165,0.08037938922643661,0.22785034775733948,-0.9703727960586548,-0.008312098681926727,0.01165163516998291,-0.018106818199157715,0.2190108299255371,0.026399988681077957,-0.02560737542808056,0.08264484012829941,-0.2298693869466808,0.026592984481878728
1687087741.664016,0.08242305368185043,0.21947383880615234,-0.9721304774284363,-0.01760368049144745,0.01047612726688385,0.01741856336593628,0.08753347396850586,0.06779395788908005,-0.017099536955356598,0.08458370060753242,-0.2212751197910136,0.02475492972015943
1687087741.7015162,0.08425041288137436,0.2189745157957077,-0.9720864295959473,-0.009436540305614471,-0.01899281144142151,0.0029702186584472656,-0.009878350421786308,0.049306388944387436,0.010594142600893974,0.08645363672056489,-0.22076335281493545,0.024346497242020485
1687087741.796416,0.08443840593099594,0.21860243380069733,-0.9721538424491882,0.00391000509262085,0.008143171668052673,-0.004393339157104492,0.01318061351776123,0.033802397549152374,0.007014162838459015,0.08663959904170249,-0.2203820359160586,0.024254107983652306
1687087741.810333,0.08477604389190674,0.21795928478240967,-0.9722688794136047,-0.005811780691146851,-0.011675700545310974,0.0031679272651672363,-0.024335088208317757,0.02781437523663044,0.007968958467245102,0.08697405947745455,-0.21972299990509742,0.024146610453787288
1687087741.852876,0.08627796918153763,0.21551761031150818,-0.9726809859275818,0.0058393701910972595,0.017941877245903015,0.014444291591644287,0.03480232134461403,0.014561858028173447,-0.020343372598290443,0.08846966041707821,-0.2172218611134985,0.02355094580670785
1687087741.9760861,0.08719196915626526,0.2164006233215332,-0.9724034070968628,-0.0001863241195678711,-0.028946369886398315,0.002158045768737793,-0.06598639488220215,0.021515998989343643,0.013513660058379173,0.08942730170029355,-0.21812622255282094,0.023997498705148383
1687087741.981921,0.08843325823545456,0.2175290584564209,-0.9720394611358643,0.011862792074680328,0.007553368806838989,-0.017584562301635742,-0.02182355895638466,0.014993269927799702,-0.0018616204615682364,0.09072726803115537,-0.21928218807637564,0.02440866231370828
1687087742.06616,0.08850079774856567,0.21936845779418945,-0.9716198444366455,0.0011598765850067139,-0.004692539572715759,0.011597871780395508,-0.0002316151512786746,0.012851709499955177,0.011539512313902378,0.09083517613246345,-0.2211671190554558,0.025221155396126693
1687087742.079862,0.08919274061918259,0.21969373524188995,-0.971483051776886,-0.002736411988735199,-0.013150736689567566,-0.005003154277801514,-0.04580003395676613,0.004625318571925163,0.00554297911003232,0.09155423944549615,-0.2215005264045497,0.025127822923797262
1687087742.187146,0.0900529995560646,0.2205839902162552,-0.9712018966674805,0.006443604826927185,0.022595331072807312,0.007594168186187744,0.010979227721691132,0.004942615050822496,0.0020623337477445602,0.09245888407433381,-0.22241317347004835,0.025779447818321626
1687087742.200727,0.0902281105518341,0.22073312103748322,-0.9711517691612244,0.0033235475420951843,-0.0005335360765457153,-0.0017790794372558594,-0.032299868762493134,0.0050325533375144005,0.006544753909111023,0.09264239887878656,-0.22256607353953492,0.0261462229101388
1687087742.2765331,0.09061332792043686,0.22275128960609436,-0.9706549644470215,0.0026636719703674316,0.0019496381282806396,0.0022712349891662598,0.001827241387218237,0.006223062984645367,0.0060394457541406155,0.09308299399300594,-0.2246357661728533,0.02672296185195965
1687087742.2822618,0.09062711894512177,0.2227679044008255,-0.9706498980522156,0.0034891217947006226,-0.010716497898101807,-0.009818851947784424,-0.04154716432094574,0.0032794326543807983,0.008902236819267273,0.09309756526171223,-0.2246528107123467,0.026819368306599235
1687087742.365295,0.09052707254886627,0.2253350168466568,-0.970066487789154,0.0012545734643936157,5.258619785308838e-05,0.0012554526329040527,-0.03423765301704407,-0.016171876341104507,0.010906531475484371,0.09305098697510669,-0.22728688307403475,0.027794511017020112
1687087742.378893,0.09009824693202972,0.22587722539901733,-0.9699802994728088,-0.008112750947475433,0.0015550404787063599,0.005182385444641113,-0.011913321912288666,0.01479918323457241,0.028423316776752472,0.09262091242913457,-0.22784344158669756,0.028622501795730757
1687087742.4571939,0.09144455939531326,0.22799566388130188,-0.969358503818512,-0.004911929368972778,-0.020064130425453186,-0.0018481612205505371,-0.06707893311977386,0.031411562114953995,-0.0021091345697641373,0.09405677893987731,-0.23001862897343056,0.029461383116373526
1687087742.4623919,0.09271140396595001,0.23076049983501434,-0.9685835838317871,0.0014506056904792786,-0.026552125811576843,-0.004835546016693115,-0.06225541979074478,0.011124363169074059,0.021910661831498146,0.09542780599430897,-0.23285920739979346,0.03055372153818608
1687087742.513373,0.09433148801326752,0.23283882439136505,-0.9679295420646667,-0.01356668770313263,-0.006276309490203857,0.0014379024505615234,-0.044836435467004776,0.09892153739929199,0.005523485131561756,0.0971501755416896,-0.23499572684957198,0.031126375014374395
1687087742.6016068,0.09768400341272354,0.2327880710363388,-0.9676092267036438,0.029711663722991943,0.03849796950817108,-0.006176173686981201,0.054994139820337296,0.015468664467334747,-0.016137707978487015,0.10061310144346232,-0.2349435303656983,0.03143763536907599
1687087742.61728,0.0970006212592125,0.2330297976732254,-0.967619776725769,4.53069806098938e-05,-0.009290143847465515,-0.005402684211730957,-0.023949379101395607,0.008322907611727715,0.002586018294095993,0.09991283809403165,-0.23519209667589694,0.03126265538514391
1687087742.666702,0.09847189486026764,0.23503395915031433,-0.9669862389564514,0.0071647316217422485,-0.0011472105979919434,-0.009774625301361084,-0.027767419815063477,-0.014993941411376,-0.0024191797710955143,0.10148397905435283,-0.23725350362295466,0.03174333932339164
1687087742.750286,0.09814384579658508,0.23605689406394958,-0.966770350933075,-0.0014793798327445984,0.004681035876274109,0.009555995464324951,-0.049520283937454224,-0.0018112186808139086,-0.0016513904556632042,0.10117062790181311,-0.23830605905489266,0.031788042264494616
1687087742.7650309,0.0987277701497078,0.23816227912902832,-0.9661943912506104,0.00669524073600769,0.0050170570611953735,0.0021593570709228516,-0.014585204422473907,-0.0030844758730381727,-0.008381465449929237,0.10182867776758318,-0.2404732450794075,0.03191399385344288
1687087742.813498,0.09896593540906906,0.2397109866142273,-0.9657869338989258,-0.0020115599036216736,-0.011592060327529907,0.0019807815551757812,-0.043734967708587646,0.001452865544706583,-0.0015226537361741066,0.10211538870754674,-0.242068140386929,0.031930862832284794
1687087742.905705,0.09951372444629669,0.24203172326087952,-0.9651516079902649,0.0027659758925437927,-0.002743363380432129,-0.002057194709777832,-0.029235802590847015,-0.003919548355042934,-0.008063696324825287,0.10274376451334294,-0.24445929288450008,0.03203048631397764
1687087742.911583,0.09996657073497772,0.24456125497817993,-0.96446692943573,-0.004644893109798431,-0.009743720293045044,0.006367623805999756,-0.10497725754976273,0.023627981543540955,-0.004665343090891838,0.10328075695199507,-0.24706717676773843,0.031983851435977886
1687087742.963726,0.10036636888980865,0.24713017046451569,-0.96377032995224,-5.505979061126709e-05,0.0173504501581192,-0.00026470422744750977,-0.01694205217063427,-0.002373811323195696,-0.004099687561392784,0.1037652689062091,-0.2497174320052079,0.03201864275594354
1687087743.0567698,0.10029084235429764,0.24767686426639557,-0.9636378884315491,0.0002798736095428467,0.002765670418739319,0.0021052956581115723,-0.025959083810448647,0.003925553988665342,-0.003212322946637869,0.10370189567229576,-0.2502816721734266,0.03192614995401206
1687087743.0625582,0.10105627775192261,0.25004497170448303,-0.9629460573196411,0.0019405707716941833,-0.005904346704483032,0.0018407702445983887,-0.05113176256418228,0.015263600274920464,-0.006727162748575211,0.1045621577433135,-0.2527267057255249,0.03203036086718822
1687087743.1166692,0.1009901911020279,0.2503325045108795,-0.9628782868385315,-0.0026930496096611023,0.0005525052547454834,-0.0014313459396362305,0.004137350246310234,0.003964911215007305,0.0013760910369455814,0.10450157859397,-0.2530236755731308,0.03183889436861685
1687087743.207199,0.1011357456445694,0.25086140632629395,-0.9627253413200378,0.0012507513165473938,0.0025718212127685547,0.0010554790496826172,-0.019715700298547745,0.001326194265857339,-0.0012384941801428795,0.10466759941820951,-0.2535700164700229,0.03182154569600164
1687087743.213025,0.1014837697148323,0.25162574648857117,-0.9624892473220825,0.0001855716109275818,0.0036538243293762207,0.0029708147048950195,-0.029223302379250526,0.007955925539135933,2.8477981686592102e-05,0.105050717095249,-0.2543596911239984,0.03176110459741008
1687087743.263773,0.10189516097307205,0.25335484743118286,-0.9619920253753662,-0.0006683245301246643,-0.0017679333686828613,-0.0022718310356140137,-0.033549126237630844,0.011721919290721416,-0.009641832672059536,0.10552752662784262,-0.2561466842244325,0.03170306882824522
1687087743.3546839,0.10235723108053207,0.2551862895488739,-0.9614588022232056,-0.0009320229291915894,0.00039845705032348633,-0.0015844106674194336,-0.014251843094825745,-0.0106660770252347,-0.002795484149828553,0.10606085671871689,-0.25804036363505173,0.031693551340675856
1687087743.367025,0.10203255712985992,0.25557705760002136,-0.9613894820213318,0.0003081858158111572,-0.0019759833812713623,0.004373490810394287,-0.029319774359464645,0.0018936186097562313,-0.0014397755730897188,0.10573450187882279,-0.2584445476772802,0.031618606287833195
1687087743.413836,0.10254113376140594,0.2562788128852844,-0.9611485004425049,0.0017069503664970398,0.004219263792037964,0.0002873539924621582,-0.003447931492701173,0.010533293709158897,-0.004925907123833895,0.10628401984862643,-0.2591704677060115,0.03163298676199807
1687087743.50659,0.1029689684510231,0.258057564496994,-0.9606267213821411,0.0006382465362548828,-0.00784391164779663,-0.005864977836608887,-0.0421600379049778,0.010016907006502151,-0.0070687392726540565,0.10678165165619559,-0.26101113029864625,0.03152970191802967
1687087743.512181,0.1029704138636589,0.25831684470176697,-0.9605568647384644,-0.0015299618244171143,0.008223682641983032,0.006134927272796631,0.00026368291582912207,0.006526225246489048,-0.0017616988625377417,0.10679084812024323,-0.2612794997357239,0.031373688517790176
1687087743.566092,0.10334477573633194,0.2588272988796234,-0.9603792428970337,-1.2218952178955078e-05,0.0019301772117614746,2.1576881408691406e-05,-0.02522137016057968,0.010420413687825203,-0.001782471314072609,0.10719580492285753,-0.2618079251878827,0.0312890238300246
1687087743.656678,0.1035371720790863,0.2601191997528076,-0.9600093960762024,0.001916341483592987,0.00805404782295227,-0.000973820686340332,0.002188183134421706,0.0013313114177435637,-0.00473879324272275,0.1074349014136471,-0.2631456421756402,0.031176082510862853
1687087743.662475,0.10366225987672806,0.2604660391807556,-0.9599018692970276,0.0012419521808624268,-0.0046676695346832275,0.006120741367340088,-0.008255835622549057,0.0025969594717025757,-0.0016124551184475422,0.10757565842903653,-0.26350488086252877,0.031171629458677127
1687087743.7139401,0.10379017144441605,0.2610437572002411,-0.9597311019897461,0.0024568140506744385,-0.002590358257293701,0.0022268295288085938,-0.014990387484431267,-0.0016490130219608545,-0.003031387459486723,0.10772639152469148,-0.2641032863249737,0.03107379522540209
1687087743.807825,0.10398686677217484,0.2617051899433136,-0.9595296382904053,0.0003222525119781494,-0.001130819320678711,0.00040793418884277344,-0.018269704654812813,0.005136797204613686,0.00026161130517721176,0.10795144921731738,-0.26478855073325785,0.031058697538755477
1687087743.813702,0.10410892963409424,0.262329638004303,-0.9593458771705627,0.004320055246353149,0.0068506598472595215,-0.0005540251731872559,-0.0008896156214177608,0.0003992621786892414,-0.002459073904901743,0.10809772327844164,-0.26543561572892427,0.031044337930528746
1687087743.8632379,0.10415243357419968,0.2624812126159668,-0.9592996835708618,0.002353943884372711,-0.002059429883956909,-0.0019277334213256836,-0.006458451971411705,-0.002043160842731595,-0.0007251426577568054,0.10814771014123817,-0.26559269002945707,0.03098476115403736
1687087743.957059,0.10416579991579056,0.2629537880420685,-0.9591687917709351,-0.0024659335613250732,0.0007028579711914062,0.005067229270935059,-0.008142135106027126,-0.004768716171383858,-0.0015524807386100292,0.10817612159421808,-0.26608244766609795,0.031061020900867094
1687087743.9628758,0.10425709187984467,0.2630751430988312,-0.9591256380081177,2.1502375602722168e-05,0.0006577968597412109,0.006824612617492676,-0.005670888349413872,-0.0005915098590776324,-0.0036457788664847612,0.1082750291174323,-0.2662082441264143,0.0311067282613974
1687087744.0131788,0.10428852587938309,0.26350098848342896,-0.9590052962303162,0.0008293092250823975,-0.0020721256732940674,-0.002893507480621338,-0.011550965718925,-0.0014060377143323421,0.0011897231452167034,0.10832090266987504,-0.2666496688853692,0.031108538768505053
1687087744.107963,0.10419919341802597,0.2634357511997223,-0.9590328931808472,0.0018189027905464172,0.0032725930213928223,0.0016507506370544434,0.00934692658483982,0.005501669365912676,-0.0025239484384655952,0.10822574330378311,-0.26658204982283046,0.03109346241441099
1687087744.1136189,0.10434754192829132,0.26366907358169556,-0.9589526653289795,0.001655295491218567,0.008669823408126831,0.0003345012664794922,-0.000783089199103415,-0.001990582561120391,-0.000248543918132782,0.10838762202617182,-0.2668239127733648,0.031130994960340677
1687087744.19607,0.10433382540941238,0.2644540071487427,-0.9587379693984985,-0.0006808415055274963,0.00013339519500732422,0.0058266520500183105,-0.01611560769379139,0.0020037025678902864,-0.0033026570454239845,0.10839756349009952,-0.26763772710675027,0.031076008818869433
1687087744.287173,0.10431966185569763,0.2645649015903473,-0.9587089419364929,-0.002482473850250244,0.00511893630027771,0.00161665678024292,0.0035439650528132915,-0.004378544166684151,-0.005298163276165724,0.10838622290023821,-0.26775273158719837,0.03110703469275783
1687087744.300504,0.10455123335123062,0.26469331979751587,-0.9586482644081116,0.007204167544841766,0.0053567588329315186,0.0010219812393188477,-0.0034819201100617647,0.0029026141855865717,-0.00019160564988851547,0.10863175472100088,-0.26788587343035,0.031182548782302963
1687087744.377537,0.1032094731926918,0.26436230540275574,-0.9588849544525146,0.0016794726252555847,0.005519896745681763,0.0006940960884094238,0.022775916382670403,-0.08993510901927948,0.005757683888077736,0.10722208688673505,-0.2675426296872896,0.03103624309581616
1687087744.383075,0.09839405864477158,0.2588682174682617,-0.9608880281448364,0.010248556733131409,0.04301166534423828,0.007457911968231201,0.26303014159202576,-0.09511829912662506,0.015995938330888748,0.1020434164143441,-0.2618503061260994,0.031527898520450896
1687087744.468369,0.09149898588657379,0.2452906370162964,-0.9651219844818115,0.043388739228248596,0.015985623002052307,-0.016185998916625977,0.3815430700778961,-0.13629011809825897,-0.05783231928944588,0.09452310024559227,-0.247819480703373,0.03109792304938556
1687087744.482267,0.08953865617513657,0.2344255894422531,-0.9680017828941345,-0.03161626309156418,-0.07306388020515442,-0.01655632257461548,0.06700590997934341,-0.010651638731360435,-0.002127936575561762,0.09223598153187797,-0.23662764507758818,0.028403821859463316
1687087744.55587,0.08907654881477356,0.2288060337305069,-0.9693880677223206,-0.006450168788433075,0.020400524139404297,-0.007800042629241943,0.15445302426815033,0.014263316988945007,-0.02545594982802868,0.09163213582185317,-0.23085100667199035,0.027281952590810468
1687087744.5618858,0.0904335156083107,0.2241298258304596,-0.9703543782234192,-0.024774916470050812,-0.0362330824136734,0.0032675862312316895,0.02416793256998062,0.04494702070951462,-0.007408506236970425,0.09292795956598826,-0.22605005045095214,0.025954536020489045
1687087744.6146379,0.09115587919950485,0.22227901220321655,-0.970712423324585,0.0026857107877731323,0.002711862325668335,-0.009130656719207764,0.05737999826669693,0.029538335278630257,-0.006786763668060303,0.09363157548020397,-0.22415133219800115,0.025163547596753107
1687087744.704674,0.09102994203567505,0.22087398171424866,-0.9710448980331421,-0.005382336676120758,-0.0029632151126861572,0.006277501583099365,0.01637783832848072,0.021590549498796463,-0.00646595936268568,0.09347114859668683,-0.22271049867139384,0.024314735198145407
1687087744.71915,0.09169339388608932,0.22038757801055908,-0.9710929989814758,-0.006076306104660034,-0.010060429573059082,0.0006340742111206055,-0.01680741272866726,0.025555919855833054,0.010959049686789513,0.09414375402606458,-0.2222118021555484,0.024149246555895003
1687087744.763482,0.09187520295381546,0.22038422524929047,-0.9710766077041626,0.0016306936740875244,0.018705755472183228,0.00015985965728759766,0.0297143142670393,0.019000282511115074,-0.007764516398310661,0.0943308998327322,-0.22220836964049687,0.02419779760197916
1687087744.857263,0.09187012165784836,0.220503568649292,-0.971049964427948,-0.0067413076758384705,-0.011564955115318298,0.0050160884857177734,-0.034439053386449814,0.013650162145495415,0.008721249178051949,0.09432828202682196,-0.22233071479556563,0.024091828860955657
1687087744.863048,0.0926499143242836,0.22097699344158173,-0.9708682894706726,0.004045061767101288,0.014923915266990662,0.0024845004081726074,0.018194247037172318,-0.0016408523079007864,-0.004889208357781172,0.0951418374300482,-0.22281611083139552,0.024373305633456147
1687087744.914844,0.09208984673023224,0.22056472301483154,-0.9710152745246887,0.0015076026320457458,-0.004958018660545349,0.0019906163215637207,-0.0207330621778965,0.007050583139061928,0.010060073807835579,0.0945559025631618,-0.22239341498253998,0.0244282653877301
1687087745.007564,0.09289906173944473,0.2214270681142807,-0.970741868019104,-0.0007969886064529419,0.004570856690406799,0.006966292858123779,0.009775678627192974,0.002903051907196641,0.0029891147278249264,0.09540848379832599,-0.22327762298913711,0.024745611176414353
1687087745.0134091,0.0929463803768158,0.22157636284828186,-0.9707033038139343,-0.003651916980743408,-0.0075107961893081665,0.002060115337371826,-0.011054768227040768,0.0010919123888015747,0.007238293997943401,0.09546055713563129,-0.2234307195057344,0.024838920181277015
1687087745.065936,0.09355434030294418,0.22253331542015076,-0.9704259634017944,-0.0033748671412467957,-4.488229751586914e-05,-0.0032221078872680664,-0.0204155296087265,0.008408243767917156,0.011146536096930504,0.09610843068166142,-0.224412173704132,0.025203131485459048
1687087745.1553822,0.0930711105465889,0.2230486422777176,-0.9703540802001953,-0.012718304991722107,-0.0031542330980300903,0.004045546054840088,-0.007665013428777456,-0.0028533893637359142,0.02045668102800846,0.09562207566080455,-0.2249407949242112,0.0263744187584867
1687087745.1619148,0.09318403154611588,0.22329390048980713,-0.9702868461608887,-0.006361484527587891,-0.016384705901145935,-0.006962299346923828,-0.043673716485500336,0.010259939357638359,0.009944118559360504,0.09574397448157308,-0.22519239896353052,0.026549825691954264
1687087745.2146912,0.0932607427239418,0.22394558787345886,-0.9701292514801025,0.004624418914318085,0.012138396501541138,0.0049040913581848145,0.02231910079717636,-0.006900272332131863,-0.006242786534130573,0.09583777965768095,-0.22586101754367258,0.02685988170840234
1687087745.304891,0.0930681899189949,0.2229352593421936,-0.970380425453186,0.0015515908598899841,-0.01067022979259491,0.00025719404220581055,-0.020493309944868088,-0.00284085376188159,-0.005096029490232468,0.09561650693584164,-0.22482447506122807,0.026607869130459823
1687087745.3190908,0.09355109930038452,0.22296422719955444,-0.9703273177146912,0.0010381564497947693,0.01076991856098175,0.0020046234130859375,0.018210675567388535,-0.0034786807373166084,-0.004758340772241354,0.09611482914764892,-0.22485418607117721,0.02664652169137004
1687087745.363257,0.09331291913986206,0.22237683832645416,-0.9704850316047668,-0.0012260973453521729,0.001912131905555725,-0.003773331642150879,-0.003132479963824153,0.014028806239366531,-0.00613514194265008,0.09585613437171453,-0.2242516690874243,0.02612915562086618
1687087745.4550772,0.09389795362949371,0.22311602532863617,-0.9702589511871338,0.0012253746390342712,-0.004579633474349976,-0.006929159164428711,-0.02039465680718422,0.012663479894399643,-0.008053043857216835,0.09647574166735526,-0.22500991066256437,0.025916548195512333
1687087745.460026,0.09456927329301834,0.22434251010417938,-0.9699108600616455,-0.0023908987641334534,-0.015129253268241882,-0.008742034435272217,-0.06966014206409454,0.026780251413583755,0.009503898210823536,0.09719582118817345,-0.22626829886238622,0.025946616247973675
1687087745.57787,0.09510534256696701,0.22906577587127686,-0.9687537550926208,-0.010480068624019623,0.0011130720376968384,-0.00550466775894165,-0.1251469999551773,0.014946531504392624,-0.0021786431316286325,0.09785929676831576,-0.23111783546182507,0.026359783896804833
1687087745.5836,0.09794162958860397,0.23957936465740204,-0.9659240245819092,-0.03963775932788849,-0.027238041162490845,0.01339411735534668,-0.184639111161232,0.14227771759033203,0.023306850343942642,0.10105146190281565,-0.24193258048238245,0.02782892864864584
1687087745.667492,0.10264250636100769,0.24069362878799438,-0.9651585817337036,0.0242953822016716,0.0412735641002655,0.0013982653617858887,-0.03417171910405159,0.025378286838531494,0.0036484599113464355,0.10594959038209238,-0.2430804185434252,0.028592349149989885
1687087745.679241,0.10176490247249603,0.2431199848651886,-0.9646432399749756,0.005000874400138855,0.012525796890258789,-0.008394479751586914,-0.028128260746598244,0.007672506850212812,-2.925889566540718e-05,0.10510609355573984,-0.24558104912093867,0.028680490416501805
1687087745.756793,0.10183919221162796,0.24422450363636017,-0.9643563628196716,0.005094438791275024,0.009742796421051025,0.00825589895248413,-0.008001238107681274,-0.012495249509811401,-0.004889847710728645,0.1052133155443665,-0.24671990373959424,0.02877221712817427
1687087745.7625608,0.10227078944444656,0.24561215937137604,-0.963958203792572,-0.003790527582168579,0.0006036907434463501,0.0050043463706970215,-0.026422256603837013,0.013333759270608425,0.0014233887195587158,0.10569923215022568,-0.2481511396738866,0.029184505801051953
1687087745.8152661,0.10316094756126404,0.2469630092382431,-0.9635180830955505,0.00036997348070144653,-0.004989117383956909,0.007295548915863037,-0.027037961408495903,0.0022223859559744596,0.003335165325552225,0.10666062933819387,-0.2495449273016073,0.0294154414924039
1687087745.9067779,0.1032419353723526,0.24846401810646057,-0.9631234407424927,-0.0011606067419052124,-0.006627470254898071,0.006870388984680176,-0.0436829999089241,-0.007297710981220007,-0.0015262754168361425,0.10678714309712906,-0.2510942305447355,0.029597049644083412
1687087745.913426,0.10405877977609634,0.24934083223342896,-0.9628088474273682,-0.0020690038800239563,0.0037109404802322388,0.00980597734451294,-0.029470959678292274,0.01834900490939617,0.0005628145299851894,0.10766044015885298,-0.25199953206379694,0.02987282260680961
1687087745.9651499,0.10466580837965012,0.2520372271537781,-0.9620407223701477,0.0021610110998153687,-0.0058976709842681885,0.001530468463897705,-0.07875421643257141,0.01893322914838791,-0.0038469000719487667,0.10836938151494445,-0.2547848658940791,0.029992670524897642
1687087746.057094,0.10452380776405334,0.2551809251308441,-0.9612270593643188,0.00707901269197464,0.02110999822616577,-0.011902213096618652,-0.009929899126291275,0.00869342964142561,-0.002235155552625656,0.10831439628772734,-0.2580348035982326,0.029907445930585686
1687087746.063139,0.10500375926494598,0.2555294334888458,-0.9610821604728699,0.0003734678030014038,0.0057163238525390625,0.001899421215057373,-0.0010551977902650833,0.002896926598623395,0.0017354576848447323,0.10882412240661195,-0.2583952755634347,0.030067467562971063
1687087746.114246,0.10536763072013855,0.2567623555660248,-0.9607136845588684,0.0006657317280769348,-0.007815152406692505,0.005376160144805908,-0.031322091817855835,0.008613630197942257,0.006086103618144989,0.10923979951769387,-0.25967073766174753,0.03017121436510304
1687087746.206347,0.10565166175365448,0.25772708654403687,-0.9604241251945496,-0.0016934946179389954,0.0016876161098480225,0.00945061445236206,-0.035772230476140976,0.012137753888964653,-0.0006323051638901234,0.10956467991340718,-0.26066907450003496,0.030279046615100454
1687087746.212276,0.10599358379840851,0.25863271951675415,-0.960142970085144,0.0013215094804763794,0.008258789777755737,-0.005753636360168457,-0.00688791973516345,0.003869931912049651,0.0002844613045454025,0.10994835212989984,-0.26160649100751443,0.030371438114689692
1687087746.265005,0.1066606268286705,0.26039934158325195,-0.9595914483070374,-0.002061590552330017,-0.006203144788742065,0.0052915215492248535,-0.09762343019247055,0.03395838290452957,-0.006090879440307617,0.11069773466565637,-0.26343579276018936,0.030565980020348518
