Timestamp,gravityX,gravityY,gravityZ,accelerationX,accelerationY,accelerationZ,rotationRateX,rotationRateY,rotationRateZ,attitudeRoll,attitudePitch,attitudeYaw
1687099067.610169,0.048057135194540024,0.47963786125183105,-0.876149594783783,-0.001365210860967636,0.000342637300491333,-0.003595888614654541,0.01796327717602253,-0.0002658094745129347,-0.012889161705970764,0.05479546792503576,-0.5002419502131827,0.011065270146402644
1687099067.6724439,0.04824969917535782,0.47916319966316223,-0.8763986825942993,0.003874354064464569,0.012810677289962769,-0.008916258811950684,0.038877613842487335,0.02044295333325863,0.00019501522183418274,0.0549989873694794,-0.49970109114239253,0.010746934197227045
1687099067.710569,0.04892953857779503,0.47756674885749817,-0.877232015132904,0.010442439466714859,-0.001141577959060669,0.009846150875091553,-0.015203996561467648,0.011512797325849533,0.005793379154056311,0.05571946013038949,-0.49788314117854887,0.01033579413439189
1687099067.756108,0.0486559197306633,0.4786243140697479,-0.8766706585884094,-0.0007127784192562103,-0.005983322858810425,0.007606327533721924,-0.01268837507814169,-0.0022976684849709272,-0.0008246428333222866,0.05544391664887272,-0.4990872247417529,0.009960845597808188
1687099067.795166,0.04828520491719246,0.4787868559360504,-0.8766023516654968,-0.00615566223859787,-0.009334951639175415,0.0076754093170166016,-0.00183119997382164,-0.006422549486160278,-0.004481961950659752,0.05502661600010524,-0.49927235633435807,0.009659670033865692
1687099067.851908,0.048058126121759415,0.47965559363365173,-0.8761398196220398,-0.010551992803812027,-0.005320847034454346,-0.0007827877998352051,-0.034952133893966675,-0.0044765779748559,-0.018478471785783768,0.054797207449956746,-0.5002621631038909,0.009354395995595642
1687099067.8955379,0.04781476780772209,0.48085272312164307,-0.8754966855049133,-0.00037516653537750244,0.0025914907455444336,-0.0008460879325866699,-0.025374608114361763,-0.008684816770255566,-0.02024468034505844,0.054560246331733335,-0.5016269981298275,0.008762474148512354
1687099067.968052,0.04721677675843239,0.4822700321674347,-0.8747492432594299,0.005532890558242798,0.012648820877075195,-0.008795678615570068,-0.01940752938389778,-0.00915715005248785,-0.00842843297868967,0.05392516877252495,-0.5032441712956537,0.008318462477428342
1687099068.011039,0.04695121571421623,0.48266732692718506,-0.8745443820953369,0.008697617799043655,0.007933288812637329,0.002519845962524414,0.008419839665293694,0.006951046176254749,0.00787137821316719,0.05363499738211379,-0.5036977324018039,0.008045421852794627
1687099068.0494661,0.04701107367873192,0.48304200172424316,-0.8743342757225037,0.0033429600298404694,-0.007166117429733276,0.007619798183441162,-0.008646761067211628,0.007725737057626247,0.0008142003789544106,0.05371612649064082,-0.5041256110228488,0.00795800168100416
1687099068.1018438,0.04711661487817764,0.4832935929298401,-0.874189555644989,-0.006024669855833054,-0.010332167148590088,0.006452739238739014,-0.016852758824825287,0.003844158025458455,0.0039412169717252254,0.053845385121622735,-0.5044129658874401,0.007905561816083106
1687099068.1539102,0.04698996990919113,0.4840404987335205,-0.8737829923629761,-0.006645705550909042,-0.007539033889770508,-0.0017357468605041504,-0.04071787744760513,-0.01212448813021183,-0.019999202340841293,0.05372586484802287,-0.5052663212871312,0.0076818945227082715
1687099068.210062,0.04647572711110115,0.4844481348991394,-0.8735846281051636,-0.002942372113466263,0.011218398809432983,-0.006725430488586426,-8.895999053493142e-05,-0.007082458585500717,-0.012697214260697365,0.05315106853428145,-0.5057322374708398,0.0072142001592168355
1687099068.2774692,0.04624110460281372,0.4842584729194641,-0.8737021684646606,0.006417006254196167,0.012354075908660889,-0.0039681196212768555,0.00900067575275898,0.004607664421200752,-0.0019702676218003035,0.05287614474582881,-0.5055154428785437,0.006953185788095131
1687099068.322195,0.04626515880227089,0.484485000371933,-0.8735753297805786,0.008635994046926498,0.0034910738468170166,0.00014698505401611328,-0.018400056287646294,0.008059187792241573,-0.0001545911654829979,0.05291126614598411,-0.5057743816897566,0.006686905861404741
1687099068.363759,0.04632186144590378,0.4851232171058655,-0.8732180595397949,0.0020485296845436096,-0.002762347459793091,0.007464885711669922,0.013568795286118984,0.006019915919750929,0.0025277449749410152,0.052997624605033274,-0.5065040834532958,0.006515076009874462
1687099068.4004579,0.046158552169799805,0.48558589816093445,-0.8729695081710815,-0.004395216703414917,-0.013280600309371948,0.004744410514831543,0.0027156148571521044,-9.350304026156664e-05,-0.00013102218508720398,0.052826137212031374,-0.507033267588371,0.006275451081044026
1687099068.485259,0.045965489000082016,0.4853108525276184,-0.873132586479187,-0.008154183626174927,-0.012517273426055908,0.008829057216644287,-0.00635937275364995,-0.005295100621879101,-0.0016306485049426556,0.05259578815268472,-0.5067186606641102,0.006355531798215396
1687099068.501134,0.045753397047519684,0.4853563606739044,-0.8731184601783752,-0.005226023495197296,0.005412071943283081,-0.003498971462249756,0.009750887751579285,-0.006843928247690201,-0.00782868918031454,0.05235439391972708,-0.5067707231471217,0.006293908252605568
1687099068.5699291,0.04552512988448143,0.4856565594673157,-0.8729634881019592,0.005683396011590958,0.003738611936569214,-0.008063733577728271,-0.004871731158345938,-0.0058801304548978806,-0.0025162158999592066,0.052102896177602706,-0.50711408178203,0.006175415076272014
1687099068.656601,0.045530762523412704,0.4858711063861847,-0.8728437423706055,0.007524073123931885,0.010497301816940308,-0.0006455779075622559,0.007850456051528454,0.001777034718543291,0.005051022861152887,0.05211646458679628,-0.507359540273634,0.006268445581675921
1687099068.671478,0.04563761129975319,0.4859008193016052,-0.8728216290473938,0.0033583864569664,-0.009445130825042725,0.014224886894226074,-0.0038022056687623262,-0.002117416588589549,0.01247158832848072,0.052239871917009684,-0.5073935452051952,0.0065379165067568495
1687099068.6995568,0.04553016275167465,0.4861363470554352,-0.8726961016654968,-0.010801129043102264,-0.016821742057800293,0.010513484477996826,-0.013921151868999004,0.0012726096902042627,0.003375296015292406,0.05212458397208936,-0.5076630252598978,0.0066916026574140195
1687099068.767346,0.045455411076545715,0.48655179142951965,-0.8724684715270996,-0.013015195727348328,-0.009073764085769653,-0.0033860206604003906,-0.013960566371679306,-0.003266548505052924,-0.005756883416324854,0.05205271545228975,-0.5081384996504378,0.006779391928341017
1687099068.8073878,0.04543038085103035,0.4860714077949524,-0.872737467288971,-0.0015003010630607605,0.009457767009735107,-0.005283772945404053,0.013157070614397526,-0.017995936796069145,-0.004048132337629795,0.05200809745244151,-0.5075887355131042,0.007058919211771144
1687099068.875519,0.04571101814508438,0.48505282402038574,-0.8732893466949463,0.0033612772822380066,0.016335755586624146,-0.010331869125366211,0.055902671068906784,-0.002257876330986619,0.010571889579296112,0.05229577115897624,-0.506423575336142,0.007594728373007622
1687099068.912842,0.046195369213819504,0.4832063615322113,-0.8742868900299072,0.008797336369752884,0.001031339168548584,0.0033915042877197266,0.03379150852560997,0.010458918288350105,0.0235961452126503,0.052788677154294285,-0.5043133144174438,0.00834486582409548
1687099068.951282,0.04636639356613159,0.4826511740684509,-0.874584436416626,0.0040028952062129974,-0.010834157466888428,0.009350121021270752,0.0018916329136118293,0.003591290907934308,0.019941356033086777,0.05296575579432814,-0.5036793008714853,0.008975539929586608
1687099069.015861,0.047416720539331436,0.4807092249393463,-0.8755971193313599,-0.00576019287109375,0.0002783536911010742,0.005556225776672363,0.08488398790359497,0.018257562071084976,0.012028772383928299,0.054100736064931036,-0.5014633493219157,0.00960860845149579
1687099069.057605,0.0487491600215435,0.47745829820632935,-0.877301037311554,-0.007580917328596115,-0.012370407581329346,-0.0006896853446960449,0.04054954648017883,0.027678851038217545,0.012112927623093128,0.055510111024544055,-0.49775972523804957,0.010055240385445889
1687099069.121282,0.0503946878015995,0.47544828057289124,-0.8782991170883179,-0.008234623819589615,0.0008243024349212646,0.001559615135192871,0.05995094031095505,0.03434789553284645,0.004250876605510712,0.05731475033051487,-0.4954735298003227,0.010598210949623195
1687099069.16976,0.05130035802721977,0.4722346067428589,-0.8799788355827332,-0.0008395090699195862,0.006601452827453613,-0.012461960315704346,0.10230185836553574,-0.003504945896565914,-0.017331380397081375,0.05823135406531951,-0.4918241493951662,0.010497568591346542
1687099069.204183,0.05159171670675278,0.4673762917518616,-0.8825518488883972,0.002165030688047409,-0.0009608566761016846,0.003401458263397217,0.1313239187002182,0.020194370299577713,-0.0035374711733311415,0.058390982090619895,-0.4863206371921905,0.009921025012667107
1687099069.276228,0.05234824866056442,0.46397900581359863,-0.8842980861663818,0.008915815502405167,-0.02255752682685852,0.005773365497589111,0.06990503519773483,0.02125963382422924,0.005135111976414919,0.0591285067947007,-0.48248169999616847,0.009857619447069489
1687099069.307551,0.05320484936237335,0.4609261453151703,-0.8858421444892883,0.0007655210793018341,-0.010440915822982788,0.00444871187210083,0.0556427463889122,0.01776345819234848,0.0019015688449144363,0.05998925303608313,-0.4790385454253428,0.009066795197966777
1687099069.358942,0.05388469249010086,0.4587405323982239,-0.8869349360466003,-0.001058734953403473,-0.003464043140411377,-0.002209961414337158,0.0693897157907486,0.013748475350439548,-0.011006772518157959,0.06067924711432099,-0.47657728427944146,0.008246028960534491
1687099069.4003968,0.05434499308466911,0.45533156394958496,-0.888661801815033,0.0027381666004657745,-0.0023896396160125732,-0.006449282169342041,0.07162490487098694,-0.006892242468893528,-0.032353539019823074,0.061077674830997186,-0.4727445719057689,0.00706334637801154
1687099069.470811,0.0547667071223259,0.4515730142593384,-0.890551745891571,-0.0036955103278160095,0.006984114646911621,-0.00684809684753418,0.09330330789089203,0.013555485755205154,-0.01746280863881111,0.061420147451676635,-0.4685275615553912,0.006220258333656612
1687099069.513052,0.05505852401256561,0.4497881531715393,-0.8914365768432617,-0.002614036202430725,-0.011403113603591919,0.0021848678588867188,0.00514601543545723,0.008288619108498096,0.008536502718925476,0.06168545532112315,-0.4665281151491976,0.006104652045824123
1687099069.553935,0.05540098622441292,0.4499649107456207,-0.8913261294364929,0.00038517266511917114,-0.0025772452354431152,0.005019426345825195,0.024307459592819214,0.005016637034714222,0.016059065237641335,0.062075826261237095,-0.4667260483111167,0.006792466363980042
1687099069.611469,0.05570078641176224,0.44920143485069275,-0.8916925191879272,-0.00597236305475235,-0.02697545289993286,0.001601576805114746,-0.005701572168618441,-0.00611475482583046,0.02019495517015457,0.0623853020096002,-0.465871315471534,0.007393804304161645
1687099069.660985,0.05528653785586357,0.44984012842178345,-0.8913962841033936,-0.008014775812625885,-0.02062562108039856,-0.0004799365997314453,-0.016908952966332436,-0.0039959438145160675,0.013276861980557442,0.06194305669587123,-0.46658632168115977,0.007817651316600206
1687099069.703465,0.0556383840739727,0.44916146993637085,-0.8917165398597717,0.0014295130968093872,0.00924307107925415,-0.008033215999603271,0.015538202598690987,-0.0012567273806780577,-0.004879038780927658,0.06231391828867858,-0.4658265820412701,0.008340328694198307
1687099069.770437,0.05594056099653244,0.4484269618988037,-0.8920672535896301,0.0005627647042274475,0.0033095180988311768,0.004112541675567627,0.008625435642898083,0.006995099596679211,0.006039455533027649,0.06262690243586835,-0.4650046509634644,0.008626766484336213
1687099069.815637,0.05590510740876198,0.4478304386138916,-0.8923690915107727,0.005603104829788208,0.006698399782180786,0.002903759479522705,0.009497887454926968,0.004114335402846336,0.002457436639815569,0.06256619860016897,-0.46433736745083837,0.008874506874174364
1687099069.855483,0.05518607795238495,0.4484347403049469,-0.892110288143158,-0.0005748458206653595,-0.0086154043674469,0.011312007904052734,0.0019752560183405876,-0.0039687128737568855,0.008560070767998695,0.06178142514799717,-0.4650133507105985,0.008631425176445972
1687099069.917328,0.05527082085609436,0.44863682985305786,-0.8920034170150757,-0.005130413919687271,-0.0025919079780578613,0.003194272518157959,-0.02663108892738819,-0.005060142837464809,0.009122064337134361,0.06188344850100457,-0.465239464993748,0.008812617421354132
1687099069.955966,0.05534769967198372,0.4494148790836334,-0.8916069269180298,-0.009235616773366928,-0.001966148614883423,-0.00034552812576293945,-0.022275755181908607,-0.006015552207827568,-0.0010611978359520435,0.061996794164874955,-0.4661102508550211,0.009086676320721871
1687099070.0228,0.055441491305828094,0.45021355152130127,-0.8911980986595154,0.0006803609430789948,0.0032776296138763428,-0.007330954074859619,-0.010583145543932915,-0.014245163649320602,-0.009963346645236015,0.0621300005201394,-0.46700447497057945,0.009329408197002636
1687099070.075712,0.05531267449259758,0.44999226927757263,-0.8913178443908691,0.004547581076622009,0.008854776620864868,0.0017151832580566406,0.005746824666857719,0.008828574791550636,-0.0016896373126655817,0.06197770524888541,-0.46675669054362684,0.009425424953681689
1687099070.134155,0.05526914820075035,0.4508008062839508,-0.890911877155304,0.0030194520950317383,-0.0009564459323883057,-0.002032458782196045,-0.0032607850152999163,0.013879681006073952,0.003000122494995594,0.0619572050500105,-0.4676622821388351,0.00930184707976232
1687099070.173006,0.05562049522995949,0.4508817493915558,-0.8908490538597107,0.0021340548992156982,-0.006362706422805786,0.008738458156585693,0.0023651428055018187,0.014886711724102497,0.010792532935738564,0.06235443528237869,-0.4677529686481729,0.009514291366778274
1687099070.211615,0.056027136743068695,0.4516986608505249,-0.8904095888137817,-0.001156497746706009,-0.011345267295837402,0.0020124316215515137,-0.007379896007478237,0.005118058994412422,0.0221455879509449,0.06284003174348131,-0.4686683945840242,0.010077542054387115
1687099070.258121,0.05644407495856285,0.45179522037506104,-0.8903343081474304,-0.0027025938034057617,-0.007840722799301147,0.00254744291305542,-0.01957957074046135,-0.0075851306319236755,0.005056349560618401,0.0633117691825228,-0.4687766117418959,0.0106721328713544
1687099070.3232589,0.056020937860012054,0.4526289403438568,-0.8899374604225159,-0.005056552588939667,0.0025712549686431885,-0.0025643110275268555,-0.025728275999426842,-0.014513898640871048,0.003680494148284197,0.06286634527745322,-0.4697113697026954,0.010781592992084175
1687099070.3742828,0.05586899444460869,0.45417341589927673,-0.8891597986221313,0.002907887101173401,0.0016676485538482666,-0.005905449390411377,-0.056675005704164505,-0.016199525445699692,0.00793828908354044,0.06275097080518267,-0.4714441974315575,0.011526069687027806
1687099070.415703,0.055452004075050354,0.45651620626449585,-0.8879854083061218,-0.0032669156789779663,-0.006519228219985962,0.008743464946746826,0.003086060518398881,0.004657687619328499,0.08337325602769852,0.06236599405420233,-0.47407562799054737,0.014216880616249322
1687099070.456231,0.05717679485678673,0.4568660855293274,-0.8876960277557373,0.012357532978057861,-0.006991207599639893,0.0032050609588623047,-0.06476995348930359,-0.015549380332231522,0.07220136374235153,0.06432148151711979,-0.47446891804258007,0.017916618153079072
1687099070.5346022,0.05693329870700836,0.45871561765670776,-0.8867573738098145,0.004086624830961227,-0.009008556604385376,0.003990650177001953,-0.07375065982341766,-0.021007506176829338,0.021343577653169632,0.0641159201887476,-0.47654924149119576,0.019122744418441046
1687099070.5619478,0.05632829666137695,0.4604375958442688,-0.8859031200408936,0.000648055225610733,0.0307580828666687,0.007012128829956055,-0.037540726363658905,0.000720159150660038,-0.0026664179749786854,0.06349742894735731,-0.4784881061927689,0.018587343201840502
1687099070.615511,0.055940933525562286,0.4621660113334656,-0.8850272297859192,-0.0027182437479496002,-0.02548995614051819,0.0025656819343566895,-0.03389059752225876,-0.012911541387438774,-0.0010476158931851387,0.06312417015719857,-0.48043615504381953,0.018561551741619945
1687099070.677844,0.05546307563781738,0.462289422750473,-0.8849928975105286,-0.001965731382369995,0.010214269161224365,-0.0041062235832214355,0.014390381053090096,-0.006346449721604586,-0.006997250951826572,0.06258879175080323,-0.4805753340434472,0.01845350001986803
1687099070.716634,0.05508071184158325,0.4625977575778961,-0.8848556280136108,0.002734873443841934,-0.0030487775802612305,-0.00740206241607666,0.010785792022943497,-0.0022556569892913103,0.007641080766916275,0.062168031886609326,-0.4809230977735882,0.018667088129539204
1687099070.7652001,0.05543230101466179,0.4613730311393738,-0.8854728937149048,0.007647566497325897,0.007514327764511108,0.003728508949279785,0.037980128079652786,0.004557419568300247,0.011377494782209396,0.0625203300956074,-0.47954215142141676,0.01880549528295305
1687099070.810796,0.05544384568929672,0.4611086845397949,-0.8856098055839539,-0.0015192553400993347,-0.016009807586669922,0.016179263591766357,-0.007465916220098734,0.005996214225888252,0.016455810517072678,0.06252367231883645,-0.47924424371921487,0.01909970195826004
1687099070.881607,0.05581740289926529,0.4611450135707855,-0.8855674266815186,-0.009903673082590103,-0.012597620487213135,-0.003943681716918945,0.0006724378326907754,0.007143703289330006,0.0019467095844447613,0.06294682609590499,-0.47928517951946237,0.019175912418523573
1687099070.9147758,0.055915750563144684,0.46149712800979614,-0.8853777647018433,-0.007438547909259796,-0.015040218830108643,-0.0015545487403869629,-0.030068695545196533,-0.011077200062572956,-0.005660077091306448,0.06307091461405553,-0.4796820560077003,0.019391658802726287
1687099070.969279,0.055854104459285736,0.4615270495414734,-0.8853660821914673,-0.0009834691882133484,0.01692754030227661,-0.005594611167907715,0.017747029662132263,-0.004322159104049206,-0.008037414401769638,0.06300239358658971,-0.47971578245575264,0.019423658274635186
1687099071.051472,0.05616873875260353,0.46075403690338135,-0.8857487440109253,0.006972163915634155,0.00720253586769104,-0.004555821418762207,0.00809440203011036,0.0012892766389995813,0.0007568090222775936,0.06332905070819121,-0.478844590253463,0.0197591704985531
1687099071.068815,0.05614065006375313,0.46124133467674255,-0.8854968547821045,0.00706128403544426,-0.0018907487392425537,0.008864164352416992,-0.016610145568847656,0.0038393866270780563,0.0051226625218987465,0.06331542302882669,-0.4793937302195646,0.019786867187913657
1687099071.10829,0.056228797882795334,0.4615795612335205,-0.8853150010108948,0.0033415481448173523,0.0015857517719268799,0.008102476596832275,-0.0012884477619081736,0.002784930169582367,0.009852370247244835,0.06342756253485006,-0.47977496545479376,0.019845670470866064
1687099071.185956,0.056238096207380295,0.46167075634002686,-0.8852668404579163,-0.0027102380990982056,-0.008576273918151855,0.0009590387344360352,0.003241322934627533,-0.005281362682580948,-0.001877057133242488,0.06344146344544446,-0.47987777870929166,0.020057485872726814
1687099071.2256541,0.056398894637823105,0.4608973562717438,-0.8856595754623413,-0.007067203521728516,-0.004567980766296387,-0.0014406442642211914,-0.011564254760742188,-0.00411294586956501,-0.007382876239717007,0.06359423784075688,-0.4790060771747914,0.02012247886776936
1687099071.273971,0.05636123940348625,0.46104687452316284,-0.8855841159820557,0.0003404468297958374,0.010602295398712158,-0.004873037338256836,0.003231469076126814,-0.00953933596611023,-0.007798129692673683,0.06355729333461989,-0.47917458685584613,0.02013747595770373
1687099071.319426,0.05637087672948837,0.4606916606426239,-0.8857683539390564,0.005167849361896515,0.014497578144073486,-0.0030713677406311035,0.021081306040287018,0.008104061707854271,0.005993449594825506,0.06355494569032558,-0.47877431703247586,0.02017103290103784
1687099071.366955,0.056494854390621185,0.46033692359924316,-0.8859448432922363,0.008095633238554,-0.002802133560180664,0.004948139190673828,-0.006308240350335836,0.0006939936429262161,0.007632358465343714,0.06368168807113586,-0.4783747023372882,0.020208084655040735
1687099071.42946,0.056471921503543854,0.46039947867393494,-0.8859137892723083,0.0014352165162563324,-0.0019338726997375488,0.00996774435043335,0.01802719384431839,0.005870246794074774,0.0005285097286105156,0.06365813189570087,-0.4784451395040219,0.02026986598481704
1687099071.472846,0.05647934600710869,0.46029719710350037,-0.8859664797782898,-0.005759101361036301,-0.023377031087875366,0.004405200481414795,-0.029001833871006966,-0.005529370158910751,-0.0006860247813165188,0.06366270504101276,-0.4783299374321189,0.020225544117548892
1687099071.515305,0.05649878829717636,0.46072760224342346,-0.8857415318489075,-0.011363256722688675,0.0027123689651489258,-0.0006415843963623047,-0.013372274115681648,0.0005729976110160351,-0.008499473333358765,0.06370069481108005,-0.4788148167873311,0.020134704960394142
1687099071.5944371,0.05638697370886803,0.4607931971549988,-0.8857144713401794,0.001901630312204361,0.005149185657501221,-0.004956245422363281,-0.0038237771950662136,-0.01270860806107521,-0.012756736017763615,0.06357689834385448,-0.4788887315526573,0.020074341281424084
1687099071.662569,0.05590405687689781,0.46147653460502625,-0.8853892683982849,0.006840117275714874,0.010172635316848755,-0.007082045078277588,-0.02344062179327011,-0.009089727886021137,-0.0024026320315897465,0.06305694418334502,-0.4796588413246943,0.01991505305141244
1687099071.6758919,0.05590738356113434,0.4613760709762573,-0.8854414224624634,0.006607905030250549,0.017170101404190063,0.002842545509338379,0.025981789454817772,0.01154253538697958,0.008309001103043556,0.06305698322240225,-0.4795455930503337,0.02006481967010104
1687099071.71634,0.055912576615810394,0.46076151728630066,-0.885761022567749,0.0028032809495925903,-0.01685279607772827,0.0073277950286865234,-0.007265380118042231,-0.00017752579879015684,0.0021863277070224285,0.06304012751655744,-0.4788530369037175,0.020216553669213072
1687099071.768733,0.05561285838484764,0.4614030420780182,-0.8854458928108215,-0.004389073699712753,-0.007728695869445801,0.005853056907653809,-0.004514601081609726,-0.0012034197570756078,0.005725801456719637,0.06272534847495138,-0.47957597798521384,0.019903195213812754
1687099071.81324,0.055541735142469406,0.4612075984477997,-0.8855522274971008,-0.004989337176084518,-0.0021316707134246826,0.0009696483612060547,-0.017017608508467674,-0.005023125093430281,-0.0050898948684334755,0.06263783972868091,-0.4793557144755698,0.020051466007827774
1687099071.867342,0.055373985320329666,0.46166592836380005,-0.8853238224983215,-0.003509335219860077,0.002536952495574951,-0.0034700632095336914,0.005388363264501095,-0.007574389223009348,-0.010093575343489647,0.06246521527137553,-0.4798723184357798,0.02014596562952431
1687099071.957942,0.05539360269904137,0.46130505204200745,-0.8855106830596924,0.005839943885803223,0.006239473819732666,-0.0004755854606628418,0.006007282063364983,0.0055321804247796535,-0.0037944000214338303,0.06247413716097767,-0.4794655563185764,0.019946897970347415
1687099071.971363,0.055157147347927094,0.46156391501426697,-0.88539057970047,0.008227892220020294,0.00582808256149292,-0.0013129115104675293,0.009836109355092049,0.0061018746346235275,0.0033254283480346203,0.062216566763598345,-0.4797573295246851,0.01987698479473567
1687099072.013722,0.05522877722978592,0.4614230990409851,-0.8854594826698303,0.00533338263630867,-0.008114993572235107,0.008948922157287598,0.009338896721601486,0.0028429648373275995,0.006725752260535955,0.062292317703441215,-0.4795985947638251,0.01990388870125511
1687099072.089442,0.055202484130859375,0.461478054523468,-0.8854325413703918,-0.004314389079809189,-0.01454809308052063,0.00550389289855957,0.00266714533790946,0.0009555383585393429,-0.000700073316693306,0.06226462891171361,-0.4796605526686181,0.019906425173872106
1687099072.124776,0.055340349674224854,0.46098315715789795,-0.885681688785553,-0.005932360887527466,-0.0026701390743255615,-0.0010218024253845215,-0.014595197513699532,-0.0014696692815050483,-0.0016131377778947353,0.06240221535308863,-0.4791027652011649,0.019852457361182074
1687099072.169559,0.05523652210831642,0.46155133843421936,-0.8853921890258789,-0.003249797970056534,0.00486406683921814,-0.004424095153808594,-0.013434858992695808,-0.006225675344467163,-0.011044589802622795,0.06230575413910411,-0.47974314756511904,0.01979838178865334
1687099072.214655,0.05503256246447563,0.4617249369621277,-0.8853143453598022,0.004400450736284256,0.008154213428497314,-0.003769516944885254,0.010914955288171768,-0.00220106216147542,0.0031818831339478493,0.062081726129399516,-0.4799388672701617,0.019716843694865562
1687099072.298985,0.05480911210179329,0.4617288112640381,-0.8853262066841125,0.011826053261756897,0.004625588655471802,0.005245029926300049,-0.008259271271526814,-0.002346981083974242,0.007117037195712328,0.06182947198514269,-0.47994322174007065,0.0199336124924641
1687099072.3370152,0.05480898544192314,0.461723655462265,-0.8853288888931274,0.0003210492432117462,-0.0016406476497650146,0.005507111549377441,0.023833151906728745,-0.00041965150739997625,0.0034485328942537308,0.06182914061399761,-0.47993741508780075,0.020033361926313477
1687099072.374525,0.05484359338879585,0.4612477421760559,-0.8855748176574707,-0.004398006945848465,-0.01547744870185852,0.008118152618408203,-0.006179609335958958,-0.001930529368110001,0.008098478429019451,0.06185094574937534,-0.47940094203045946,0.020124321114953537
1687099072.4357948,0.05450570583343506,0.46118831634521484,-0.8856266140937805,-0.009461730718612671,-0.001334160566329956,0.0004947781562805176,-0.010906186886131763,-0.00984269194304943,-0.0018231282010674477,0.06146726514496277,-0.47933397121662974,0.020121416502733254
1687099072.498642,0.05443133786320686,0.4604520797729492,-0.8860142230987549,-0.0020478852093219757,0.006115913391113281,-0.004915952682495117,0.03835190460085869,-0.01085300650447607,-0.002749109175056219,0.061356821383673564,-0.4785044182200038,0.02027079528680155
1687099072.519378,0.05449425429105759,0.4588860273361206,-0.8868224024772644,0.0012919045984745026,0.008628010749816895,-0.00955510139465332,0.037543103098869324,0.014921555295586586,-0.001847229665145278,0.06137172080029909,-0.47674100336783054,0.020361977102874174
1687099072.567642,0.055484697222709656,0.45745381712913513,-0.8875007033348083,0.010189160704612732,0.007435709238052368,-0.00411611795425415,0.0401010699570179,0.019150231033563614,0.0025166920386254787,0.062436659834701966,-0.4751297342634382,0.020579385463583476
1687099072.628151,0.05573875829577446,0.4556024670600891,-0.8884366154670715,0.009385783225297928,-0.0038659870624542236,0.007104218006134033,0.0485273115336895,0.00993458554148674,0.011126026511192322,0.06265590604524299,-0.4730488710838369,0.020688638255570428
1687099072.669339,0.05615057423710823,0.4538027346134186,-0.8893313407897949,0.0029314905405044556,-0.0016847848892211914,0.009479045867919922,0.03211824595928192,0.029553448781371117,-0.006884465925395489,0.06305427218737143,-0.4710281647771407,0.020314601135435463
1687099072.737128,0.05690179392695427,0.45175230503082275,-0.8903269171714783,2.8777867555618286e-05,-0.004486680030822754,-0.0007557868957519531,0.060549620538949966,0.02090993896126747,-0.000895415898412466,0.06382431548460227,-0.46872850620199175,0.020483843969533233
1687099072.777864,0.05819309875369072,0.4476090669631958,-0.8923338651657104,-0.007991652935743332,0.0184096097946167,0.006225466728210449,0.08291005343198776,0.014356542378664017,-0.023014498874545097,0.06512227399962445,-0.46408981322169046,0.020028921994456498
1687099072.819625,0.058092162013053894,0.44466811418533325,-0.8938096165657043,-0.0019245296716690063,0.00033921003341674805,-0.0007216930389404297,0.05262139067053795,0.02774975821375847,-0.006978009361773729,0.06490260338790968,-0.4608036970208031,0.01895426718270346
1687099072.871331,0.0586189366877079,0.4426902234554291,-0.8947564959526062,0.013448353856801987,0.01891869306564331,-0.0160406231880188,0.05439265817403793,0.0061776647344231606,-0.024182163178920746,0.06542035214686429,-0.45859666565015006,0.01791637754986587
1687099072.940907,0.05803927034139633,0.4393117129802704,-0.896457850933075,0.010487977415323257,0.010196954011917114,0.008777797222137451,0.10487154126167297,0.0034428199287503958,-0.037625666707754135,0.06465265671575322,-0.4548323584316,0.01618586852802634
1687099072.9748368,0.05739876627922058,0.43619534373283386,-0.8980194926261902,0.002675119787454605,-0.017906159162521362,0.010202109813690186,0.053917016834020615,-0.0024388160090893507,-0.01643742434680462,0.06383023086655557,-0.4513662231317332,0.014181500004818649
1687099073.024993,0.057664498686790466,0.43400895595550537,-0.8990612030029297,-0.009721353650093079,-0.008807510137557983,0.0033550262451171875,0.05299369990825653,0.02674168534576893,0.012277777306735516,0.0640508339386058,-0.4489379243819495,0.013632749676244173
1687099073.071457,0.05810677260160446,0.4323953092098236,-0.8998099565505981,0.003218330442905426,-0.006903946399688721,-0.0071266889572143555,0.030857505276799202,0.00633581168949604,-0.006778272334486246,0.06448717795745106,-0.44714757481511364,0.013603975426070843
1687099073.1558418,0.05770934000611305,0.43174421787261963,-0.9001480937004089,0.0030969642102718353,-0.006924241781234741,-0.0050948262214660645,0.004687152802944183,-0.015472548082470894,-0.0027268051635473967,0.06402331703415891,-0.44642560261661335,0.013247254788370948
1687099073.1698298,0.05760166049003601,0.4313921332359314,-0.9003238081932068,0.012649837881326675,0.016926348209381104,-0.005376935005187988,0.015911312773823738,0.006477625109255314,-0.006047101691365242,0.06389174677974424,-0.4460353164642775,0.013088903060131097
1687099073.246809,0.05751077085733414,0.4308144450187683,-0.9006061553955078,0.005004517734050751,0.00033792853355407715,0.0034809112548828125,0.012114442884922028,0.00823233649134636,0.006087459158152342,0.06377126100957348,-0.44539506926895195,0.012853584139369401
1687099073.2890902,0.05753924697637558,0.4307939410209656,-0.9006141424179077,0.007783662527799606,-0.004585444927215576,0.003595709800720215,0.005983047187328339,-0.017927227541804314,0.010977420955896378,0.06380218764028849,-0.445372366149924,0.013182991729213254
1687099073.328487,0.05775973200798035,0.4303683638572693,-0.9008035063743591,-0.007710874080657959,0.0008755624294281006,0.004029214382171631,-0.02320173569023609,-0.006512453779578209,0.002238059416413307,0.06403257790532596,-0.44490081145545246,0.013224952969489898
1687099073.383497,0.057316139340400696,0.43131449818611145,-0.9003791809082031,-0.010349556803703308,-0.0017185211181640625,-0.000667572021484375,-0.027245212346315384,-0.0239378921687603,-0.004670246969908476,0.06357200139712711,-0.44594926485971903,0.013438935100321127
1687099073.471834,0.05687515810132027,0.43114200234413147,-0.9004897475242615,-0.004445929080247879,0.01406368613243103,-0.004951536655426025,0.01104891300201416,0.002654235577210784,-0.00529841985553503,0.06307646299277911,-0.4457580841652188,0.01340005983937439
1687099073.484777,0.0570867694914341,0.43181315064430237,-0.9001547694206238,0.0056726522743701935,-0.002446085214614868,0.0010001063346862793,-0.013893188908696175,0.004487333819270134,0.008502213284373283,0.06333402218451686,-0.44650203000418237,0.013644819741801793
1687099073.5295339,0.05749887228012085,0.4319014847278595,-0.9000861048698425,0.006328672170639038,0.005491703748703003,0.004654586315155029,0.015715569257736206,0.0018793889321386814,-0.002811693586409092,0.06379483796190827,-0.4465999810342846,0.013710681901753698
1687099073.597336,0.05739497020840645,0.43129560351371765,-0.9003832340240479,-0.0035008974373340607,0.00043657422065734863,0.015266656875610352,0.007747125346213579,-0.006153082475066185,0.008632374927401543,0.06365891455196179,-0.44592830998537336,0.013365605077540562
1687099073.647886,0.057313933968544006,0.43157094717025757,-0.9002564549446106,-0.01046941801905632,-0.00791063904762268,0.006701767444610596,-0.023943159729242325,0.0018427260220050812,0.001996910199522972,0.06357820276207768,-0.44623351086664054,0.013412956825127503
1687099073.673506,0.05723435804247856,0.4322052001953125,-0.8999571800231934,-0.008146807551383972,0.0017547905445098877,-0.0032715797424316406,-0.00023836334003135562,-0.007339786738157272,0.002477277535945177,0.06351122633615369,-0.4469367518319677,0.013688939828000683
1687099073.796552,0.05698778107762337,0.4317683279514313,-0.9001824855804443,0.00473405048251152,-0.007802873849868774,-0.003702402114868164,0.015841804444789886,-0.006354994140565395,-0.004371174145489931,0.06322255048977594,-0.44645233751212887,0.013687669248055846
1687099073.8096042,0.05660358443856239,0.4319128692150116,-0.9001374244689941,0.005926966667175293,1.767277717590332e-05,-0.007775783538818359,-0.02277243323624134,-0.017222445458173752,0.009341509081423283,0.06280058027449723,-0.44661260830694205,0.013782797840421522
1687099073.819691,0.05526547133922577,0.4331147074699402,-0.8996429443359375,0.008592594414949417,0.008810341358184814,0.0039520263671875,-0.02500762604176998,-0.030271800234913826,0.019885629415512085,0.06135335273735335,-0.44794555057122204,0.014358920110219733
1687099073.873292,0.05545111000537872,0.4338068664073944,-0.8992979526519775,-0.0043951719999313354,-0.002547711133956909,0.010549783706665039,-0.024981793016195297,0.026130620390176773,0.029773015528917313,0.06158247594670028,-0.448713631883168,0.01566384945507527
1687099073.938597,0.05601368844509125,0.43756866455078125,-0.897438645362854,0.00232069194316864,-0.02085113525390625,-0.005149245262145996,-0.13352930545806885,-0.014074721373617649,0.022283539175987244,0.06233419934058628,-0.4528929525110086,0.017276647937786792
1687099073.97785,0.05544467270374298,0.443159282207489,-0.8947266340255737,-8.575618267059326e-05,0.007661640644073486,-0.0074187517166137695,-0.0690496489405632,-0.022306686267256737,0.007498601451516151,0.06188914140421196,-0.45911986770471386,0.01858158671190842
1687099074.0601149,0.05554914101958275,0.44311392307281494,-0.8947426080703735,-0.005835976451635361,-0.009337037801742554,-0.025850653648376465,-0.04377146065235138,0.019232969731092453,0.004946827422827482,0.062004350157847166,-0.45906926210640314,0.01812662452499617
1687099074.074616,0.05533718317747116,0.4459114074707031,-0.8933649063110352,0.007742680609226227,-0.0019416511058807373,0.0013818740844726562,-0.04553420469164848,0.003864486701786518,0.002235196530818939,0.06186337875716407,-0.46219223510254287,0.017717386316937055
1687099074.1330361,0.05516744405031204,0.44751206040382385,-0.892574667930603,0.0065238699316978455,-0.009294867515563965,0.0029567480087280273,-0.022081077098846436,0.004656421951949596,0.0030093775130808353,0.061728567075360674,-0.4639813180670567,0.017378475823281805
1687099074.174021,0.05532938987016678,0.447871595621109,-0.8923842906951904,0.0005483254790306091,-0.0003312826156616211,0.01346278190612793,0.019677288830280304,0.0046046460047364235,0.00901926588267088,0.061922482951687,-0.46438340057162497,0.017442966038327283
1687099074.244793,0.05516749247908592,0.4475988447666168,-0.892531156539917,-0.0053627751767635345,-0.015942931175231934,0.0005176067352294922,-0.022494133561849594,-0.007875392213463783,0.008445555344223976,0.06173162722430255,-0.46407836605677144,0.017445841566518086
1687099074.2894459,0.05482735112309456,0.44818177819252014,-0.8922595381736755,-0.005678761750459671,0.002227187156677246,-0.0008221268653869629,-0.01927410624921322,-0.005555535666644573,-0.001451883465051651,0.06137059877141295,-0.4647303594175918,0.017536826601620356
1687099074.359101,0.05486288294196129,0.44847747683525085,-0.8921087980270386,-0.0007857047021389008,0.002419769763946533,-0.0026818513870239258,0.00036883741267956793,-0.011713562533259392,-0.008203795179724693,0.06142062283918515,-0.46506116051947755,0.01781287095531599
1687099074.395714,0.05472521483898163,0.4488728642463684,-0.8919183611869812,0.0020680278539657593,0.005411803722381592,-0.006534397602081299,-0.004995301831513643,0.00045293313451111317,-0.0053299120627343655,0.06127993185240675,-0.4655036063914908,0.01790459581311505
1687099074.435441,0.05474618449807167,0.44938114285469055,-0.8916610479354858,0.007784362882375717,0.008397817611694336,-0.0005356073379516602,-0.014118226245045662,0.0025074512232095003,0.009004485793411732,0.06132099727505224,-0.4660724738650613,0.018092119020424444
1687099074.474904,0.05466823652386665,0.4494156837463379,-0.8916484713554382,0.004856333136558533,-0.0005783736705780029,0.006226718425750732,0.004589148797094822,-0.0004301932640373707,0.006203106604516506,0.06123477254485451,-0.4661111401879569,0.01832490604810292
1687099074.5367398,0.054776933044195175,0.449209988117218,-0.891745388507843,-0.0016000308096408844,-0.0019443631172180176,0.005408167839050293,0.007584671955555677,-0.0008795351022854447,0.003321366850286722,0.061349568022264725,-0.4658809005733859,0.01848511480120304
1687099074.605536,0.05483744665980339,0.44913727045059204,-0.8917783498764038,-0.005505751818418503,-0.005381166934967041,-0.004568696022033691,-0.003904737299308181,-0.0010061905486509204,-0.005601753946393728,0.06141490845337965,-0.46579951237225997,0.01868727464051399
1687099074.644562,0.054823800921440125,0.44862067699432373,-0.8920391798019409,-0.002806559205055237,0.0068999528884887695,-0.005772709846496582,0.018535591661930084,-0.003822905011475086,-0.005794234108179808,0.06138175728927997,-0.4652214039775144,0.018789406024616297
1687099074.700307,0.05486322194337845,0.447948694229126,-0.8923743963241577,0.006904389709234238,0.008304387331008911,-0.003453850746154785,0.016676438972353935,-0.0032672807574272156,0.0037811617366969585,0.06140276406832347,-0.4644696318733998,0.01896715049849609
1687099074.741483,0.054993707686662674,0.4477081894874573,-0.8924870491027832,0.005827855318784714,0.006011933088302612,-0.0015711784362792969,0.007654180284589529,0.0009955079294741154,0.005426329094916582,0.061540689424900305,-0.46420065369362384,0.01926415616798924
1687099074.783622,0.054979294538497925,0.4470701217651367,-0.8928077220916748,0.003309309482574463,0.003994971513748169,0.010178327560424805,0.025052879005670547,0.007521716877818108,0.01319836638867855,0.06150255703646564,-0.46348719077616746,0.019378637304772427
1687099074.826974,0.05518370866775513,0.4464452564716339,-0.8931077122688293,0.0009534098207950592,-0.011585026979446411,0.004451096057891846,-0.006049646995961666,-0.005173194222152233,0.004251276142895222,0.06170995905786954,-0.4627887696038862,0.01966759183617366
1687099074.909354,0.0549592599272728,0.44673144817352295,-0.8929784893989563,-0.005703862756490707,-0.004379153251647949,0.00027829408645629883,-0.012261203490197659,-0.00797237642109394,-0.00571753503754735,0.06146847377762521,-0.46310861679490384,0.01970533987143079
1687099074.9476008,0.05478082597255707,0.44696494936943054,-0.8928725719451904,-0.0030077211558818817,0.003245621919631958,-0.00464940071105957,-0.014972034841775894,-0.0074496641755104065,-0.005882584489881992,0.06127665527822793,-0.4633696444562191,0.019759347532899475
1687099074.9887772,0.05482453480362892,0.4466084837913513,-0.8930482268333435,0.004196487367153168,0.01644998788833618,-0.004443228244781494,0.03338377922773361,0.0001318003050982952,-0.005897564813494682,0.06131339216152367,-0.46297120188215146,0.019964631103040874
1687099075.031429,0.05495345965027809,0.4459449052810669,-0.8933718800544739,0.007348205894231796,0.0048607587814331055,-0.0026547908782958984,-0.002341195475310087,0.003059457754716277,0.009037574753165245,0.061435006703120104,-0.46222966556714395,0.01990320432389143
1687099075.080096,0.054882317781448364,0.4463898539543152,-0.893153965473175,0.0076177120208740234,0.008703529834747314,0.005885899066925049,0.0029036339838057756,0.004017685540020466,0.008314860984683037,0.061370601659523835,-0.46272685808398234,0.019995762892567232
1687099075.135085,0.05490385368466377,0.4461311995983124,-0.893281877040863,0.0008670464158058167,-0.004694432020187378,0.008577287197113037,0.008522638119757175,0.0031963218934834003,0.00571494922041893,0.061385857352613996,-0.4624378219331177,0.0201005408316573
1687099075.20225,0.05500172823667526,0.4461701214313507,-0.893256425857544,-0.006555043160915375,-0.01260685920715332,0.004035234451293945,-0.020975332707166672,-0.0013145625125616789,-0.000672975555062294,0.06149675577305417,-0.46248129586855896,0.020238117919327173
1687099075.2438521,0.054928090423345566,0.4465400278568268,-0.8930761218070984,-0.005291219800710678,-0.0007545053958892822,-0.004705250263214111,-0.0095650190487504,-0.0033770031295716763,-0.010666487738490105,0.06142700257960285,-0.46289466956140146,0.02023753345396868
1687099075.316523,0.05478210374712944,0.44676366448402405,-0.8929732441902161,0.0032470934092998505,0.008406013250350952,-0.0063645243644714355,0.0017406317638233304,-0.002581072971224785,-0.004167042672634125,0.061271191928977585,-0.46314461957723685,0.020165509116486097
1687099075.334636,0.05482415109872818,0.4470959007740021,-0.8928043246269226,0.007691137492656708,0.005113571882247925,0.0010806918144226074,-0.01335869263857603,0.0019050217233598232,0.009667813777923584,0.061329671774457355,-0.46351601580642654,0.0202582557228152
1687099075.3801389,0.05483616515994072,0.44729405641555786,-0.8927043676376343,0.002674240618944168,0.0030386149883270264,0.010563254356384277,0.0033196196891367435,0.010738639160990715,0.011664117686450481,0.061349929436433394,-0.4637375676140669,0.020315336430562575
1687099075.450955,0.05481921508908272,0.4473153054714203,-0.8926947116851807,0.0002803020179271698,-0.011631101369857788,0.010767221450805664,-0.0028117760084569454,0.000910464208573103,0.006160828750580549,0.06133167406393919,-0.463761344090378,0.02037958812183614
1687099075.5063019,0.05484428629279137,0.4478661119937897,-0.8924169540405273,-0.007221579551696777,-0.010427147150039673,-0.00031369924545288086,-0.021497312933206558,-0.0056854309514164925,-0.006791854277253151,0.0613787026271136,-0.46437728659788075,0.020456595139945438
1687099075.5473151,0.05460187792778015,0.44876551628112793,-0.8919799327850342,-0.005453288555145264,-0.004948347806930542,-0.00497746467590332,-0.009883533231914043,-0.01566522754728794,-0.0031304070726037025,0.06113795510362062,-0.4653834527689588,0.020574361755395384
1687099075.586784,0.054411593824625015,0.4487680196762085,-0.8919903039932251,-0.0013872720301151276,0.008354812860488892,-0.006691336631774902,0.007466427516192198,-0.0025615652557462454,-0.00641108863055706,0.060924713150853564,-0.465386254382922,0.02051260544774537
1687099075.646766,0.05435065180063248,0.44855907559394836,-0.8920990824699402,0.007111784070730209,0.012317419052124023,-0.0015013813972473145,-0.0013909793924540281,0.0007761300075799227,0.00790939386934042,0.06084924409919965,-0.4651524801285059,0.020478710739306582
1687099075.689557,0.05440760403871536,0.44860339164733887,-0.8920733332633972,0.005574721843004227,0.0060627758502960205,0.006697356700897217,0.012379960156977177,0.005992951802909374,0.0027094390243291855,0.06091460349831282,-0.46520204377750596,0.02052911622768152
1687099075.755696,0.05428564175963402,0.44866716861724854,-0.892048716545105,0.0029195882380008698,-0.013578027486801147,0.01089942455291748,0.007052040193229914,-0.001115690916776657,0.011381090618669987,0.06078006605172225,-0.4652734063937953,0.020510587431304437
1687099075.800072,0.05418535694479942,0.4482346773147583,-0.8922721743583679,-0.007661283016204834,-0.007118344306945801,0.0018761157989501953,-0.006059234496206045,-0.0026636309921741486,0.007624902296811342,0.06065289916070416,-0.46478952799247025,0.020590546733441815
1687099075.834425,0.054262738674879074,0.4479617476463318,-0.8924045562744141,-0.009813860058784485,-0.0087222158908844,-0.0049037933349609375,-0.006544995121657848,-0.010791754350066185,-0.006369676440954208,0.060730320404797596,-0.46448424405463434,0.020751044183440953
1687099075.879529,0.054206572473049164,0.44769319891929626,-0.8925427198410034,-0.0011669956147670746,0.008178412914276123,-0.003880620002746582,0.01669960841536522,-0.0014732202980667353,-0.007096586748957634,0.06065824609981408,-0.46418388351347906,0.020756177371887254
1687099075.941716,0.054212313145399094,0.4475573003292084,-0.892610490322113,0.006258290261030197,0.007795482873916626,-0.0051097869873046875,0.013474253006279469,-0.003815670032054186,0.005240440834313631,0.060660057279489435,-0.46403192239764646,0.020850516181494954
1687099075.98733,0.05428212136030197,0.4465157985687256,-0.8931277394294739,0.008538343012332916,0.012697488069534302,0.002212822437286377,0.02477164939045906,0.005443253554403782,0.011988356709480286,0.06070288536253298,-0.4628675997473034,0.02094914381836996
1687099076.0527592,0.054350052028894424,0.4462951719760895,-0.8932338953018188,0.0031450986862182617,-0.00670468807220459,0.010985970497131348,0.0024125471245497465,0.0012079393491148949,0.006414894480258226,0.06077145914609438,-0.4626210296373255,0.02117563215908218
1687099076.1018271,0.054379165172576904,0.44548317790031433,-0.8936372995376587,-0.0053679123520851135,-0.005465477705001831,0.006109893321990967,0.025050481781363487,0.004736006259918213,0.001685919240117073,0.06077655235188653,-0.46171386998677405,0.021285814260901884
1687099076.134579,0.05442202836275101,0.4446078836917877,-0.8940705060958862,-0.005044560879468918,-0.00715366005897522,-0.005679190158843994,0.003764634020626545,-0.003914473578333855,-0.006757632829248905,0.06079494046378413,-0.46073644310043976,0.02126157976038742
1687099076.190558,0.05453665181994438,0.4441429674625397,-0.8942946195602417,0.0003492385149002075,0.010691016912460327,-0.0007096529006958008,0.01934892125427723,0.01086853351444006,-0.004611724056303501,0.06090744317353993,-0.460217467068362,0.02116228307698543
1687099076.2288861,0.05477799475193024,0.44229719042778015,-0.8951941728591919,0.009461537003517151,0.015741169452667236,-0.008690714836120605,0.05503101646900177,-0.0021940269507467747,-0.0014042793773114681,0.06111498475087987,-0.45815839132504077,0.021203513834715883
1687099076.3077688,0.055042337626218796,0.4409711956977844,-0.8958318829536438,0.005565602332353592,0.003166407346725464,-0.002117335796356201,0.032504402101039886,0.025852477177977562,0.027400335296988487,0.06136556619985537,-0.45668047835341735,0.021125205227802805
1687099076.403292,0.056451547890901566,0.43820884823799133,-0.8970987796783447,0.004644669592380524,0.009117811918258667,0.013645470142364502,0.0742606371641159,0.036042261868715286,0.0034390785731375217,0.06284392936245957,-0.4536050296857112,0.02115625042638007
1687099076.416788,0.057180747389793396,0.43506181240081787,-0.8985831141471863,0.0010773427784442902,0.016491562128067017,0.0022055506706237793,0.04903730750083923,0.0037015904672443867,-0.01307078916579485,0.06354866161699728,-0.45010691414197507,0.020589768663382954
1687099076.431404,0.057488251477479935,0.43272191286087036,-0.8996926546096802,-0.012612126767635345,0.008089274168014526,0.006137967109680176,0.048861537128686905,0.017229406163096428,-0.020353136584162712,0.06381090782601516,-0.44750982059249994,0.019236335647251697
1687099076.505862,0.058063291013240814,0.4298573434352875,-0.9010279774665833,-0.008167020976543427,-0.0038472115993499756,-0.0058171749114990234,0.06785093992948532,0.020865220576524734,-0.032203737646341324,0.06435218460539852,-0.4443347816238117,0.018193328846794202
1687099076.556979,0.05882405489683151,0.42735135555267334,-0.902169942855835,-0.0025648698210716248,0.00044408440589904785,-0.002203226089477539,0.08020427823066711,0.02430136315524578,-0.027238139882683754,0.06511069020606902,-0.44156110762042433,0.01643947549777989
1687099076.596504,0.05889586731791496,0.4235965609550476,-0.9039342999458313,0.006396520882844925,-0.0030795931816101074,-0.004970729351043701,0.07600314170122147,0.011231189593672752,-0.023927832022309303,0.06506306611878938,-0.43741201717571365,0.014296203158409583
1687099076.6400928,0.05858786031603813,0.4205353856086731,-0.905382513999939,0.0063383206725120544,-0.001971513032913208,0.010118842124938965,0.07483907788991928,0.008108766749501228,-0.010322939604520798,0.06462051806103203,-0.43403534386227377,0.012665382729317802
1687099076.713091,0.058944568037986755,0.4177621006965637,-0.9066423773765564,-0.0023649409413337708,-0.009650498628616333,0.0017198920249938965,0.05236918851733208,0.0111173614859581,0.0026541780680418015,0.06492276100199867,-0.4309807730510291,0.011909734630795024
1687099076.750514,0.059433117508888245,0.4169903099536896,-0.9069657325744629,-0.0058289580047130585,-0.013212203979492188,-0.0013594627380371094,-0.004743366502225399,0.006714734714478254,-0.0032792778220027685,0.0654360615293762,-0.4301314693557737,0.011970856356000998
1687099076.793797,0.059205614030361176,0.41666436195373535,-0.9071303606033325,-0.0015121027827262878,0.005424290895462036,-0.0075424909591674805,0.03193475306034088,-0.009196209721267223,-0.018310625106096268,0.0651744916963202,-0.42977289332937235,0.011664417105548452
1687099076.8365111,0.059422850608825684,0.4157833755016327,-0.9075202941894531,0.004511505365371704,0.00044587254524230957,-0.002483367919921875,-0.002858114894479513,-0.0013368886429816484,0.006223679985851049,0.06538492061865538,-0.42880399693201304,0.011627993558197169
1687099076.891687,0.05969322472810745,0.41635453701019287,-0.9072406888008118,0.0007316134870052338,0.002071976661682129,-0.0008098483085632324,-0.012949896976351738,0.008932039141654968,0.00801878422498703,0.06570175616219849,-0.42943211725447294,0.012110258346349073
1687099076.962704,0.05962169170379639,0.4166463017463684,-0.907111406326294,0.001978069543838501,-0.0070545971393585205,0.008979082107543945,0.007338063325732946,-0.004395950585603714,0.005751567892730236,0.06563257585910139,-0.4297530353890568,0.012302220109979617
1687099077.009368,0.058831099420785904,0.417167991399765,-0.906923234462738,-0.004296153783798218,-0.014168083667755127,0.006471574306488037,-0.011623110622167587,-0.007804464548826218,0.014148980379104614,0.06477812454855285,-0.43032696301409884,0.012440572903698094
1687099077.0469608,0.059160683304071426,0.4167255759239197,-0.9071052074432373,-0.00454944372177124,0.0023418068885803223,-0.0028221607208251953,0.0002953341172542423,-0.007777299731969833,-0.0012342366389930248,0.0651269724895034,-0.42984024787411457,0.012798320227445793
1687099077.1028728,0.05876185745000839,0.4164719879627228,-0.9072475433349609,-0.003570783883333206,0.0015730857849121094,0.0014858245849609375,0.007441660389304161,-0.0063351537100970745,-0.013431115075945854,0.0646790297668668,-0.4295612886594426,0.012495718899938795
1687099077.1429849,0.05873042717576027,0.4165891706943512,-0.9071958065032959,0.00018378719687461853,0.0034395456314086914,-0.0032656192779541016,-0.004294624086469412,0.013212338089942932,0.0063859326764941216,0.06464821025255439,-0.42969017421933886,0.01241136989288792
1687099077.184216,0.05895219370722771,0.4171535074710846,-0.9069220423698425,0.00867479294538498,-0.00017654895782470703,-0.0009301304817199707,-0.017253564670681953,0.002057354897260666,-0.00016324641183018684,0.06491117227170853,-0.4303110255481874,0.012628387718891987
1687099077.2575998,0.058727655559778214,0.4173832833766937,-0.906830906867981,0.002078648656606674,-0.006769269704818726,0.010270237922668457,0.010634258389472961,0.006564466282725334,0.00457365158945322,0.06467110696743794,-0.4305638853744816,0.012645277249138883
1687099077.314713,0.058988429605960846,0.4168557822704315,-0.9070565700531006,-0.00524694100022316,-0.010056465864181519,0.005048513412475586,0.007437133230268955,0.008330652490258217,0.00294772582128644,0.06494135006359748,-0.4299834604923046,0.012655532500721435
1687099077.344948,0.05895106494426727,0.41779574751853943,-0.9066264033317566,-0.0027834326028823853,-0.012461304664611816,0.003428220748901367,-0.030153384432196617,-0.0005364088574424386,0.004475647583603859,0.06493103760572458,-0.4310178233166384,0.012856520238013482
1687099077.3851252,0.05880805477499962,0.418854296207428,-0.9061471819877625,0.0014031566679477692,-0.0030675530433654785,-0.006450474262237549,-0.03680809214711189,-0.005193811841309071,0.0009078769944608212,0.06480812491215052,-0.4321832355538594,0.013184621181848925
1687099077.4543118,0.05985959619283676,0.4195830225944519,-0.9057410955429077,9.221583604812622e-05,0.007556259632110596,-0.002202630043029785,-0.01794758439064026,0.008573576807975769,0.008037425577640533,0.06599311037275817,-0.4329859118311549,0.013839817482884906
1687099077.502048,0.05990329757332802,0.4205321967601776,-0.9052978754043579,0.0065640173852443695,0.0030059814453125,0.0020844340324401855,-0.020392633974552155,-0.007050678599625826,0.011716783046722412,0.06607338782280102,-0.43403182645998506,0.014309519540899058
1687099077.601304,0.059118811041116714,0.42091432213783264,-0.9051718711853027,0.0020384453237056732,-5.960464477539062e-07,0.003957271575927734,-0.005121269263327122,-0.008023064583539963,0.00636123213917017,0.0652196174429493,-0.43445305791496447,0.014381740482207798
1687099077.6432009,0.05915457010269165,0.42111772298812866,-0.9050748944282532,-0.004375491291284561,-0.006658494472503662,0.009429752826690674,-0.004819000605493784,-0.007043199148029089,0.01631426438689232,0.06526592814015061,-0.43467730051434145,0.0148521363862678
1687099077.6541839,0.05934232100844383,0.42105570435523987,-0.9050915241241455,-0.008393194526433945,-0.0038803815841674805,-0.002394437789916992,-0.009853173047304153,-0.014266136102378368,0.007057115901261568,0.06547128894150592,-0.4346089098024788,0.015503459338692623
1687099077.700094,0.05849900841712952,0.42152678966522217,-0.9049270749092102,-0.0040556155145168304,-0.000613093376159668,-0.005351245403289795,-0.03371696174144745,-0.038218338042497635,0.00604538107290864,0.06455516943618225,-0.4351283551860162,0.016094666364062375
1687099077.744591,0.05747978761792183,0.42252546548843384,-0.9045265913009644,0.0007782988250255585,0.00641438364982605,-0.0016013383865356445,0.008259518072009087,-0.01685273088514805,0.010470621287822723,0.06346148762901409,-0.4362299130360604,0.01702887393863865
1687099077.813868,0.05728548765182495,0.42275556921958923,-0.9044314026832581,0.008205264806747437,-0.0037949681282043457,-0.0006436705589294434,-0.014599725604057312,-0.0035788039676845074,0.02007298357784748,0.06325418020061395,-0.4364838121592814,0.017840938494829598
1687099077.853163,0.05789893865585327,0.4225703775882721,-0.9044788479804993,0.004997819662094116,5.2303075790405273e-05,0.002165675163269043,-0.0198805071413517,0.01186626497656107,0.012405142188072205,0.06392636660717951,-0.4362794642389448,0.018421235091634625
1687099077.91087,0.05806007981300354,0.4253239929676056,-0.9031769037246704,-0.002350207418203354,-0.01792958378791809,0.00850832462310791,-0.06257124990224838,-0.014049332588911057,0.029464751482009888,0.06419594971374294,-0.43931984676349445,0.01974914324947712
1687099077.9509091,0.058350060135126114,0.4268595576286316,-0.9024335145950317,-0.005035817623138428,-0.002237945795059204,0.006055951118469238,-0.030133944004774094,0.011292064562439919,0.015600868500769138,0.06456868896647869,-0.44101719538610434,0.021056098827012492
1687099077.997721,0.05860624834895134,0.42880260944366455,-0.9014952182769775,-0.0020724087953567505,-0.01458752155303955,-0.007852315902709961,-0.10600660741329193,-0.021282678470015526,0.004110062029212713,0.06491869668030353,-0.44316692672453833,0.02182682982128162
1687099078.0422611,0.057850997895002365,0.43174225091934204,-0.9001399278640747,0.0010021813213825226,0.03345245122909546,-0.000571131706237793,-0.027606870979070663,-0.024606389924883842,-0.019804058596491814,0.06418062427365336,-0.44642344645806736,0.022395456792407353
1687099078.094389,0.057441346347332,0.4330729842185974,-0.8995267152786255,-0.003058992326259613,0.014650434255599976,-0.013879656791687012,-0.016231443732976913,-0.010321971960365772,-0.011582547798752785,0.06377071207393313,-0.4478992630628231,0.02263794579543043
1687099078.20185,0.05732623487710953,0.43386131525039673,-0.8991540670394897,0.00900375097990036,0.02417701482772827,0.0036615729331970215,-0.014630617573857307,-0.006101527716964483,0.008924458175897598,0.06366956699907408,-0.44877405201472126,0.022980988979751812
1687099078.207891,0.05705341696739197,0.43401339650154114,-0.8990980386734009,0.0048515163362026215,0.0027084052562713623,0.005039870738983154,-0.007209187373518944,-0.004412906244397163,0.007756661623716354,0.06337130938537684,-0.44894287814037637,0.023094370019642704
1687099078.257895,0.056967269629240036,0.4334810674190521,-0.8993602991104126,-0.00437019020318985,-0.009271442890167236,0.006049752235412598,-7.298102718777955e-05,-0.00808451697230339,0.005211479030549526,0.06325747672938899,-0.44835206314263126,0.023282171866686508
1687099078.300993,0.05700656399130821,0.43332725763320923,-0.8994319438934326,-0.008224185556173325,-0.0044026970863342285,-0.0012943744659423828,0.005760939326137304,-0.0012978510931134224,0.003355921246111393,0.0632959687039718,-0.44818140225450603,0.02347835406670099
1687099078.34202,0.05706693232059479,0.433051198720932,-0.8995610475540161,-0.00018214061856269836,0.0004968047142028809,-0.0019434690475463867,-0.007700806949287653,-0.010400468483567238,-0.006041908171027899,0.06335374814975817,-0.44787511174553724,0.023493337785051048
1687099078.415852,0.05674933269619942,0.43411877751350403,-0.8990664482116699,0.0032635144889354706,0.00995779037475586,-0.004971027374267578,-0.030096659436821938,-0.002647075103595853,0.0055629494599998,0.06303666136673125,-0.449059848039845,0.02357139836819194
1687099078.454135,0.05677410960197449,0.43439143896102905,-0.8989331722259521,0.0074959397315979,0.014140695333480835,0.0020062923431396484,0.0034399947617202997,0.007319960743188858,0.009856963530182838,0.06307343538803141,-0.44936251568212904,0.02372005739831414
1687099078.5028539,0.0568663589656353,0.4346008896827698,-0.8988260626792908,0.0022767335176467896,-0.007705748081207275,0.008750438690185547,-0.005392112769186497,0.0019402201287448406,0.007134746760129929,0.06318315367182428,-0.4495950663493627,0.023971209627044517
1687099078.55903,0.05680304765701294,0.43547913432121277,-0.8984048962593079,-0.004572182893753052,-0.009697884321212769,8.946657180786133e-05,-0.017309226095676422,0.0018980533350259066,-0.0004030638374388218,0.06314250609318153,-0.4505704668067314,0.023927754048358663
1687099078.5984359,0.05671074986457825,0.4359282851219177,-0.8981928825378418,-0.0026793479919433594,-0.006561219692230225,-0.0015263557434082031,-0.022576691582798958,-0.0076274750754237175,-0.0021371147595345974,0.06305501817454795,-0.4510694747691546,0.02400954617665576
1687099078.665053,0.056601688265800476,0.4358234405517578,-0.8982506394386292,-0.00012888014316558838,0.011259078979492188,-0.0022010207176208496,0.02074201963841915,0.0032578634563833475,-0.0033666298259049654,0.06293004127454378,-0.45095295988927375,0.02413082638406385
1687099078.714719,0.05674779787659645,0.4355444014072418,-0.8983767628669739,0.006316803395748138,0.004961609840393066,-0.002547919750213623,0.002516144188120961,0.00021646684035658836,0.007211778778582811,0.06308322611737181,-0.45064297055207597,0.024282375269783257
1687099078.746152,0.05679302662611008,0.4355315566062927,-0.8983801007270813,0.007644873112440109,0.010711729526519775,0.0019262433052062988,0.0001722961023915559,0.0061283959075808525,0.007125692442059517,0.06313313125666425,-0.45062871303619473,0.024440203410348468
1687099078.829973,0.05699603259563446,0.4360233247280121,-0.8981286883354187,-0.0008894354104995728,-0.014422953128814697,0.008602321147918701,-0.0004578077932819724,-0.003269211621955037,0.008310998789966106,0.06337588715580149,-0.45117505899056487,0.02486693144296711
1687099078.869195,0.056754544377326965,0.43603870272636414,-0.898136556148529,-0.005347657948732376,-0.009387701749801636,0.0027050375938415527,-0.011979973874986172,-0.004194549284875393,0.008061260916292667,0.06310753506492785,-0.4511921557668319,0.024938401044017046
1687099078.912308,0.056902892887592316,0.43588849902153015,-0.8982000350952148,-0.009371738880872726,-0.004507273435592651,0.0020818710327148438,-0.001536654308438301,0.0008076885715126991,-0.0036493910010904074,0.06326758849723706,-0.4510252529369058,0.025135772820350177
