Timestamp,gravityX,gravityY,gravityZ,accelerationX,accelerationY,accelerationZ,rotationRateX,rotationRateY,rotationRateZ,attitudeRoll,attitudePitch,attitudeYaw
1687105299.842732,0.8926600217819214,0.44990769028663635,-0.027228856459259987,0.006098031997680664,-0.010317236185073853,0.0028302688151597977,-0.049585141241550446,-0.038160793483257294,-0.0026759635657072067,1.540302728078301,-0.4666619627944032,-0.3019550539898439
1687105299.893415,0.8927483558654785,0.4496976137161255,-0.02780427783727646,0.0029276609420776367,0.0007266402244567871,0.013003464788198471,-0.05064640939235687,-0.034247543662786484,0.004971836227923632,1.5396618049429176,-0.46642675667240246,-0.2996825525479227
1687105299.9561582,0.8927358388900757,0.4497469961643219,-0.027396783232688904,-0.006322145462036133,0.004247695207595825,-0.007454095408320427,-0.01832149364054203,-0.007601398043334484,-0.0059903343208134174,1.5401173898878386,-0.46648206363055766,-0.29656938952231
1687105299.995872,0.89262455701828,0.4497828483581543,-0.030280476436018944,0.059920668601989746,0.03723183274269104,-0.01538890041410923,0.05664622411131859,-0.11742208153009415,-0.006413510534912348,1.5368863597179359,-0.4665221863133424,-0.29945463384329524
1687105300.0412169,0.892055094242096,0.4505985677242279,-0.03462566062808037,-0.034785687923431396,0.020241856575012207,0.024021029472351074,-0.07577279955148697,-0.07714976370334625,-0.03361343964934349,1.5320001945041448,-0.4674357285565937,-0.2973487051003864
1687105300.094228,0.890029788017273,0.45446932315826416,-0.03612493723630905,-0.008331000804901123,0.03263700008392334,-0.009956419467926025,0.06487192958593369,-0.005634675733745098,-0.13658329844474792,1.530230135659289,-0.47177635906965354,-0.2975604203747518
1687105300.144351,0.886931836605072,0.4604856073856354,-0.03612738475203514,0.032379865646362305,-0.023382365703582764,0.006098330020904541,-0.09376724809408188,-0.04079650342464447,-0.1052752360701561,1.5300858416792478,-0.4785421897564663,-0.2971034679427519
1687105300.201756,0.8847121000289917,0.46475645899772644,-0.03585917130112648,-0.0120772123336792,-0.018101274967193604,-0.008513204753398895,-0.07114795595407486,-0.04143122211098671,-0.06705062836408615,1.530286479295735,-0.48335954059371694,-0.29154877034944127
1687105300.2523642,0.8840391039848328,0.46596357226371765,-0.036786556243896484,-0.015218675136566162,-0.02367231249809265,-0.0069296956062316895,-0.015142211690545082,-0.06370991468429565,-0.009536266326904297,1.5292084080670854,-0.48472331736710866,-0.2895730217517841
1687105300.2901468,0.8844262957572937,0.46503621339797974,-0.039135247468948364,-0.01276785135269165,-0.027139514684677124,0.005306724458932877,-0.06380615383386612,-0.07869872450828552,0.04825379326939583,1.5265758693532074,-0.4836755144244207,-0.2872527940146141
1687105300.359637,0.8859714269638062,0.461879163980484,-0.04150000587105751,-0.006180167198181152,-0.011867016553878784,0.016384251415729523,-0.084754578769207,-0.07984008640050888,0.0861867293715477,1.5239892931963355,-0.48011274302295004,-0.28358502095244875
1687105300.417183,0.8880292177200317,0.45797839760780334,-0.040745947510004044,-0.018094897270202637,-0.004578769207000732,0.03027862310409546,-0.16086505353450775,-0.02490566484630108,0.089788056910038,1.5249449169597806,-0.4757197554379744,-0.27525340197917586
1687105300.4594998,0.8897775411605835,0.45483946800231934,-0.037644773721694946,-0.008658647537231445,0.010614603757858276,0.023591581732034683,-0.09160689264535904,0.0001278943382203579,0.06241375952959061,1.5285134683302772,-0.4721919499002278,-0.2679887766791099
1687105300.5063782,0.8913485407829285,0.45200315117836,-0.03451879322528839,0.00853884220123291,0.01769295334815979,0.0163763128221035,-0.022694136947393417,0.015566948801279068,0.07113134860992432,1.5320891847559692,-0.4690097068365749,-0.26400067933262106
1687105300.551441,0.8928403854370117,0.4492587745189667,-0.03166670352220535,0.021466374397277832,0.027044296264648438,0.015843570232391357,-0.023044608533382416,0.011657739989459515,0.06836259365081787,1.5353438148113505,-0.46593549921352095,-0.26200940052392563
1687105300.603005,0.8939672112464905,0.44712716341018677,-0.030004389584064484,0.0028682947158813477,0.04338186979293823,0.018621504306793213,0.024150334298610687,0.016694841906428337,0.036980435252189636,1.5372457344209864,-0.46355098664065003,-0.260581260600561
1687105300.6448011,0.8940155506134033,0.44714242219924927,-0.02828822284936905,0.003048837184906006,0.03260916471481323,0.01147317886352539,0.008615848608314991,0.07286672294139862,-0.037499260157346725,1.5391651232044716,-0.4635680300572754,-0.26175407343157575
1687105300.691936,0.8924707174301147,0.450480580329895,-0.023732898756861687,0.004685044288635254,0.017750531435012817,0.007467214018106461,-0.009484059177339077,0.10714693367481232,-0.09586722403764725,1.5442102371234556,-0.46730354242573313,-0.261305481042329
1687105300.770352,0.8902787566184998,0.45504704117774963,-0.018337812274694443,0.00602269172668457,-0.0031427741050720215,-0.015551745891571045,-0.022600393742322922,0.1007198616862297,-0.08256973326206207,1.550201406626781,-0.47242504439371913,-0.26065839077445246
1687105300.8105311,0.8886508941650391,0.4583568572998047,-0.014452571049332619,0.0025998950004577637,-0.013410598039627075,-0.019131839275360107,-0.02572694420814514,0.06715694814920425,-0.05784807354211807,1.5545342644404456,-0.47614554332634657,-0.25988779993086125
1687105300.8814921,0.887663722038269,0.46031901240348816,-0.012650111690163612,0.007340729236602783,-0.01601359248161316,-0.02197188138961792,-0.006303979083895683,0.053009528666734695,-0.039690107107162476,1.5565462730463429,-0.47835452865829753,-0.25927356541903046
1687105300.8898392,0.8870792984962463,0.4614347517490387,-0.01298848632723093,-0.00023829936981201172,-0.011559903621673584,-0.019878804683685303,0.05089433118700981,0.045903194695711136,-0.026284154504537582,1.5561555190267986,-0.4796117291604948,-0.2624017940366737
1687105300.969018,0.8868722319602966,0.4618077576160431,-0.0138405067846179,0.006591081619262695,-0.013351917266845703,-0.025847434997558594,-0.008421458303928375,0.016623912379145622,-0.0038586067967116833,1.5551916167589448,-0.4800322210056315,-0.2641265398823508
1687105301.018511,0.8868950009346008,0.4617244601249695,-0.015104425139725208,0.004447340965270996,-0.00267907977104187,-0.020311057567596436,0.025444097816944122,-0.010240968316793442,-0.003711267141625285,1.553767292340857,-0.47993831027466016,-0.264845098812724
1687105301.070201,0.8870537281036377,0.4613022208213806,-0.018341390416026115,0.004334390163421631,-0.0026840567588806152,-0.015563428401947021,0.02723933383822441,-0.030092857778072357,0.015340253710746765,1.550122519544571,-0.4794623433818313,-0.2673101787358286
1687105301.138627,0.8873558044433594,0.4605906307697296,-0.021360507234930992,-0.0005300641059875488,0.0026051700115203857,-0.0019242167472839355,-0.03641234710812569,-0.06245066598057747,0.013524377718567848,1.5467288857621206,-0.47866050854783826,-0.267563519068334
1687105301.195574,0.8875653147697449,0.4600566327571869,-0.024002745747566223,-0.0034098029136657715,0.012004554271697998,0.008179601281881332,0.005746291950345039,-0.046126820147037506,0.012673230841755867,1.5437595595484475,-0.4780589928437788,-0.2662616426335858
1687105301.201694,0.887479305267334,0.4601539075374603,-0.025281326845288277,0.004534363746643066,0.002065300941467285,0.02432018704712391,-0.06745202094316483,-0.041122451424598694,-0.0121135413646698,1.5423173616938077,-0.4781685524310001,-0.26529718209146474
1687105301.270122,0.8871303796768188,0.46082448959350586,-0.025312386453151703,-0.011992871761322021,0.019888311624526978,0.023588361218571663,0.04064009338617325,-0.013649526052176952,-0.004727995488792658,1.5422711827822702,-0.478924002485617,-0.26361224673319855
1687105301.310113,0.8868701457977295,0.4614042043685913,-0.02383093535900116,-0.003325045108795166,-0.007806181907653809,0.02737116813659668,-0.07514242827892303,0.003482434432953596,-0.014539813622832298,1.5439319642128193,-0.4795772976564459,-0.2619792194466372
1687105301.348664,0.8864278197288513,0.4623814821243286,-0.021199846640229225,0.0015270709991455078,0.019674181938171387,0.020910143852233887,0.05570479854941368,0.02270730584859848,-0.01472743321210146,1.5468848395445984,-0.4806791533693399,-0.2598092077053822
1687105301.411539,0.8860464096069336,0.46317094564437866,-0.019872087985277176,-0.003523588180541992,0.005823224782943726,0.01971966028213501,0.07586146146059036,0.05046685412526131,-0.023511603474617004,1.548372268731808,-0.4815697120527321,-0.2637142511424975
1687105301.4818,0.8855034112930298,0.4642975628376007,-0.017654448747634888,0.006266117095947266,0.003597855567932129,0.016479672864079475,0.03500058501958847,0.044291894882917404,-0.01700117439031601,1.550861777825211,-0.48284135167297454,-0.26626671082347725
1687105301.517452,0.885123074054718,0.46510881185531616,-0.015200295485556126,0.006707429885864258,0.0060977935791015625,0.010744931176304817,0.08871867507696152,0.08636128902435303,-0.021905718371272087,1.5536249282731902,-0.48375752919511533,-0.26855861469570236
1687105301.558105,0.8845400810241699,0.4662504494190216,-0.014129972085356712,0.045315444469451904,0.003613382577896118,0.0008855471387505531,0.2394557148218155,0.08502081781625748,-0.021217357367277145,1.5548233134684062,-0.4850475791382183,-0.27778483995085246
1687105301.613902,0.8843619227409363,0.46650630235671997,-0.01661623828113079,-0.0053182244300842285,-0.018233656883239746,0.0014034528285264969,0.21699754893779755,0.03941557928919792,-0.0017968537285923958,1.5520095810385315,-0.4853368282550753,-0.2908803419375025
1687105301.652468,0.8838866353034973,0.4673951268196106,-0.01692631095647812,-0.06244480609893799,-0.027789443731307983,0.004124404862523079,0.0444050058722496,0.09225047379732132,-0.05845906585454941,1.5516487998113415,-0.4863419436830388,-0.29877350125346586
1687105301.7035398,0.8817723393440247,0.47153156995773315,-0.011649892665445805,0.028933346271514893,0.04328468441963196,-0.05855560302734375,-0.35509100556373596,-0.009825159795582294,-0.13848772644996643,1.5575851893241988,-0.4910267487908862,-0.291807712277337
1687105301.764934,0.8756251335144043,0.4829796552658081,0.0034030324313789606,-0.061751723289489746,0.249579519033432,-0.02336132526397705,-0.9670910239219666,-0.10739073157310486,-0.4209222197532654,1.574682710338987,-0.5040543983814473,-0.2515479994012941
1687105301.804669,0.855492889881134,0.5171253085136414,0.026715226471424103,-0.02118784189224243,0.6879375576972961,0.12214970588684082,-1.2952760457992554,0.11741199344396591,-1.3776357173919678,1.602014058417255,-0.5434889229100025,-0.19075282985481926
1687105301.851112,0.7983020544052124,0.5964511632919312,0.08342698216438293,0.06107306480407715,0.7942959070205688,-0.001716025173664093,-1.3246102333068848,0.6098307967185974,-2.6562893390655518,1.6749238789478085,-0.6390723775828465,-0.08947762420519521
1687105301.910633,0.6842035055160522,0.7192780375480652,0.1204371303319931,0.25532615184783936,1.0151275396347046,0.06677305698394775,0.8544842600822449,1.0901237726211548,-4.002758502960205,1.7450366593906042,-0.8027625178317721,-0.04645504743014379
1687105301.949235,0.4935428500175476,0.8644036054611206,0.09603270143270493,0.6176176071166992,0.7746192812919617,0.04227316379547119,1.829964280128479,1.0386130809783936,-5.152883052825928,1.7629732616218277,-1.043963018633502,-0.09408540697721965
1687105302.0029721,0.2409902662038803,0.9704698324203491,0.010599648579955101,0.861884593963623,0.6284072399139404,0.030172109603881836,2.477522850036621,0.35008499026298523,-5.510218620300293,1.6147517183339088,-1.3271710243090293,-0.29054788787037383
1687105302.061558,-0.02742605097591877,0.9932852983474731,-0.11239442229270935,0.8958801031112671,0.3246775269508362,-0.013810873031616211,2.41656494140625,-0.47377532720565796,-5.197070121765137,-0.2393389043084443,-1.454845865365577,-2.1539582254119245
1687105302.103287,-0.2752169072628021,0.9383222460746765,-0.20930181443691254,0.924829363822937,0.18199342489242554,0.09330470860004425,1.7122496366500854,-0.9637167453765869,-4.701000213623047,-0.9206105123675276,-1.2177456175032573,-2.810776483822498
1687105302.178958,-0.48759475350379944,0.8374202847480774,-0.24693934619426727,0.836929440498352,0.1278051733970642,0.14076882600784302,1.0715649127960205,-1.2082152366638184,-4.2052321434021,-1.1020069603222038,-0.9925460607567741,-2.950122316429158
1687105302.21306,-0.6608850359916687,0.707056999206543,-0.2515982389450073,0.7903863191604614,0.12509644031524658,0.10897445678710938,0.9438818097114563,-1.209863305091858,-3.9817264080047607,-1.2070386727738183,-0.7853277938320294,-3.0059482845787198
1687105302.2547932,-0.8020159602165222,0.5505082011222839,-0.2317572385072708,0.7436509728431702,0.14581149816513062,0.14656758308410645,0.4715334177017212,-1.0218398571014404,-4.056580066680908,-1.2894907621582437,-0.5829728623594915,-3.048562364727196
1687105302.30322,-0.9072231650352478,0.37031489610671997,-0.19953203201293945,0.7174190878868103,0.12419205904006958,0.1328207403421402,-0.07247074693441391,-0.8149008750915527,-4.180441379547119,-1.3543060238626523,-0.3793479849673947,-3.0886900806795334
1687105302.361027,-0.9717425107955933,0.1713128387928009,-0.16238412261009216,0.6983659267425537,0.17991408705711365,0.013321161270141602,-0.10690408945083618,-0.6582930684089661,-4.261043071746826,-1.4052200965892483,-0.17216205837298304,3.1387021323625057
1687105302.413176,-0.9907216429710388,-0.03952496126294136,-0.13003301620483398,0.5495288968086243,0.09871390461921692,0.016812995076179504,0.38181206583976746,-0.6968400478363037,-4.220695972442627,-1.4402915011416078,0.03953526034162415,3.117826136592202
1687105302.460174,-0.9649021029472351,-0.24588361382484436,-0.09222514182329178,0.4363679885864258,0.08871813118457794,-0.08148074150085449,-0.24972090125083923,-0.8084836006164551,-4.0786004066467285,-1.4755060068668255,0.24843119184977872,3.1025888239754646
1687105302.5212011,-0.899182140827179,-0.43227559328079224,-0.06789641082286835,0.4360318183898926,0.13315749168395996,-0.01607251912355423,-0.9485037326812744,-0.7675701975822449,-4.039348602294922,-1.495430275271138,0.4470148214536008,3.0438292816687356
1687105302.56129,-0.7946216464042664,-0.6045705676078796,-0.055418845266103745,0.47443103790283203,0.21386921405792236,-0.04802030324935913,-0.6721533536911011,-0.6004657745361328,-4.125906467437744,-1.5011666454864219,0.6492266351018232,2.987055505600962
1687105302.6525111,-0.6554829478263855,-0.7526736855506897,-0.06184222921729088,0.46041446924209595,0.19362229108810425,0.05897373706102371,-0.3887421786785126,-0.2206755429506302,-4.001650333404541,-1.4767287222869747,0.8521136722457319,2.9182319370489047
1687105302.696202,-0.49734944105148315,-0.86301589012146,-0.0885847881436348,0.4628797173500061,0.020105063915252686,0.20201879739761353,-1.0504266023635864,0.29522550106048584,-3.747868061065674,-1.3945310096982169,1.0412095215887407,2.8203410366404986
1687105302.715735,-0.3406016230583191,-0.933240532875061,-0.11424972116947174,0.29708343744277954,-0.042482852935791016,0.018836677074432373,0.8089072108268738,0.5805900692939758,-2.946995496749878,-1.2471554169188863,1.2033299266348816,2.6835625667742713
1687105302.7542949,-0.22264690697193146,-0.9719670414924622,-0.07555639743804932,0.1985684186220169,-0.4552639126777649,0.28687548637390137,0.6733949184417725,0.9098942279815674,-1.6921871900558472,-1.2436358825461409,1.3334571456939701,2.718446279911818
1687105302.8339272,-0.1762181669473648,-0.9795193076133728,-0.09741197526454926,0.16211894154548645,-0.7413973808288574,-0.0711059421300888,-0.32788947224617004,0.4944750666618347,-0.15650540590286255,-1.065812157103413,1.3680602502346204,2.5749268685905786
1687105302.8731961,-0.17711301147937775,-0.9821103811264038,-0.06395478546619415,-0.006480857729911804,-0.10861837863922119,-0.15804517269134521,1.330864667892456,0.2438366562128067,0.15484049916267395,-1.2242709012311694,1.3813592080949286,2.7514760436735073
1687105302.929785,-0.18311481177806854,-0.982722818851471,-0.02692626416683197,-0.09599907696247101,-0.03781557083129883,0.05140149965882301,0.15012450516223907,0.2638761103153229,0.11194675415754318,-1.4247968188464635,1.3846395819781812,2.971739111239903
1687105302.970622,-0.18510669469833374,-0.9826149940490723,-0.014259838499128819,0.048189520835876465,0.026651859283447266,-0.06195765361189842,0.41511407494544983,0.06751277297735214,0.022277455776929855,-1.4939123968978645,1.384057875535875,3.0504961914727953
1687105303.0126538,-0.1861649751663208,-0.9825185537338257,0.00010959005885524675,0.031227096915245056,0.007176756858825684,0.017148256301879883,0.0690874457359314,0.001060466980561614,0.00145673006772995,-1.5713849984673585,1.3835392786821399,3.13061529104837
1687105303.083602,-0.18540304899215698,-0.9826622605323792,0.0009985410142689943,-0.005866020917892456,0.017146944999694824,0.04305374622344971,0.019867436960339546,-0.029984889551997185,-0.029505979269742966,-1.5761820602925622,1.3843127605164385,3.1346971378565174
1687105303.1335979,-0.18442052602767944,-0.9828467965126038,0.0012522604083642364,-0.004895403981208801,-0.002337038516998291,0.010924458503723145,-0.013183722272515297,-0.08339138329029083,-0.004511946812272072,-1.5775864666598438,1.3853106135252007,3.1330811941041805
1687105303.1766272,-0.18521341681480408,-0.9826784133911133,0.00627639377489686,0.001482248306274414,-2.9802322387695312e-06,0.0007429122924804688,-0.013666020706295967,-0.08325259387493134,-0.0021722265519201756,-1.604670722624537,1.3843999249342054,-3.1280859314133536
1687105303.218148,-0.18515469133853912,-0.9826679825782776,0.009051013737916946,-0.003016844391822815,0.007692158222198486,-0.000231265090405941,0.06739634275436401,-0.05089809373021126,-0.006627894472330809,-1.619640969719519,1.3843435718728747,-3.1161555081087537
1687105303.270484,-0.18469950556755066,-0.9827781915664673,0.005767639260739088,-0.016518250107765198,-0.01183551549911499,0.006058096420019865,-0.17744004726409912,-0.03826143965125084,-0.014101656153798103,-1.6020133329074018,1.3849389972130532,-3.1366539054934135
1687105303.314972,-0.18327654898166656,-0.9830597639083862,-0.0018951143138110638,-0.01371455192565918,0.006191909313201904,-0.008572220802307129,-0.1063259169459343,-0.04705442115664482,-0.029312368482351303,-1.560456505381767,1.3864689784855617,3.102071368181845
1687105303.385872,-0.18210408091545105,-0.983271598815918,-0.0038985356222838163,0.002538546919822693,-0.0038805603981018066,-0.016746461391448975,-0.09194724261760712,-0.058856818825006485,-0.026574838906526566,-1.549391312812932,1.3876282807099845,3.0876642304172175
1687105303.432815,-0.18115679919719696,-0.9834340810775757,-0.0063483514823019505,0.0031018704175949097,0.008122563362121582,-0.02011018991470337,-0.07596214860677719,-0.05372251197695732,-0.0320710688829422,-1.5357672552903119,1.3885226008828149,3.0711118479448993
1687105303.482044,-0.18086890876293182,-0.9834245443344116,-0.012755809351801872,0.01819486916065216,-0.010883986949920654,-0.024994252249598503,-0.17089025676250458,-0.041121140122413635,0.048220306634902954,-1.5003877442711344,1.388469915501072,3.033025751519604
1687105303.532774,-0.19205309450626373,-0.9805544018745422,-0.04036226496100426,0.0789853036403656,-0.17087405920028687,-0.015042249113321304,-1.1433136463165283,-0.03501385077834129,0.5250759720802307,-1.3636489605635318,1.3732668126941132,2.89201218192639
1687105303.573403,-0.2440301477909088,-0.9644502401351929,-0.10141699016094208,0.32757189869880676,-0.34501343965530396,0.0925976037979126,-1.1343693733215332,-0.2884445786476135,1.6787998676300049,-1.1769212008299277,1.3033550467393202,2.6941637976319956
1687105303.619103,-0.36503127217292786,-0.9180708527565002,-0.1545916050672531,0.5095013380050659,-0.6604968905448914,-0.07583124935626984,-1.3949201107025146,-1.1803224086761475,3.307497978210449,-1.1701948799814064,1.163186267317996,2.6501964887356344
1687105303.6851869,-0.5523011088371277,-0.8160927891731262,-0.1701662540435791,0.7120909690856934,-0.4761742353439331,-0.029128625988960266,-0.8733102083206177,-1.815710425376892,4.584675312042236,-1.2719212365438748,0.9546175584466348,2.676847843450921
1687105303.742068,-0.7496280074119568,-0.6499587297439575,-0.12494760751724243,0.6866700649261475,-0.25287336111068726,0.10718655586242676,0.12354137003421783,-1.6645969152450562,5.2383713722229,-1.4056351733302646,0.707530097954409,2.7364966580258745
1687105303.780225,-0.9036533832550049,-0.4238034784793854,-0.06165691465139389,0.6557283997535706,-0.054940998554229736,0.17853939533233643,0.3110752999782562,-1.0870083570480347,5.56011438369751,-1.502671200850723,0.43764045776133725,2.7856020124109917
1687105303.8222342,-0.9869590997695923,-0.16000647842884064,-0.017602186650037766,0.71787029504776,0.0014524906873703003,0.12532943487167358,0.3060208857059479,-0.5331823825836182,5.49867057800293,-1.5529634493468363,0.16069722339529918,2.8197469374271567
1687105303.871687,-0.9927544593811035,0.12011881917715073,0.003265739418566227,0.6800405979156494,-0.04109342396259308,0.03456103801727295,1.76755952835083,-0.21029320359230042,5.682225227355957,-1.574085889061867,-0.12040956582809824,2.8667944602704645
1687105303.925806,-0.9207137823104858,0.38988786935806274,-0.01655905693769455,0.691206157207489,-0.006007105112075806,0.0026127099990844727,1.1095716953277588,0.08800968527793884,5.483930587768555,-1.552813243284138,-0.40050981529388635,2.954945426676006
1687105303.986443,-0.7816132307052612,0.6218698024749756,-0.04856908693909645,0.6441773176193237,0.057314276695251465,-0.03875678405165672,1.1755754947662354,0.07614357024431229,5.250668048858643,-1.5087365836710065,-0.6711281069072893,3.031189168561924
1687105304.040533,-0.598598837852478,0.7947774529457092,-0.10004246979951859,0.5785335302352905,0.08092457056045532,-0.04142158478498459,1.0382856130599976,0.4031980633735657,4.932853698730469,-1.4051990723491634,-0.9186408402017607,-3.1248297125782734
1687105304.087263,-0.38627904653549194,0.9107309579849243,-0.14614345133304596,0.5004300475120544,0.01918560266494751,-0.008900940418243408,0.6326535940170288,0.667687714099884,4.793468952178955,-1.2091037370455764,-1.145050517719605,-2.9300364654532665
1687105304.127644,-0.16062462329864502,0.9715542197227478,-0.17401842772960663,0.5164749026298523,-0.07662606239318848,-0.06870299577713013,0.15060068666934967,0.7625030875205994,4.451197147369385,-0.7453953568613992,-1.3317077104744957,-2.480341580397946
1687105304.169869,0.05827993154525757,0.981481671333313,-0.18247529864311218,0.4443751871585846,-0.03806126117706299,-0.043278321623802185,0.4439244270324707,0.7109590172767639,4.098316669464111,0.30914526432062234,-1.3780491437906985,-1.44360892427553
1687105304.2382321,0.2428634911775589,0.9488039016723633,-0.20196250081062317,0.41271525621414185,-0.047344982624053955,-0.1339901089668274,0.34817659854888916,0.7539779543876648,3.145578384399414,0.8770886505200867,-1.2494273053526694,-0.89990772291011
1687105304.252734,0.38274866342544556,0.8938100337982178,-0.23368237912654877,0.3306303918361664,0.3219188451766968,-0.02730381488800049,1.2985421419143677,1.4149270057678223,2.326953411102295,1.0226647433176643,-1.1057706432526062,-0.7967927347352819
1687105304.333323,0.4953173100948334,0.8339848518371582,-0.24316713213920593,0.44921717047691345,0.2539210915565491,-0.12188398838043213,1.2106612920761108,1.512046456336975,2.3597638607025146,1.1144293749154563,-0.9862905244278928,-0.7769674332464097
1687105304.374047,0.6082820892333984,0.7587525844573975,-0.23299705982208252,0.3625890612602234,0.11267691850662231,-0.018299758434295654,0.7278203368186951,1.8997993469238281,2.3484270572662354,1.2049946138903085,-0.8613959349592395,-0.7718014472769875
1687105304.415582,0.715399980545044,0.6620972752571106,-0.22322671115398407,0.3718804121017456,0.3194243311882019,-0.2785736322402954,1.891689658164978,1.6858773231506348,2.4166362285614014,1.2683391231716445,-0.723613858547954,-0.8115048967590583
1687105304.463651,0.8183695077896118,0.5321727991104126,-0.21694204211235046,0.3483024835586548,0.5047687888145447,0.15309947729110718,4.29497766494751,2.51395845413208,2.5712318420410156,1.3116659628855663,-0.5611648601207075,-0.930699395142945
1687105304.528153,0.8928449749946594,0.3941146731376648,-0.21794910728931427,0.1466907262802124,0.1567428708076477,-0.1866070032119751,3.9267489910125732,2.578794240951538,1.4409557580947876,1.3313723057920217,-0.405104369158773,-1.17100724995107
1687105304.568147,0.9436943531036377,0.30116117000579834,-0.13690580427646637,0.18533414602279663,0.26114046573638916,-0.15189705789089203,2.7481608390808105,2.533405065536499,1.3964760303497314,1.4267271239702333,-0.3059101375314512,-1.296562391443348
1687105304.6334991,0.9679185748100281,0.24065905809402466,-0.07222984731197357,0.10175323486328125,0.18881484866142273,-0.5829365253448486,2.6294796466827393,2.1441588401794434,0.5889484882354736,1.4963104964696488,-0.2430448073155048,-1.438286869147412
1687105304.671856,0.9765153527259827,0.21387507021427155,-0.025995267555117607,0.21309053897857666,0.5035016536712646,-1.0136163234710693,2.1667659282684326,0.31912001967430115,0.24668219685554504,1.5441821726965441,-0.2155401083434754,-1.603828461787573
1687105304.717082,0.974821925163269,0.21934953331947327,-0.04010468348860741,0.16279727220535278,0.03181019425392151,-0.5166119933128357,0.7375110387802124,-0.30450519919395447,-0.15888333320617676,1.5296789894488425,-0.22114771714609266,-1.676654158662294
1687105304.771268,0.9722532033920288,0.21919506788253784,-0.08171773701906204,-0.01885324716567993,0.048566222190856934,0.08132123202085495,1.4645378589630127,-0.7247951626777649,0.052084822207689285,1.4869435640603064,-0.22098940285085175,-1.7263931314508063
1687105304.816561,0.9699388742446899,0.21584658324718475,-0.11237990856170654,-0.009016454219818115,-0.2994188964366913,0.21049416065216064,-1.6296892166137695,-0.6110235452651978,0.09897682815790176,1.4554477693336976,-0.2175587649318982,-1.7265909040755312
1687105304.8802671,0.9673420190811157,0.22438454627990723,-0.11790432035923004,-0.026072919368743896,-0.18880102038383484,0.03436267375946045,-3.0959503650665283,-0.6974467635154724,0.12086661159992218,1.4495097459222912,-0.22631143170574913,-1.5994295233471447
1687105304.931871,0.9642607569694519,0.2388107031583786,-0.11476398259401321,0.08978599309921265,-0.04857935011386871,0.0014524534344673157,-4.437960147857666,-0.971958577632904,0.04725358262658119,1.4523359921291188,-0.24114093881947254,-1.425361125922671
1687105304.993504,0.9559728503227234,0.2798251211643219,-0.08839744329452515,-0.0040836334228515625,-0.329065203666687,0.12666672468185425,-8.019914627075195,-1.4318041801452637,-0.4423229992389679,1.4785899603715023,-0.2836119342899354,-1.090356102185327
1687105305.032346,0.9437471032142639,0.3269748389720917,-0.04928584396839142,-0.009695470333099365,0.3768520653247833,-0.044448669999837875,-5.751181125640869,-1.400079369544983,-0.46887147426605225,1.5186201556962278,-0.3331006718562246,-0.7172305420485754
1687105305.067724,0.9338745474815369,0.3556741178035736,-0.037072475999593735,0.02001345157623291,0.0774160623550415,-0.07910770177841187,-3.563138723373413,-1.206438422203064,-0.42782503366470337,1.5311196686651254,-0.363635240410992,-0.4795880239628074
1687105305.114392,0.9245827198028564,0.3798331022262573,-0.029562318697571754,-0.10132509469985962,-0.10937106609344482,0.17897653579711914,-2.081120491027832,-0.6564068794250488,-0.34314119815826416,1.538833527855797,-0.38961586804644865,-0.32916089996092496
1687105305.1804729,0.9177238345146179,0.3968680500984192,-0.016714317724108696,0.05819809436798096,-0.19943451881408691,0.07141727209091187,-1.6522998809814453,-0.3128441572189331,-0.2919851541519165,1.552585543127313,-0.4081021375792636,-0.23351929750070957
1687105305.2311912,0.9140818119049072,0.4055299162864685,-0.0004576275823637843,0.0567283034324646,-0.070218026638031,0.07644659280776978,-0.9195149540901184,-0.18974384665489197,-0.09382478147745132,1.5702956850121874,-0.41755846690691195,-0.1605729930081268
1687105305.268328,0.9136557579040527,0.4064723253250122,0.003696642117574811,-0.0018972158432006836,-0.07271689176559448,0.030635833740234375,-0.3652869164943695,-0.13393911719322205,0.0498073548078537,1.5748422946752227,-0.418589719216284,-0.12691375229527813
1687105305.330364,0.914569079875946,0.4044276177883148,0.0014553291257470846,-0.009799003601074219,0.018256068229675293,0.015848278999328613,0.151940256357193,-0.033384013921022415,0.03385794907808304,1.5723875985092528,-0.41635287942537097,-0.12338122538930114
1687105305.369729,0.9153803586959839,0.40259021520614624,0.00047664481098763645,-0.01323479413986206,0.015668392181396484,0.03573262691497803,0.13962367177009583,0.05252467840909958,0.04083329811692238,1.571317033598897,-0.41434475952331423,-0.12827292672221555
1687105305.426402,0.9157727956771851,0.40169641375541687,0.0006669331341981888,0.030363798141479492,0.012137115001678467,-0.0046340227127075195,0.04365452751517296,0.025568071752786636,0.011976614594459534,1.5715246002447505,-0.41336853558353626,-0.13429791151960382
1687105305.4681659,0.9157388210296631,0.40176650881767273,0.002549689030274749,-0.01803356409072876,0.06368762254714966,0.01838552951812744,0.24193193018436432,0.0434737466275692,-0.021538734436035156,1.5735806168550224,-0.4134450726793836,-0.1410216088299142
1687105305.54043,0.914941668510437,0.4035799503326416,0.002271090168505907,-0.002160787582397461,0.008208930492401123,-0.003934144973754883,0.063306525349617,0.04677566885948181,-0.03067164495587349,1.573278545501937,-0.41542625272531386,-0.1481905007202305
1687105305.5779018,0.9134676456451416,0.4068911671638489,0.0040985033847391605,0.006866395473480225,0.004775673151016235,-0.02864968776702881,0.03960838541388512,0.025874603539705276,-0.042827777564525604,1.575283049445802,-0.4190481646999845,-0.14967452723233962
1687105305.631057,0.9125004410743713,0.40907442569732666,0.001142225693911314,0.006033062934875488,0.012007057666778564,-0.016110897064208984,0.13404861092567444,0.004151242785155773,-0.05593731999397278,1.5720480797065914,-0.4214395103769336,-0.15687822254114905
1687105305.670603,0.9115052819252014,0.4112871587276459,-0.0011558011174201965,-0.0013335943222045898,-0.02917659282684326,-0.0313451886177063,-0.024950100108981133,-0.01849059760570526,-0.02875922992825508,1.5695283138927212,-0.4238657278986651,-0.1584899490489446
1687105305.732349,0.9110743999481201,0.41223445534706116,-0.0025411949027329683,0.0005925893783569336,-0.026431292295455933,-0.00678175687789917,-0.09157945960760117,-0.024977214634418488,-0.01668831892311573,1.5680071053409148,-0.42490524978891786,-0.15736429236828467
1687105305.7723,0.9115755558013916,0.4111078083515167,-0.004545737057924271,0.006759583950042725,-0.005056172609329224,-0.004212677478790283,-0.007179094012826681,-0.04741179570555687,0.020844608545303345,1.5658096864611588,-0.4236689684231201,-0.1549881785579005
1687105305.832364,0.9123756885528564,0.40930524468421936,-0.006355011835694313,-0.010275781154632568,0.008617758750915527,0.0184401273727417,0.07032182067632675,-0.01292017474770546,0.021011989563703537,1.5638310940921176,-0.4216924798658315,-0.15578163485550484
1687105305.8720999,0.9125218987464905,0.4089662432670593,-0.007128243800252676,-0.009720206260681152,0.005630314350128174,0.011797606945037842,-0.08985799551010132,0.010984980501234531,-0.00585398031398654,1.5629848993098103,-0.4213209526222726,-0.15803103152955716
1687105305.9158149,0.9122510552406311,0.40962356328964233,-0.0026151228230446577,-0.0031170248985290527,0.030226290225982666,0.00343930721282959,-0.18962666392326355,-0.012700019404292107,-0.018598537892103195,1.5679296645230836,-0.42204136926190366,-0.14793902750854568
1687105305.984264,0.9101410508155823,0.4142847955226898,-0.0034208002034574747,-0.06089770793914795,0.1850498914718628,-0.08726197481155396,-0.15552382171154022,-0.16488036513328552,-0.24005649983882904,1.5670378058879666,-0.42715685776544093,-0.14273968599711406
1687105306.023293,0.9015006422996521,0.4326258599758148,-0.011483182199299335,-0.19091391563415527,0.4067296087741852,0.03399008512496948,-0.4459950923919678,-0.27431294322013855,-0.6195071339607239,1.558059162556729,-0.44740326627942223,-0.13100016681751644
1687105306.066572,0.8813504576683044,0.47246378660202026,6.483728066086769e-05,0.1935400366783142,0.494806170463562,0.014965295791625977,-1.347818374633789,-0.24339668452739716,-1.1588159799575806,1.5708698926277314,-0.4920841549532072,-0.0775590279585297
1687105306.1337519,0.8451545238494873,0.5342522859573364,0.01698938198387623,0.046615004539489746,0.6963232755661011,0.02004396729171276,-0.1575464904308319,-0.07987579703330994,-1.7438124418258667,1.590895721188991,-0.5636229401591637,-0.01898973741562554
1687105306.172797,0.781119167804718,0.6243122220039368,0.009361560456454754,0.20729970932006836,0.6875775456428528,0.0851210355758667,0.24902792274951935,0.17532925307750702,-2.630676746368408,1.5827805575645013,-0.6742507861935958,-0.0392283694432828
1687105306.2190309,0.677873969078064,0.7341686487197876,0.03851703181862831,0.3776681423187256,0.5414050817489624,0.026912923902273178,-0.45077812671661377,0.6790052652359009,-3.381065607070923,1.627555637928362,-0.8244414547038016,-0.0037167697802778414
1687105306.296154,0.5269115567207336,0.8489736914634705,0.040103085339069366,0.5952046513557434,0.5935465693473816,0.020291324704885483,1.2242858409881592,0.7726011872291565,-4.086737155914307,1.6467595880778714,-1.0140400333546042,-0.027647983800890733
1687105306.333863,0.3294978439807892,0.9441179633140564,0.008528600446879864,0.8219610452651978,0.2977796792984009,0.03601205348968506,0.779013991355896,0.42221421003341675,-4.581088066101074,1.5966741782217793,-1.2349082694136788,-0.11563232700735368
1687105306.377063,0.0957518070936203,0.9950628876686096,-0.026114478707313538,0.9063540697097778,0.2521449327468872,0.053092241287231445,0.644882321357727,0.2922540307044983,-4.995359897613525,1.3045408745836364,-1.4713862498216081,-0.4320138554964727
1687105306.428972,-0.1656711995601654,0.9848280549049377,-0.05164225399494171,0.9952000975608826,0.2181139588356018,0.05095577612519264,0.589449405670166,0.2688371539115906,-5.417576313018799,-1.2686264751148824,-1.3963804875515033,-3.0240759739407306
1687105306.470731,-0.4246281385421753,0.9009709358215332,-0.08912088721990585,1.0423344373703003,0.12474024295806885,0.09815425425767899,0.8010963797569275,0.0913313552737236,-5.401743412017822,-1.3639192172767514,-1.1220021802758873,-3.1330138017410256
1687105306.529623,-0.6491431593894958,0.7526974081993103,-0.10981788486242294,0.9725685119628906,0.014789283275604248,0.057495661079883575,0.15528278052806854,-0.009168867953121662,-5.337596893310547,-1.4032094699901165,-0.852149675405626,3.101316993765586
1687105306.5690088,-0.8243860602378845,0.5533003807067871,-0.11935947835445404,0.8853601217269897,0.15934628248214722,0.02521294355392456,0.4320312738418579,-0.04590224474668503,-5.321425437927246,-1.4270096025113364,-0.5863211847820484,3.064920964283094
1687105306.622356,-0.941304624080658,0.3143668472766876,-0.12296009808778763,0.772878110408783,0.20910128951072693,0.06511421501636505,-0.18455654382705688,-0.06577036529779434,-5.3609089851379395,-1.4409044854547255,-0.3197896117043304,3.0382807463889216
1687105306.733526,-0.9916689395904541,0.05314816161990166,-0.11733807623386383,0.749435544013977,0.2729017436504364,-0.01695440709590912,-0.34858596324920654,0.04034728556871414,-5.434662818908691,-1.453020089725827,-0.05317321604520692,2.9808346937582333
1687105306.7491531,-0.9690022468566895,-0.21630416810512543,-0.11936309188604355,0.7123644948005676,0.2287706583738327,-0.009848177433013916,0.2125343531370163,0.02127636782824993,-5.359402656555176,-1.4482323147516076,0.21802742170600253,2.954177893666404
1687105306.78027,-0.877511203289032,-0.46004441380500793,-0.13540248572826385,0.6218498945236206,0.09432172775268555,0.1099662035703659,-1.0745327472686768,0.2876209318637848,-5.167263031005859,-1.4177008859544278,0.47804521159809604,2.888561080324897
1687105306.821418,-0.7348299026489258,-0.6554815769195557,-0.17426717281341553,0.5984314680099487,0.13204413652420044,-0.04439114034175873,-0.3547501266002655,0.36558037996292114,-4.7331719398498535,-1.3379449544317874,0.7148201412654169,2.7793735699831443
1687105306.8704572,-0.5736845135688782,-0.8001543879508972,-0.1750406175851822,0.5235897898674011,-0.04966861009597778,7.227063179016113e-06,0.6234164237976074,0.23089581727981567,-3.945200204849243,-1.2746521413333392,0.9275526071185083,2.710741787245687
1687105306.9773169,-0.41831159591674805,-0.891587495803833,-0.1734573394060135,0.4664376676082611,-0.10423171520233154,0.08646708726882935,0.12567482888698578,0.31720542907714844,-3.1371967792510986,-1.1777157423156057,1.1008387823851145,2.613608753783065
1687105306.993051,-0.2881149351596832,-0.9437282085418701,-0.16237981617450714,0.4059584140777588,-0.13715875148773193,0.120402991771698,0.5755059123039246,0.47063589096069336,-2.416099786758423,-1.057576306287423,1.2337276778233461,2.503663547309658
1687105307.0434241,-0.1887771338224411,-0.9719855785369873,-0.14002680778503418,0.19733721017837524,-0.26803529262542725,0.06011664867401123,0.5332481861114502,0.5056732296943665,-1.5657236576080322,-0.9325915071731372,1.3335361748714838,2.4001532091093436
1687105307.085774,-0.12674927711486816,-0.9832020401954651,-0.13133424520492554,0.09758961200714111,-0.30267149209976196,-0.05039781332015991,-0.22210444509983063,0.27202463150024414,-0.8861073851585388,-0.7676345774062319,1.387246902407429,2.252570342477125
1687105307.1314368,-0.10203171521425247,-0.9876090288162231,-0.11923951655626297,0.003551401197910309,-0.26161283254623413,-0.1182328388094902,1.3583722114562988,0.09045863151550293,-0.25101351737976074,-0.7077864407775198,1.4132104996863109,2.199491510104037
1687105307.1752682,-0.09677152335643768,-0.9934391975402832,-0.060942668467760086,-0.04348736256361008,-0.2630000710487366,-0.0696876049041748,0.3718385100364685,-0.041410982608795166,0.06424880772829056,-1.0087826317309583,1.4561842579464013,2.504802362708142
1687105307.251556,-0.09977025538682938,-0.9932886958122253,-0.05851146951317787,-0.00920809805393219,0.012056946754455566,-0.02245151251554489,-0.12744052708148956,-0.08148465305566788,0.07164514064788818,-1.0403906658423565,1.4548752662296243,2.5319169407073323
1687105307.290196,-0.10280578583478928,-0.993050217628479,-0.05729380249977112,0.025336802005767822,0.04413652420043945,0.015118718147277832,0.18856404721736908,0.003921789117157459,0.03855889290571213,-1.0623647626572466,1.4528314137790288,2.552301689548285
1687105307.3275418,-0.10427521169185638,-0.9932571053504944,-0.05066893994808197,-0.012271523475646973,-0.005140900611877441,0.014963507652282715,-0.03697773441672325,0.02392699010670185,0.02256814017891884,-1.1184796628678004,1.4546023861364288,2.6094384872371696
1687105307.403374,-0.10520734637975693,-0.9928674697875977,-0.05608661100268364,-0.003465816378593445,-0.00862795114517212,0.008845575153827667,-0.09104949235916138,-0.011575810611248016,0.021290821954607964,-1.081016426711222,1.4512886825053282,2.5723390827724413
1687105307.438922,-0.10630954056978226,-0.9926595091819763,-0.057668883353471756,-0.010664455592632294,-0.0026103854179382324,0.011144999414682388,-0.06981371343135834,-0.031140590086579323,0.00724997092038393,-1.0737588824948967,1.4495570977119625,2.5635292832423415
1687105307.5127568,-0.10694406926631927,-0.9925503134727478,-0.05837292969226837,0.004374384880065918,0.0019953250885009766,-0.002143263816833496,-0.07061345875263214,-0.0240163691341877,0.02580980584025383,-1.071162843545548,1.448657205839192,2.5593046583900523
1687105307.54946,-0.10836642235517502,-0.9922369718551636,-0.061016153544187546,0.010664284229278564,-0.003002464771270752,0.0024225711822509766,-0.054150331765413284,-0.004108484834432602,0.023719891905784607,-1.0579860737568638,1.4461118599802665,2.544866784266977
1687105307.5795069,-0.11034861207008362,-0.9919293522834778,-0.06244702637195587,-0.005206286907196045,-0.020796597003936768,0.006722092628479004,-0.058188747614622116,0.013892198912799358,0.09354244917631149,-1.0558226928946521,1.443662442630776,2.543298972374581
1687105307.632811,-0.11801543831825256,-0.9911113977432251,-0.06140816956758499,0.05385209619998932,-0.046440720558166504,-0.032067008316516876,0.07419698685407639,-0.03527430444955826,0.2230665385723114,-1.091009341094902,1.4373663840154853,2.5785018637522463
1687105307.698386,-0.13339754939079285,-0.9888325333595276,-0.0664520338177681,0.037206023931503296,-0.05630314350128174,0.03448498249053955,-0.45188653469085693,-0.019111113622784615,0.3918231427669525,-1.1086295223788796,1.4212079539493532,2.594309511906588
1687105307.7473888,-0.1586366593837738,-0.9821167588233948,-0.10139781981706619,0.06439825892448425,-0.05647289752960205,0.017962932586669922,-0.9886450171470642,-0.03849763795733452,0.7465808391571045,-1.0020631139557816,1.3813930044258476,2.486203118706559
1687105307.779105,-0.22041913866996765,-0.9632128477096558,-0.1537424772977829,0.2789669930934906,-0.3534681797027588,-0.10033148527145386,-0.5558299422264099,-0.4603862464427948,1.881837010383606,-0.9617498117022747,1.2987119631249058,2.435483882392129
1687105307.863875,-0.3529141843318939,-0.9208467602729797,-0.16581089794635773,0.5650874972343445,-0.5681823492050171,-0.09854745864868164,-0.9643303751945496,-1.014671802520752,3.4130380153656006,-1.1315718551472758,1.1702464898338525,2.5748040270717034
1687105307.894994,-0.5415471792221069,-0.8168041110038757,-0.19889205694198608,0.6968204379081726,-0.3537434935569763,0.04950869083404541,-1.661426305770874,-1.5362848043441772,4.5669355392456055,-1.2188230028732414,0.9558494582239893,2.5987901933252107
1687105307.9310222,-0.7381351590156555,-0.6446475982666016,-0.1989629566669464,0.8011080026626587,-0.18128013610839844,0.09924691915512085,-1.1917600631713867,-1.8883659839630127,5.0393967628479,-1.307505704958725,0.7005622141920806,2.6024109466193037
1687105307.9958282,-0.8938019275665283,-0.4240325391292572,-0.145995631814003,0.7795745134353638,0.011205971240997314,0.17770355939865112,-0.7809778451919556,-1.9888983964920044,5.1842193603515625,-1.408883945949292,0.4378933658731494,2.6078110716792855
1687105308.035358,-0.9826090931892395,-0.1755334436893463,-0.06056034192442894,0.789402186870575,0.05765937268733978,0.09319907426834106,-0.24090370535850525,-1.9468722343444824,5.1817708015441895,-1.5092420061440437,0.1764476000063219,2.6123116137178792
1687105308.0781798,-0.9956720471382141,0.08858606964349747,0.02811172418296337,0.7550101280212402,0.03818405419588089,0.09780406951904297,0.5427202582359314,-1.5693284273147583,5.310847759246826,-1.5990227477117627,-0.08870234273402518,2.622303107378146
1687105308.1702452,-0.932753324508667,0.3499644994735718,0.08658113330602646,0.7499834895133972,0.12643024325370789,0.05145012587308884,0.6367418169975281,-1.1781485080718994,5.304096221923828,-1.6633542888245814,-0.35753320837486097,2.6511516092684393
1687105308.185816,-0.8035249710083008,0.5815114974975586,0.12724906206130981,0.669796884059906,0.14605814218521118,0.04580114781856537,0.2824127674102783,-0.9667854309082031,5.253842830657959,-1.7278555710931816,-0.6205853939971964,2.621566204551081
1687105308.252734,-0.6155676245689392,0.7759748697280884,0.13762222230434418,0.5695471167564392,0.09992551803588867,0.022000178694725037,0.35774773359298706,-0.7543148398399353,5.215188980102539,-1.790748890498654,-0.8882591373674995,2.5941604088396644
1687105308.31409,-0.4001803398132324,0.9031033515930176,0.1557571142911911,0.6238590478897095,0.2852360010147095,-0.027674689888954163,0.17240078747272491,-0.7816004157066345,4.7653632164001465,-1.9419728670670968,-1.1269422319370772,2.459301059439282
1687105308.3529391,-0.17539159953594208,0.9712419509887695,0.1610187441110611,0.44440412521362305,0.25481706857681274,-0.047050610184669495,-0.46460577845573425,-0.729124903678894,4.524932861328125,-2.3134962723501182,-1.3303927497576935,2.107479766344392
1687105308.4222589,0.048075105994939804,0.9752429127693176,0.21584895253181458,0.44078606367111206,0.3152236342430115,-0.028318136930465698,-1.2033569812774658,-0.8764322400093079,4.258155345916748,2.9224439977052876,-1.3478169652847973,1.071979516372964
1687105308.502682,0.25734856724739075,0.938488245010376,0.23024296760559082,0.34628918766975403,0.3820837140083313,0.022030815482139587,0.21282464265823364,-0.9786606431007385,3.960710048675537,2.300660846882888,-1.2182260448356235,0.4799156488415831
1687105308.518332,0.4364010989665985,0.8770155310630798,0.2009926438331604,0.35539281368255615,0.40666061639785767,0.05443975329399109,0.24581028521060944,-0.7702680230140686,3.4834330081939697,2.0024042620855824,-1.0696148860619394,0.2028194355948941
1687105308.5494719,0.5783810615539551,0.7971091270446777,0.17347189784049988,0.23083841800689697,0.48440021276474,0.020986303687095642,0.14374276995658875,-0.8367967009544373,2.9260199069976807,1.862185838627806,-0.9224924938287387,0.08536849171287057
1687105308.5963778,0.6869807839393616,0.7118862271308899,0.1458619385957718,0.16333061456680298,0.4664127826690674,0.09541022777557373,0.07952570915222168,-0.7183710336685181,2.4330732822418213,1.7800125228030972,-0.7921803656705337,0.02630573599251792
1687105308.636781,0.766380250453949,0.6310596466064453,0.12010449171066284,0.1453019380569458,0.3969859480857849,0.1267370879650116,-0.04102654010057449,-0.6976460814476013,1.9785857200622559,1.7262484947598442,-0.6829184174774244,-0.0023399034160778457
1687105308.680521,0.8240200281143188,0.5587612986564636,0.09368809312582016,0.032990097999572754,0.3899845480918884,0.11784470826387405,0.4344656765460968,-0.42656007409095764,1.6254178285598755,1.6840065564622912,-0.5928914252160702,-0.02696389529324171
1687105308.76792,0.8628835678100586,0.501168966293335,0.06528127938508987,-0.0022573471069335938,0.3544217348098755,0.14254353940486908,0.6190187335014343,-0.16860726475715637,1.228240728378296,1.6463072765529434,-0.5249490869873772,-0.07024576529812387
1687105308.8024302,0.8882730007171631,0.456876277923584,0.047282006591558456,-0.02131420373916626,0.3947319984436035,0.09213769435882568,0.5683832764625549,-0.027262739837169647,0.8491873741149902,1.6239752798399083,-0.47448037160505885,-0.10627648820924089
1687105308.828617,0.901684045791626,0.43102511763572693,0.034407153725624084,-0.0409964919090271,0.42340609431266785,0.005220059305429459,0.5103199481964111,0.040786441415548325,0.33941012620925903,1.6089365901609236,-0.44562854706964317,-0.14090748883473325
1687105308.904203,0.9034338593482971,0.42793309688568115,0.026096051558852196,-0.028647243976593018,0.34767112135887146,-0.004764080047607422,0.6582322120666504,0.12336601316928864,-0.1446220576763153,1.5996737019116058,-0.44220465370330553,-0.17286266225476535
1687105308.943682,0.8972215056419373,0.44117870926856995,0.018855206668376923,-0.012364029884338379,0.13651910424232483,0.0019885320216417313,0.3046933114528656,0.06947541236877441,-0.34601062536239624,1.5918083420251945,-0.45691168668725063,-0.2027106298478325
1687105308.9784908,0.8887205123901367,0.45807233452796936,0.018596313893795013,0.016278386116027832,0.007351219654083252,0.003330705687403679,-0.10460125654935837,-0.02357969805598259,-0.3783227503299713,1.5917180908824127,-0.47582541533804595,-0.2044591573565608
1687105309.0717,0.8806471228599548,0.47334882616996765,0.02004147134721279,0.011137604713439941,-0.08321219682693481,-0.0023410338908433914,-0.123822882771492,-0.01995915360748768,-0.3092356324195862,1.5935500632090778,-0.4930886244884395,-0.1968555556699933
1687105309.086842,0.8742861747741699,0.48485830426216125,0.02315845713019371,0.02309858798980713,-0.13115963339805603,-0.02360081858932972,-0.2143450677394867,-0.030701035633683205,-0.20640091598033905,1.597278552265596,-0.5062011583325136,-0.18673690612669927
1687105309.142324,0.870758593082428,0.4909980893135071,0.026469850912690163,-0.0009464621543884277,-0.09265217185020447,-0.006083967164158821,-0.19319237768650055,-0.033138204365968704,-0.09295086562633514,1.6011855792844594,-0.5132350947897977,-0.17542417217405865
1687105309.194798,0.8699244260787964,0.49229681491851807,0.029592903330922127,0.0007880330085754395,-0.07501471042633057,-0.00020420551300048828,-0.17383384704589844,-0.02237916924059391,0.004801393952220678,1.6048009996815593,-0.514726506298442,-0.16298589252127774
1687105309.233016,0.871006429195404,0.49034079909324646,0.030234048143029213,0.010020971298217773,-0.04536396265029907,-0.03102731704711914,0.028723247349262238,-0.01568506844341755,0.05652311071753502,1.605494019683251,-0.512480728556863,-0.16002246282466048
1687105309.3068461,0.8732432126998901,0.4864620268344879,0.028306543827056885,-0.0029427409172058105,-0.02386137843132019,-0.007539154961705208,0.03927815333008766,-0.028450265526771545,0.0962834358215332,1.6032003989195416,-0.5080357759813423,-0.1625489570650876
1687105309.3693352,0.8762136697769165,0.48125553131103516,0.025353744626045227,-0.0047231316566467285,0.01648607850074768,-0.015816930681467056,-0.01777607761323452,-0.03434284031391144,0.0943593755364418,1.5997238299207979,-0.5020864679700292,-0.16577525792510184
1687105309.3852391,0.8784418106079102,0.47721999883651733,0.024527806788682938,-0.009545087814331055,0.03938162326812744,-0.0023260079324245453,-0.005603301338851452,-0.022736363112926483,0.06620702892541885,1.598711022555924,-0.497488532237137,-0.164327850276975
1687105309.445109,0.879253625869751,0.47583016753196716,0.022343022748827934,-0.0017052292823791504,0.038848817348480225,-0.0026590824127197266,0.0455445721745491,-0.01789766550064087,0.03525257483124733,1.5962022101427242,-0.4959076671595382,-0.1650391189385281
1687105309.486186,0.878857433795929,0.47663024067878723,0.020824577659368515,-0.0009123086929321289,0.01847168803215027,-0.008754730224609375,-0.019251469522714615,-0.005489733070135117,-0.020266607403755188,1.5944869511079158,-0.4968175506383529,-0.16760597452539064
1687105309.55825,0.8781387805938721,0.47800520062446594,0.019588826224207878,0.0016984343528747559,0.014563798904418945,-0.0004845857620239258,-0.008501086384057999,-0.029510604217648506,-0.0029849568381905556,1.5930998370078615,-0.49838223312629887,-0.166583538627073
1687105309.594864,0.8776153922080994,0.47898805141448975,0.019033659249544144,0.0035646557807922363,-0.001845717430114746,0.0032444000244140625,-0.06118267402052879,-0.02110278233885765,-0.015614865347743034,1.5924808548832268,-0.4995015472922051,-0.1641081718418046
1687105309.6672091,0.8770272731781006,0.48005756735801697,0.019186167046427727,-0.00039446353912353516,-0.0014962553977966309,0.007608411833643913,0.013835377991199493,-0.009363234043121338,-0.0091650215908885,1.5926692011258206,-0.5007203351444075,-0.16264001251178867
1687105309.704711,0.8769278526306152,0.48017141222953796,0.020816415548324585,0.003931701183319092,-0.02707695960998535,0.01606428623199463,-0.18326197564601898,-0.006090497598052025,-0.005563695915043354,1.5945297579817277,-0.5008501135439504,-0.15817899664318305
1687105309.744215,0.8770549297332764,0.47980397939682007,0.023726608604192734,0.007283568382263184,0.006463080644607544,-0.006758691743016243,-0.007367911748588085,0.013356592506170273,0.010981392115354538,1.5978423220415368,-0.5004312649272709,-0.15218701359175515
1687105309.803053,0.8773643970489502,0.47912657260894775,0.02588191255927086,0.002274453639984131,-0.006256699562072754,0.004910588264465332,-0.055655017495155334,0.011127792298793793,0.007045240607112646,1.6002873891468854,-0.4996593612104295,-0.1495817189000764
1687105309.844051,0.8778539896011353,0.47822296619415283,0.02598867192864418,0.002639293670654297,0.01111111044883728,-0.006197812035679817,-0.021222207695245743,-0.0024321135133504868,0.023175807669758797,1.600392460549596,-0.498630181822525,-0.14908492680462462
1687105309.881552,0.8781839609146118,0.4775799512863159,0.02665541134774685,0.007161557674407959,0.017293035984039307,-0.007825855165719986,0.020212849602103233,0.004533029161393642,-0.0015066363848745823,1.6011398894922777,-0.4978981619290914,-0.14727206791709094
1687105309.9668632,0.8779526948928833,0.4780678451061249,0.02550319768488407,0.00222015380859375,0.005010068416595459,-0.020269278436899185,0.034311357885599136,0.013116197660565376,-0.00757258478552103,1.5998366484834061,-0.49845357888391156,-0.15025767281411923
1687105309.985528,0.8775557279586792,0.478781133890152,0.025792434811592102,0.008522510528564453,-0.0017760396003723145,-0.008046265691518784,-0.024893641471862793,-0.007234613876789808,-0.011046677827835083,1.6001790902803792,-0.4992658381972474,-0.14930396853256642
1687105310.0610619,0.8774168491363525,0.47917553782463074,0.02304541878402233,0.0074405670166015625,0.0036736130714416504,-0.01765882968902588,0.0851532369852066,-0.02608393505215645,-0.004205017350614071,1.5970553641867418,-0.4997151430872886,-0.15255160186984792
1687105310.097394,0.8773895502090454,0.4793129861354828,0.02113618329167366,0.003988683223724365,-0.015094906091690063,-0.007342102006077766,-0.039229173213243484,-0.027249135076999664,-0.005717093590646982,1.5948815199731596,-0.49987176677658757,-0.15326842051266992
1687105310.1407552,0.8772907853126526,0.4795978367328644,0.018629619851708412,0.0030652284622192383,0.004868686199188232,-0.0017684698104858398,0.07902716100215912,-0.037275027483701706,-0.009542924351990223,1.5920285349501915,-0.5001963402807746,-0.15529513414893786
1687105310.182442,0.8771570324897766,0.47990190982818604,0.017022335901856422,-0.0006616115570068359,-0.007688254117965698,-0.005990032106637955,-0.06782672554254532,-0.03575249761343002,-0.019502880051732063,1.590200149796384,-0.5005429191385885,-0.15546351899931452
1687105310.263114,0.876078724861145,0.4818764328956604,0.0167872104793787,-0.016703426837921143,0.08248516917228699,-0.025667665526270866,-0.2361622154712677,-0.1152740865945816,-0.10627226531505585,1.5899557425246433,-0.5027949239341096,-0.14845847193545741
1687105310.309387,0.8708500266075134,0.49116042256355286,0.0195364598184824,-0.05500835180282593,0.28490149974823,-0.008778933435678482,-0.548487663269043,-0.2184903770685196,-0.3569193482398987,1.5932263478444135,-0.5134214509218555,-0.12354407674958842
1687105310.349901,0.8555781841278076,0.5169997215270996,0.02641322650015354,-0.020922303199768066,0.5410294532775879,0.03497302532196045,-0.5657632946968079,-0.13757865130901337,-0.9076725244522095,1.601658309806739,-0.5433421725741021,-0.08906605994397745
1687105310.392086,0.8200075626373291,0.5712985396385193,0.034726642072200775,0.028625428676605225,0.5936185121536255,0.051119446754455566,-0.233096644282341,0.11184263974428177,-1.7260650396347046,1.61312021147956,-0.6080871370000076,-0.06491808393614529
1687105310.446876,0.7554231882095337,0.6529650092124939,0.05452430620789528,0.15470272302627563,0.5578962564468384,0.07181859016418457,-0.6238085031509399,0.3616957366466522,-2.478496789932251,1.6428485498599117,-0.7114926297123946,-0.036057239289233274
1687105310.488702,0.6548199653625488,0.7493305802345276,0.09856458008289337,0.296916663646698,0.44886595010757446,0.02852606773376465,-0.5637875199317932,0.5762757062911987,-3.109748125076294,1.7201964129513672,-0.8470505577459944,0.0425982456896425
1687105310.567492,0.5156346559524536,0.8487961292266846,0.11690369993448257,0.46477317810058594,0.3546341061592102,0.013574361801147461,0.39441704750061035,0.6173282265663147,-3.6085703372955322,1.7937454512881092,-1.0137041789006802,0.095665539700755
1687105310.609421,0.3401303291320801,0.93449467420578,0.10503154993057251,0.5567509531974792,0.24772602319717407,0.04326881468296051,0.6690552830696106,0.6277145743370056,-4.021347999572754,1.8703049676979022,-1.2068368525517634,0.14373081392928513
1687105310.647227,0.13906772434711456,0.9885851740837097,0.05796358734369278,0.6361246109008789,0.23436105251312256,0.03238391503691673,1.5605580806732178,0.5268954634666443,-4.197247505187988,1.9657020114502768,-1.4195575567071765,0.21158856122906433
1687105310.704445,-0.08147478103637695,0.9966621398925781,-0.005196357145905495,0.7495809197425842,0.09023690223693848,0.08733463287353516,1.1319561004638672,0.2308018058538437,-4.497978210449219,-1.5071038760312219,-1.4890682866180793,3.0041136105103017
1687105310.742234,-0.3013455271720886,0.9499918818473816,-0.08189337700605392,0.6851499080657959,0.17323821783065796,0.052184708416461945,1.7628885507583618,0.009381979703903198,-4.552175521850586,-1.3054456729265564,-1.2532099660340137,-3.082071435779458
1687105310.805754,-0.5086454153060913,0.8455626964569092,-0.16218453645706177,0.6999295949935913,0.20517289638519287,0.09594632685184479,1.7759166955947876,-0.36632755398750305,-4.5409159660339355,-1.262131642723945,-1.0076182941896747,-3.024369864954806
1687105310.868235,-0.6917519569396973,0.6953221559524536,-0.19495224952697754,0.6893715858459473,0.16219133138656616,0.025091543793678284,1.0643283128738403,-0.6478660106658936,-4.572193622589111,-1.2960970837864967,-0.7688680852992678,-3.0342841163978047
1687105310.8847818,-0.8384541273117065,0.5062811970710754,-0.20167852938175201,0.6340779066085815,0.2201898694038391,0.042651548981666565,1.0225143432617188,-0.7604358792304993,-4.642367362976074,-1.3347444603597636,-0.5308669811056806,-3.0393987657635657
1687105310.936604,-0.9401301741600037,0.28806909918785095,-0.18213149905204773,0.6371973156929016,0.237687885761261,-0.010708928108215332,0.9560697674751282,-0.9213855266571045,-4.658937454223633,-1.379436735834996,-0.29220983571455533,-3.0433221019462984
1687105310.999121,-0.9882913827896118,0.05628795549273491,-0.14181706309318542,0.6169381141662598,0.17878903448581696,0.04823505878448486,0.7440932989120483,-1.0611463785171509,-4.55436372756958,-1.428272062406229,-0.05631772046586053,-3.0402782421772754
1687105311.038974,-0.9815556406974792,-0.17064985632896423,-0.08618418872356415,0.5360292196273804,0.1522630751132965,0.032458119094371796,-0.4014683663845062,-1.1291569471359253,-4.515714168548584,-1.4832172540187945,0.17148916330819414,-3.052726645099873
1687105311.111803,-0.922098696231842,-0.3842003047466278,-0.04609108716249466,0.4681342840194702,0.1615745723247528,0.03129023313522339,-0.6484137177467346,-0.9374987483024597,-4.416003704071045,-1.5208529117501497,0.3943414762526031,-3.10671919091152
1687105311.163456,-0.8189701437950134,-0.5733785033226013,-0.022918634116649628,0.4313051700592041,0.05128377676010132,0.04260265827178955,-0.949727475643158,-0.7975752353668213,-4.289427280426025,-1.5428189299764665,0.610623658304382,3.1279421386227475
1687105311.206891,-0.6863635778427124,-0.726291835308075,-0.037491533905267715,0.3644945025444031,0.019123196601867676,0.06024259328842163,-1.4977105855941772,-0.4923858344554901,-3.8415298461914062,-1.516227125537357,0.8129118479777038,3.037940812020842
1687105311.2471309,-0.5483543276786804,-0.8332970142364502,-0.07017083466053009,0.3651876449584961,-0.06880271434783936,0.008739173412322998,-0.23079833388328552,-0.28808924555778503,-3.2305667400360107,-1.4435218201397184,0.9850450416995449,2.9196560672912724
1687105311.350451,-0.4250991642475128,-0.9037550091743469,-0.05018139258027077,0.3470350205898285,-0.1977008581161499,0.0751144289970398,0.4921220541000366,-0.11156994104385376,-2.3840556144714355,-1.4532937872419802,1.128462188728972,2.9181899714743396
1687105311.368658,-0.3298286497592926,-0.9433536529541016,-0.03601641580462456,0.23320987820625305,-0.1787472367286682,0.10960972309112549,-0.019175834953784943,0.14408442378044128,-1.677607774734497,-1.4620299172522933,1.2325971097950457,2.9289298732462434
1687105311.405294,-0.2639254927635193,-0.963615357875824,-0.042296506464481354,0.15860924124717712,-0.10472887754440308,0.07498103380203247,0.06533558666706085,0.30063527822494507,-1.1475211381912231,-1.4118882802027457,1.3002138276549633,2.8879093258980775
1687105311.462594,-0.21573437750339508,-0.9755663275718689,-0.041585374623537064,0.06361941993236542,-0.06753987073898315,0.00017321482300758362,-0.04617336392402649,0.2256447672843933,-0.8307496309280396,-1.3803700515759543,1.3492840328501876,2.8702121557376974
1687105311.513731,-0.18514695763587952,-0.9803173542022705,-0.06854655593633652,-0.0032991915941238403,-0.17704659700393677,-0.11286502331495285,-0.2318151295185089,-0.023089654743671417,-0.3606225252151489,-1.2162160258822579,1.3720625174719892,2.7052478770931594
1687105311.557462,-0.16257481276988983,-0.9865787625312805,-0.015229850076138973,-0.01235206425189972,0.07138705253601074,0.05153071880340576,1.7039141654968262,0.13561731576919556,-0.448394238948822,-1.4773899029593915,1.406775925866035,2.972564055371747
1687105311.6015491,-0.14241351187229156,-0.989621102809906,0.019211245700716972,-0.035504117608070374,-0.1645386815071106,-0.0038759689778089523,0.05011002719402313,0.018846478313207626,-0.2638063430786133,-1.7048845249391689,1.4265959181068724,-3.0769367637935576
1687105311.676478,-0.1354997456073761,-0.9900960326194763,0.03673877939581871,0.056276023387908936,-0.04470926523208618,-0.025157220661640167,0.6956413388252258,0.017315026372671127,-0.1551085114479065,-1.8355661240053438,1.4299392774510018,-2.9442642525875242
1687105311.716356,-0.13018059730529785,-0.9893518090248108,0.06508685648441315,-0.029929950833320618,-0.06323009729385376,-0.0151752308011055,0.3041854202747345,-0.04362577944993973,-0.053089071065187454,-2.034422786255877,1.4247336075029828,-2.7430278669290487
1687105311.793775,-0.127363383769989,-0.9892661571502686,0.0716324895620346,-0.018373414874076843,-0.03504115343093872,0.017418019473552704,-0.05269651114940643,0.010180572979152203,-0.072067491710186,-2.083129640919406,1.424146601884803,-2.6945177337375794
1687105311.8103418,-0.12602953612804413,-0.9894745945930481,0.07111312448978424,0.032279402017593384,0.01695549488067627,0.010704755783081055,0.08018537610769272,0.0056526437401771545,-0.05577193573117256,-2.0845199533288885,1.4255799751852662,-2.692481119462958
1687105311.850625,-0.12097711116075516,-0.990404486656189,0.06681156903505325,-0.05379718542098999,-4.363059997558594e-05,0.033042192459106445,-0.11582913994789124,0.006046192720532417,-0.05921800062060356,-2.0753777670617084,1.4321536394127832,-2.7015659445548024
1687105311.8975291,-0.11498185247182846,-0.9914282560348511,0.062042418867349625,0.016379468142986298,0.004566073417663574,0.009414661675691605,-0.14912664890289307,0.02135748229920864,-0.18059296905994415,-2.0656077975797866,1.4397694021351906,-2.7101919863867883
1687105311.9736118,-0.10989094525575638,-0.9918501377105713,0.0644829198718071,0.014965862035751343,-0.015947461128234863,-0.0191335529088974,0.03270334005355835,-0.024226114153862,-0.06791529059410095,-2.1014460613615196,1.4430388810647379,-2.673861074712334
1687105312.009177,-0.1072683036327362,-0.9921139478683472,0.06483735889196396,-0.002900242805480957,-0.022778809070587158,-0.009768247604370117,-0.07656056433916092,-0.023540638387203217,-0.001832740381360054,-2.114474859844095,1.4451266975662596,-2.662351920300244
1687105312.07533,-0.10653524845838547,-0.992699921131134,0.05654476583003998,0.008405879139900208,0.0009090900421142578,-0.0018723085522651672,-0.1242455318570137,-0.038066163659095764,-0.004270664416253567,-2.05874892786972,1.449891711626385,-2.7202335900810364
1687105312.115913,-0.10649757087230682,-0.9929972290992737,0.05114125460386276,-0.001122787594795227,-0.009993791580200195,0.010153539478778839,-0.06739210337400436,-0.017871657386422157,0.017602210864424706,-2.018487392293266,1.452381981208309,-2.7618824777904085
1687105312.156341,-0.10676953196525574,-0.9929025769233704,0.0523960255086422,-0.0009576380252838135,0.011731743812561035,-0.01565265655517578,0.04594351351261139,-0.004468321800231934,0.012843141332268715,-2.027008138352843,1.4515836419080554,-2.7543001119651365
1687105312.2239861,-0.10802830010652542,-0.9926927089691162,0.053772106766700745,0.012904912233352661,0.00390779972076416,-0.0099945068359375,-0.011017241515219212,-0.0027548442594707012,0.02786256931722164,-2.0326498598523077,1.4498320505220756,-2.7486583257394113
1687105312.261941,-0.11012490093708038,-0.9927864670753479,0.04741234332323074,0.0006887614727020264,-0.021480679512023926,0.00451350212097168,-0.20669487118721008,0.01749725267291069,0.08052444458007812,-1.9773436570679859,1.450611108025212,-2.804278432582327
1687105312.3255959,-0.12353692948818207,-0.992277204990387,0.01117568276822567,0.06068587303161621,-0.2441578507423401,0.01871645450592041,-1.613405466079712,0.05977644398808479,0.5555250644683838,-1.661015057196139,1.4464360216749876,-3.1198613945315095
1687105312.368878,-0.17626595497131348,-0.9814122319221497,-0.07589886337518692,0.2800256013870239,-0.2216365933418274,-0.007703892886638641,-1.2278735637664795,-0.3019772469997406,1.7136887311935425,-1.1641980151684825,1.377686678150408,2.6563595724790043
1687105312.4093661,-0.29757511615753174,-0.9476543068885803,-0.11576057970523834,0.5116710662841797,-0.45920610427856445,-0.02442174404859543,-1.1682208776474,-0.7145361304283142,3.144386053085327,-1.1997972490367816,1.2458075613315482,2.664612614821003
1687105312.466136,-0.4757140576839447,-0.8656534552574158,-0.1560143530368805,0.6434842348098755,-0.325081467628479,0.03203684091567993,-1.2309074401855469,-1.0989412069320679,4.320827007293701,-1.2538911224214542,1.0464541676062085,2.67411687173589
1687105312.511156,-0.6738656163215637,-0.7194159626960754,-0.16836360096931458,0.7384406328201294,-0.2421320080757141,0.08798044919967651,-1.0393092632293701,-1.3529757261276245,4.979410648345947,-1.3259612567365904,0.8029610633463261,2.6864599641526903
1687105312.572586,-0.8451712131500244,-0.5152921080589294,-0.14198626577854156,0.7025470733642578,-0.03469580411911011,0.13861428201198578,-0.6503791213035583,-1.4360402822494507,5.263250827789307,-1.4043535211169897,0.5413484243302297,2.6988556063239493
1687105312.609438,-0.9591545462608337,-0.26919686794281006,-0.08692604303359985,0.6505604982376099,0.02543771266937256,0.07606195658445358,-0.29184624552726746,-1.444900393486023,5.336379051208496,-1.4804154570699064,0.2725590257023303,2.7099566441476894
1687105312.708153,-0.9998684525489807,-0.004384616389870644,-0.015626167878508568,0.6010645627975464,-0.029230386018753052,0.045945584774017334,-0.1340627372264862,-1.3732280731201172,5.407703876495361,-1.5551693750516422,0.004384630474394654,2.718174934232166
1687105312.724774,-0.9639732241630554,0.260781466960907,0.05243033915758133,0.6751548051834106,0.17087453603744507,-0.004807475954294205,0.5573665499687195,-1.4582639932632446,5.28252649307251,-1.6251326181878283,-0.2638315882997988,2.7154017519671827
1687105312.761013,-0.859863817691803,0.49903783202171326,0.10768307745456696,0.545837938785553,0.0945139229297638,0.06464992463588715,0.08775993436574936,-1.2187899351119995,4.9859514236450195,-1.6953804480927082,-0.5224881138782983,2.7085152085633504
1687105312.849406,-0.7078389525413513,0.6952935457229614,0.12462577223777771,0.5160663723945618,0.24686062335968018,0.0452047735452652,1.610209584236145,-0.8706775903701782,4.671329975128174,-1.745075309272844,-0.768828245506925,2.7151051023748383
1687105312.855011,-0.5308193564414978,0.8404324650764465,0.1091078519821167,0.4731869101524353,0.08376204967498779,-0.006324410438537598,-0.04207129776477814,-0.6459348201751709,4.298071384429932,-1.7735189576534152,-0.9980807764781412,2.719936195292216
1687105312.907861,-0.3413204848766327,0.9319873452186584,0.12206795066595078,0.2822384536266327,0.20883631706237793,0.09564472734928131,0.456600546836853,-0.5712593793869019,4.070834636688232,-1.9142561427343328,-1.1998572015775244,2.600152496528952
1687105312.952729,-0.1459232121706009,0.982587993144989,0.11501149833202362,0.393130898475647,0.10849189758300781,-0.05679905414581299,-0.05828355625271797,-0.576285183429718,3.8954713344573975,-2.238278698477869,-1.3839126523909884,2.2947759154941734
1687105313.017336,0.04398929327726364,0.9914688467979431,0.12269912660121918,0.3123340308666229,0.19397151470184326,-0.021411046385765076,-0.2978719174861908,-0.5532448887825012,3.5482218265533447,2.7973536436340702,-1.4400804251714672,1.062501142182814
1687105313.06078,0.22057709097862244,0.9651550054550171,0.1407902091741562,0.2803232967853546,0.16060805320739746,0.04413127899169922,-0.20981022715568542,-0.6013619899749756,3.5333075523376465,2.1388891954489524,-1.3060349930651363,0.42591172850151116
1687105313.1451712,0.38245296478271484,0.9148532748222351,0.12951235473155975,0.2803584039211273,0.2359340786933899,-0.032023802399635315,-0.1850324422121048,-0.5717993378639221,3.1193764209747314,1.897311696217666,-1.1551444564417248,0.19917406885891928
1687105313.1620579,0.5223920345306396,0.8430541157722473,0.1279323399066925,0.2227405309677124,0.34816908836364746,-0.036211609840393066,0.06781286001205444,-0.733900785446167,2.9256467819213867,1.8109666191225293,-1.0029368337872746,0.13924899099754373
1687105313.2012029,0.6367340087890625,0.7644095420837402,0.10123271495103836,0.17700207233428955,0.2822365164756775,0.006219848990440369,-0.16056811809539795,-0.7497750520706177,2.5221445560455322,1.7284641603674138,-0.870124996475322,0.08397123729380257
1687105313.2465591,0.7222834229469299,0.6867976188659668,0.08133967965841293,0.1342078447341919,0.3603063225746155,0.049336791038513184,0.2643599808216095,-0.5282279253005981,2.001025676727295,1.6829384831761256,-0.7570739535495997,0.06752623508991568
1687105313.320976,0.7817860841751099,0.6212359070777893,0.053637389093637466,0.07958799600601196,0.27509593963623047,0.07548260688781738,0.2862767279148102,-0.40055128931999207,1.5952208042144775,1.639297753858079,-0.6703188616493077,0.0387451418952708
1687105313.347301,0.8242458701133728,0.5657274723052979,0.023909881711006165,0.023242831230163574,0.3384931683540344,0.14817893505096436,0.9129238724708557,-0.09696047753095627,1.21672785282135,1.5997963857598065,-0.6013152173146397,-0.007677084504895433
1687105313.435107,0.8542834520339966,0.5197999477386475,0.0028879917226731777,0.05523216724395752,0.17561936378479004,0.08895492553710938,0.5499712228775024,-0.010684140026569366,1.0359879732131958,1.5741769151832725,-0.546616753478576,-0.05121262459521767
1687105313.453631,0.8792746067047119,0.47624897956848145,-0.007952961139380932,0.01707249879837036,0.24553748965263367,0.056598126888275146,0.16555939614772797,-0.06723277270793915,0.9381071925163269,1.5617516618624114,-0.496383879891907,-0.07422357866868759
1687105313.494471,0.8980874419212341,0.4395239055156708,-0.016055475920438766,-0.021637797355651855,0.33968138694763184,0.024295391514897346,0.57899010181427,0.023670393973588943,0.6158183217048645,1.552920821979001,-0.4550685613534201,-0.0906281025804494
1687105313.5497808,0.9060678482055664,0.4221575856208801,-0.028707196936011314,-0.04919523000717163,0.2422558069229126,-0.049875374883413315,0.8410520553588867,0.12696844339370728,0.14989899098873138,1.5391236478188408,-0.43582407732451367,-0.13278123980576736
1687105313.623009,0.9068762063980103,0.4197816252708435,-0.03686819225549698,-0.028488576412200928,0.2507505714893341,0.011798147112131119,0.563898503780365,0.1851152777671814,-0.10617245733737946,1.5301646482059392,-0.4332047033423866,-0.17439540838169665
1687105313.6678529,0.9031153917312622,0.4276044964790344,-0.03921014443039894,0.05374819040298462,0.09616869688034058,-0.03363513946533203,0.28490468859672546,0.04578130692243576,-0.1996127963066101,1.52740703804046,-0.44184111029913015,-0.1963917735521771
1687105313.744242,0.8984375,0.437142550945282,-0.041435979306697845,-0.010055243968963623,0.026236414909362793,0.026040013879537582,-0.0029694351833313704,-0.02817544899880886,-0.211931973695755,1.5247089413987265,-0.45241911976903293,-0.20188732624349245
1687105313.760549,0.8935738205909729,0.4467739164829254,-0.04380866512656212,-0.0016211271286010742,-0.048244863748550415,-0.00794893130660057,0.14736308157444,-0.006499692797660828,-0.20312777161598206,1.5218091961941314,-0.46315607728067626,-0.2073366531738758
1687105313.797494,0.8899410367012024,0.45365452766418457,-0.04693262279033661,-0.012072265148162842,-0.07975319027900696,0.013042990118265152,0.03995033726096153,5.927355960011482e-05,-0.12787975370883942,1.5181083555712138,-0.47086188025417913,-0.21536415100688758
1687105313.871171,0.8881195783615112,0.4573814272880554,-0.04523365944623947,0.02157902717590332,-0.0879356861114502,-0.002892371267080307,-0.044108081609010696,0.0022805053740739822,-0.03299778327345848,1.5199083523863068,-0.4750483332903504,-0.21132963101419416
1687105313.936891,0.8883925080299377,0.4568803906440735,-0.04493540897965431,0.021000921726226807,-0.059633105993270874,-0.0025039874017238617,-0.0530826672911644,-0.0016572002787142992,0.02498655579984188,1.5202588139660738,-0.47448497963151604,-0.21109576860888632
1687105313.969984,0.889897346496582,0.4538861811161041,-0.045499324798583984,-0.015370309352874756,-0.005262583494186401,-0.0044119879603385925,0.11857803910970688,0.004975712858140469,0.07001222670078278,1.519712075816329,-0.47112180907216716,-0.21283245008587273
1687105314.035236,0.8914726376533508,0.4507579207420349,-0.04576529189944267,0.007972240447998047,-0.013166308403015137,-0.010661546140909195,-0.032429054379463196,0.021091321483254433,0.04648112878203392,1.5195046208382244,-0.46761423092266347,-0.21549051123375101
1687105314.073942,0.8928171992301941,0.44798773527145386,-0.04674111679196358,-0.008249759674072266,0.04056817293167114,-0.004558742046356201,0.10249041020870209,0.0063877650536596775,0.03799556568264961,1.5184916819377805,-0.4645133216333405,-0.21711617954517995
1687105314.123362,0.8928601145744324,0.44764795899391174,-0.0491139180958271,-0.0013805627822875977,0.034773826599121094,-0.006717853248119354,0.11828269064426422,0.06147691607475281,-0.032862693071365356,1.5158443017207934,-0.4641333027706481,-0.22502679606801448
1687105314.165368,0.8919425010681152,0.4496211111545563,-0.047744426876306534,0.014978945255279541,0.014337599277496338,-0.0009461566805839539,-0.024968743324279785,0.04204835742712021,-0.032443512231111526,1.5173187716147805,-0.4663411232503157,-0.22794702794171787
1687105314.2159781,0.8902097344398499,0.4533090889453888,-0.0451396107673645,-0.007412433624267578,0.027861475944519043,0.011860374361276627,-0.005567348562180996,0.09647294133901596,-0.11408232152462006,1.5201330066002432,-0.47047427047233387,-0.22894117162662592
1687105314.255855,0.8882458209991455,0.4576001763343811,-0.04026862606406212,0.008787930011749268,-0.005436509847640991,-0.004546280950307846,-0.03961613029241562,0.05226293206214905,-0.053635284304618835,1.5254923466340167,-0.47529434750362226,-0.2263467379697829
1687105314.3477721,0.8870182037353516,0.46033596992492676,-0.03591600060462952,-0.011010825634002686,-0.00650903582572937,0.016445931047201157,-0.006396124605089426,0.09203142672777176,-0.05528418347239494,1.5303277190113649,-0.47837361138533097,-0.22384104377852865
1687105314.36759,0.8862276673316956,0.46207842230796814,-0.032929498702287674,0.019305288791656494,-0.02268633246421814,0.0008404292166233063,-0.02169332094490528,0.059875357896089554,-0.03643139824271202,1.5336564814631488,-0.4803373847540177,-0.22383078487990854
1687105314.4030728,0.8859054446220398,0.462922066450119,-0.029578354209661484,0.0011186003684997559,-0.007447272539138794,0.009909989312291145,-0.04798617959022522,0.05494742467999458,-0.015149611048400402,1.5374210145085194,-0.4812889401602247,-0.22286807241028372
1687105314.477793,0.8858174085617065,0.4632435739040375,-0.02707887999713421,-0.0008074641227722168,0.0010966658592224121,-0.0027670860290527344,0.04635843262076378,0.05468904972076416,-0.005750649608671665,1.5402364740814964,-0.4816516610171957,-0.22292516418209776
1687105314.518631,0.8857007622718811,0.46358487010002136,-0.024968773126602173,0.004512429237365723,-0.00069427490234375,-0.0004216432571411133,0.11984596401453018,0.08073560893535614,-0.011964736506342888,1.5426128103878167,-0.48203684049164025,-0.22610250745529417
1687105314.5530071,0.8854568600654602,0.46405401825904846,-0.02490437962114811,0.010585129261016846,-0.004169434309005737,-0.022122977301478386,0.06249665468931198,0.05447009578347206,-0.016479860991239548,1.54267771774592,-0.4825663633769288,-0.23348331170917536
1687105314.636394,0.8854008316993713,0.46422120928764343,-0.023758651688694954,-0.0012758970260620117,0.00532221794128418,-0.02079683542251587,0.030385326594114304,0.02567901648581028,-0.0016521778889000416,1.5439689848567093,-0.482755147388132,-0.23408562926906135
1687105314.6582742,0.8852102160453796,0.4645175337791443,-0.02503243274986744,-0.015108168125152588,-0.004129379987716675,-0.023002086207270622,-0.04328809678554535,0.015338251367211342,-0.020134981721639633,1.5425253428378476,-0.48308972246086973,-0.2366062393344738
1687105314.704184,0.8848049640655518,0.46530815958976746,-0.024674270302057266,-0.005089819431304932,0.007271796464920044,-0.01919454336166382,-0.05546646565198898,-0.009195521473884583,-0.021942535415291786,1.54291687454854,-0.4839827213273614,-0.23352342782106192
1687105314.769613,0.884436309337616,0.46590328216552734,-0.02658803202211857,0.007073879241943359,-0.005225181579589844,-0.01575493812561035,-0.044587451964616776,-0.03404252603650093,-0.0014941859990358353,1.5407432564584327,-0.48465518147635617,-0.2327185006775748
