Timestamp,gravityX,gravityY,gravityZ,accelerationX,accelerationY,accelerationZ,rotationRateX,rotationRateY,rotationRateZ,attitudeRoll,attitudePitch,attitudeYaw
1687094598.904072,0.9529592394828796,0.21383844316005707,0.21480679512023926,-0.0039844512939453125,0.023923873901367188,0.05150452256202698,0.9142991900444031,0.014780105091631413,0.17299021780490875,1.792501233960288,-0.2155026079862744,-2.324799202963373
1687094598.922833,0.9541118144989014,0.21469932794570923,0.20874662697315216,-0.004023134708404541,-0.014992445707321167,0.058846503496170044,0.3544960618019104,0.04640061408281326,0.08929159492254257,1.7861887082048835,-0.2163839644607633,-2.3617825110336375
1687094598.936202,0.9540308117866516,0.2138238549232483,0.2100115269422531,0.003305792808532715,0.05460858345031738,0.054743438959121704,0.2509917616844177,0.1127408891916275,0.02918923832476139,1.7874713508803228,-0.21548767317834197,-2.3730290890362515
1687094598.977771,0.9522452354431152,0.22027501463890076,0.21144255995750427,-0.001073300838470459,0.08653324842453003,0.0035381317138671875,0.4673349857330322,0.1478949338197708,-0.09062917530536652,1.789297646307776,-0.22209639800416536,-2.3946373270413535
1687094599.0547872,0.949486255645752,0.22870413959026337,0.21487277746200562,-0.005028128623962402,0.036966413259506226,0.003571748733520508,0.061543021351099014,0.11937513202428818,-0.14684957265853882,1.7933518241866617,-0.23074632820503232,-2.407576025537188
1687094599.085428,0.9465733170509338,0.2374769151210785,0.21818305552005768,-0.03243434429168701,0.048350512981414795,-0.004758685827255249,0.28318727016448975,0.06321464478969574,-0.1709027737379074,1.7973374486949367,-0.23976763757176509,-2.41011807123095
1687094599.155335,0.9438956379890442,0.25130847096443176,0.21425403654575348,0.02879112958908081,0.06050461530685425,-0.009084731340408325,0.45542240142822266,0.025154735893011093,-0.19364629685878754,1.794003241318363,-0.2540318714665427,-2.431927925846407
1687094599.195393,0.9410059452056885,0.26237398386001587,0.2136995792388916,0.022998571395874023,-0.01826411485671997,-0.005981951951980591,-0.09750469028949738,-0.019709251821041107,-0.21013081073760986,1.7941057752866878,-0.26548154891898257,-2.4336299501206877
1687094599.236023,0.9398893117904663,0.2684275507926941,0.21107923984527588,0.03659689426422119,-0.02172371745109558,-0.10580924153327942,-0.15206938982009888,-0.12175057828426361,-0.12097696214914322,1.791709854832027,-0.2717602980632668,-2.429814005308748
1687094599.292286,0.9390905499458313,0.2733408510684967,0.20831210911273956,-0.006106972694396973,-0.01479610800743103,0.01910462975502014,-0.17316588759422302,-0.15261273086071014,-0.11057925224304199,1.789085033132919,-0.27686443463070226,-2.4169801346663022
1687094599.339882,0.9415677189826965,0.2704620957374573,0.20074941217899323,0.06545138359069824,-0.10536220669746399,-0.07898461818695068,-0.5782872438430786,-0.4123329818248749,-0.027488887310028076,1.7808586700711961,-0.27387297308975106,-2.3967714965342797
1687094599.3804178,0.9470608234405518,0.2626873552799225,0.18458378314971924,-0.020837008953094482,-0.06784805655479431,-0.02471780776977539,-0.8283503651618958,-0.5045652389526367,0.051966387778520584,1.763284918924448,-0.26580631957892,-2.3713596334491145
1687094599.454997,0.9505223035812378,0.2557591199874878,0.1763363629579544,-0.009527981281280518,-0.03427800536155701,0.03502798080444336,-0.7760940790176392,-0.3901689350605011,-0.08572110533714294,1.7542262175979106,-0.25863287250791106,-2.325023146603819
1687094599.4950628,0.952873945236206,0.25253626704216003,0.16809742152690887,-0.010613083839416504,-0.05989420413970947,0.048393964767456055,-1.1791001558303833,-0.4550001323223114,-0.12339924275875092,1.7454107222811948,-0.25530058517134335,-2.279340950759589
1687094599.550303,0.9542145133018494,0.2495688498020172,0.16489391028881073,-0.00736081600189209,0.01007455587387085,0.03949713706970215,-1.0260392427444458,-0.2583986222743988,-0.18327122926712036,1.741912313681194,-0.2522349955625904,-2.217247258262034
1687094599.589198,0.9530494809150696,0.2528575360774994,0.16661302745342255,0.013015151023864746,0.01366761326789856,0.03248335421085358,-0.9421808123588562,-0.17993836104869843,-0.2963714897632599,1.7438682769602547,-0.25563264678221437,-2.164305589879676
1687094599.637032,0.9499668478965759,0.2593582272529602,0.1740579605102539,-0.007736563682556152,0.04629048705101013,0.08552420139312744,-0.7929537296295166,0.07677707821130753,-0.30599820613861084,1.7520115710749329,-0.2623576242838168,-2.1206851739361054
1687094599.6994882,0.9442809224128723,0.26597267389297485,0.19388605654239655,-0.0057128071784973145,0.018664658069610596,0.05376361310482025,-0.5260789394378662,0.21789133548736572,-0.23264138400554657,1.7733083973352821,-0.2692128029032607,-2.0818613633637373
1687094599.757168,0.9403576850891113,0.2692037522792816,0.20798221230506897,-0.006428241729736328,-0.017052382230758667,-0.025273829698562622,-0.6669960618019104,0.07629559934139252,-0.11257888376712799,1.7884656891732507,-0.2725661572089313,-2.049211158131074
1687094599.797223,0.9397218227386475,0.26734450459480286,0.21318985521793365,-0.01485598087310791,0.10834205150604248,-0.001444101333618164,0.03402218222618103,-0.013415336608886719,0.07595574110746384,1.7938850559350927,-0.2706361710380512,-2.032852178417713
1687094599.848401,0.9412102699279785,0.26422789692878723,0.21049214899539948,-0.037401556968688965,0.05722889304161072,-0.006436824798583984,0.28031742572784424,-0.06877495348453522,0.10942648351192474,1.790815817090662,-0.2674032894921205,-2.043287315254567
1687094599.88832,0.9442507028579712,0.2632933259010315,0.19765418767929077,-0.051092684268951416,0.12525635957717896,0.028068646788597107,0.8035681843757629,-0.10869638621807098,0.19317351281642914,1.7771408421735655,-0.26643440602522833,-2.073670381163278
1687094599.9552112,0.9478319883346558,0.26057010889053345,0.1836245208978653,0.061811745166778564,0.08354601263999939,0.03620852530002594,0.5149714946746826,-0.09439095109701157,0.19111835956573486,1.7621568904818334,-0.26361266141837614,-2.1103700700687145
1687094600.00033,0.9504087567329407,0.25763362646102905,0.17420682311058044,0.0344851016998291,0.13756892085075378,0.06427240371704102,0.5579554438591003,-0.02089478075504303,0.11771903932094574,1.7520807044910787,-0.26057234809866453,-2.138637317576149
1687094600.0553951,0.9510756731033325,0.2611575126647949,0.16508126258850098,0.03569507598876953,0.08474382758140564,-0.04700922966003418,0.46767348051071167,-0.1050790548324585,-0.07676596194505692,1.7426572762731707,-0.2642211260041692,-2.1654688544641263
1687094600.11104,0.9501112699508667,0.27198994159698486,0.15267574787139893,-0.0003126859664916992,-0.03770667314529419,-0.08414889872074127,-0.024737536907196045,-0.32924380898475647,-0.2900979518890381,1.7301267224516974,-0.275460341013435,-2.174388825088335
1687094600.140777,0.9486960768699646,0.287165105342865,0.13233304023742676,0.015049099922180176,-0.10604339838027954,-0.11750197410583496,-0.4883542060852051,-0.6472929120063782,-0.4421836733818054,1.709391440094253,-0.29126596241696384,-2.159708016166008
1687094600.191163,0.9445252418518066,0.30835530161857605,0.11308903992176056,-8.237361907958984e-05,-0.035726577043533325,-0.04091523587703705,-1.2231706380844116,-0.6702665090560913,-0.6851344108581543,1.6899601542668459,-0.31346358750350345,-2.1085321839141806
1687094600.2368999,0.9347789883613586,0.3395432233810425,0.10439715534448624,0.03438305854797363,0.047648459672927856,-0.02120661735534668,-0.9557905793190002,-0.4746120274066925,-0.8358164429664612,1.6820165625713777,-0.3464312374655185,-2.0411757187058814
1687094600.297888,0.92123943567276,0.37430113554000854,0.10590812563896179,0.07700586318969727,-0.04394841194152832,0.08340728282928467,-0.9763712286949158,-0.19254355132579803,-0.8388395309448242,1.6852564937145482,-0.3836430214375905,-1.9879870859378808
1687094600.359061,0.9063037633895874,0.4054528772830963,0.11925280839204788,0.013938486576080322,-0.08953499794006348,0.10013770312070847,-0.9135746955871582,-0.03758236765861511,-0.7256964445114136,1.7016262338020516,-0.4174742124993074,-1.9291612295856075
1687094600.406729,0.8911739587783813,0.4320129156112671,0.13846930861473083,0.03764379024505615,-0.06390994787216187,0.10200881958007812,-0.65057373046875,0.1582111269235611,-0.5960894227027893,1.7249422664195377,-0.4467235290118484,-1.8806889247501002
1687094600.445555,0.8770090937614441,0.4538302719593048,0.15777498483657837,-0.03612774610519409,-0.053897470235824585,0.03741501271724701,-0.4393395185470581,0.23344963788986206,-0.5255703926086426,1.748793557919572,-0.4710590684044767,-1.8478187595798459
1687094600.484935,0.8635127544403076,0.47176653146743774,0.1782742589712143,0.022549748420715332,-0.1296035647392273,-0.02266553044319153,-0.44059813022613525,0.27177056670188904,-0.4281921684741974,1.7743883320823064,-0.4912932189010261,-1.821013709991513
1687094600.55412,0.8531882166862488,0.4809283912181854,0.2019348293542862,0.031287550926208496,-0.16237065196037292,-0.0566716194152832,-0.643409013748169,0.18000787496566772,-0.27352169156074524,1.80320226177263,-0.5017132934474442,-1.7845551768999048
1687094600.596723,0.8446606397628784,0.4855490028858185,0.22536836564540863,0.028264343738555908,0.0017100274562835693,0.0203436017036438,-0.6838616132736206,0.22181425988674164,-0.2425224930047989,1.8315374557050101,-0.5069910709478295,-1.7427244683109953
1687094600.6601171,0.834418535232544,0.49269211292266846,0.24698172509670258,-0.025901079177856445,0.20014840364456177,-0.02466157078742981,-0.3560640811920166,0.23034533858299255,-0.4222576320171356,1.8585725937379671,-0.5151807107745696,-1.7100944122122492
1687094600.6979651,0.8184165954589844,0.5082838535308838,0.26803353428840637,0.0038034915924072266,0.2029741406440735,0.0190296471118927,-0.47929465770721436,0.30759570002555847,-0.6137086749076843,1.8872900624682671,-0.5331908318449788,-1.6806218872087846
1687094600.7400851,0.7968889474868774,0.5263441205024719,0.2965291440486908,0.08308541774749756,0.1735154390335083,-0.015050709247589111,-0.5762951970100403,0.3398135304450989,-0.6950886249542236,1.927029590977732,-0.5542951311472749,-1.6363661414152137
1687094600.809372,0.7696958184242249,0.5486850142478943,0.32636335492134094,0.022586345672607422,0.1859952211380005,9.810924530029297e-05,-0.7770259380340576,0.3336566090583801,-0.9076092839241028,1.9718332592986587,-0.580790558623765,-1.5823660243200242
1687094600.847424,0.734853982925415,0.575204074382782,0.3593459725379944,0.03211379051208496,0.288870632648468,0.0858440101146698,-0.42072615027427673,0.4405275881290436,-1.0881856679916382,2.025607883326829,-0.612853579274844,-1.5228232652629363
1687094600.896975,0.6880841255187988,0.6117794513702393,0.39021289348602295,0.06193119287490845,0.20960122346878052,0.176040381193161,-0.3974546492099762,0.6788390278816223,-1.3309133052825928,2.086673701625155,-0.6583081477848445,-1.4656036472214784
1687094600.956496,0.6274534463882446,0.6505614519119263,0.42786869406700134,0.12446916103363037,0.10612189769744873,0.23404183983802795,-0.21129170060157776,0.9902503490447998,-1.347679853439331,2.1692800042199214,-0.7083234730091414,-1.4008789819787213
1687094600.996167,0.5586387515068054,0.6886653304100037,0.46223700046539307,0.1626596450805664,-0.007741749286651611,0.20785236358642578,-0.12344014644622803,1.156614899635315,-1.2992644309997559,2.262043265663416,-0.759646702872249,-1.3397933825315687
1687094601.0388842,0.4817199409008026,0.725465714931488,0.49157410860061646,0.16008007526397705,-0.01698482036590576,0.17177075147628784,0.3290945589542389,1.4123033285140991,-1.3016563653945923,2.366318713604346,-0.8117108311547835,-1.283857186556641
1687094601.0879788,0.39509597420692444,0.7674119472503662,0.5049530267715454,0.19688409566879272,0.013197124004364014,0.1650294065475464,0.8671463131904602,1.6009936332702637,-1.2754024267196655,2.477650466206125,-0.8747948243328351,-1.237496049391773
1687094601.140654,0.2990070581436157,0.8171108961105347,0.49287375807762146,0.2598767578601837,0.08926123380661011,0.06854256987571716,0.8794514536857605,1.5497848987579346,-1.4697428941726685,2.5962900965281683,-0.9563814682627471,-1.1920719060685352
1687094601.2017841,0.20040926337242126,0.8613476157188416,0.4668154716491699,0.24113453924655914,0.21812039613723755,0.010204553604125977,1.4425052404403687,1.293067216873169,-1.633677363395691,2.736075761900044,-1.037916476098333,-1.1077592184801617
1687094601.25685,0.08575672656297684,0.9187608361244202,0.38538792729377747,0.2688882052898407,0.22189456224441528,0.030413657426834106,2.6124048233032227,1.3299288749694824,-2.3542098999023438,2.922639451112089,-1.1649302885746171,-0.9709674730504592
1687094601.308994,-0.06115389242768288,0.9632413983345032,0.2615838944911957,0.3576476275920868,0.2265627384185791,0.11877155303955078,2.372753381729126,1.536718726158142,-2.824188709259033,-2.9119342097586745,-1.2988181749761727,-0.5735273100261198
1687094601.347846,-0.22263534367084503,0.9632041454315186,0.1505700796842575,0.47159793972969055,0.17027980089187622,0.18948698043823242,1.9085209369659424,1.2209112644195557,-3.1922566890716553,-2.1654440917151625,-1.2986795276608853,0.12474384240552303
1687094601.409731,-0.3799966275691986,0.9232736229896545,0.056288521736860275,0.4017558991909027,0.19717931747436523,0.12980735301971436,1.2048753499984741,0.7903661131858826,-3.196340560913086,-1.717855943445012,-1.1765168871088505,0.5425001425540811
1687094601.455715,-0.5215337872505188,0.8531451225280762,0.012071477249264717,0.3880806565284729,0.14273500442504883,0.053296804428100586,0.44835731387138367,0.4983241558074951,-3.11141037940979,-1.5939383041046735,-1.0219848064652932,0.6468005750925779
1687094601.50156,-0.6544585824012756,0.7555436491966248,-0.028943486511707306,0.46164876222610474,0.3183395266532898,0.09025299549102783,0.6018140316009521,0.8392937183380127,-3.5895655155181885,-1.5266000422752544,-0.8564836188082011,0.6883506114468291
1687094601.556171,-0.7887664437294006,0.607774555683136,-0.09196604043245316,0.6792542934417725,0.36347806453704834,0.2516642212867737,1.0688291788101196,1.2832332849502563,-4.351080894470215,-1.4547256343411983,-0.6532551066187732,0.7154977326425367
1687094601.59553,-0.8972057104110718,0.40134239196777344,-0.18424451351165771,0.5287977457046509,0.3611851930618286,0.40006446838378906,1.4582884311676025,1.2403069734573364,-4.828990459442139,-1.3682583262498833,-0.4129820008360237,0.7572907507225936
1687094601.646078,-0.9532119631767273,0.15842489898204803,-0.25746554136276245,0.7907670736312866,0.16210144758224487,0.3193091154098511,0.7126747369766235,1.1945432424545288,-4.901862144470215,-1.3069883749835678,-0.159095202537163,0.7405704906040536
1687094601.692575,-0.9458105564117432,-0.08381426334381104,-0.3137158751487732,0.7051336765289307,-0.02504170686006546,0.10425814986228943,0.34557899832725525,1.0345473289489746,-4.785991668701172,-1.250525519785104,0.08391270626888589,0.70211021080583
1687094601.7735791,-0.8920881152153015,-0.28147292137145996,-0.3534850478172302,0.5085280537605286,-0.22482869029045105,0.14456143975257874,-0.2174137830734253,0.6713413000106812,-3.94732666015625,-1.193531586648215,0.28532873600565395,0.6232936251301261
1687094601.815044,-0.8138996362686157,-0.4372527599334717,-0.3825930655002594,0.480418860912323,-0.07408428192138672,0.06455385684967041,-0.2173386812210083,0.5385198593139648,-3.408860206604004,-1.1313748249174993,0.4525416755224073,0.5351290061395634
1687094601.857048,-0.7241706252098083,-0.5624068379402161,-0.39909330010414124,0.3730963468551636,-0.07881295680999756,-0.06686466932296753,0.36495164036750793,0.488120436668396,-2.788442611694336,-1.0671059383498211,0.597293756002272,0.4548417873287931
1687094601.979945,-0.6374418139457703,-0.6653613448143005,-0.3885384500026703,0.35700052976608276,-0.19630217552185059,-0.06962224841117859,1.4602727890014648,0.4336003363132477,-2.1796276569366455,-1.0234005602428031,0.727977738923732,0.4191700335894251
1687094601.995472,-0.5662524104118347,-0.7482984066009521,-0.3455544114112854,0.22813278436660767,-0.2661667466163635,-0.03246721625328064,0.8075019121170044,0.35817667841911316,-1.4387248754501343,-1.0228755606589024,0.8454932575297268,0.44415522927300993
1687094602.004549,-0.5226234197616577,-0.7757574319839478,-0.3536456227302551,0.04389411211013794,-0.32452309131622314,0.12364953756332397,-0.3400699198246002,0.542368471622467,-0.6360480785369873,-0.9758976059266864,0.8879144897367858,0.4136085421496576
1687094602.034243,-0.4949864447116852,-0.7865673303604126,-0.3691887855529785,0.05478554964065552,-0.11576104164123535,-0.06263533234596252,0.5228803157806396,0.45488643646240234,-0.3825377821922302,-0.9299524491997153,0.9052302433488563,0.38628840383594387
1687094602.088304,-0.47447386384010315,-0.8113800883293152,-0.3413749635219574,0.05134761333465576,-0.02751743793487549,-0.05826830863952637,1.2185174226760864,0.33812251687049866,-0.2688286006450653,-0.9471151452607207,0.9465092916233179,0.433563571386368
1687094602.157059,-0.46071866154670715,-0.835765540599823,-0.29872098565101624,0.009958744049072266,-0.052417874336242676,-0.0638434886932373,0.8158858418464661,0.18863263726234436,-0.1565273553133011,-0.9955604459041815,0.9895254802263401,0.5082818150399908
1687094602.196142,-0.4577975869178772,-0.8425992727279663,-0.2836330235004425,-0.020107656717300415,-0.1312621831893921,-0.08514168858528137,0.2764284312725067,0.04332606494426727,0.07942424714565277,-1.0161185753270385,1.0020916137341809,0.538305113512778
1687094602.247662,-0.45906543731689453,-0.8479950428009033,-0.2648838758468628,-0.029582113027572632,-0.019192397594451904,-0.04364922642707825,0.6511783599853516,0.06131107360124588,-0.022550921887159348,-1.0474552112320572,1.0121908611779753,0.5770097624991576
1687094602.292202,-0.4566285312175751,-0.8568071126937866,-0.2395240217447281,-0.04150989651679993,0.024333596229553223,-0.006371721625328064,0.5911996960639954,0.1055564135313034,-0.01980673335492611,-1.0877029809535954,1.0290453667112653,0.6296230926213189
1687094602.346308,-0.4541737139225006,-0.8639093637466431,-0.21768559515476227,0.020473062992095947,0.0017115473747253418,0.026950329542160034,0.4507123529911041,0.07743560522794724,-0.0815591812133789,-1.1238451982786373,1.0429808524141793,0.6773081219513584
1687094602.3967671,-0.45154237747192383,-0.8685946464538574,-0.20409047603607178,-0.007884502410888672,-0.024990439414978027,0.04669564962387085,0.346082866191864,0.1096726804971695,-0.00921694003045559,-1.1462927476023614,1.0523591107201278,0.7081373366098991
1687094602.456172,-0.4501233696937561,-0.8723577260971069,-0.19073769450187683,0.028675585985183716,-0.02263110876083374,0.022158220410346985,0.25196996331214905,0.046634551137685776,0.010122536681592464,-1.1699888462247814,1.0600045541100152,0.739990097151784
1687094602.4945111,-0.4537607729434967,-0.8722614645957947,-0.18237610161304474,0.056055665016174316,-0.0031046271324157715,-0.026425540447235107,0.2574360966682434,-0.05646924301981926,0.15011945366859436,-1.1886347824831078,1.0598076713906306,0.7615437843628752
1687094602.567281,-0.4720395803451538,-0.8622068762779236,-0.18378718197345734,0.1570981740951538,-0.21675711870193481,0.018656209111213684,-0.7099946737289429,-0.20377178490161896,0.7800854444503784,-1.1995071899347063,1.0396102549973263,0.7671745943886054
1687094602.603435,-0.5323456525802612,-0.8178367614746094,-0.2185201495885849,0.34972846508026123,-0.5363500714302063,0.09731926023960114,-1.5563759803771973,-0.6777998208999634,2.0334255695343018,-1.1812835750010386,0.9576416706238912,0.7210911592527236
1687094602.643758,-0.6527028679847717,-0.7066059112548828,-0.2732895016670227,0.572319507598877,-0.6408823132514954,0.03474849462509155,-2.738539934158325,-1.151869535446167,3.552762508392334,-1.1742702247276526,0.7846900997775696,0.6506514445143698
1687094602.7329779,-0.7958133220672607,-0.5123072266578674,-0.32283487915992737,0.6643741726875305,-0.5161044001579285,0.142735093832016,-3.535248041152954,-1.5211979150772095,4.349161624908447,-1.1854145415577686,0.5378691741032553,0.5620678818931752
1687094602.770831,-0.9119076728820801,-0.2560317814350128,-0.32073697447776794,0.6746029853820801,-0.3166150450706482,0.30205994844436646,-4.120150566101074,-1.9645755290985107,4.624256610870361,-1.2325892459122567,0.2589149023526519,0.4557270772403063
1687094602.8139281,-0.9713491797447205,0.016207456588745117,-0.2371033877134323,0.7167564034461975,-0.09019702672958374,0.1273924857378006,-3.1513588428497314,-2.5357911586761475,4.368640422821045,-1.3313811277387262,-0.016208165554277353,0.33977377880103216
1687094602.8714108,-0.9656698703765869,0.24299141764640808,-0.0918528363108635,0.600267767906189,-0.018335938453674316,0.07313013076782227,-1.4393730163574219,-2.8338401317596436,4.256846904754639,-1.4759633859095647,-0.24544851182988664,0.25570010308152796
1687094602.918343,-0.901216447353363,0.4300325810909271,0.05367263779044151,0.5005361437797546,0.10657349228858948,0.07007598131895065,-0.8356173038482666,-2.8191840648651123,3.833178997039795,-1.6302818337423364,-0.4445288728311075,0.2151301315237258
1687094602.96133,-0.787329912185669,0.5752468109130859,0.22181639075279236,0.4699473977088928,0.07282471656799316,0.16421543061733246,-2.5572915077209473,-3.002405881881714,3.589930295944214,-1.8454108111615992,-0.6129058266477496,0.08243065270896859
1687094602.999762,-0.6333113312721252,0.6637604236602783,0.3979181945323944,0.3365585207939148,0.11442285776138306,0.19491606950759888,-1.742513656616211,-3.050485610961914,3.1665148735046387,-2.1317749977752247,-0.7258352904943618,-0.13415419316916127
1687094603.050825,-0.46038147807121277,0.6968714594841003,0.5499263405799866,0.5028926730155945,0.06393200159072876,0.1347811222076416,-2.0287106037139893,-2.996152400970459,2.6468276977539062,-2.4445947509504156,-0.7710260457806485,-0.36698647735910905
1687094603.095676,-0.28067123889923096,0.6874989867210388,0.6697526574134827,0.33615243434906006,-0.03645199537277222,0.11254996061325073,-1.3816089630126953,-2.9372572898864746,2.443063735961914,-2.74475804150498,-0.7580393365035525,-0.5829266920681321
1687094603.170399,-0.09623667597770691,0.6905972361564636,0.7168081402778625,0.3298489451408386,0.1149601936340332,-0.000637054443359375,-0.16995465755462646,-2.814159631729126,2.3526268005371094,-3.0081334723285758,-0.7623144873737164,-0.7546020199214709
1687094603.21352,0.08732564747333527,0.685566246509552,0.7227537631988525,0.45346128940582275,-0.09787386655807495,-0.09104019403457642,0.07613234966993332,-2.8626251220703125,2.3235795497894287,3.021351986309163,-0.7553812125808412,-0.9199722743894042
1687094603.260906,0.26849067211151123,0.6493601202964783,0.7115082740783691,0.4077790081501007,-0.10588771104812622,0.04029196500778198,-0.7500526309013367,-2.7655372619628906,2.2530839443206787,2.7807595525957036,-0.7067427056608103,-1.0657067375041556
1687094603.304823,0.4350225627422333,0.609954297542572,0.6623528599739075,0.3554745316505432,0.19571000337600708,0.04580718278884888,0.05639726296067238,-2.438159227371216,1.7628203630447388,2.5604633620510873,-0.6560028992583121,-1.1907224678194046
1687094603.363471,0.5705604553222656,0.5591663718223572,0.6014925837516785,0.2795829772949219,0.22867542505264282,0.1945580244064331,0.20527301728725433,-2.445964813232422,1.8415992259979248,2.3825797748320934,-0.593379952532194,-1.2853196690613211
1687094603.408484,0.6837583780288696,0.5119713544845581,0.5199611186981201,0.27420371770858765,0.32549208402633667,0.29382020235061646,0.1445273905992508,-2.100186347961426,1.7822703123092651,2.2209492284559764,-0.5374781758573111,-1.3733170982163787
1687094603.4832191,0.7729895114898682,0.44671785831451416,0.450478196144104,0.33046531677246094,0.28573471307754517,0.3634100556373596,-0.1971479207277298,-1.9631264209747314,1.4981305599212646,2.0984533559537533,-0.4630934405298066,-1.4118931083094324
1687094603.520949,0.8379165530204773,0.39959874749183655,0.37177518010139465,0.09465503692626953,0.4649643898010254,0.4099016487598419,1.103322148323059,-1.4667435884475708,1.3004436492919922,1.9883904842710167,-0.41107909896926964,-1.4731105506004138
1687094603.565431,0.8824610114097595,0.3691083490848541,0.29158443212509155,0.09097343683242798,0.32447996735572815,0.3431198298931122,1.8204679489135742,-0.9947934746742249,1.1971813440322876,1.8899242770753983,-0.3780494262096679,-1.567808591280654
1687094603.676872,0.9131584167480469,0.34389519691467285,0.21881015598773956,0.012973904609680176,0.3566206097602844,0.2955785095691681,2.09364652633667,-0.5471431612968445,1.06479012966156,1.805981079208481,-0.35106196607833245,-1.6977524869814453
1687094603.6924062,0.9342977404594421,0.3112538754940033,0.1738055944442749,0.03172081708908081,0.10671481490135193,0.27274250984191895,1.1429747343063354,-0.3327401876449585,0.9831836223602295,1.7547219407776438,-0.3165121544303946,-1.7865762983551257
1687094603.702838,0.950012743473053,0.27573493123054504,0.14644408226013184,0.0066980719566345215,0.10002794861793518,0.15900586545467377,1.1229398250579834,-0.1945822536945343,0.869468629360199,1.7237420772911696,-0.27935419162009734,-1.855477597031466
1687094603.773417,0.9627289175987244,0.24003444612026215,0.12464617937803268,-0.04184556007385254,0.09593358635902405,0.1707635074853897,1.6303939819335938,-0.03999297693371773,0.9374601244926453,1.6995518084606367,-0.24240133052511328,-1.925961694092442
1687094603.8116112,0.9716217517852783,0.20831827819347382,0.1120472177863121,-0.01651310920715332,0.12499463558197021,0.15710210800170898,1.0836181640625,0.18447262048721313,0.7604773640632629,1.6856089601204975,-0.20985519203666403,-2.009764804517156
1687094603.8508592,0.9773465991020203,0.180146723985672,0.11108823120594025,0.004419088363647461,0.20417629182338715,0.038279637694358826,1.1130306720733643,0.1979055106639862,0.5632724165916443,1.6839736914275059,-0.18113560701444786,-2.0704477778982877
1687094603.966675,0.9811648726463318,0.1578175574541092,0.11139652132987976,0.009496867656707764,0.15823762118816376,-0.028526410460472107,1.0376397371292114,0.10687241703271866,0.39634987711906433,1.6838472031095741,-0.1584801247048009,-2.12902927305202
1687094603.9886022,0.9838050603866577,0.1418336033821106,0.1095939427614212,0.01126641035079956,-0.030856549739837646,-0.010732650756835938,0.5293049216270447,0.024742234498262405,0.40221261978149414,1.6817369594577984,-0.14231350272293486,-2.1612702841858304
1687094604.002902,0.9856815934181213,0.1294500082731247,0.10804709047079086,-0.015375256538391113,0.10806812345981598,-0.008163467049598694,0.7255879044532776,0.16570119559764862,0.3072082996368408,1.6799770508418934,-0.12981430233840335,-2.2023555094808835
1687094604.07624,0.9861676692962646,0.12093402445316315,0.11334919184446335,-0.014076054096221924,0.052314095199108124,-0.026221878826618195,0.09789596498012543,0.12662573158740997,0.09824527055025101,1.6852332161832195,-0.12123075912346008,-2.2242531451879617
1687094604.117307,0.9854350686073303,0.12089193612337112,0.11959488689899445,-0.019370555877685547,0.15126365423202515,-0.06051325798034668,0.0028293749783188105,0.10660942643880844,-0.12814491987228394,1.6915682151231866,-0.12118835707218388,-2.227313621949171
1687094604.159863,0.9837053418159485,0.13107486069202423,0.12305671721696854,-0.009660601615905762,0.09908856451511383,-0.05335499346256256,-0.4529551863670349,0.013695266097784042,-0.3235038220882416,1.6952449559162355,-0.1314531184422379,-2.2149042334236984
1687094604.267148,0.9808765649795532,0.14860162138938904,0.12569300830364227,0.026905477046966553,0.09048818051815033,-0.03801633417606354,-0.6504051089286804,-0.0546254888176918,-0.5555464625358582,1.6982453066637961,-0.1491540387326255,-2.185683242238279
1687094604.28262,0.9757634401321411,0.1755490005016327,0.13064582645893097,-0.09023475646972656,0.15848104655742645,-0.04107712209224701,-1.7580657005310059,-0.10990820825099945,-0.914104163646698,1.7038956322891419,-0.1764634014090728,-2.123197534607449
1687094604.323608,0.9652987122535706,0.21337488293647766,0.15056294202804565,0.05887109041213989,0.3152199387550354,0.15493294596672058,-2.410748243331909,0.02779630571603775,-1.2901140451431274,1.7255250968913733,-0.21502809417031857,-2.003173721081432
1687094604.376024,0.9461647272109985,0.26176512241363525,0.19039765000343323,0.09022748470306396,0.3643334209918976,0.13308833539485931,-2.7190282344818115,0.365282267332077,-1.5998049974441528,1.769375233796568,-0.264850644623096,-1.8579043370705506
1687094604.427143,0.9149903059005737,0.3148299753665924,0.25233936309814453,0.04727494716644287,0.36072245240211487,0.1687723696231842,-2.0153071880340576,0.7503189444541931,-1.7935298681259155,1.839890962093456,-0.32027752144985017,-1.7115823116881181
1687094604.4673018,0.8691362142562866,0.37640637159347534,0.320811927318573,0.17189472913742065,0.40783435106277466,0.2381323277950287,-1.3576579093933105,1.1204826831817627,-1.899110198020935,1.924398309953656,-0.3859143132932087,-1.6005312074430844
1687094604.505708,0.804693341255188,0.43975546956062317,0.398852676153183,0.2770479917526245,0.3754301071166992,0.2204858660697937,-0.9695088267326355,1.486836552619934,-2.062683582305908,2.0309643030566966,-0.45532638389165203,-1.4994901908368923
1687094604.586493,0.7166182398796082,0.5091093182563782,0.47672438621520996,0.3352617621421814,0.3162692189216614,0.1823481321334839,-0.1175905168056488,1.917665958404541,-2.2047762870788574,2.1578118291741544,-0.5341496326917636,-1.4108196631957082
1687094604.613435,0.5994806289672852,0.5891512632369995,0.5417779088020325,0.4395514130592346,0.14800089597702026,0.21325701475143433,0.4187115430831909,2.353827476501465,-2.334805965423584,2.305676887219325,-0.6300080458097829,-1.336758376317119
1687094604.6527,0.45540159940719604,0.6623833775520325,0.5948593616485596,0.541256844997406,-0.00387495756149292,0.06395375728607178,0.2695833146572113,2.386321544647217,-2.405345916748047,2.488206168384206,-0.7239956575013126,-1.2370549465163874
1687094604.7064,0.3035661280155182,0.720436155796051,0.623553991317749,0.5535202622413635,-0.0653303861618042,0.02448660135269165,0.5602407455444336,2.1700985431671143,-2.292031764984131,2.6885346943943187,-0.804430995671494,-1.1141145395700636
1687094604.779632,0.16338635981082916,0.7563878893852234,0.6333891749382019,0.5210620164871216,-0.2090855836868286,-0.13314545154571533,0.2994527816772461,1.5756915807724,-2.025705575942993,2.88914039245956,-0.8577732446631331,-0.9710046904936793
1687094604.859921,0.041707683354616165,0.7857623100280762,0.6171206831932068,0.40853360295295715,-0.12539231777191162,-0.06202155351638794,0.9609902501106262,1.4162418842315674,-1.8113653659820557,3.074110946533146,-0.9039276139000822,-0.8284900801293911
1687094604.875678,-0.07228942215442657,0.8128849864006042,0.57792067527771,0.3809596598148346,-0.17290061712265015,-0.04964643716812134,0.6547076106071472,1.3966270685195923,-1.7825170755386353,-3.017153604032074,-0.9490885908258502,-0.6744387840412629
1687094604.911838,-0.18621686100959778,0.8150177597999573,0.5486981272697449,0.3450304865837097,-0.1342160701751709,-0.0107649564743042,0.49148455262184143,1.5025265216827393,-1.7757749557495117,-2.8144105314111973,-0.9527598758774068,-0.5166101214704825
1687094604.954061,-0.29881471395492554,0.8133355379104614,0.49919411540031433,0.2982809245586395,-0.06933212280273438,-0.008838087320327759,1.0534054040908813,1.5115360021591187,-1.8113961219787598,-2.602207453899421,-0.9498625504512644,-0.34970953481015926
1687094605.0046601,-0.41128087043762207,0.8046213984489441,0.42829012870788574,0.2651171088218689,-0.00454181432723999,0.057076334953308105,0.9925112128257751,1.5868585109710693,-1.9547637701034546,-2.3764511735837006,-0.9350375402646033,-0.16627665305794237
1687094605.069288,-0.5241844654083252,0.7739351987838745,0.35532328486442566,0.2994227409362793,0.034139811992645264,0.15174123644828796,0.8700446486473083,2.0189948081970215,-2.1209754943847656,-2.1665076432859514,-0.8850319489492346,-0.0062585482810837995
1687094605.151535,-0.6348115801811218,0.7271974086761475,0.2611469328403473,0.272705614566803,0.12055045366287231,0.15094691514968872,1.1517913341522217,2.0953428745269775,-2.303893804550171,-1.9610718940169618,-0.8142302035691793,0.14357129420872716
1687094605.159936,-0.7391982078552246,0.6569628715515137,0.14827707409858704,0.30941927433013916,0.1294296383857727,0.24509431421756744,1.2624574899673462,2.119472026824951,-2.4786534309387207,-1.7687608372399697,-0.7167832022256213,0.2743585630817897
1687094605.206348,-0.8286381959915161,0.5595371723175049,0.016637582331895828,0.39319831132888794,0.11746495962142944,0.25477027893066406,1.8389161825180054,2.146388292312622,-2.774667501449585,-1.5908718509863653,-0.5938272850941945,0.3863014404372008
1687094605.2841048,-0.895214855670929,0.4291772246360779,-0.11998847872018814,0.3841218948364258,0.04985743761062622,0.20505595207214355,1.531402349472046,2.0368082523345947,-2.9551777839660645,-1.4375572574142317,-0.4435816417159431,0.4816200994247828
1687094605.305484,-0.9307001233100891,0.2798866927623749,-0.23550091683864594,0.37082481384277344,0.07341554760932922,0.21307022869586945,1.4850181341171265,1.7859910726547241,-3.026437759399414,-1.322962008707107,-0.28367607724417593,0.5251278056624841
1687094605.3804889,-0.9391893148422241,0.10624970495700836,-0.3265492022037506,0.37839847803115845,0.09464775770902634,0.10808888077735901,1.570085883140564,1.50458824634552,-3.3543503284454346,-1.236178549129288,-0.10645063392157789,0.5559053148151232
1687094605.45185,-0.9169450998306274,-0.0767545998096466,-0.39156144857406616,0.427412748336792,0.1385682225227356,0.17696160078048706,1.0067484378814697,1.2814171314239502,-3.5669338703155518,-1.1672090073492067,0.07683016709803948,0.5502552824132645
1687094605.4601932,-0.8530856966972351,-0.25233542919158936,-0.45669642090797424,0.32610827684402466,0.09506338834762573,0.001923203468322754,1.2700461149215698,0.9676566123962402,-3.5195212364196777,-1.0792729873536473,0.2550930356765832,0.5003354222631247
1687094605.5105839,-0.7757533192634583,-0.43428853154182434,-0.4578213393688202,0.24332845211029053,-0.13388746976852417,-0.14970767498016357,2.8833699226379395,0.6956778168678284,-3.074800968170166,-1.037640893635465,0.44924827685739116,0.49985358076265307
1687094605.5585198,-0.6925278306007385,-0.5976201295852661,-0.4040488004684448,0.18099218606948853,-0.16037523746490479,-0.03989076614379883,2.256728172302246,0.454979807138443,-2.2113165855407715,-1.0426419054487115,0.6405296085778561,0.5620424931461547
1687094605.6332731,-0.6179640293121338,-0.6846033930778503,-0.38657280802726746,0.11912375688552856,-0.33916956186294556,0.16869226098060608,-0.11565972119569778,0.4638984501361847,-1.6390888690948486,-1.0117953016150165,0.7540594268228176,0.5530007585916069
1687094605.658895,-0.5602108240127563,-0.7211683988571167,-0.40752914547920227,0.05383265018463135,-0.283012330532074,-0.0843382477760315,-0.17605116963386536,0.38152799010276794,-1.1004910469055176,-0.9418796711514812,0.8054873933059327,0.48595372350244087
1687094605.763362,-0.5224584341049194,-0.7480210661888123,-0.4092698097229004,0.09339654445648193,-0.13807189464569092,-0.07481563091278076,-0.032079074531793594,0.09011562913656235,-0.7609438300132751,-0.9062882412325616,0.8450752235546201,0.44607061840471646
1687094605.779732,-0.49503782391548157,-0.7613470554351807,-0.418674498796463,0.01284480094909668,-0.08842992782592773,0.03778427839279175,-0.21938452124595642,0.11338783800601959,-0.5797913670539856,-0.8687792022241306,0.8653882598090816,0.40193109933688903
1687094605.814611,-0.47199779748916626,-0.7751902341842651,-0.4198785722255707,-0.0054649412631988525,-0.028627216815948486,-0.0399148166179657,0.2541268467903137,0.18272751569747925,-0.46941840648651123,-0.8437695094941613,0.8870161733406275,0.3788723282728478
1687094605.8617039,-0.4506593644618988,-0.7945924997329712,-0.4068523049354553,-0.014443814754486084,-0.07230484485626221,0.08191609382629395,0.8113701343536377,0.2736952304840088,-0.2881768047809601,-0.8364400383128832,0.9183361545634097,0.3848088512519405
1687094605.909816,-0.4396776556968689,-0.8110466003417969,-0.38585877418518066,0.06618821620941162,-0.1167181134223938,-0.04103672504425049,0.19937439262866974,0.12859275937080383,-0.05412129685282707,-0.8504986346353408,0.9459390413196005,0.41513325543171853
1687094605.984031,-0.4403684139251709,-0.8104649186134338,-0.38629287481307983,0.0334317684173584,-0.07108086347579956,-0.033552974462509155,0.15159088373184204,-0.012299872003495693,0.031344201415777206,-0.8507194609725314,0.9449453287912791,0.4185469766771145
1687094606.0547361,-0.44162869453430176,-0.8148365020751953,-0.3755069375038147,0.008263826370239258,0.038240671157836914,-0.008557111024856567,0.1463114321231842,-0.02253575436770916,0.027131546288728714,-0.8661411572262906,0.9524470655523014,0.4355357229044186
1687094606.0727282,-0.4437123239040375,-0.8143119812011719,-0.3741862177848816,0.014436811208724976,-0.021106481552124023,0.03151926398277283,0.020449914038181305,-0.027167189866304398,0.04379541054368019,-0.8702000688467049,0.9515428103166699,0.439495744712851
1687094606.112193,-0.44654273986816406,-0.8143061995506287,-0.3708169162273407,0.011789262294769287,0.0020656585693359375,0.0008061826229095459,0.039755433797836304,-0.08044750243425369,0.057754501700401306,-0.8777813088077105,0.9515328305240225,0.4452632899859153
1687094606.190473,-0.45082327723503113,-0.8136129975318909,-0.36714059114456177,0.01999133825302124,-0.01434391736984253,0.015242040157318115,0.024057699367403984,-0.10233908891677856,0.10728383809328079,-0.8873495264400622,0.9503396433595561,0.4507949256197455
1687094606.231645,-0.45931705832481384,-0.8109355568885803,-0.3625069558620453,0.040951550006866455,-0.033210933208465576,-0.019909143447875977,-0.15493789315223694,-0.17529398202896118,0.28743869066238403,-0.9026568351423029,0.9457492440280878,0.46211078852039594
1687094606.26466,-0.4949248135089874,-0.778454065322876,-0.3860810101032257,0.2535765469074249,-0.43605369329452515,0.04332253336906433,-1.1116929054260254,-0.6650298833847046,1.2780669927597046,-0.9083202269090174,0.8921992037964401,0.4456501610921981
1687094606.311856,-0.5856800079345703,-0.7048355937004089,-0.400232195854187,0.4347705841064453,-0.6649609804153442,-0.12392276525497437,-1.1429450511932373,-1.3254985809326172,2.484257221221924,-0.9713234317360532,0.7821913237473588,0.46028745280334354
1687094606.3835511,-0.7105109095573425,-0.5882372260093689,-0.3862011134624481,0.40333616733551025,-0.4397776126861572,-0.018904805183410645,-0.9779824614524841,-1.4490078687667847,3.368048906326294,-1.072915439308318,0.6288773304284547,0.5040478947473557
1687094606.422673,-0.8263838291168213,-0.42735788226127625,-0.36668092012405396,0.34208518266677856,-0.25342798233032227,0.11324739456176758,-2.1426093578338623,-1.3567233085632324,3.561978578567505,-1.1531792417828708,0.44156833345341767,0.521484988147099
1687094606.4686499,-0.9131574034690857,-0.21494323015213013,-0.34632763266563416,0.31360918283462524,-0.2105172723531723,0.18170031905174255,-3.6503751277923584,-1.7986433506011963,3.6621251106262207,-1.2082927102565424,0.216633698411489,0.4460515058375329
1687094606.526859,-0.9638189673423767,0.01808132976293564,-0.26594385504722595,0.3995490074157715,-0.16311579942703247,0.05807316303253174,-3.7386183738708496,-2.381615400314331,3.6180741786956787,-1.3015683207439148,-0.01808231443941506,0.32529695762860505
1687094606.588385,-0.9677591323852539,0.22039031982421875,-0.12194409966468811,0.36580002307891846,-0.13840453326702118,0.06367063522338867,-2.256390333175659,-2.7063324451446533,3.5567243099212646,-1.4454502768744946,-0.2222146131982534,0.2090332140985239
1687094606.65522,-0.9201265573501587,0.39025789499282837,0.03265095129609108,0.516943633556366,-0.12173333764076233,-0.058789368718862534,-0.9067415595054626,-2.902092218399048,3.356701612472534,-1.6062667273854172,-0.4009116666122768,0.1435335656302342
1687094606.6752791,-0.827457845211029,0.5273761749267578,0.19284099340438843,0.47955775260925293,-0.12445235252380371,0.024108275771141052,-1.6369707584381104,-3.009702444076538,3.1706554889678955,-1.7997617593830513,-0.5555093760311098,0.04590472013985471
1687094606.7149339,-0.6991940140724182,0.6212952136993408,0.35372281074523926,0.4027312397956848,0.015576303005218506,-0.0958646833896637,-0.9787510633468628,-3.333751916885376,2.634420156478882,-2.0391534149355683,-0.6703945756525753,-0.09140531683549123
1687094606.7882972,-0.5450015664100647,0.6809804439544678,0.4891206920146942,0.4534947872161865,0.002995014190673828,0.07102930545806885,-0.6723778247833252,-3.2011632919311523,2.440217971801758,-2.302209980868832,-0.7491006514941637,-0.23859746662612807
1687094606.83252,-0.384678453207016,0.7373656630516052,0.5552605390548706,0.3402450680732727,0.0907595157623291,0.1431797742843628,0.10827910155057907,-2.597672939300537,2.207845449447632,-2.535722651168335,-0.8291621593825609,-0.36356905967821146
1687094606.8997269,-0.24813401699066162,0.7589587569236755,0.602005660533905,0.2858844995498657,0.034010112285614014,0.21218770742416382,-0.13619615137577057,-1.6783301830291748,1.854435920715332,-2.7506315496435194,-0.861712514013436,-0.5131283543246005
1687094606.948972,-0.12853851914405823,0.7974990606307983,0.5894684195518494,0.16293203830718994,0.06596541404724121,0.04131448268890381,1.162442922592163,-1.5875862836837769,1.9130818843841553,-2.926895096663752,-0.9231385328824663,-0.6380320677107295
1687094607.008556,-0.005338802468031645,0.8221728205680847,0.5692128539085388,0.14250025153160095,-0.02761697769165039,0.035813093185424805,0.2045326679944992,-1.5267672538757324,1.9224894046783447,-3.1322136565238816,-0.9652176077897889,-0.7994255850490832
1687094607.023346,0.10860619693994522,0.8211808204650879,0.5602380633354187,0.0974181741476059,0.14239656925201416,0.13243436813354492,0.07902161031961441,-1.1628587245941162,1.7443244457244873,2.9501105176097284,-0.963477160683528,-0.9593535554989053
1687094607.060139,0.20935502648353577,0.8133851289749146,0.5427476167678833,0.15220217406749725,0.049728333950042725,0.05001020431518555,0.30953845381736755,-1.0314775705337524,1.7423532009124756,2.773446622156579,-0.9499478299249291,-1.10507535722725
1687094607.114116,0.30489274859428406,0.8028938174247742,0.5122520327568054,0.10682010650634766,0.08597666025161743,0.08346611261367798,0.4991413950920105,-0.8990926146507263,1.6858514547348022,2.6047095738704,-0.9321338283840838,-1.251961666330444
1687094607.186549,0.39464810490608215,0.7878198623657227,0.4728555679321289,0.1595359742641449,0.004843652248382568,-0.012895047664642334,0.5858861804008484,-1.0226331949234009,1.6117589473724365,2.4461037569379576,-0.9072612234573121,-1.391717703206267
1687094607.264962,0.47912806272506714,0.7605903744697571,0.43810808658599854,0.09402281045913696,0.09524476528167725,0.08130079507827759,0.05604865401983261,-0.8059467077255249,1.5319174528121948,2.311502975001544,-0.864221969976566,-1.5054267794098994
1687094607.281127,0.5539137721061707,0.7264907360076904,0.40668296813964844,0.08521610498428345,0.21123826503753662,0.034509360790252686,0.3729666769504547,-0.5297865271568298,1.4249465465545654,2.2041079030118214,-0.8132012802217742,-1.5927505116000902
1687094607.3135638,0.6180802583694458,0.6874462366104126,0.3813064694404602,0.16356664896011353,0.08774614334106445,0.03437310457229614,0.33039340376853943,-0.6381773948669434,1.1551930904388428,2.1235646543409232,-0.7579666959869661,-1.6477271834556675
1687094607.3652492,0.674436628818512,0.6549538969993591,0.34083810448646545,0.07406812906265259,0.1635732650756836,0.11063861846923828,0.25438809394836426,-1.0036673545837402,1.4165805578231812,2.0387284140406123,-0.7141216427436743,-1.717259500490214
1687094607.43953,0.7278688549995422,0.6188231110572815,0.2954062819480896,0.06969285011291504,0.2015504240989685,0.10762369632720947,1.1428567171096802,-0.5919165015220642,1.2182190418243408,1.9563364217759132,-0.6672436156298104,-1.7882437127037454
1687094607.469187,0.7701014876365662,0.5851033926010132,0.254160612821579,0.08738148212432861,0.04542022943496704,0.10910499095916748,0.2001565545797348,-0.6130251288414001,1.1581753492355347,1.8895756281377956,-0.625007547570882,-1.8514183269923086
1687094607.58117,0.8115126490592957,0.5453932881355286,0.2097461074590683,0.024196147918701172,0.18727266788482666,0.08578577637672424,1.5707409381866455,-0.39332684874534607,1.27932608127594,1.823724299930515,-0.5768582879250596,-1.9201087764775622
1687094607.597458,0.8458547592163086,0.5093291997909546,0.1584727019071579,0.04618942737579346,-0.028356969356536865,0.04486560821533203,1.1868228912353516,-0.34019404649734497,1.1986521482467651,1.7560014488504097,-0.5344051158747267,-2.016846284019784
1687094607.6300368,0.8789239525794983,0.462444543838501,0.11678114533424377,0.020902276039123535,0.019321143627166748,0.033014073967933655,0.9207792282104492,-0.35695934295654297,1.2637579441070557,1.7028909374408079,-0.48075029617592774,-2.0889870039458196
1687094607.675099,0.9079869389533997,0.4091804325580597,0.09017296880483627,0.023745298385620117,0.06497102975845337,0.12125241756439209,0.17967285215854645,-0.2723497152328491,1.273959755897522,1.6697826238843128,-0.4215556833110679,-2.1283229150652967
1687094607.7223601,0.9323684573173523,0.35345762968063354,0.07587295770645142,0.05531775951385498,0.1055418848991394,0.08484745025634766,0.07258954644203186,-0.19957679510116577,1.103727102279663,1.6519939909294667,-0.3612647467920263,-2.1406778506071675
1687094607.766696,0.950964093208313,0.3018774092197418,0.06736056506633759,0.06116676330566406,0.14070367813110352,0.07294369488954544,0.48006677627563477,-0.11181658506393433,1.1436842679977417,1.641512187511512,-0.30666130930272395,-2.1514867427188635
1687094607.862663,0.9665179252624512,0.25008946657180786,0.057430338114500046,0.030552387237548828,0.1326465904712677,0.15423917770385742,0.13929107785224915,-0.07411987334489822,1.081689715385437,1.6301463817381425,-0.25277264876593764,-2.1792815012784126
1687094607.879976,0.9778233170509338,0.20273128151893616,0.052548930048942566,-0.03273975849151611,0.24779954552650452,0.09900092333555222,0.3841298520565033,0.010415716096758842,0.8447340130805969,1.6244854022897954,-0.2041463232802061,-2.1973047477703727
1687094607.920867,0.9837056994438171,0.17124974727630615,0.054740384221076965,-0.018480539321899414,0.2123255729675293,0.0958939790725708,-0.4566015899181366,0.074924997985363,0.47278377413749695,1.6263861063895941,-0.1720980097548824,-2.20004633435723
1687094607.971288,0.9858785271644592,0.15536893904209137,0.062482114881277084,0.012336194515228271,0.3026692271232605,0.028093695640563965,0.11326293647289276,0.14722026884555817,0.1718013733625412,1.6340887696924113,-0.1560009241400093,-2.185595682980927
1687094608.016644,0.9856183528900146,0.1545342057943344,0.06837789714336395,-6.842613220214844e-05,0.20677849650382996,-0.00046133995056152344,-0.06712281703948975,0.11470135301351547,-0.1096053272485733,1.640060979153743,-0.15515597663653996,-2.195499154174115
1687094608.071179,0.9830747842788696,0.16650158166885376,0.07642823457717896,-0.024105548858642578,0.1856711059808731,0.019716985523700714,-0.7249363660812378,0.09925111383199692,-0.45694786310195923,1.648384328037208,-0.16728065640641615,-2.1769987931946146
1687094608.161787,0.9758986234664917,0.1970389187335968,0.09379422664642334,-0.027351319789886475,0.27869945764541626,0.06497310847043991,-1.6560930013656616,0.15219762921333313,-1.0811372995376587,1.6666126493709592,-0.19833670332447467,-2.1116197119666476
1687094608.178446,0.9591680765151978,0.2528817355632782,0.1266774982213974,0.03282099962234497,0.46968284249305725,0.09066830575466156,-2.156797170639038,0.31110572814941406,-1.6085084676742554,1.702106558951986,-0.25565763486014914,-2.004106491906948
1687094608.22629,0.930828332901001,0.3182476758956909,0.17965738475322723,0.12610214948654175,0.4370318055152893,0.12406834959983826,-2.1250929832458496,0.5818498134613037,-1.8603148460388184,1.7614599348320044,-0.3238804722633233,-1.8767674045184795
1687094608.268591,0.8885670304298401,0.38930171728134155,0.24267813563346863,0.1403331160545349,0.44494199752807617,0.13923369348049164,-1.2009940147399902,0.8891213536262512,-2.043177366256714,1.8374062443013925,-0.3998733842004582,-1.7640396150443662
1687094608.340626,0.8283457159996033,0.4696149230003357,0.3054588735103607,0.279579758644104,0.2937670648097992,0.16727328300476074,-0.6035750508308411,1.206831693649292,-2.206932544708252,1.9240830999953449,-0.4888545481418387,-1.6840969964123045
1687094608.377399,0.7453739047050476,0.5518600940704346,0.3739892840385437,0.30888640880584717,0.17644190788269043,0.18846452236175537,-0.23388223350048065,1.7226142883300781,-2.316957712173462,2.0358407122481212,-0.5845931258122278,-1.6091421210653085
1687094608.456962,0.63491290807724,0.632635772228241,0.4434608519077301,0.42044615745544434,0.09501010179519653,0.15895581245422363,0.16421373188495636,2.0818512439727783,-2.452038049697876,2.180487555743848,-0.6849519262363174,-1.5286564212142069
1687094608.474462,0.49858158826828003,0.7165592908859253,0.48781079053878784,0.4420772194862366,0.10477566719055176,0.14935022592544556,0.9056460857391357,2.248412609100342,-2.559222459793091,2.3452755453283807,-0.798857044719941,-1.4464527305499937
1687094608.520327,0.3417910933494568,0.8064804673194885,0.48245999217033386,0.5232908725738525,0.025977909564971924,0.13886219263076782,1.689587950706482,2.1669833660125732,-2.773132085800171,2.5252286446614467,-0.9381751478460797,-1.3578428703895151
1687094608.588582,0.1740717738866806,0.8720666766166687,0.4573819041252136,0.52189701795578,-0.03126174211502075,0.20065292716026306,0.671832799911499,2.121671199798584,-2.780014991760254,2.7779363108232875,-1.059409519013638,-1.1854732399795924
1687094608.6269531,0.003076223423704505,0.8979595899581909,0.44006720185279846,0.5674043297767639,-0.05146282911300659,0.12194424867630005,0.8448554277420044,2.0857222080230713,-2.8201441764831543,3.134602417970969,-1.1151109119744143,-0.9008223768866999
1687094608.670309,-0.17037606239318848,0.9126092195510864,0.37163981795310974,0.5869107246398926,-0.015682339668273926,0.09558400511741638,1.685772180557251,2.1533098220825195,-2.917476177215576,-2.711738869297109,-1.149621390830489,-0.5370015205123075
1687094608.760373,-0.34309667348861694,0.9017132520675659,0.2630546987056732,0.6095459461212158,-0.011454343795776367,0.13754913210868835,1.7221033573150635,2.124209403991699,-3.1392712593078613,-2.2249046328487116,-1.123716036762781,-0.11997920869755765
1687094608.7773929,-0.5054102540016174,0.8509272933006287,0.14311914145946503,0.5975126624107361,0.0037328600883483887,0.21854446828365326,1.6694388389587402,2.1592512130737305,-3.2409019470214844,-1.8467460162226301,-1.0177480537698538,0.18712425507477856
1687094608.846139,-0.6487136483192444,0.7609229683876038,0.012919558212161064,0.604722797870636,0.03224444389343262,0.20406019687652588,1.6790000200271606,2.078883647918701,-3.4022626876831055,-1.5907093506547616,-0.8647343748173703,0.3707049168287504
1687094608.886255,-0.7660035490989685,0.6317232847213745,-0.11901363730430603,0.5706912875175476,0.08885794878005981,0.24465423822402954,1.8078418970108032,1.4779423475265503,-3.6484951972961426,-1.4166591490328948,-0.683774253965948,0.4728732743387492
1687094608.929735,-0.8508263826370239,0.4648526608943939,-0.24496185779571533,0.3762935996055603,0.0732487142086029,0.17287911474704742,2.419950008392334,1.9692329168319702,-3.6727428436279297,-1.2904673765827723,-0.483468193388763,0.5439888192041193
1687094608.97255,-0.8933213949203491,0.2652885615825653,-0.36276572942733765,0.38616514205932617,0.06756693124771118,0.18237608671188354,2.52944016456604,1.3014520406723022,-3.782860279083252,-1.1850540350433103,-0.26850318367965426,0.6019070284416657
1687094609.046392,-0.9007964134216309,0.04734346643090248,-0.43165284395217896,0.28647780418395996,0.05072498321533203,0.13808876276016235,2.176260232925415,0.7754240036010742,-3.6159424781799316,-1.1239346912203247,-0.0473611694688388,0.6476840477669816
1687094609.089591,-0.8769266605377197,-0.1450750082731247,-0.45820626616477966,0.2696880102157593,0.014383703470230103,0.18981915712356567,1.0050873756408691,0.5521752834320068,-3.4373788833618164,-1.0893003410655548,0.145588776545082,0.6362375780138959
1687094609.142242,-0.8305137753486633,-0.29856443405151367,-0.47021934390068054,0.2947777509689331,-0.05044957995414734,0.06148189306259155,0.3947470784187317,0.2756742537021637,-3.0780835151672363,-1.05561662839433,0.30318812332533196,0.5795135924882451
1687094609.188896,-0.7703190445899963,-0.4314441978931427,-0.46953651309013367,0.28937721252441406,-0.10920500755310059,0.024589896202087402,0.696712851524353,0.0648505762219429,-2.8009445667266846,-1.023395204403,0.4460930306557774,0.5252943036632705
1687094609.244987,-0.7062649130821228,-0.5366041660308838,-0.4617854058742523,0.32067543268203735,-0.12849563360214233,0.11255720257759094,0.25123918056488037,-0.11182381957769394,-2.2835726737976074,-0.9917252432478048,0.5664076633176948,0.4691531456657706
1687094609.294224,-0.645934522151947,-0.6115602850914001,-0.4569056034088135,0.17599433660507202,-0.06365615129470825,0.0496329665184021,0.2806745767593384,0.15478196740150452,-1.7323811054229736,-0.9551505265213875,0.6580311513561045,0.415522343472863
1687094609.350573,-0.5918359756469727,-0.6637962460517883,-0.4572799503803253,0.16643613576889038,-0.052191734313964844,0.03235292434692383,0.08818741142749786,0.27893927693367004,-1.3318592309951782,-0.9129583295899927,0.7258831610881115,0.3640373535859007
1687094609.406843,-0.5493590235710144,-0.7000409960746765,-0.45623156428337097,0.1097380518913269,-0.11963033676147461,-0.012991756200790405,0.366779625415802,0.2789371907711029,-0.8894975781440735,-0.8777444524253901,0.7754549147285692,0.3322926907475303
1687094609.423197,-0.5182945728302002,-0.7263658046722412,-0.45140188932418823,0.03338545560836792,-0.1293010711669922,-0.03198164701461792,0.27052927017211914,0.27000194787979126,-0.540081799030304,-0.8542721610582545,0.8130195103980081,0.3193334626146219
1687094609.4915361,-0.49734047055244446,-0.7458289265632629,-0.4431609809398651,-0.01352381706237793,-0.10129296779632568,-0.057525962591171265,0.6212529540061951,0.2460172325372696,-0.286070317029953,-0.8429415762216609,0.8417783166221682,0.32165526235920494
1687094609.535307,-0.4821423888206482,-0.7686376571655273,-0.4203982949256897,-0.0023852288722991943,-0.022545576095581055,0.01365971565246582,0.7047950029373169,0.24162906408309937,-0.24525389075279236,-0.8537031430755613,0.8767087022069895,0.3520327553243565
1687094609.577393,-0.4699680209159851,-0.7839052081108093,-0.40573716163635254,0.013135075569152832,-0.017608225345611572,-0.009485304355621338,0.334316223859787,0.07988103479146957,-0.17853838205337524,-0.8586146226433972,0.9009308638827642,0.36922128749121996
1687094609.6518831,-0.46597549319267273,-0.7909945249557495,-0.39647775888442993,0.05256909132003784,-0.04234880208969116,-0.027198076248168945,0.1568482369184494,-0.1648770421743393,-0.08192317187786102,-0.8658058653697541,0.9124327561119945,0.37573745170207906
1687094609.6886501,-0.4646633267402649,-0.7971735000610352,-0.3854896128177643,0.03279384970664978,0.006966829299926758,-0.024666935205459595,0.19859594106674194,-0.1863926500082016,-0.15421414375305176,-0.878259121787921,0.9225990631016047,0.37987091223905295
1687094609.7378101,-0.45941123366355896,-0.8040835857391357,-0.37734729051589966,-0.03694194555282593,0.010199546813964844,0.035519540309906006,0.06813541054725647,0.029302166774868965,-0.17235299944877625,-0.8831591664985076,0.9341324369304437,0.3809093526641804
1687094609.7810621,-0.4520019590854645,-0.8091242909431458,-0.37551558017730713,0.0014709532260894775,-0.004275679588317871,0.04026442766189575,0.2446417361497879,0.12092660367488861,-0.08417074382305145,-0.8775650180719747,0.9426603523095596,0.3804036603699477
1687094609.849467,-0.4498921036720276,-0.8166908025741577,-0.3614044487476349,0.012361526489257812,-0.034291625022888184,-0.04855376482009888,0.44869258999824524,0.10187319666147232,0.03449918329715729,-0.8940381328469654,0.9556531438426626,0.4080262267939265
1687094609.902601,-0.451185405254364,-0.8216599225997925,-0.34829092025756836,0.014555156230926514,-0.004969418048858643,-0.023047298192977905,0.2433149516582489,0.02883118763566017,0.06945230811834335,-0.9133968653076862,0.9643171769554562,0.43515766947742596
1687094609.955161,-0.45253053307533264,-0.8234817385673523,-0.34218961000442505,0.0031287074089050293,0.019649028778076172,0.018611401319503784,0.1881566196680069,0.034335073083639145,0.03766008839011192,-0.923358670721991,0.9675209080061105,0.44926734306671107
1687094609.995492,-0.4528646171092987,-0.8262681365013123,-0.3349544107913971,-0.013230353593826294,-0.005244076251983643,0.03304371237754822,0.18198128044605255,0.05265020951628685,0.024152934551239014,-0.9339620377242001,0.9724498577077534,0.46459070678351433
1687094610.0930738,-0.4523110091686249,-0.8283372521400452,-0.3305630683898926,-0.021703243255615234,-0.017670750617980957,0.0074273645877838135,0.10207686573266983,0.06915588676929474,0.011547993868589401,-0.9396764394248902,0.9761331745607653,0.47502305557921587
1687094610.110079,-0.45254188776016235,-0.8305605053901672,-0.324614942073822,-0.0072054266929626465,-0.018117785453796387,-0.005616098642349243,0.141282856464386,0.02509079873561859,0.012479634024202824,-0.9485440107990541,0.9801133401590757,0.4872587257726421
1687094610.1498199,-0.4526209235191345,-0.8331549763679504,-0.3177846074104309,-0.008820176124572754,-0.0011191368103027344,0.015599191188812256,0.11958102136850357,0.01956014707684517,-0.023180559277534485,-0.958663155439605,0.9847881583947694,0.49949465146094835
1687094610.195339,-0.4507262110710144,-0.8351775407791138,-0.31515759229660034,0.0006834864616394043,-0.0006834268569946289,0.022096902132034302,0.13943035900592804,0.02660980075597763,-0.02411293238401413,-0.960592835472685,0.9884555120614148,0.50415401650482
1687094610.2636251,-0.4505377411842346,-0.8383386135101318,-0.30692681670188904,0.011954337358474731,0.0021877288818359375,-0.0013620853424072266,0.16031166911125183,-0.02071581594645977,-0.009588051587343216,-0.9727684645904301,0.9942284742204152,0.5186371045791983
1687094610.282229,-0.4511801302433014,-0.8390770554542542,-0.3039507269859314,0.013054519891738892,-0.011691749095916748,0.018412679433822632,-0.0063382904045283794,-0.020833326503634453,0.0020593497902154922,-0.9779544973997443,0.9955844586355312,0.5227759625239669
1687094610.368927,-0.4502652585506439,-0.8393499851226807,-0.3045535087585449,0.005883514881134033,0.00583881139755249,0.01674187183380127,-0.024212095886468887,-0.007368939928710461,-0.02171688713133335,-0.9760945102945341,0.9960863132560605,0.5204811161968456
1687094610.403264,-0.4491090476512909,-0.8399249911308289,-0.3046754002571106,-0.003985464572906494,-0.008478760719299316,0.013171195983886719,-0.00807227473706007,0.003101388458162546,-0.019750608131289482,-0.9747148177408558,0.9971449819403851,0.5187982349334489
1687094610.444909,-0.4488951563835144,-0.8402894735336304,-0.3039845824241638,-0.0012086331844329834,-0.0033229589462280273,-0.006760984659194946,0.005141265224665403,-0.026212003082036972,-0.021453365683555603,-0.9755478251965919,0.9978169746344665,0.5181504488886106
1687094610.486649,-0.4485633671283722,-0.8408016562461853,-0.30305689573287964,0.005860090255737305,0.002361893653869629,0.008531391620635986,-0.03818383812904358,-0.028999000787734985,-0.018043721094727516,-0.9766231260010011,0.9987624181296595,0.5172316489441915
1687094610.547359,-0.44804033637046814,-0.8406729102134705,-0.3041853904724121,0.011349081993103027,-0.0040839314460754395,0.005112797021865845,-0.04540233686566353,-0.028056152164936066,-0.02203100547194481,-0.9743557184757863,0.9985245822479317,0.5131301455896341
1687094610.590193,-0.44848960638046265,-0.840203583240509,-0.3048197627067566,0.013247847557067871,-0.003347933292388916,0.0006966888904571533,-0.0030618037562817335,-0.05323074758052826,0.010475005954504013,-0.9738532577807764,0.9976585909493476,0.5102184989751731
1687094610.6425772,-0.4521483778953552,-0.8293414115905762,-0.328260213136673,0.05863937735557556,-0.09529531002044678,0.061566680669784546,-1.5651003122329712,-0.12444000691175461,0.2945275604724884,-0.9428322873540801,0.9779279613207835,0.4698605535716169
1687094610.689423,-0.48310086131095886,-0.7923148274421692,-0.37262678146362305,0.23300927877426147,-0.1507086157798767,-0.00879746675491333,-0.8941485285758972,-0.48375120759010315,0.8459406495094299,-0.9137876116751829,0.9145938296956545,0.4134357284434288
1687094610.7409549,-0.5415824055671692,-0.7429325580596924,-0.3933696746826172,0.2908499836921692,-0.21476984024047852,-0.03596717119216919,-1.2659684419631958,-0.8394455313682556,1.492030143737793,-0.942614368410277,0.8374408478276278,0.40903202756438517
1687094610.805541,-0.6244357824325562,-0.658751904964447,-0.41967371106147766,0.2711489796638489,-0.24910002946853638,0.015788495540618896,-1.5261784791946411,-1.0600612163543701,2.1365811824798584,-0.9790521680538976,0.719158647269652,0.3920675495850455
1687094610.85342,-0.7199410796165466,-0.5536125302314758,-0.41856658458709717,0.20309537649154663,-0.30376332998275757,-0.011960387229919434,-0.9808229804039001,-1.093449592590332,2.6170313358306885,-1.044173004378017,0.5866959254951023,0.4073527507560168
1687094610.886674,-0.8129669427871704,-0.4237641990184784,-0.399385541677475,0.27614742517471313,-0.3148372173309326,0.1322343349456787,-0.8719532489776611,-1.0361168384552002,3.0759029388427734,-1.11415779205892,0.4375970896487571,0.4405046179404974
1687094610.960808,-0.8861546516418457,-0.26415663957595825,-0.3807242512702942,0.29544132947921753,-0.12677323818206787,0.2084064781665802,-1.3226386308670044,-0.8066749572753906,3.2970120906829834,-1.1650052340071084,0.2673293926696031,0.4579610298914766
1687094611.0097399,-0.9295517206192017,-0.09058669209480286,-0.3573901355266571,0.38600319623947144,-0.03139176964759827,0.2377457618713379,-0.9782781004905701,-0.6625508069992065,3.255279541015625,-1.2037440977175753,0.09071104083047928,0.4621743911067711
1687094611.049234,-0.9418982267379761,0.07003510743379593,-0.3285160958766937,0.3944740295410156,0.04416194558143616,0.187768816947937,-0.566679060459137,-0.5392904281616211,3.051229953765869,-1.2352079864699683,-0.07009248445658504,0.4825088205386404
1687094611.099749,-0.9288017153739929,0.21922294795513153,-0.2987786829471588,0.35156190395355225,0.013962119817733765,0.12650668621063232,-0.4704500436782837,-0.5536887049674988,3.002598762512207,-1.2595684625242138,-0.2210179774829241,0.507064710214361
1687094611.148782,-0.8899211883544922,0.36842626333236694,-0.2688910663127899,0.323530375957489,-0.04965466260910034,0.1611332893371582,-0.6909576058387756,-0.49609243869781494,3.116823673248291,-1.2773667998316578,-0.3773156218069653,0.5250933843640774
1687094611.190716,-0.8249413371086121,0.515195369720459,-0.23247647285461426,0.20244407653808594,-0.09272515773773193,0.05750371515750885,-0.7402908205986023,-0.2625872790813446,3.1570963859558105,-1.296110284153927,-0.5412356028704937,0.5371167087682336
