Timestamp,gravityX,gravityY,gravityZ,accelerationX,accelerationY,accelerationZ,rotationRateX,rotationRateY,rotationRateZ,attitudeRoll,attitudePitch,attitudeYaw
1687092239.98385,0.9428806304931641,0.33112555742263794,0.036494508385658264,-0.016840040683746338,-0.014520913362503052,0.007740732282400131,0.023647572845220566,0.11008450388908386,-0.07941704988479614,1.6094823500821793,-0.3374961790113436,2.7002643601695184
1687092240.0266042,0.9417269825935364,0.3336960971355438,0.0423896461725235,0.007308483123779297,-0.0342881977558136,-0.0032661035656929016,0.00880897045135498,0.0934431403875351,-0.023658379912376404,1.6157786322151206,-0.34022170860471473,2.7025590481183244
1687092240.092708,0.9415619969367981,0.3336794078350067,0.0460355244576931,0.01792597770690918,-0.032867610454559326,-0.014663457870483398,0.044284142553806305,0.07222296297550201,0.019571315497159958,1.61965014155661,-0.3402040104981781,2.7014555055098266
1687092240.162356,0.9420206546783447,0.33210134506225586,0.04801938310265541,0.0006825923919677734,-0.012063473463058472,-0.008712772279977798,0.0701303780078888,0.05875808000564575,0.032134443521499634,1.6217271159791546,-0.3385304818275261,2.6977277510224678
1687092240.17974,0.9424828290939331,0.3306156396865845,0.04918712005019188,3.725290298461914e-05,0.019604116678237915,-0.010231498628854752,0.09214939922094345,0.047907233238220215,0.016292164102196693,1.6229379004556597,-0.33695581491330906,2.6940552460660383
1687092240.232836,0.9424629807472229,0.33058151602745056,0.04979247599840164,-0.009967982769012451,0.03178420662879944,-0.0035125091671943665,0.016420818865299225,0.03956015035510063,-0.011280674487352371,1.623579538506976,-0.3369196771951965,2.690360516156227
1687092240.290519,0.9417717456817627,0.3323609232902527,0.05101485550403595,-0.0046378374099731445,0.02625119686126709,0.010645873844623566,-0.014081964269280434,0.036588262766599655,-0.05274895578622818,1.6249124619773192,-0.33880569212462147,2.68959012526388
1687092240.334559,0.9406483769416809,0.33523330092430115,0.052908238023519516,0.015238463878631592,0.012194067239761353,0.014398332685232162,-0.03786745294928551,0.037123579531908035,-0.057545509189367294,1.6269836882465425,-0.34185284892731715,2.6906771838721157
1687092240.384894,0.9391052722930908,0.3389164209365845,0.056716665625572205,-0.003497481346130371,0.013851523399353027,0.007797472178936005,-0.053435228765010834,0.08317103981971741,-0.08782678097486496,1.631117419897188,-0.3457649058640943,2.6936491150250776
1687092240.452781,0.9373565912246704,0.3429967164993286,0.06095932424068451,0.00955808162689209,-0.008005201816558838,-0.011230945587158203,-0.021246932446956635,0.06595318764448166,-0.08055707812309265,1.63573810263132,-0.3501053039019855,2.695115654612808
1687092240.502567,0.9361112713813782,0.345995157957077,0.06311493366956711,0.004852652549743652,-0.005693525075912476,-0.018635503947734833,0.007418800611048937,0.016093088313937187,-0.05299190431833267,1.6381169122824166,-0.3532992341022575,2.6968698659713426
1687092240.541914,0.9353961944580078,0.34793490171432495,0.06305082887411118,0.010496139526367188,-0.014270901679992676,-0.007585048675537109,-0.022029634565114975,-0.012845752760767937,-0.03951643779873848,1.6380999996370627,-0.35536746183595336,2.697476267439465
1687092240.591124,0.9347692728042603,0.34980538487434387,0.061990804970264435,0.005874156951904297,-0.0038275718688964844,-0.004694096744060516,0.04810338094830513,-0.007199873682111502,-0.0375731959939003,1.637016055868105,-0.35736336438602184,2.696031746465916
1687092240.630944,0.9343273043632507,0.35122740268707275,0.0605962909758091,0.0019977688789367676,-0.012650072574615479,-0.0048711299896240234,0.03301604092121124,-0.02009407803416252,-0.03163827583193779,1.635561151551725,-0.358881717908276,2.694183087032344
1687092240.6963692,0.9339310526847839,0.35260406136512756,0.058679886162281036,0.0069106221199035645,-0.001133054494857788,-0.0048773325979709625,0.049987033009529114,-0.034081198275089264,-0.023099981248378754,1.6335449101997341,-0.36035242859453415,2.692170903507445
1687092240.736298,0.9335747957229614,0.3539600074291229,0.05612996593117714,0.0024908781051635742,0.014707624912261963,-0.005363941192626953,0.04106304794549942,-0.04351229593157768,-0.034215617924928665,1.6308477311193221,-0.3618018387991413,2.690765431129265
1687092240.783628,0.9331211447715759,0.3556080460548401,0.05318073555827141,-0.0057375431060791016,-0.003526657819747925,0.008800514042377472,0.03612395003437996,-0.04127499461174011,-0.03200526162981987,1.6277270587291377,-0.3635645485083057,2.6880600626802993
1687092240.837796,0.9327582120895386,0.3568408489227295,0.0512518472969532,-0.007541537284851074,-0.006346464157104492,0.020098205655813217,0.016882076859474182,-0.021474594250321388,-0.019981686025857925,1.6256876840882164,-0.36488389411407074,2.687284830793307
1687092240.890674,0.9325472712516785,0.3574531078338623,0.05082409456372261,-0.0004488229751586914,-0.013367414474487305,0.02498161792755127,0.0296199768781662,0.011409274302423,0.00027897628024220467,1.6252427490571018,-0.36553940147750785,2.686094829581905
1687092240.941344,0.932597279548645,0.3572263717651367,0.051493287086486816,-0.001246631145477295,-0.004336327314376831,0.020818106830120087,0.0469779297709465,0.03212056681513786,0.002218755893409252,1.625955241744966,-0.3652966346078348,2.6845266125888227
1687092240.982554,0.9324822425842285,0.3573283553123474,0.05285334587097168,-0.0010399818420410156,0.006044507026672363,0.01439213752746582,0.03311164677143097,0.05502377450466156,-0.0030039025004953146,1.6274160177143158,-0.365405820546315,2.681594645323204
1687092241.05478,0.932414174079895,0.3572503924369812,0.054552920162677765,0.01239478588104248,0.0004462003707885742,0.008847355842590332,0.02173808589577675,0.043066270649433136,0.0069291554391384125,1.6292368841113667,-0.3653223596411774,2.6802119994442255
1687092241.09443,0.9323914647102356,0.35701826214790344,0.05642872303724289,-0.0036805272102355957,-0.008354932069778442,0.003660440444946289,0.02096177451312542,0.05630413442850113,0.004390364047139883,1.6312430194399254,-0.3650738404355501,2.6786254740270565
1687092241.136187,0.932287871837616,0.35690799355506897,0.05878788232803345,-0.002630889415740967,-0.00400272011756897,-0.0026812590658664703,-0.00018106230709236115,0.04580178111791611,0.0017349263653159142,1.633770596243941,-0.3649557783590862,2.6777858415853064
1687092241.1895409,0.9323918223381042,0.35640743374824524,0.06016193702816963,0.017254233360290527,0.0019605159759521484,-0.011074423789978027,0.04113921523094177,0.03256389498710632,0.01414678804576397,1.6352313085189203,-0.36441999779416345,2.6767667383841407
1687092241.234552,0.9325932860374451,0.3557261824607849,0.06106138229370117,-0.0018072128295898438,0.0092182457447052,-0.013682849705219269,0.010964798741042614,0.009378637187182903,0.017033522948622704,1.63617782920706,-0.36369095999305767,2.6758445717000945
1687092241.30305,0.9327622652053833,0.35536307096481323,0.06059468537569046,-0.005272030830383301,0.010237514972686768,-0.014879345893859863,0.0387202650308609,0.00913289375603199,-0.0055373674258589745,1.6356677990174242,-0.3633024481797045,2.674068065096863
1687092241.352365,0.932776927947998,0.3554244637489319,0.06000746041536331,0.008553087711334229,-0.0010390281677246094,-0.009043097496032715,-0.00018558968440629542,-0.02188483253121376,0.008796630427241325,1.6350398589305621,-0.36336813836986304,2.673391318791106
1687092241.394733,0.9330097436904907,0.355055570602417,0.05855362117290497,0.0038799643516540527,-0.0040881335735321045,-0.005956530570983887,0.004721817560493946,-0.01485537365078926,0.013255162164568901,1.633471909445756,-0.3629735210850742,2.672793878144426
1687092241.444412,0.9331845045089722,0.35458603501319885,0.05861213803291321,-0.008334100246429443,0.0045448243618011475,0.009320016950368881,-0.007569203618913889,0.027224168181419373,-0.0004028594121336937,1.6335226629621218,-0.3624712951179073,2.6729688256348525
1687092241.485018,0.9329673647880554,0.3550926446914673,0.05900434032082558,-0.005446493625640869,0.0055030882358551025,-0.010832302272319794,0.04069366678595543,0.03361322358250618,-0.002294103382155299,1.6339559430877721,-0.3630131650872152,2.6687759947720093
1687092241.561048,0.9330635666847229,0.354920357465744,0.058514997363090515,0.0148276686668396,0.010191917419433594,-0.031110171228647232,0.07151336222887039,-0.039246734231710434,0.023978911340236664,1.633427071553734,-0.362828889381628,2.667787053424735
1687092241.6141992,0.9338870048522949,0.35342010855674744,0.05430503934621811,0.013042807579040527,-0.008586764335632324,-0.0008230283856391907,-0.0023017374332994223,-0.09395043551921844,0.0382697656750679,1.6288803922973518,-0.36122465237196605,2.665877967431335
1687092241.653338,0.9346374869346619,0.3520222306251526,0.05033302307128906,-0.01157224178314209,0.0013866424560546875,0.018957138061523438,-0.025682959705591202,-0.049767397344112396,0.020147357136011124,1.624597349484813,-0.3597307350406343,2.6654248017635678
1687092241.701735,0.9350403547286987,0.35109201073646545,0.04933517798781395,0.0006285309791564941,-0.008516877889633179,0.02689766138792038,-0.010425976477563381,-0.0174120981246233,0.016721798107028008,1.6235100667228528,-0.35873708817060335,2.66697879448056
1687092241.742492,0.9355032444000244,0.3498091399669647,0.049671802669763565,0.006788015365600586,-0.017045438289642334,0.02727830410003662,-0.011297362856566906,0.01966332085430622,0.035683371126651764,1.6238428577886537,-0.3573673586142104,2.6667103078310546
1687092241.78552,0.9360970854759216,0.3479601740837097,0.05144038796424866,-0.01254361867904663,0.002961486577987671,0.009854193776845932,0.019203554838895798,0.038834329694509506,0.03743406757712364,1.6256930968858259,-0.35539441423262963,2.666463787010348
1687092241.858931,0.9364475011825562,0.3467198610305786,0.05340184271335602,0.011718571186065674,0.02542683482170105,-0.009776942431926727,0.003763611661270261,0.03436474874615669,0.007936363108456135,1.6277606190712597,-0.35407176007064034,2.665976600795693
1687092241.901561,0.9362825155258179,0.34699323773384094,0.054504454135894775,0.003216385841369629,0.032828569412231445,-0.020477294921875,-0.015185312367975712,0.011907929554581642,-0.022594580426812172,1.6289443849606298,-0.3543632244936142,2.6663572151022867
1687092241.946334,0.935611367225647,0.3487659990787506,0.05471741408109665,-3.2782554626464844e-06,0.014439016580581665,-0.02331482619047165,-0.043342914432287216,-0.01695421151816845,-0.04176947474479675,1.6292128451528851,-0.3562541190863039,2.667496612151083
1687092242.002471,0.9348623752593994,0.3508897125720978,0.05393505096435547,0.006574451923370361,0.00782918930053711,-0.01819896697998047,-0.059944525361061096,-0.03803834691643715,-0.040897224098443985,1.6284254817291204,-0.3585210572557731,2.670115071623767
1687092242.055232,0.9342241287231445,0.3528884947299957,0.05191092938184738,0.022440731525421143,0.0442672073841095,-0.0507817380130291,-0.04870598763227463,-0.1417604386806488,-0.06579551100730896,1.6263050645980588,-0.36065641860900527,2.6751664515807896
1687092242.096352,0.9322868585586548,0.35949233174324036,0.040080662816762924,0.061640143394470215,0.26851364970207214,-0.16494333744049072,-0.332649827003479,-0.47277596592903137,-0.2452884465456009,1.6137616410334201,-0.3677238073590445,2.680277434191488
1687092242.166878,0.9246684312820435,0.3803718388080597,0.017480138689279556,-0.05168259143829346,0.6903069019317627,-0.14077115058898926,-0.38099339604377747,-0.7298783659934998,-0.7680679559707642,1.589698298765987,-0.3901983286994541,2.702329040482489
1687092242.209041,0.9009618163108826,0.4338536262512207,-0.006215463858097792,0.06459897756576538,0.7482142448425293,0.002248168922960758,-0.19367383420467377,-0.49773305654525757,-1.5805715322494507,1.563897737765161,-0.4487655199700629,2.719127300369558
1687092242.249038,0.8540866374969482,0.5196893811225891,-0.02142474241554737,0.19361233711242676,0.6418707370758057,0.07310628890991211,-0.024265890941023827,-0.2777367830276489,-2.2639927864074707,1.5457166119805854,-0.5464873116380211,2.7206955422461876
1687092242.290551,0.782721221446991,0.6216964721679688,-0.02900349721312523,0.3613675832748413,0.4286728501319885,0.08626973628997803,-0.0880584567785263,-0.19643284380435944,-2.6571719646453857,1.5337585748606113,-0.6709067512679802,2.7207932298196313
1687092242.35567,0.6894893050193787,0.7234119772911072,-0.035773858428001404,0.4791661500930786,0.2660441994667053,0.0931774377822876,0.040434807538986206,-0.12644752860069275,-2.827214241027832,1.518958232978004,-0.8087315078703213,2.710941608250934
1687092242.396239,0.5751773118972778,0.8171971440315247,-0.03687608987092972,0.5359829068183899,0.18640393018722534,0.09667527675628662,0.11999914050102234,-0.014455300755798817,-3.0326361656188965,1.5067713900987474,-0.9565310377044522,2.699776131233707
1687092242.4487371,0.4428904950618744,0.895123302936554,-0.05101367086172104,0.5766559839248657,0.07043766975402832,0.10974478721618652,0.3376539647579193,0.09990696609020233,-3.086399793624878,1.4561182149312655,-1.108707652198472,2.6381832970193413
1687092242.499426,0.30178138613700867,0.952338695526123,-0.04448603466153145,0.587958574295044,-0.10671186447143555,0.11997127532958984,-0.24305123090744019,0.15536627173423767,-2.954341173171997,1.4244389224613443,-1.2608131043878292,2.5966470938349846
1687092242.5417671,0.16259656846523285,0.9855908751487732,-0.046617649495601654,0.5478678941726685,-0.11425286531448364,0.07740986347198486,0.38830623030662537,0.2741289436817169,-2.772408962249756,1.291578697611585,-1.4008326010889858,2.448945015462263
1687092242.640665,0.027292415499687195,0.9981561899185181,-0.05421539023518562,0.4616144299507141,-0.18515270948410034,0.10337919741868973,0.04547004774212837,0.3600439429283142,-2.690810441970825,0.46636963339576465,-1.5100608821871873,1.604337791054786
1687092242.653645,-0.10026686638593674,0.9926342964172363,-0.06799821555614471,0.45832958817481995,-0.17297792434692383,0.058018989861011505,0.2565399408340454,0.3853640854358673,-2.4272027015686035,-0.9748704870002813,-1.449348788797922,0.1406610081360479
1687092242.696095,-0.21375520527362823,0.974739134311676,-0.06474940478801727,0.40767914056777954,-0.28450775146484375,0.12941616773605347,-0.3612883985042572,0.46414387226104736,-2.2080605030059814,-1.2766684415931437,-1.3455499770867552,-0.18674658767505334
1687092242.74522,-0.31238889694213867,0.9473212957382202,-0.07067818939685822,0.31734803318977356,-0.1926979422569275,0.055541522800922394,0.1902109831571579,0.5288955569267273,-1.9615758657455444,-1.3482918284134986,-1.244766276621411,-0.28643894839033224
1687092242.814079,-0.4000012278556824,0.9135876893997192,-0.07318873703479767,0.2570721209049225,-0.19361698627471924,0.06111902743577957,-0.4366329610347748,0.6427499055862427,-1.885528564453125,-1.389826848581186,-1.1520211420138333,-0.36242704410606913
1687092242.855478,-0.4827256500720978,0.8709752559661865,-0.09153104573488235,0.20294049382209778,0.0221521258354187,-0.043478719890117645,0.8208576440811157,0.7006714940071106,-1.9414499998092651,-1.3834079463202986,-1.0571837684662004,-0.39403692070057317
1687092242.895471,-0.5624966025352478,0.8125640749931335,-0.1527661234140396,0.22292739152908325,0.026074349880218506,0.023035869002342224,1.2147506475448608,0.6218528747558594,-2.0242958068847656,-1.3056069879432632,-0.9485377425986613,-0.34119944938031993
1687092242.9621692,-0.6380534768104553,0.7372329235076904,-0.22220586240291595,0.19853925704956055,0.07505345344543457,0.013648748397827148,1.4528870582580566,0.4540882408618927,-2.081390619277954,-1.23567614598929,-0.8289656612036066,-0.2866560461380394
1687092243.001122,-0.7068623304367065,0.6486124396324158,-0.2822193503379822,0.20503121614456177,0.14345604181289673,0.09555858373641968,1.1886521577835083,0.24449752271175385,-2.1080524921417236,-1.1909310819998005,-0.7057599273005986,-0.24688833769376867
1687092243.046022,-0.7703754305839539,0.5573248267173767,-0.30969473719596863,0.20415222644805908,0.12234741449356079,0.08880853652954102,0.62910395860672,0.09030521661043167,-2.272495985031128,-1.1885627335048918,-0.5911603302399357,-0.2545542495790802
1687092243.105157,-0.8265244960784912,0.45227956771850586,-0.335112601518631,0.2113969326019287,0.07164621353149414,0.004912436008453369,1.3403549194335938,-0.01796015352010727,-2.1807878017425537,-1.1856023392566555,-0.4693195956027112,-0.25241224225151576
1687092243.144565,-0.8728587627410889,0.3365814983844757,-0.35331374406814575,0.2406107783317566,0.03194871544837952,0.09806472063064575,0.7804324626922607,-0.21270744502544403,-2.2586984634399414,-1.1861780747721486,-0.34328422919401397,-0.23668175244777737
1687092243.238155,-0.9104141592979431,0.21860043704509735,-0.351226270198822,0.2506546378135681,0.13934022188186646,0.0592188835144043,0.9167476892471313,-0.3855339288711548,-2.3007001876831055,-1.20260193271177,-0.22037998814137913,-0.23929411331687955
1687092243.254572,-0.9370513558387756,0.09972430765628815,-0.3346486985683441,0.2672363519668579,0.012366726994514465,0.012871354818344116,0.43343400955200195,-0.527305543422699,-2.3437411785125732,-1.227784216640578,-0.09989034131769055,-0.24992587826437868
1687092243.292723,-0.9500129222869873,-0.015384543687105179,-0.31183117628097534,0.24206620454788208,-0.034557491540908813,0.06321975588798523,0.4173850119113922,-0.48497626185417175,-2.2357029914855957,-1.2536377666860015,0.015385150751824386,-0.2693283641614268
1687092243.368428,-0.9499598741531372,-0.1229650154709816,-0.2871515154838562,0.2454615831375122,-0.12381541728973389,0.0286676287651062,-0.011757823638617992,-0.45687437057495117,-2.1549272537231445,-1.2772513730279986,0.12327702124204287,-0.2908463563597629
1687092243.397697,-0.9379878044128418,-0.22275908291339874,-0.26562610268592834,0.18713337182998657,-0.13766877353191376,0.019898563623428345,0.5022147297859192,-0.3625715672969818,-1.854749321937561,-1.2948346294266564,0.22464375557395552,-0.3087110771388537
1687092243.472161,-0.920488178730011,-0.30338943004608154,-0.2462853640317917,0.137162983417511,-0.20018115639686584,-0.04407411813735962,0.11808272451162338,-0.3538160026073456,-1.455539584159851,-1.3093605546097016,0.308247726346034,-0.3178182410030669
1687092243.495887,-0.9042050838470459,-0.3610886335372925,-0.22809691727161407,0.0669858455657959,-0.2066146731376648,-0.013144493103027344,0.2035323828458786,-0.3484663963317871,-1.0032378435134888,-1.3236895081550737,0.369435027952884,-0.3302073015641307
1687092243.54474,-0.8925333619117737,-0.4008678197860718,-0.20661412179470062,0.043290138244628906,-0.15284311771392822,0.018549561500549316,0.5775395631790161,-0.24346289038658142,-0.6079040169715881,-1.3433115817297652,0.4124639224902317,-0.31850267876341604
1687092243.622604,-0.884627640247345,-0.42767447233200073,-0.1858188658952713,0.1038506031036377,-0.12490734457969666,0.013165712356567383,0.5489134788513184,-0.2690220773220062,-0.42868876457214355,-1.3637531744016427,0.44191853073351106,-0.3035937014383083
1687092243.6625152,-0.882646381855011,-0.44115403294563293,-0.16222915053367615,0.10588258504867554,-0.38097426295280457,-0.003221854567527771,0.12618912756443024,-0.2489783763885498,0.09268320351839066,-1.389026477377042,0.4568841909269443,-0.27115645811816513
1687092243.700948,-0.8871638774871826,-0.4355289340019226,-0.15249592065811157,0.11130011081695557,-0.09976470470428467,0.02697710692882538,0.4502966105937958,-0.07820984721183777,0.08852248638868332,-1.400568379382441,0.4506257890517571,-0.2694135921199436
1687092243.751482,-0.8860878348350525,-0.441416472196579,-0.1414206624031067,0.0038552284240722656,0.08269760012626648,0.10949929058551788,0.5273230075836182,0.11283928900957108,-0.09458368271589279,-1.412529954164992,0.4571766637240513,-0.2360071001527303
1687092243.795625,-0.8819857835769653,-0.449388712644577,-0.14195387065410614,-0.05060088634490967,0.02826136350631714,0.037553250789642334,0.41811153292655945,0.20443280041217804,-0.10175018757581711,-1.411216836450269,0.4660809391361971,-0.21832026885213487
1687092243.8530521,-0.8797584772109985,-0.45661434531211853,-0.1323951780796051,-0.003862738609313965,0.017039120197296143,-0.02788311243057251,0.5513753294944763,0.06850594282150269,-0.051114968955516815,-1.421426838060168,0.47418591410683575,-0.18133989063449585
1687092243.921698,-0.8783261179924011,-0.45900359749794006,-0.13363750278949738,-0.002716362476348877,-0.04999914765357971,0.06224167346954346,-0.06788607686758041,0.10574024170637131,-0.025929924100637436,-1.4198041553617595,0.47687335124120944,-0.17592400977180214
1687092243.9567351,-0.877604603767395,-0.4588076174259186,-0.1389448493719101,0.049937427043914795,-0.08141455054283142,0.03426958620548248,0.03336597979068756,0.1737179011106491,0.06144632771611214,-1.4137767996885906,0.47665276469194295,-0.1736948619736726
1687092243.998496,-0.880700945854187,-0.44942420721054077,-0.1496114730834961,0.05248451232910156,-0.27646690607070923,0.08735562860965729,-0.08471246063709259,0.28348541259765625,0.37629640102386475,-1.4025250206256994,0.4661206896425536,-0.17194119724925416
1687092244.0684938,-0.8907715082168579,-0.42345350980758667,-0.16496394574642181,0.09545296430587769,-0.30849534273147583,0.0474407821893692,-0.060537081211805344,0.39118412137031555,0.7846155762672424,-1.3876787281068852,0.43725411335859576,-0.16851876314447856
1687092244.14283,-0.9061870574951172,-0.3800865113735199,-0.1853623390197754,0.12286192178726196,-0.2603096067905426,0.023436084389686584,0.17162585258483887,0.49046802520751953,1.1214275360107422,-1.3690277326941713,0.3898898203600749,-0.15927378471436068
1687092244.157525,-0.9225677847862244,-0.3253840506076813,-0.20734934508800507,0.13617563247680664,-0.22850999236106873,0.08126601576805115,0.07311205565929413,0.6001375317573547,1.3065910339355469,-1.349717544356921,0.3314178595672526,-0.1381542178332159
1687092244.208348,-0.936299204826355,-0.25947996973991394,-0.23667287826538086,0.16057288646697998,-0.16451600193977356,0.05263662338256836,-0.04758372902870178,0.6934293508529663,1.506973385810852,-1.3232077678287861,0.2624836966106033,-0.1188464391314929
1687092244.2476091,-0.9444738626480103,-0.18293188512325287,-0.27295592427253723,0.13203495740890503,-0.10671044886112213,0.0635291039943695,-0.43293702602386475,0.740809977054596,1.5964998006820679,-1.2894586625328146,0.1839678326028606,-0.10821852554161056
1687092244.3137531,-0.945238471031189,-0.09647896140813828,-0.3117949962615967,0.14998090267181396,-0.047914981842041016,0.02735590934753418,-0.7802475690841675,0.6747925281524658,1.6581076383590698,-1.252176312982975,0.09662926491520277,-0.11462397381970736
1687092244.384481,-0.9388978481292725,-0.008090339601039886,-0.3441009521484375,0.12557387351989746,-0.028652846813201904,0.033843994140625,-0.4755936563014984,0.6250755786895752,1.6173125505447388,-1.2195032453515822,0.008090427500371911,-0.12079096602032632
1687092244.4405022,-0.9244331121444702,0.0774620845913887,-0.37339386343955994,0.11414563655853271,-0.08431333303451538,0.09066379070281982,-0.7802630066871643,0.6734610199928284,1.6030468940734863,-1.186918145305639,-0.0775397601277523,-0.1179655134818519
1687092244.456026,-0.9029566645622253,0.16521267592906952,-0.39670419692993164,0.17660772800445557,-0.09554105997085571,0.03385019302368164,-0.6611602902412415,0.5647916197776794,1.5933445692062378,-1.1568432797914268,-0.16597364342157495,-0.12315062594314906
1687092244.5224571,-0.8734872937202454,0.2482948899269104,-0.4187715947628021,0.16120702028274536,-0.05276879668235779,0.026437580585479736,-0.24859008193016052,0.5527355074882507,1.8061771392822266,-1.1237438508135695,-0.2509196173701194,-0.10224380231429295
1687092244.567883,-0.834847092628479,0.33648648858070374,-0.43566855788230896,0.12424534559249878,-0.020995765924453735,0.019225746393203735,-0.08483203500509262,0.47737687826156616,2.004584312438965,-1.0898185125873328,-0.3431833070955799,-0.07195016216690718
1687092244.610229,-0.7866036891937256,0.42556044459342957,-0.447384774684906,0.15292131900787354,-0.03606453537940979,0.08797919750213623,-0.9356560707092285,0.4135741889476776,1.8793638944625854,-1.0536679806742641,-0.43958112614691086,-0.040256568375213214
1687092244.650928,-0.7369393110275269,0.5138421654701233,-0.4391886293888092,0.18599021434783936,0.11872619390487671,0.09687298536300659,-0.7306778430938721,0.32961034774780273,1.6111754179000854,-1.033350436345287,-0.5396574794949341,-0.03352231023978674
1687092244.700786,-0.6905158758163452,0.5797326564788818,-0.4325481653213501,0.16335523128509521,0.03100031614303589,0.13195005059242249,-0.9456477165222168,0.41470053791999817,1.2287203073501587,-1.0111814983093794,-0.618400525626295,-0.028684202646644154
1687092244.753408,-0.6425362229347229,0.6489673256874084,-0.40741708874702454,0.1250343918800354,-0.04021793603897095,0.17548346519470215,-1.528526782989502,0.44327419996261597,1.32877516746521,-1.005696729210917,-0.7062263172275949,-0.05564959299231504
1687092244.819028,-0.5835807919502258,0.7219306826591492,-0.3718193471431732,0.12654954195022583,-0.062003374099731445,0.1469048261642456,-1.483817458152771,0.47591134905815125,1.5512754917144775,-1.0035187647512112,-0.8065884490452511,-0.08790639384047248
1687092244.8909578,-0.5123700499534607,0.7931851148605347,-0.32914188504219055,0.1076001524925232,-0.07370275259017944,0.025690317153930664,-1.268204689025879,0.3137776851654053,1.8486478328704834,-0.9997887799183544,-0.9160215998852831,-0.10905098930978575
1687092244.905898,-0.4257006049156189,0.8565418124198914,-0.2917449176311493,0.1476091742515564,-0.07846570014953613,-0.12550660967826843,-0.8474282026290894,0.038234077394008636,2.154062271118164,-0.9699847453201891,-1.0285310321851724,-0.08630194710854128
1687092244.954397,-0.32736727595329285,0.9105969667434692,-0.2522777020931244,0.14789336919784546,-0.024107038974761963,-0.0923115611076355,-1.011531114578247,-0.14501270651817322,2.248067617416382,-0.914224794418677,-1.1447261406990854,-0.02150047210302754
1687092245.043494,-0.2254493087530136,0.9508191347122192,-0.21240483224391937,0.11961431801319122,0.03283876180648804,-0.10609185695648193,-0.5209019780158997,-0.29746633768081665,2.223057270050049,-0.8151811827146369,-1.2558696948743997,0.09746696853553757
1687092245.058545,-0.12266696244478226,0.9747388958930969,-0.18664637207984924,0.15301668643951416,0.011375606060028076,-0.052291035652160645,-0.4715707004070282,-0.331672728061676,2.13493275642395,-0.5814311937329102,-1.345548975755726,0.35685573724271413
1687092245.1263971,-0.020140329375863075,0.9850956797599792,-0.17082470655441284,0.16108572483062744,0.07581746578216553,-0.015012085437774658,-0.23754487931728363,-0.37922126054763794,2.1598920822143555,-0.11735878009716512,-1.3979292664329914,0.8483157527093712
1687092245.1514568,0.07900924980640411,0.9841700196266174,-0.15864038467407227,0.151535764336586,0.08945351839065552,0.05791714787483215,-0.2632949948310852,-0.2307482361793518,1.8946179151535034,0.46207832933436094,-1.392628161397361,1.4522975711887196
1687092245.2240992,0.16721202433109283,0.9762798547744751,-0.13754217326641083,0.09574267268180847,0.07563060522079468,0.02105659246444702,-0.6416044235229492,-0.3073161244392395,1.8130770921707153,0.8824489578104366,-1.3525555145201558,1.894034141994177
1687092245.262073,0.25067147612571716,0.9609298706054688,-0.11737800389528275,0.14678943157196045,0.09134674072265625,0.03314948081970215,-0.4760916829109192,-0.2928656041622162,1.707763671875,1.1328662139572332,-1.2903422863277996,2.167602829429279
1687092245.303402,0.32739394903182983,0.9395409822463989,-0.10037916153669357,0.10613870620727539,0.10632693767547607,0.04474563151597977,-0.2683486044406891,-0.20683139562606812,1.5469932556152344,1.2732950545590591,-1.2212873971706404,2.3278569177419897
1687092245.3730202,0.3979051411151886,0.9125431180000305,-0.09453243762254715,0.059049785137176514,0.07627213001251221,0.06955379992723465,-0.29616984724998474,-0.1900636851787567,1.5445588827133179,1.337545231881082,-1.1494597404597802,2.4081570367375362
1687092245.4170341,0.4659731388092041,0.8794500827789307,-0.09714150428771973,0.05429047346115112,0.16332024335861206,0.059162385761737823,0.15734624862670898,-0.13926298916339874,1.4622752666473389,1.3652697890864833,-1.0747056420223353,2.448779930778587
1687092245.455977,0.5250059366226196,0.8443915843963623,-0.10663855075836182,0.09355485439300537,0.0942986011505127,0.09250891208648682,0.25300484895706177,0.06585225462913513,1.306214690208435,1.3704037657072563,-1.0054284982605743,2.4557171424280027
1687092245.50703,0.579431414604187,0.806362509727478,-0.11848524957895279,-0.01723659038543701,0.11037027835845947,0.0947883129119873,0.4729768931865692,0.19251711666584015,1.2610315084457397,1.369091644072251,-0.9379756923852921,2.4463407902846668
1687092245.5777678,0.6300738453865051,0.7661435604095459,-0.12661436200141907,0.10662049055099487,0.0853121280670166,0.11958003044128418,0.36352550983428955,0.31506431102752686,1.2337955236434937,1.3724859075944666,-0.8728188140115358,2.4351535535499775
1687092245.641251,0.6782727241516113,0.7235879302024841,-0.1279323846101761,0.10827207565307617,0.13323885202407837,0.05766564607620239,0.35955339670181274,0.3885974884033203,1.1864917278289795,1.3843715007861515,-0.8089864419469408,2.426407081780289
1687092245.657583,0.7210429310798645,0.6825700402259827,-0.1191444918513298,0.0453755259513855,0.09216445684432983,0.0431252121925354,-0.01547639537602663,0.3526709973812103,1.1204355955123901,1.4070369451612226,-0.751273567374715,2.4323769309189816
1687092245.70365,0.757840633392334,0.6430951952934265,-0.11002793908119202,0.05206531286239624,0.1566026210784912,-0.015765540301799774,0.09645918756723404,0.37496280670166016,0.968524694442749,1.426617628952275,-0.6985332895069728,2.434214780525131
1687092245.77949,0.788343608379364,0.6071286201477051,-0.09954418987035751,0.013231039047241211,0.17210716009140015,-0.024097785353660583,0.1392364799976349,0.3301776647567749,0.8528016209602356,1.4451910117340878,-0.6524419631972646,2.436279241566217
1687092245.815388,0.813449501991272,0.5744619369506836,-0.09106823801994324,0.004345297813415527,0.13270658254623413,-0.025356285274028778,0.12581254541873932,0.3287622034549713,0.728740930557251,1.459307402902794,-0.6119466539531662,2.4315903852192084
1687092245.853761,0.8341884016990662,0.5459184646606445,-0.07812243700027466,0.025949716567993164,0.11863237619400024,-0.011995978653430939,-0.04356741905212402,0.2919110655784607,0.6509016752243042,1.4774178462250114,-0.577484936268344,2.436052963399583
1687092245.944129,0.851849377155304,0.5196730494499207,-0.06551822274923325,0.006732165813446045,0.05523240566253662,0.01914680004119873,0.04642106220126152,0.33383724093437195,0.5899242162704468,1.494034529982922,-0.5464681960399741,2.4381520140936273
1687092245.960293,0.8671969771385193,0.49503156542778015,-0.053975678980350494,-0.009210407733917236,0.0575503408908844,-0.022394545376300812,0.13027654588222504,0.34295111894607544,0.5581064224243164,1.5086349708789677,-0.5178711616231191,2.4332222621864132
1687092246.0267081,0.8818114995956421,0.46955934166908264,-0.04384582117199898,0.020120203495025635,0.03944331407546997,0.011237744241952896,0.3757480978965759,0.35988476872444153,0.576712965965271,1.5211147987292033,-0.4887916159283929,2.422282725348615
1687092246.06839,0.8957873582839966,0.44290632009506226,-0.03740159049630165,0.014414548873901367,0.006114065647125244,0.014131966978311539,0.29520103335380554,0.33352789282798767,0.568148136138916,1.529067807555,-0.45883768733027147,2.403351475798511
1687092246.107219,0.9079878926277161,0.4181087017059326,-0.027263281866908073,0.0065323710441589355,0.04945117235183716,-0.015095114707946777,0.21578212082386017,0.36381757259368896,0.5063135027885437,1.540779304270275,-0.43136229640331986,2.389489926274726
1687092246.1563559,0.9182127118110657,0.39565813541412354,-0.018437830731272697,0.014144957065582275,0.08627542853355408,-0.058161258697509766,0.4054982662200928,0.31461629271507263,0.43962550163269043,1.5507188947444464,-0.406784337849638,2.371931205060688
1687092246.245636,0.9263953566551208,0.37636590003967285,-0.01184377446770668,0.003200531005859375,0.07604187726974487,-0.06097114086151123,0.3933230936527252,0.2939661145210266,0.38024893403053284,1.5580122282222988,-0.38587065292813766,2.350624428089775
1687092246.262608,0.9331150054931641,0.3595545291900635,-0.00413700845092535,0.011282086372375488,0.0446508526802063,-0.04501152038574219,0.23139837384223938,0.24482981860637665,0.33164194226264954,1.5663628098403415,-0.3677904469985999,2.335825476163352
1687092246.3314018,0.9385994672775269,0.34500908851623535,6.529669917654246e-05,-0.00302201509475708,0.031898289918899536,-0.06070375442504883,0.2734512686729431,0.16967862844467163,0.29946595430374146,1.5708658950186143,-0.3522484687485335,2.31912151950515
1687092246.374376,0.9431397914886475,0.33237549662590027,0.003705473616719246,-0.0025728940963745117,0.039862632751464844,-0.038281917572021484,0.09143567085266113,0.10836358368396759,0.22758238017559052,1.5747251764853674,-0.33882113728323077,2.3088217317017565
1687092246.43612,0.9464397430419922,0.3228278160095215,0.005859230179339647,-0.017911851406097412,0.08761841058731079,-0.04670703411102295,0.09465090185403824,0.054836489260196686,0.16680385172367096,1.5769870591883641,-0.32871574659076436,2.303034320385483
1687092246.473422,0.9482534527778625,0.31745201349258423,0.006300743669271469,-0.0044972896575927734,0.09691569209098816,-0.05645644664764404,-0.02741800807416439,-0.0025374775286763906,0.05245709419250488,1.577440806739999,-0.3230413035702026,2.300942612591723
1687092246.545356,0.947887122631073,0.31856197118759155,0.005340914241969585,-0.0012165307998657227,0.09612613916397095,-0.06459081172943115,0.0014463954139500856,-0.03521464020013809,-0.05972350761294365,1.5764308140370848,-0.3242120483054166,2.301484023472335
1687092246.5808501,0.9464200139045715,0.3229238986968994,0.0030492842197418213,0.004919707775115967,0.0401436984539032,-0.018292784690856934,-0.04082782194018364,-0.06525084376335144,-0.09781976044178009,1.5740182299696388,-0.328817285756121,2.3027880604945072
1687092246.622282,0.9446994662284851,0.3279368579387665,0.0004135008784942329,0.0012690424919128418,-0.010843992233276367,0.00871121883392334,0.010172508656978607,-0.05597633495926857,-0.09733173251152039,1.571234033044367,-0.3341188382877001,2.303900326909784
1687092246.6596708,0.94329434633255,0.3319530785083771,-0.0018009108025580645,0.0038799047470092773,-0.03469657897949219,0.024887442588806152,-0.04798879846930504,-0.045634858310222626,-0.060605745762586594,1.5688871574752872,-0.33837331613609145,2.3040699568576004
1687092246.759269,0.9424948692321777,0.3342137336730957,-0.0021053904201835394,0.009424567222595215,-0.02351430058479309,0.03637665510177612,-0.09301566332578659,-0.028272047638893127,-0.03847014904022217,1.5685624822578208,-0.3407708766013338,2.308714613920568
1687092246.77443,0.9420586228370667,0.3354467749595642,-0.0010450398549437523,0.0033912062644958496,-0.02203121781349182,0.015601873397827148,-0.03342822939157486,0.0030943313613533974,-0.02922731824219227,1.5696870121190827,-0.3420794391674266,2.312165962345385
1687092246.8397489,0.9418829679489136,0.3359413146972656,0.0004412824346218258,-0.0022618770599365234,-0.02153390645980835,0.0011456012725830078,-0.07364409416913986,-0.008901278488337994,-0.006950041279196739,1.5712648376524114,-0.3426044572241498,2.31543964008117
1687092246.857061,0.9419037103652954,0.33588114380836487,0.0012198928743600845,0.01053464412689209,0.0033370256423950195,-0.018035054206848145,-0.07992170006036758,-0.030618712306022644,0.0002783769741654396,1.5720914614393569,-0.3425405691966971,2.3194302722277764
1687092246.936008,0.9417338967323303,0.33635738492012024,0.001019537914544344,0.0020069479942321777,0.02487921714782715,-0.029935002326965332,-0.18037506937980652,-0.07747958600521088,-0.03110504522919655,1.5718789441774936,-0.3430462159616192,2.326794724089985
1687092246.967134,0.9407954812049866,0.3389747142791748,-0.00046717305667698383,0.00016838312149047852,0.04417350888252258,-0.05733311176300049,-0.3187958002090454,-0.15262478590011597,-0.08825094997882843,1.5702997544759927,-0.3458268817510395,2.3395271479284188
1687092247.0093331,0.9380812048912048,0.34636247158050537,-0.006043886300176382,-0.0005049705505371094,0.18038615584373474,-0.1667160987854004,-0.30373162031173706,-0.36367425322532654,-0.21863552927970886,1.5643535980571202,-0.3536907771663237,2.357381117428127
1687092247.083596,0.9316767454147339,0.3627118766307831,-0.02045501582324505,0.008722364902496338,0.3838396370410919,-0.205161452293396,-0.6242366433143616,-0.6351639032363892,-0.510327160358429,1.548844797555145,-0.3711763125182789,2.386087411275814
1687092247.145389,0.9160445332527161,0.3986084461212158,-0.04442815110087395,0.03520369529724121,0.5753295421600342,-0.24941033124923706,-0.20085318386554718,-0.7647693157196045,-1.0186518430709839,1.5223343093535824,-0.4099990480356271,2.4089700335154385
1687092247.1838,0.886046290397644,0.45689547061920166,-0.07854015380144119,0.07750046253204346,0.5551894903182983,-0.12099903076887131,-0.09726287424564362,-0.8620535731315613,-1.5054800510406494,1.4823862523574103,-0.47450194469661533,2.411409246507024
1687092247.2299728,0.8387446403503418,0.532019317150116,-0.11602973192930222,0.2114109992980957,0.5016416311264038,0.03795051574707031,0.0720909982919693,-0.8121401071548462,-1.9830578565597534,1.4333314205734353,-0.560983617038066,2.400563545146423
1687092247.270616,0.7697166204452515,0.6179348230361938,-0.16028989851474762,0.30541759729385376,0.4585575461387634,0.12733089923858643,0.724140465259552,-0.5901822447776794,-2.4256834983825684,1.365485273077015,-0.6661132753265224,2.3436956143945404
1687092247.322089,0.679032564163208,0.7101964354515076,-0.18583808839321136,0.419722318649292,0.20066171884536743,0.18460214138031006,-0.09645593911409378,-0.45834946632385254,-2.710602045059204,1.3036570986418132,-0.7897772260917276,2.290165130323285
1687092247.36514,0.5700656175613403,0.796830415725708,-0.2002159208059311,0.4516933560371399,0.19891232252120972,0.06351245939731598,-0.038029640913009644,-0.42740797996520996,-2.811309576034546,1.23303900420168,-0.9220310734781623,2.225418950667261
1687092247.447672,0.44697603583335876,0.8699398040771484,-0.20836785435676575,0.49896201491355896,0.07712745666503906,-0.06203316152095795,-0.11225859820842743,-0.5363303422927856,-2.8162906169891357,1.134575194132585,-1.0550802631847591,2.13674716468538
1687092247.473981,0.3154674470424652,0.9243713617324829,-0.21451835334300995,0.5302661657333374,-0.06269216537475586,-0.07600906491279602,-0.15801917016506195,-0.6485550403594971,-2.685149908065796,0.9736185833040083,-1.1793844941692817,1.9914108738589584
1687092247.517427,0.18576323986053467,0.9595962166786194,-0.21134592592716217,0.49947845935821533,-0.21090847253799438,-0.01686452329158783,-0.31426921486854553,-0.6462960243225098,-2.471510648727417,0.721064777390136,-1.2855637144236316,1.758954677280163
1687092247.5639849,0.06573823094367981,0.976524829864502,-0.20512881875038147,0.4206967055797577,-0.21967357397079468,0.006596684455871582,-0.08381897211074829,-0.5953032374382019,-2.2056684494018555,0.3101318789378325,-1.3536898583560093,1.3678033590234433
1687092247.61218,-0.04393142834305763,0.9779514074325562,-0.20415928959846497,0.36966076493263245,-0.21229594945907593,0.08036471903324127,0.06662832200527191,-0.46065807342529297,-2.0294361114501953,-0.2119502167036685,-1.36041530897844,0.8612583305232758
1687092247.669395,-0.14412422478199005,0.9686115980148315,-0.20253334939479828,0.31316107511520386,-0.22386068105697632,0.13911785185337067,-0.12462285906076431,-0.2803018093109131,-1.8753684759140015,-0.6184737303907579,-1.319583379583461,0.46256900030181286
1687092247.741417,-0.23176802694797516,0.9534787535667419,-0.19277477264404297,0.27220380306243896,-0.18617522716522217,0.13540172576904297,-0.25703495740890503,-0.12309731543064117,-1.6870391368865967,-0.876988840779308,-1.264572553911714,0.20387120735328315
1687092247.784534,-0.30875763297080994,0.9349700808525085,-0.174641951918602,0.21622830629348755,-0.13260185718536377,0.15215051174163818,-0.4155747890472412,0.08022728562355042,-1.5557740926742554,-1.0560338841905634,-1.2081746994352927,0.015421647809406625
1687092247.823353,-0.38066336512565613,0.9089342951774597,-0.17009958624839783,0.19845813512802124,-0.029722869396209717,0.10686719417572021,0.06691061705350876,0.3162895441055298,-1.6398344039916992,-1.1505646533413911,-1.1407208277227385,-0.09766130117237028
1687092247.878438,-0.45467132329940796,0.8726228475570679,-0.1783353090286255,0.17183440923690796,-0.011355757713317871,0.05719578266143799,-0.10579138249158859,0.3708058297634125,-1.7773078680038452,-1.1970069278408835,-1.0605472023168214,-0.1698898535629415
1687092247.926597,-0.5279412269592285,0.8269892334938049,-0.19330528378486633,0.17204523086547852,0.06156057119369507,0.040946245193481445,0.5364070534706116,0.39346614480018616,-1.789948582649231,-1.219807703561679,-0.9737312882854896,-0.21939655835812547
1687092247.9665542,-0.5949676036834717,0.770236611366272,-0.22967171669006348,0.15498042106628418,0.05077779293060303,0.05842232704162598,0.48071444034576416,0.3543035089969635,-1.7946290969848633,-1.2023960834364364,-0.8792121031656147,-0.22175213712712383
1687092248.04959,-0.6598836183547974,0.7100001573562622,-0.24587255716323853,0.14941614866256714,0.016363918781280518,0.08061988651752472,-0.04925752803683281,0.272991418838501,-1.8732023239135742,-1.2141315311370608,-0.7894984602924006,-0.25869824258723245
1687092248.075375,-0.7210164070129395,0.6452900767326355,-0.2524600923061371,0.18470042943954468,0.03923439979553223,0.016772806644439697,-0.151552215218544,0.23894481360912323,-1.9111191034317017,-1.2339925811809243,-0.7014029526883513,-0.30685600790108564
1687092248.119425,-0.7773151993751526,0.5748963356018066,-0.25549036264419556,0.1993580460548401,0.05481863021850586,0.004025518894195557,-0.12628173828125,0.24145913124084473,-1.9649085998535156,-1.2532368159586875,-0.6124774481260727,-0.35967618458368117
1687092248.18637,-0.8274111747741699,0.4921623170375824,-0.2704937756061554,0.1977573037147522,0.07396921515464783,-0.0004564821720123291,0.49645906686782837,0.2876076102256775,-2.01930832862854,-1.25483263157481,-0.5145719966014579,-0.38821605726182773
1687092248.228354,-0.8687070608139038,0.3943305015563965,-0.2997526228427887,0.20436984300613403,0.05684134364128113,0.02175271511077881,1.122393012046814,0.23241069912910461,-2.0288174152374268,-1.238532690210073,-0.40533921933075917,-0.38214817002946994
1687092248.2688398,-0.9007940292358398,0.2891017198562622,-0.3240220546722412,0.19455623626708984,-0.05545923113822937,0.0268419086933136,0.8588737845420837,0.08349279314279556,-1.9793894290924072,-1.2255000294256528,-0.29328835730968356,-0.3673739087888125
1687092248.3422031,-0.9228676557540894,0.18421192467212677,-0.3382030129432678,0.15203940868377686,-0.003486841917037964,3.7729740142822266e-05,1.2651443481445312,-0.00965750589966774,-1.8304743766784668,-1.219525196454672,-0.18527000244981182,-0.3515308840824896
1687092248.3819098,-0.9356797337532043,0.0809282660484314,-0.34344425797462463,0.13709580898284912,-0.06156489998102188,0.029632002115249634,1.1697202920913696,-0.11335835605859756,-1.686453938484192,-1.2190108474559171,-0.08101686836711144,-0.3252386060748572
1687092248.433624,-0.9405651092529297,-0.01005803607404232,-0.3394647538661957,0.10984605550765991,-0.07117980718612671,0.048205018043518066,0.6943373084068298,-0.12215280532836914,-1.5365883111953735,-1.2244302854636613,0.010058205213295904,-0.31181694891662565
1687092248.476181,-0.9392572641372681,-0.09259919822216034,-0.3304864466190338,0.11291748285293579,-0.03627657890319824,-0.0409429669380188,0.9559633135795593,-0.2067936658859253,-1.3666013479232788,-1.232466014194736,0.09273204274297908,-0.29696441947735436
1687092248.517033,-0.934640109539032,-0.16563743352890015,-0.31466183066368103,0.10042691230773926,-0.06850869953632355,-0.01131168007850647,0.1552002727985382,-0.2941964268684387,-1.3544113636016846,-1.2460491009660004,0.16640434500090737,-0.28961831543071387
1687092248.575663,-0.926788330078125,-0.22600588202476501,-0.2999747693538666,0.0694732666015625,-0.06081360578536987,-0.028180718421936035,-0.0913541167974472,-0.3566139340400696,-1.270574927330017,-1.2577666798534985,0.22797551119615073,-0.3151335727465565
1687092248.644703,-0.9163619875907898,-0.28309038281440735,-0.2830911874771118,0.06797325611114502,-0.06130051612854004,0.018549561500549316,0.13008107244968414,-0.326499879360199,-1.1852877140045166,-1.271167671802315,0.28701476743725907,-0.3334732061064583
1687092248.711304,-0.9036406874656677,-0.3383319675922394,-0.2626117467880249,0.0531158447265625,-0.12461972236633301,0.00586739182472229,0.47211217880249023,-0.3207531273365021,-0.9724975228309631,-1.2879714951511392,0.3451437521076627,-0.3325671077368735
1687092248.7556748,-0.8920397758483887,-0.3822847604751587,-0.2410876303911209,0.019801735877990723,-0.15364965796470642,0.011122435331344604,0.42079466581344604,-0.23934952914714813,-0.6812024116516113,-1.3068369988744177,0.3922675870886374,-0.31877514062694795
1687092248.771852,-0.8838380575180054,-0.41135796904563904,-0.22274412214756012,0.06671464443206787,-0.14215463399887085,0.006740689277648926,0.5370084047317505,-0.20607590675354004,-0.42156416177749634,-1.3239181842753496,0.42394342800717655,-0.30483640701390463
1687092248.8431358,-0.87812739610672,-0.4328373968601227,-0.20382362604141235,0.019896864891052246,-0.11864578723907471,0.05129683017730713,0.5416878461837769,-0.08478359133005142,-0.2761279046535492,-1.3427232868745733,0.44763792015064513,-0.2769875063549489
1687092248.866609,-0.8745214343070984,-0.4478484094142914,-0.18612994253635406,0.06374561786651611,-0.0662660300731659,0.02971208095550537,0.789304792881012,-0.029237665235996246,-0.11984849721193314,-1.361089133646399,0.46435746463837724,-0.24299669076899436
1687092248.943965,-0.8724034428596497,-0.45586737990379333,-0.17634440958499908,0.06449621915817261,-0.13580751419067383,0.07630781829357147,0.07424549758434296,0.037952713668346405,-0.07293697446584702,-1.371347469879005,0.47334651723569293,-0.22129173145652495
1687092248.972145,-0.8718679547309875,-0.45616379380226135,-0.17821599543094635,0.04771023988723755,-0.10436785221099854,0.06365300714969635,-0.20033466815948486,-0.019526826217770576,0.04468206316232681,-1.3691667917690877,0.47367955004822143,-0.22155641722373517
1687092249.042537,-0.8736064434051514,-0.45211493968963623,-0.18001101911067963,0.015253782272338867,-0.025698840618133545,-0.02373957633972168,0.0064962818287312984,0.024732094258069992,0.05566127598285675,-1.367585436593568,0.4691350355444777,-0.2288873135234456
1687092249.084106,-0.8731822967529297,-0.45169082283973694,-0.18310654163360596,-0.03166383504867554,0.04710403084754944,0.02032579481601715,0.10896512866020203,0.14486151933670044,-0.023146720603108406,-1.3640912445823263,0.4686596070944064,-0.22598333154102435
1687092249.1241078,-0.8703482151031494,-0.45592376589775085,-0.18608558177947998,-0.04041850566864014,0.04900228977203369,-0.028620854020118713,0.17563310265541077,0.16375702619552612,-0.06814955174922943,-1.3601617962810286,0.47340986417473624,-0.2171694818304929
1687092249.171067,-0.8687370419502258,-0.45848527550697327,-0.18731553852558136,-0.020819783210754395,-0.025859206914901733,-0.011277541518211365,0.06641953438520432,0.06119551882147789,0.004037628881633282,-1.3584293353505719,0.4762900339584854,-0.20845341861000105
1687092249.243366,-0.870414674282074,-0.4543743431568146,-0.18953223526477814,0.0308912992477417,-0.09037971496582031,0.01909160614013672,-0.04877762496471405,0.08567997813224792,0.19337792694568634,-1.3563937662655015,0.47166975566265973,-0.20584957527646836
1687092249.289567,-0.8767795562744141,-0.438789427280426,-0.19677802920341492,0.027872085571289062,-0.18100741505622864,0.019486188888549805,0.05798317492008209,0.1936461627483368,0.5115072727203369,-1.3500218914014461,0.4542510264785088,-0.20674728358816027
1687092249.3632169,-0.8885592818260193,-0.40997201204299927,-0.20587722957134247,0.09673488140106201,-0.23562735319137573,0.025411546230316162,-0.00510844262316823,0.24056625366210938,0.7846330404281616,-1.3431160389892842,0.4224233802457165,-0.19778158878125188
1687092249.413391,-0.9028576612472534,-0.36958155035972595,-0.2196761816740036,0.11060601472854614,-0.21322795748710632,0.035700976848602295,-0.04190906882286072,0.3619701862335205,1.00029456615448,-1.3321220091419046,0.37855865314159054,-0.18701143744801263
1687092249.426918,-0.9171115756034851,-0.3160042464733124,-0.24299733340740204,0.10960119962692261,-0.2018943428993225,0.10806381702423096,-0.37423163652420044,0.48854297399520874,1.2043601274490356,-1.311788532542396,0.32151494897323163,-0.18352925217981564
1687092249.498726,-0.9285847544670105,-0.25285887718200684,-0.27164843678474426,0.14307749271392822,-0.15310123562812805,0.07058334350585938,-0.27378278970718384,0.5265910625457764,1.3415292501449585,-1.2861972949845282,0.25563401037922195,-0.18187807088287392
1687092249.5563831,-0.9360000491142273,-0.1801331788301468,-0.30241698026657104,0.14022374153137207,-0.1469390094280243,0.09738457202911377,-0.7917705178260803,0.5642459392547607,1.4612764120101929,-1.2582883731626526,0.18112184485917074,-0.18690298645259867
1687092249.582305,-0.9380778074264526,-0.0969686210155487,-0.33257660269737244,0.15743815898895264,-0.10582071542739868,0.061702609062194824,-0.7160099744796753,0.531328558921814,1.5331038236618042,-1.2300916962076396,0.09712123568964157,-0.19676118361261857
1687092249.676615,-0.9330602288246155,-0.006817013490945101,-0.359655499458313,0.16766411066055298,-0.09657657146453857,0.04045689105987549,-1.033888339996338,0.45983463525772095,1.5807825326919556,-1.202888694674245,0.006817066359785208,-0.2181932596617963
1687092249.7018209,-0.9221358299255371,0.08263616263866425,-0.37793755531311035,0.1256728172302246,-0.041681595146656036,0.01844051480293274,-0.74936443567276,0.4062109887599945,1.601449966430664,-1.1818273298105606,-0.08273050204097156,-0.22431544021887986
1687092249.732702,-0.9054169654846191,0.17483116686344147,-0.38685181736946106,0.11521005630493164,-0.04185083508491516,0.020946025848388672,-1.023875117301941,0.26016128063201904,1.6071879863739014,-1.1670098600432655,-0.17573429343184344,-0.23935992761186253
1687092249.788004,-0.8836148977279663,0.2637220025062561,-0.38687923550605774,0.08445101976394653,0.02444019913673401,0.007942497730255127,-0.8922284245491028,0.1648579239845276,1.5485481023788452,-1.1581031241556152,-0.26687877169976326,-0.24927922359341745
1687092249.8353271,-0.8583599328994751,0.3506697416305542,-0.3744984567165375,0.1110454797744751,-0.0172957181930542,0.05288898944854736,-1.352457046508789,0.06340880692005157,1.4755656719207764,-1.159397428492372,-0.3582861496727438,-0.271904432968984
1687092249.9497972,-0.8283398747444153,0.4391860365867615,-0.3478057086467743,0.11949276924133301,-0.012214601039886475,0.051632583141326904,-1.3408658504486084,-0.026813123375177383,1.5141375064849854,-1.1732679188297788,-0.45469246443208927,-0.30955589727632915
1687092250.045341,-0.7934613823890686,0.5208902359008789,-0.31478971242904663,0.1153760552406311,-0.047715187072753906,0.04889008402824402,-1.3168002367019653,-0.028529930859804153,1.4170030355453491,-1.1931123267475423,-0.5478934777480057,-0.34847020468792567
1687092250.060971,-0.7528817057609558,0.5947321653366089,-0.28189194202423096,0.07908391952514648,-0.02295476198196411,0.02949628233909607,-0.8840234875679016,-0.05436136946082115,1.556902289390564,-1.2125365995744606,-0.6369324492554784,-0.37887082144213813
1687092250.064625,-0.7040073871612549,0.6637182831764221,-0.2526887357234955,0.09173327684402466,-0.017264485359191895,0.01808491349220276,-0.8749410510063171,-0.0888705924153328,1.571577787399292,-1.2261891282426596,-0.7257789865083512,-0.39601738665491115
1687092250.095592,-0.6501657366752625,0.7271279692649841,-0.22038547694683075,0.09912502765655518,-0.0030220746994018555,0.049166589975357056,-0.6634474396705627,-0.1268821507692337,1.5697046518325806,-1.24398302661999,-0.8141290281079553,-0.4145529852159864
1687092250.369005,-0.5925292372703552,0.7818707823753357,-0.19387425482273102,0.09133905172348022,-0.01912975311279297,0.026439562439918518,-0.6772775053977966,-0.14961840212345123,1.5441334247589111,-1.2545778801626462,-0.8976609401117898,-0.4202516400339844
1687092250.374552,-0.5303824543952942,0.8331791758537292,-0.15654674172401428,0.06372290849685669,0.013820886611938477,0.045233920216560364,-0.861202597618103,-0.16882920265197754,1.5505582094192505,-1.2837874142433994,-0.9848319129395868,-0.4469939850524971
1687092250.38862,-0.4653874635696411,0.8761864900588989,-0.12534625828266144,0.05625355243682861,0.0815771222114563,0.012644842267036438,-0.41591915488243103,-0.19189807772636414,1.540665864944458,-1.3077021365678394,-1.067892121331794,-0.46295777228902274
1687092250.58033,-0.3985854387283325,0.9119397401809692,-0.0974445641040802,0.04470360279083252,0.07631093263626099,0.004503257572650909,-0.4918826222419739,-0.23316486179828644,1.4672660827636719,-1.3310234666577165,-1.1479868546291079,-0.4771717020871233
1687092250.59415,-0.3335510194301605,0.9397425055503845,-0.07501848042011261,0.06047973036766052,0.07812553644180298,0.03963340073823929,-0.33343812823295593,-0.18218526244163513,1.3674647808074951,-1.3495689179636559,-1.22187632052816,-0.4850554888928959
1687092250.665585,-0.2717041075229645,0.9610507488250732,-0.050581566989421844,0.06108701229095459,0.06078457832336426,0.02183401584625244,-0.5890701413154602,-0.16532322764396667,1.23384690284729,-1.3867391696097793,-1.2907793680483235,-0.5144165444696517
1687092250.6791449,-0.21510548889636993,0.9764446020126343,-0.016896041110157967,0.06979604065418243,0.010463297367095947,0.02911830134689808,-0.6030375957489014,-0.14868853986263275,1.1554359197616577,-1.4924095710683083,-1.353317873841629,-0.6155005470637389
1687092250.787777,-0.15486308932304382,0.9879151582717896,0.006406256929039955,0.06530924141407013,-0.04092419147491455,0.005632876884192228,-0.2383291870355606,-0.08878379315137863,1.3017669916152954,-1.6121399830683896,-1.4151731922910826,-0.733325660996928
1687092250.793597,-0.08783996105194092,0.9960916042327881,0.009261686354875565,0.05738338828086853,-0.005277395248413086,0.03266942501068115,0.059381868690252304,-0.08463118970394135,1.345895528793335,-1.6758463780984396,-1.482355201022571,-0.7927313385032361
1687092250.90709,-0.017928682267665863,0.999815821647644,0.006846950389444828,0.07034260034561157,-0.021727442741394043,0.03125417232513428,-0.015995444729924202,-0.014874127693474293,1.4417510032653809,-1.9356019020737083,-1.5516039140533326,-1.050355143974252
1687092250.913146,0.05393398553133011,0.9984714388847351,0.01207367330789566,0.0798703134059906,0.005404233932495117,0.016857028007507324,-0.2277234047651291,-0.13407491147518158,1.4175009727478027,1.7910256406344052,-1.515498061258885,2.6798222370118325
1687092251.057184,0.1252438873052597,0.9919561743736267,0.01836206577718258,0.0634920597076416,0.045672059059143066,0.03986549377441406,0.11849658191204071,-0.010067366063594818,1.4489312171936035,1.7163697031869847,-1.4438739948614285,2.60846006735716
1687092251.072215,0.19537818431854248,0.9806938767433167,0.008179324679076672,0.07528217136859894,0.04365915060043335,0.032927870750427246,-0.005489008501172066,-0.00329226185567677,1.3658334016799927,1.6126359583669785,-1.373978758399933,2.5040186736550885
1687092251.1139998,0.26270270347595215,0.9648114442825317,0.011229291558265686,0.030647456645965576,0.05879390239715576,0.012757539749145508,0.07113918662071228,0.02912863902747631,1.4104547500610352,1.6135155652626796,-1.3047253714190084,2.5050827682633874
1687092251.124865,0.33058270812034607,0.9437769055366516,-0.0003230275178793818,0.03280535340309143,0.12069141864776611,0.006930053234100342,0.15123002231121063,-0.028241019695997238,1.3864643573760986,1.5698191812154196,-1.2338749899076689,2.4586309407755893
1687092251.236454,0.3924461007118225,0.9197613000869751,-0.005017248447984457,-0.0048881471157073975,0.14693480730056763,0.0031557087786495686,0.20535585284233093,0.05122004821896553,1.2384482622146606,1.5580124692213952,-1.1674719185080207,2.444999897187361
1687092251.242131,0.4457635283470154,0.8951228857040405,-0.007065023295581341,0.02341371774673462,0.08197367191314697,0.015747249126434326,-0.21798422932624817,0.052723247557878494,1.1179440021514893,1.5549483909925568,-1.108706732835006,2.438994682742306
1687092251.3855639,0.4933576285839081,0.8698194026947021,-0.003571269568055868,0.027333348989486694,0.12511485815048218,-0.034850358963012695,0.2361619621515274,0.051919303834438324,1.0582889318466187,1.563557749729071,-1.0548361483906188,2.4447368094741786
1687092251.391187,0.5373786687850952,0.8432136178016663,-0.014665833674371243,-0.016352057456970215,0.13073968887329102,-0.025281667709350586,0.13727107644081116,0.06790726631879807,0.9416265487670898,1.5435116678826168,-1.0032333909536773,2.4179187361663406
1687092251.598583,0.5734068155288696,0.8192021250724792,-0.01061996165663004,0.049045026302337646,0.09769868850708008,-0.006164670921862125,-0.0761227011680603,0.05628436058759689,0.8203427791595459,1.552277628908792,-0.9600184201265093,2.4246394258712316
1687092251.6141071,0.6058796048164368,0.7955237030982971,-0.007201161701232195,-0.014540553092956543,0.0981377363204956,-0.012970924377441406,-0.1676643341779709,0.006209941580891609,0.7613343596458435,1.5589114195810705,-0.9198713904878881,2.4311530762829583
1687092251.7486129,0.6343779563903809,0.7730228900909424,0.0003709553275257349,-0.009103357791900635,0.10492205619812012,0.008646965026855469,-0.10980875790119171,0.015250750817358494,0.6910892128944397,1.5713810811526623,-0.8835924998968502,2.447291791434573
1687092251.7632198,0.6587687730789185,0.7523171305656433,0.0065668364986777306,0.016112327575683594,0.047792911529541016,0.011774302460253239,-0.28117892146110535,0.044927310198545456,0.580862820148468,1.5807643450762467,-0.8515722199098881,2.458046615036062
1687092251.837753,0.6807666420936584,0.7323886752128601,0.012790173292160034,0.025013387203216553,0.08636742830276489,-0.012271404266357422,0.16089729964733124,0.04742085188627243,0.6034554839134216,1.5895820133064298,-0.8218235590342131,2.4665374294177247
1687092251.84249,0.7020753622055054,0.7120340466499329,0.009893455542623997,0.006603896617889404,0.030016183853149414,0.022623062133789062,-0.0696171298623085,0.017185626551508904,0.574273943901062,1.5848871236053312,-0.7923908623759888,2.4578636807842855
1687092251.9264998,0.7218753695487976,0.6919296383857727,0.011379589326679707,-0.010388553142547607,0.0707504153251648,0.004459023475646973,0.1849680244922638,0.07787611335515976,0.5353190302848816,1.5865589461601313,-0.7641584146148689,2.457405729936838
1687092251.942255,0.7387136220932007,0.6739374399185181,0.010524455457925797,0.005167603492736816,0.01699584722518921,0.016788721084594727,-0.014714731834828854,0.10651686042547226,0.46074503660202026,1.5850423670242217,-0.7395254978975552,2.4476495108266936
1687092252.0222769,0.7538079619407654,0.6569408178329468,0.01423401478677988,0.01348036527633667,0.04905295372009277,-0.003476617857813835,0.14375028014183044,0.15508896112442017,0.4584711194038391,1.589676896196365,-0.7167539402251925,2.44445122459993
1687092252.1046638,0.7689701318740845,0.6390724778175354,0.016472335904836655,0.012539267539978027,-0.0041695237159729,0.017600534483790398,0.023826535791158676,0.11930163204669952,0.49113863706588745,1.592214346484948,-0.6932917215824215,2.4377731721448277
1687092252.111069,0.785560667514801,0.6185762882232666,0.016056975349783897,0.008140504360198975,0.0592496395111084,0.0038709640502929688,0.27293914556503296,0.13605457544326782,0.5488641858100891,1.5912336286795292,-0.6669294183680824,2.42656832722552
1687092252.167235,0.8016773462295532,0.5975869297981262,0.014254754409193993,0.003681480884552002,0.051933884620666504,0.013088938780128956,0.1269126981496811,0.12555712461471558,0.507829487323761,1.5885756148445913,-0.6404881614090553,2.41094156289987
1687092252.172161,0.8161943554878235,0.5775566697120667,0.015974804759025574,-0.0016039013862609863,0.06560128927230835,0.004670381546020508,0.0693892240524292,0.11923958361148834,0.49461621046066284,1.59036613187374,-0.6157325461161997,2.403736993438197
1687092252.2859468,0.8292933702468872,0.5583862066268921,0.021848250180482864,0.004111111164093018,0.04001772403717041,0.021471379324793816,-0.02663850225508213,0.151906356215477,0.42709946632385254,1.5971358553149488,-0.5924392091504103,2.4041195830425264
1687092252.2917352,0.8406328558921814,0.5409393310546875,0.026850076392292976,-0.006358623504638672,0.025237977504730225,-0.015055062249302864,0.12452571094036102,0.13758769631385803,0.42717909812927246,1.6027257838274989,-0.5715535586445888,2.400960010185745
1687092252.377427,0.8523780703544617,0.5220246315002441,0.030687816441059113,-0.0014870762825012207,-0.01239633560180664,-0.004381660372018814,-0.06871484965085983,0.0979725793004036,0.451779305934906,1.6067833700152714,-0.5492229374314104,2.3973954888851683
1687092252.391459,0.8634662628173828,0.5029875040054321,0.037809498608112335,0.003507554531097412,0.03778398036956787,-0.015073899179697037,-0.06506738811731339,0.1207355260848999,0.4120178520679474,1.6145564167862856,-0.527051896667343,2.402167900251326
1687092252.4994001,0.8732815980911255,0.4852352440357208,0.04388579726219177,0.00016194581985473633,0.05341523885726929,-0.0029007233679294586,0.0626697987318039,0.1226649135351181,0.4055648148059845,1.6210079767285068,-0.5066321902615145,2.402475450117161
1687092252.514237,0.8824996948242188,0.4677852690219879,0.0486953929066658,-0.00720977783203125,0.049319833517074585,-0.0007218122482299805,-0.11305222660303116,0.10716482996940613,0.37023839354515076,1.6259193612794316,-0.4867833181071252,2.4011062049327387
1687092252.5870728,0.8903275728225708,0.45213523507118225,0.0537683367729187,0.005195736885070801,0.07652094960212708,-0.02088557556271553,0.11627976596355438,0.12329944223165512,0.33150890469551086,1.6311147011863678,-0.46915779315251405,2.3994907025600454
1687092252.592959,0.8967657089233398,0.4389989674091339,0.055599395185709,-0.015204429626464844,0.05996343493461609,0.0065343379974365234,0.18362072110176086,0.13669997453689575,0.2898111045360565,1.632716981656103,-0.45448424854202896,2.38900030172635
1687092252.709044,0.9028667211532593,0.42599502205848694,0.057965945452451706,0.004146218299865723,0.0017546117305755615,0.006716012954711914,0.14834396541118622,0.1310443878173828,0.2968099117279053,1.6349104383355118,-0.44006139494482516,2.3789768211467996
1687092252.7231941,0.9083207249641418,0.4138605296611786,0.060605600476264954,0.009373366832733154,0.013095676898956299,0.034487128257751465,0.2728046476840973,0.19539661705493927,0.2854418158531189,1.6374202644931986,-0.4266907608539918,2.3656206571236185
1687092252.800603,0.9135767221450806,0.4014645218849182,0.0648345947265625,0.0013858675956726074,-0.0244961678981781,0.011871322989463806,0.2428124099969864,0.19756406545639038,0.29397323727607727,1.6416454103734002,-0.4131153269636366,2.350653262807907
1687092252.806419,0.9188185930252075,0.38875290751457214,0.06814593076705933,-0.005457878112792969,0.01983177661895752,0.0037381723523139954,0.21332988142967224,0.16704735159873962,0.2825291156768799,1.6448276880852022,-0.3992776291792586,2.3364042681671067
1687092252.888092,0.923435389995575,0.3771645128726959,0.07081160694360733,0.0011405348777770996,0.04182666540145874,-0.037730567157268524,0.16140116751194,0.13656847178936005,0.23858754336833954,1.6473293444863284,-0.3867327716013672,2.3234337199944717
1687092252.893899,0.9272063374519348,0.36764949560165405,0.07157072424888611,-0.0017302632331848145,0.08613163232803345,-0.06339205056428909,0.2617373764514923,0.0624614953994751,0.19788858294487,1.6478332145703056,-0.3764802209620931,2.3109442878571094
1687092253.035913,0.9301652312278748,0.36038392782211304,0.07011587172746658,0.01299583911895752,0.07464414834976196,-0.02815413475036621,0.1321316957473755,0.019064931198954582,0.13667717576026917,1.6460340538129823,-0.3686794392684875,2.3014908953086426
1687092253.041782,0.9318870902061462,0.3560612201690674,0.06933415681123734,-0.0038474202156066895,0.04603844881057739,-0.0026227161288261414,0.03443523868918419,0.039330899715423584,0.05465453118085861,1.6450613778353094,-0.3640494795134312,2.2949734029453794
1687092253.095907,0.9321668744087219,0.3548702895641327,0.07163817435503006,-0.009925663471221924,0.01774933934211731,0.0004596635699272156,0.048072755336761475,0.07329206168651581,0.028903629630804062,1.647496798724896,-0.36277531013168185,2.2944614043018463
1687092253.108615,0.9325360655784607,0.35329651832580566,0.07455357164144516,-0.00026977062225341797,-0.032007426023483276,0.010575175285339355,0.020311430096626282,0.06792242079973221,0.05464068427681923,1.650573764730707,-0.3610925365537162,2.294156025118305
1687092253.2189422,0.9332597255706787,0.350761353969574,0.07741495966911316,-0.009919703006744385,-0.0332869291305542,-0.00670575350522995,-0.020573951303958893,0.05462279170751572,0.06320308148860931,1.6535579894123564,-0.3583839834559554,2.2936783575281954
1687092253.225208,0.9349021315574646,0.34639379382133484,0.07726140320301056,0.015781402587890625,0.0017202496528625488,-0.030859358608722687,0.0807470753788948,-0.018462469801306725,0.1131068617105484,1.6532501261384003,-0.3537241437938376,2.290145817172888
1687092253.3086119,0.9368311762809753,0.34187886118888855,0.07393283396959305,0.004758059978485107,0.023935317993164062,-0.02746988832950592,0.02795097418129444,-0.0681397020816803,0.07545416057109833,1.6495510937043263,-0.34891550005211536,2.2865207528238587
1687092253.3233252,0.9380032420158386,0.3396785855293274,0.06905512511730194,-0.007705271244049072,0.043378084897994995,-0.03527223318815231,0.02782260999083519,-0.07972291857004166,0.011384157463908195,1.64428303590174,-0.34657515238817127,2.283793059567075
1687092253.4275,0.9382036924362183,0.340046226978302,0.06436342746019363,0.0040877461433410645,0.027873724699020386,-0.0030383989214897156,0.011277986690402031,-0.09529504179954529,0.0008465629070997238,1.639291834359522,-0.34696606116715306,2.2826598640460487
1687092253.441671,0.9383333325386047,0.34053805470466614,0.05970489978790283,-0.0008637309074401855,0.009315520524978638,0.023363955318927765,0.004164950456470251,-0.07014837116003036,-0.005741165950894356,1.634339332698552,-0.3474890951030619,2.2820691221428793
1687092253.483911,0.9381025433540344,0.3416040539741516,0.05718448758125305,0.0018082261085510254,0.008539348840713501,0.02446531131863594,-0.052061304450035095,-0.049810852855443954,-0.029595298692584038,1.63167860128967,-0.3486230783289651,2.2830308861059763
1687092253.487448,0.9375409483909607,0.3431878983974457,0.056911617517471313,-0.006648063659667969,0.009808897972106934,0.009784571826457977,-0.022932181134819984,-0.028195813298225403,-0.03275134414434433,1.6314250076982704,-0.3503088431349076,2.285959703641505
1687092253.6381822,0.9370454549789429,0.3446486294269562,0.056242503225803375,0.0010191798210144043,-0.010435372591018677,-0.02346658706665039,-0.08986647427082062,-0.06373591721057892,-0.02063782326877117,1.6307455131580617,-0.3518644661641629,2.2893805437098074
1687092253.644001,0.9367066621780396,0.34593409299850464,0.053949639201164246,-0.009719789028167725,0.04856666922569275,-0.08524536341428757,-0.1110207661986351,-0.13838261365890503,-0.08520050346851349,1.628327791059664,-0.3532341649078839,2.296166746211064
1687092253.727602,0.9344627857208252,0.3534378111362457,0.04314196854829788,0.008011698722839355,0.22592321038246155,-0.24941027164459229,-0.35894614458084106,-0.5093894600868225,-0.2635568678379059,1.6169312387527885,-0.3612435597951361,2.3070945131469167
1687092253.741637,0.9287083148956299,0.37022992968559265,0.020750319585204124,0.05624645948410034,0.40755632519721985,-0.2554914951324463,-0.5742959976196289,-0.8683319091796875,-0.5237234234809875,1.593135813915363,-0.37925653738422743,2.3372529052639033
1687092253.822094,0.9145469665527344,0.40414607524871826,-0.016428666189312935,0.0480690598487854,0.6156903505325317,-0.2599843144416809,-0.3191899359226227,-1.0805414915084839,-1.0019463300704956,1.5528345372321994,-0.4160450876577677,2.3614413083385717
1687092253.827869,0.882561206817627,0.46632006764411926,-0.06026069447398186,0.08011579513549805,0.5885505676269531,-0.16248714923858643,-0.29506543278694153,-1.1368354558944702,-1.6860711574554443,1.50262279900417,-0.4851262906422711,2.375092854400973
1687092253.9089088,0.8295490741729736,0.5489568710327148,-0.10244441777467728,0.28069567680358887,0.39025211334228516,-0.01813054084777832,-0.23822559416294098,-1.0874245166778564,-2.0770936012268066,1.4479243368485613,-0.5811157220523531,2.3783799424100214
1687092253.923245,0.7577565312385559,0.6382677555084229,-0.1357169896364212,0.3609262704849243,0.1823650598526001,0.0736442506313324,-0.35002535581588745,-0.9535554051399231,-2.309516191482544,1.3935716997431116,-0.6922459423206132,2.3736943999877753
1687092253.997597,0.6697341799736023,0.7263195514678955,-0.15464900434017181,0.3862046003341675,0.07067763805389404,0.07977412641048431,-0.30141308903694153,-0.7844019532203674,-2.4222640991210938,1.3438628537710107,-0.8129521759516133,2.365097792467371
1687092254.012065,0.5708956122398376,0.803479015827179,-0.16881848871707916,0.4027218818664551,-0.01211249828338623,0.07544995844364166,-0.02079499326646328,-0.6325101852416992,-2.400716781616211,1.2832816497447392,-0.9331162394119346,2.332121199380365
1687092254.053958,0.4669998288154602,0.8644900321960449,-0.18592530488967896,0.4167129099369049,-0.12758207321166992,0.09684444963932037,-0.10475833714008331,-0.5480660796165466,-2.286062717437744,1.191905521983283,-1.0441349447556512,2.258115308408162
1687092254.0577478,0.3627806305885315,0.9138513207435608,-0.1823897659778595,0.3430909216403961,-0.1524377465248108,0.11247396469116211,-0.39286601543426514,-0.43205562233924866,-2.185398578643799,1.1049471843294292,-1.1526699525327289,2.1885986731605143
1687092254.148423,0.261760413646698,0.9480504393577576,-0.18078164756298065,0.312702476978302,-0.10636031627655029,0.08459025621414185,-0.03344713896512985,-0.33412182331085205,-1.9800448417663574,0.9663813618898615,-1.247050380948944,2.060998302651315
1687092254.1633692,0.16528895497322083,0.970899224281311,-0.17330391705036163,0.2807254195213318,-0.13859331607818604,0.06579048931598663,-0.3514682650566101,-0.21339577436447144,-1.9306061267852783,0.761731170264125,-1.3289573500741483,1.8625324288307172
1687092254.2044082,0.07131432741880417,0.9828277826309204,-0.1701880842447281,0.24661779403686523,-0.03634035587310791,0.042761921882629395,0.2946407198905945,-0.06375864893198013,-1.854293704032898,0.3968052318907119,-1.3852075982784877,1.4958487735193955
1687092254.208173,-0.01864907518029213,0.9837480783462524,-0.17858344316482544,0.21791356801986694,-0.12048208713531494,0.07975226640701294,-0.046526189893484116,-0.028451964259147644,-1.7851836681365967,-0.10405066149380741,-1.3902629616602706,0.9890236014705878
1687092254.3275619,-0.10387809574604034,0.9789623022079468,-0.17561925947666168,0.21607595682144165,-0.09334224462509155,0.03810711205005646,-0.021804863587021828,0.010946107096970081,-1.6573551893234253,-0.5341431283115844,-1.3653121178384042,0.551504598007625
1687092254.3414102,-0.18114010989665985,0.9684132933616638,-0.17135855555534363,0.18661801517009735,-0.07464510202407837,0.036714985966682434,-0.24904760718345642,0.009168846532702446,-1.525774359703064,-0.8131402428190946,-1.3187868332765418,0.2645436577988021
1687092254.505484,-0.25315549969673157,0.9552501440048218,-0.1530017852783203,0.14791560173034668,-0.023182272911071777,0.04767036437988281,-0.42658671736717224,0.05434788763523102,-1.4939113855361938,-1.0271634219135048,-1.270504284883031,0.041669216208456546
1687092254.511528,-0.32392165064811707,0.9353376626968384,-0.14219148457050323,0.13422435522079468,0.030818402767181396,0.04836517572402954,-0.14001460373401642,0.24200060963630676,-1.5557100772857666,-1.15715375386752,-1.2092123484877821,-0.10266956965654048
1687092254.63194,-0.3974209725856781,0.9070038795471191,-0.13928593695163727,0.1661434769630432,0.04462575912475586,0.09387576580047607,-0.21820101141929626,0.4494989812374115,-1.724496603012085,-1.233698813636761,-1.1361140456564804,-0.20427478347163908
1687092254.644823,-0.472823828458786,0.8683562278747559,-0.149650439620018,0.16241422295570374,0.08991098403930664,0.042594730854034424,0.23945309221744537,0.5597426295280457,-1.8031775951385498,-1.26426820945322,-1.0518781390954262,-0.26828578053491264
1687092254.721555,-0.5456632971763611,0.8199595212936401,-0.172968327999115,0.1591275930404663,0.05284315347671509,0.07016986608505249,0.1761457622051239,0.4902666509151459,-1.803102970123291,-1.2638286568024293,-0.9613403445139985,-0.29932110500167824
1687092254.727682,-0.6133728623390198,0.7638716697692871,-0.20068320631980896,0.15605169534683228,0.09205478429794312,0.04081690311431885,0.5541250705718994,0.423737108707428,-1.8452389240264893,-1.2545941498886903,-0.8692911999776095,-0.3166455179838711
1687092254.808677,-0.6780877113342285,0.6986904144287109,-0.22809840738773346,0.17599725723266602,0.026910781860351562,0.042414188385009766,-0.047968558967113495,0.3519423007965088,-1.9172605276107788,-1.2463019717943191,-0.7735653306437599,-0.3334832610562148
1687092254.823213,-0.7397729754447937,0.6343797445297241,-0.2242729216814041,0.17089474201202393,0.03311598300933838,0.04835432767868042,-0.6281184554100037,0.3055547773838043,-2.002706527709961,-1.276438829061302,-0.6872058692405839,-0.40221938782042077
1687092254.8648171,-0.7981834411621094,0.5592917203903198,-0.2238214612007141,0.19239425659179688,0.08011263608932495,0.04581242799758911,-0.007563078310340643,0.35426458716392517,-2.1004865169525146,-1.2974041693896292,-0.5935311148207503,-0.4621885352439595
1687092254.87503,-0.8482933640480042,0.46659430861473083,-0.25037622451782227,0.20319753885269165,0.053791433572769165,0.037867069244384766,0.5961169600486755,0.44416046142578125,-2.1882505416870117,-1.283792362967545,-0.4854363058807585,-0.47614456693479446
1687092254.955999,-0.8885953426361084,0.3606356978416443,-0.2834438979625702,0.2522122263908386,0.061101943254470825,0.1091579794883728,0.6067983508110046,0.46021825075149536,-2.231309175491333,-1.262019146628427,-0.3689493597121463,-0.4776117506655924
1687092254.9611921,-0.9155659079551697,0.25453299283981323,-0.311371386051178,0.16075927019119263,-0.04484671354293823,-0.004516094923019409,0.8976706862449646,0.34271153807640076,-1.987104058265686,-1.2429805002833905,-0.25736477390316403,-0.4818750688430413
1687092255.0446591,-0.9302839040756226,0.15274293720722198,-0.3335287868976593,0.14270150661468506,-0.08026370406150818,-0.007749319076538086,1.0111064910888672,0.13713793456554413,-1.6656227111816406,-1.226548327437705,-0.15334318392081217,-0.46160274713419225
1687092255.059542,-0.9382025003433228,0.06519673019647598,-0.3398904800415039,0.12866270542144775,-0.07210898399353027,-0.021468162536621094,0.743873655796051,-0.04949011653661728,-1.3942655324935913,-1.223225252076077,-0.06524300513589366,-0.44352400671500647
1687092255.1380281,-0.9416121244430542,-0.004360962193459272,-0.3366715908050537,0.0871504545211792,-0.06257936358451843,-0.004087686538696289,0.21435865759849548,-0.0654023066163063,-1.2769237756729126,-1.2274130587884016,0.004360975938503978,-0.4484407579323138
1687092255.143585,-0.940672755241394,-0.06970684230327606,-0.3320779800415039,0.06043899059295654,-0.03684532642364502,-0.005400657653808594,0.7416560649871826,-0.09214726090431213,-1.1300559043884277,-1.2314320323954562,0.06976341806268457,-0.4421050229460752
1687092255.195506,-0.9368141293525696,-0.13241831958293915,-0.3237974941730499,0.0971076488494873,-0.06808221340179443,-0.014978170394897461,0.47245705127716064,-0.12145760655403137,-1.0789690017700195,-1.2380137481870142,0.13280838860830652,-0.4307662036486969
1687092255.2080278,-0.931259036064148,-0.1891222894191742,-0.3114311099052429,0.08886712789535522,-0.0646618902683258,0.014632433652877808,0.5034453868865967,-0.2038840651512146,-1.0572322607040405,-1.2480685967161917,0.19026823391703593,-0.42635924609684495
1687092255.2893739,-0.922718346118927,-0.24708357453346252,-0.29587262868881226,0.102131187915802,-0.07248125970363617,-0.009287863969802856,0.7690094113349915,-0.13596312701702118,-0.9166524410247803,-1.260500942645025,0.2496693487511581,-0.4067089859485364
1687092255.295212,-0.913948655128479,-0.29215607047080994,-0.28167852759361267,0.094032883644104,-0.17215362191200256,-0.011427521705627441,0.4125255346298218,-0.1348389834165573,-0.7209662199020386,-1.2718341381403755,0.29648050857730796,-0.39235045077322334
1687092255.376682,-0.9062087535858154,-0.3272184431552887,-0.2677943706512451,0.09621119499206543,-0.1682649850845337,-0.014844179153442383,0.8940466642379761,-0.08523646742105484,-0.43899500370025635,-1.283463251993006,0.33335846608285435,-0.37254092964394314
1687092255.3908172,-0.9003934860229492,-0.35423043370246887,-0.25261151790618896,0.09222692251205444,-0.17730951309204102,0.009477972984313965,0.5410742163658142,0.010933967307209969,-0.31053221225738525,-1.297271376828953,0.36209102549778804,-0.3368816749612441
1687092255.471308,-0.8958733677864075,-0.3662056624889374,-0.2516036629676819,0.048842668533325195,-0.17465737462043762,0.024964869022369385,0.09578567743301392,0.09139997512102127,-0.11536799371242523,-1.2970020383666871,0.37492815068612867,-0.33062075335689
1687092255.4777532,-0.8937416672706604,-0.3722133934497833,-0.25036585330963135,0.0405312180519104,-0.06119728088378906,-0.0026706457138061523,0.28840306401252747,0.08759572356939316,-0.025073852390050888,-1.2976650144436324,0.3813926339149535,-0.317753355766042
1687092255.558786,-0.8928943276405334,-0.37503141164779663,-0.2491813600063324,0.026332318782806396,-0.031905293464660645,-0.0566810667514801,0.015645837411284447,-0.02475602924823761,-0.08062153309583664,-1.2986488200015465,0.3844306702581114,-0.3134380151690223
1687092255.57341,-0.8921070694923401,-0.38222789764404297,-0.24092935025691986,0.009904861450195312,0.02997872233390808,-0.039176225662231445,0.7248302102088928,-0.023080436512827873,-0.007606643717736006,-1.3070213475352999,0.39220606366484767,-0.2951445101046617
1687092255.67874,-0.8922063112258911,-0.38636383414268494,-0.23386108875274658,0.06754505634307861,-0.18841952085494995,0.06497681140899658,0.16107094287872314,0.07515181601047516,0.10293757915496826,-1.3144477526414908,0.39668601944821535,-0.272243451560601
1687092255.693191,-0.8972784876823425,-0.373127818107605,-0.2359389066696167,0.10681211948394775,-0.3356887400150299,0.0210951566696167,0.07625938206911087,0.12879648804664612,0.535279393196106,-1.3136675409092495,0.3823780277189479,-0.26156372636653125
1687092255.7340589,-0.9088971614837646,-0.341321736574173,-0.23959441483020782,0.14141058921813965,-0.3596670627593994,0.012391090393066406,0.20426954329013824,0.18202094733715057,0.9451221227645874,-1.3130497971526107,0.3483227287450108,-0.24147006370995303
1687092255.737787,-0.9232361912727356,-0.2926822602748871,-0.24894212186336517,0.14313054084777832,-0.2681087851524353,0.03847765922546387,0.11013558506965637,0.3178456723690033,1.2500196695327759,-1.307419340671417,0.29703072847937423,-0.22011617298036423
1687092255.85584,-0.9361065626144409,-0.2311023473739624,-0.26513445377349854,0.15749633312225342,-0.15602843463420868,0.05869832634925842,0.1046537384390831,0.40848055481910706,1.395133376121521,-1.2947939781864306,0.23321054508828323,-0.197226612038911
1687092255.862541,-0.9443331360816956,-0.16507580876350403,-0.2845781743526459,0.1348544955253601,-0.07520435750484467,0.053773730993270874,0.13015563786029816,0.4818990230560303,1.464380145072937,-1.278098192832077,0.16583487481652476,-0.17112091222629192
1687092255.946269,-0.947049617767334,-0.09575121849775314,-0.3064781129360199,0.12013000249862671,-0.07194289565086365,0.031285881996154785,0.193228080868721,0.4854637384414673,1.544399380683899,-1.2578189058492155,0.09589813430721465,-0.1408422185022264
1687092255.960353,-0.9430661797523499,-0.02430453523993492,-0.3317163288593292,0.13720369338989258,-0.04852569103240967,0.055837392807006836,-0.13039445877075195,0.5549542307853699,1.478450894355774,-1.2325701458800709,0.02430692951157417,-0.11434015775835898
1687092256.03763,-0.9331727623939514,0.046738386154174805,-0.356376588344574,0.11443185806274414,-0.008026864379644394,0.05509182810783386,0.05014309659600258,0.5394113659858704,1.5202832221984863,-1.205992067302166,-0.046755417988516915,-0.09061067294263905
1687092256.042362,-0.9171056747436523,0.12080831825733185,-0.3798980116844177,0.13393306732177734,-0.05557703971862793,0.0705413818359375,-0.726430356502533,0.542846143245697,1.446129560470581,-1.1780782440250692,-0.12110412403402561,-0.07743072623881349
1687092256.129628,-0.894706130027771,0.19928251206874847,-0.399734228849411,0.1431344747543335,-0.004778772592544556,0.0626065731048584,-0.12932467460632324,0.5353235006332397,1.5806394815444946,-1.1506257770650996,-0.20062568691542412,-0.06871329699764767
1687092256.144158,-0.8632676005363464,0.27253687381744385,-0.4248442053794861,0.08764815330505371,-0.03330963850021362,0.08118578791618347,-0.38587790727615356,0.6678670644760132,1.6470142602920532,-1.1134604992534352,-0.27602872454526384,-0.039302755506646574
1687092256.2184381,-0.8228761553764343,0.35507863759994507,-0.4436148703098297,0.18331921100616455,-0.02742666006088257,0.037578463554382324,-0.443975031375885,0.5434308648109436,1.6943438053131104,-1.0763579448924987,-0.36299818550040425,-0.022771547937617057
1687092256.223772,-0.7767814993858337,0.43245095014572144,-0.45781731605529785,0.12138599157333374,0.0019972026348114014,0.10083797574043274,-0.6636016368865967,0.5944917798042297,1.7181847095489502,-1.0382243094364458,-0.4472092919879692,0.004547373354819709
1687092256.30737,-0.7226051688194275,0.5173567533493042,-0.4584580957889557,0.142755925655365,-0.004661440849304199,-0.00044995546340942383,-0.6327843070030212,0.5005051493644714,1.78083074092865,-1.0054291343987278,-0.5437593096799059,0.014648406256023077
1687092256.314313,-0.6594727039337158,0.5906937122344971,-0.4649480879306793,0.11363530158996582,-0.009990036487579346,0.04678097367286682,-0.29908841848373413,0.554877519607544,1.864534616470337,-0.9567024395287167,-0.6319182828123294,0.05364507301795023
1687092256.400856,-0.5882738828659058,0.6667875051498413,-0.45752400159835815,0.13467592000961304,-0.06604903936386108,0.07547447085380554,-1.1996359825134277,0.5063463449478149,1.8363617658615112,-0.9097768181825479,-0.729889770609957,0.08410213988886311
1687092256.407323,-0.5100624561309814,0.7368322014808655,-0.44375088810920715,0.13724440336227417,0.0654292106628418,0.029886722564697266,-0.33028361201286316,0.5439212918281555,1.9503990411758423,-0.854809050073294,-0.8283727140741349,0.12576894297476832
1687092256.4887981,-0.42383334040641785,0.792064905166626,-0.43931591510772705,0.14311736822128296,0.05009818077087402,0.00810253620147705,-0.6688107848167419,0.48541030287742615,1.8811297416687012,-0.7674627621633037,-0.9141843054274844,0.20425628554355194
1687092256.494925,-0.3411816358566284,0.8438814878463745,-0.4140762984752655,0.1177014410495758,0.08496677875518799,0.006956547498703003,-1.055246353149414,0.3922550082206726,1.7093884944915771,-0.689179980217643,-1.0044769822057524,0.27458699758243893
1687092256.64102,-0.26145559549331665,0.8907657861709595,-0.37172219157218933,0.06840139627456665,0.1061519980430603,-0.015469610691070557,-1.0745798349380493,0.26874640583992004,1.6535037755966187,-0.6129793743788949,-1.0990273761862677,0.3447735779703521
1687092256.6551151,-0.1836744248867035,0.9255848526954651,-0.33099308609962463,0.0917249470949173,0.09608262777328491,-0.0075536370277404785,-0.7007545828819275,0.16097351908683777,1.6010712385177612,-0.5066121178450971,-1.1825777262084358,0.451716121885584
1687092256.786407,-0.10727756470441818,0.9494925737380981,-0.29488223791122437,0.0894552618265152,0.05545133352279663,0.020910650491714478,-0.8965171575546265,0.11100947856903076,1.5753071308135986,-0.34891375884476505,-1.2516149202995357,0.611756638086952
1687092256.79222,-0.02922823652625084,0.9645340442657471,-0.26233527064323425,0.12218475341796875,0.10208582878112793,0.01721814274787903,-0.33201864361763,0.09347445517778397,1.5971968173980713,-0.11095796276491583,-1.303672363667483,0.8535648391765873
1687092256.9087648,0.04963060840964317,0.9643656015396118,-0.25987693667411804,0.06845712661743164,0.12422698736190796,-0.00423741340637207,-0.0007278092671185732,0.11334942281246185,1.5879597663879395,0.18870508309848688,-1.3030348997381327,1.1580349313396858
1687092256.966526,0.1258312165737152,0.9607257843017578,-0.24733050167560577,0.014244452118873596,0.11422532796859741,-0.006041690707206726,-0.30489543080329895,0.06998035311698914,1.5183137655258179,0.4706289510548804,-1.2896058353900948,1.4465185712693827
1687092256.978825,0.1974855661392212,0.9518759250640869,-0.23437553644180298,0.06086099147796631,0.10873210430145264,0.005661517381668091,-0.28533050417900085,0.05093640089035034,1.4337338209152222,0.700184110966013,-1.2592996764853217,1.6828943257357198
1687092257.059833,0.26404979825019836,0.9383953809738159,-0.22291672229766846,-0.0024836957454681396,0.12340271472930908,-0.0004719346761703491,-0.13327494263648987,0.05009368807077408,1.353113055229187,0.8696661204909238,-1.2179570693420803,1.8600229908746122
1687092257.073886,0.324433296918869,0.9210145473480225,-0.21558129787445068,0.05551055073738098,0.13342881202697754,0.025136351585388184,-0.16514551639556885,0.11499092727899551,1.1934906244277954,0.9843051153730046,-1.170677147465041,1.979011625120991
1687092257.1461182,0.37697067856788635,0.9039140939712524,-0.2020701915025711,0.03371956944465637,0.12162905931472778,-0.010194823145866394,-0.24644063413143158,0.14282485842704773,1.0001918077468872,1.078736525285177,-1.1288340348934178,2.0749207665821077
1687092257.160178,0.41846051812171936,0.8887635469436646,-0.18705661594867706,-0.00931134819984436,0.10183703899383545,0.04868991672992706,-0.3441283106803894,0.19146867096424103,0.795295000076294,1.150430533015176,-1.0946405565287267,2.1461151475159665
1687092257.272264,0.4551551043987274,0.8727141618728638,-0.17664584517478943,0.0035087764263153076,0.09158021211624146,0.01186622679233551,0.08925241231918335,0.28764379024505615,0.7759096622467041,1.2005901848659464,-1.0607341238899828,2.189486392976213
1687092257.27788,0.4907369911670685,0.8537951707839966,-0.17381314933300018,0.00915616750717163,0.07026183605194092,0.035385385155677795,0.07758776843547821,0.28045472502708435,0.7602512240409851,1.2303954345909736,-1.0232321157958464,2.207908332983729
1687092257.386903,0.5249844789505005,0.8336604237556458,-0.171468585729599,0.011239826679229736,0.1035495400428772,-0.00043688714504241943,0.1859118491411209,0.3237745463848114,0.7242546081542969,1.2551030546400375,-0.9857028113962769,2.219393187278596
1687092257.3927178,0.5553797483444214,0.8143364191055298,-0.1685512810945511,0.03901112079620361,0.09484320878982544,-0.015790149569511414,0.11508400738239288,0.3176160752773285,0.6036194562911987,1.2761422794085773,-0.9515849169223677,2.2246609375773856
1687092257.506326,0.581477701663971,0.7973628044128418,-0.16154327988624573,0.008655905723571777,0.0462498664855957,-0.011155709624290466,0.06867629289627075,0.34821951389312744,0.5703439712524414,1.2998148252980979,-0.9229127040538827,2.2330772004269983
1687092257.5114222,0.605969250202179,0.7800795435905457,-0.15581178665161133,0.002734363079071045,0.031932175159454346,-0.03907346725463867,0.057997290045022964,0.3253209590911865,0.5323293805122375,1.3191201055259678,-0.894792937707213,2.2363993500444437
1687092257.595916,0.6292993426322937,0.7631290555000305,-0.1470254808664322,0.002536594867706299,0.017556428909301758,-0.030876755714416504,0.059434596449136734,0.312014102935791,0.5380926132202148,1.341279628583903,-0.8681412774946328,2.2451522061853617
1687092257.6112971,0.6515395045280457,0.7457068562507629,-0.13934661448001862,0.029841601848602295,-0.01838141679763794,-0.017101749777793884,-0.05896102264523506,0.29536235332489014,0.550676167011261,1.3600977645850878,-0.8415950834196957,2.2497130426737795
1687092257.691405,0.67520672082901,0.7262464761734009,-0.12908205389976501,0.010981082916259766,0.0035509467124938965,-0.02614559233188629,-0.0022998731583356857,0.22514627873897552,0.6414210200309753,1.3819014096862283,-0.8128459227555469,2.2615907068859418
1687092257.706183,0.700558066368103,0.7026093602180481,-0.12473418563604355,0.017551064491271973,0.037167251110076904,-0.018851041793823242,0.24121823906898499,0.23539850115776062,0.6872511506080627,1.3945930811730192,-0.7790579282968939,2.263298542578892
1687092257.839497,0.7254807353019714,0.6767145991325378,-0.12543964385986328,0.0059188008308410645,0.04215741157531738,-0.0004758685827255249,0.16203314065933228,0.19410158693790436,0.674129068851471,1.399583595842792,-0.7432910745504174,2.253812511363364
1687092257.8454552,0.7488618493080139,0.6515551209449768,-0.12116941064596176,0.00901174545288086,0.0628766417503357,0.02317744493484497,0.07986477017402649,0.21150194108486176,0.6628313064575195,1.4103818513572395,-0.7096326520948677,2.255792009897139
1687092257.955463,0.770946741104126,0.6260539889335632,-0.11703690141439438,-0.0024378299713134766,0.08456313610076904,0.006319105625152588,0.17739371955394745,0.23970451951026917,0.6194722652435303,1.4201373443519474,-0.6764824655346069,2.253200127866991
1687092257.961179,0.7899476885795593,0.6033169031143188,-0.10950484871864319,0.00045752525329589844,0.07081633806228638,0.02648182213306427,-0.030141090974211693,0.2262517362833023,0.548441469669342,1.433051256578137,-0.647653724096587,2.25530630075538
1687092258.046593,0.8069093227386475,0.58284991979599,-0.09583056718111038,0.00549924373626709,0.044469475746154785,0.01875840127468109,-0.29550832509994507,0.23592214286327362,0.4989142119884491,1.4525875133845414,-0.6222315560802876,2.269233482414222
1687092258.061201,0.8212949633598328,0.5651798248291016,-0.07775943726301193,0.003076493740081787,0.06111723184585571,-0.0023186877369880676,-0.07422813028097153,0.2974924147129059,0.4302387833595276,1.4763986559848223,-0.6006512132391044,2.2865271869053463
1687092258.1667562,0.834788978099823,0.5466684103012085,-0.06542947888374329,-0.005305945873260498,0.04236668348312378,0.008041203022003174,0.021608389914035797,0.30294176936149597,0.4549846351146698,1.4925777682798922,-0.5783803322445853,2.2879715843059185
1687092258.1806412,0.8477258086204529,0.5275842547416687,-0.05491568520665169,0.01747804880142212,0.0504339337348938,-0.023377180099487305,0.155141681432724,0.30018550157546997,0.4226059019565582,1.5061067074727181,-0.5557543221487632,2.2849541745410464
