Timestamp,gravityX,gravityY,gravityZ,accelerationX,accelerationY,accelerationZ,rotationRateX,rotationRateY,rotationRateZ,attitudeRoll,attitudePitch,attitudeYaw
1687100405.117436,0.9552478790283203,0.28486257791519165,0.07971932739019394,-0.004365801811218262,-0.014308929443359375,-0.015906929969787598,0.00160214735660702,-0.012572410516440868,0.005042035132646561,1.6540574700909765,-0.2888630588578167,-1.8651187338763109
1687100405.1527262,0.9555131793022156,0.28434446454048157,0.07837694138288498,0.0019453763961791992,-0.0020721256732940674,0.006095878779888153,0.0015699230134487152,-0.017577888444066048,0.006676483433693647,1.652639117743886,-0.28832261218019195,-1.8647771994221425
1687100405.223587,0.9557051062583923,0.28389278054237366,0.07767283916473389,0.008513152599334717,-0.0018798112869262695,0.001322031021118164,-0.046444475650787354,-0.00821044109761715,0.005772207397967577,1.6518908983639382,-0.2878515159889351,-1.8642599962223194
1687100405.2628942,0.9556584358215332,0.28396862745285034,0.07796990126371384,-0.0052340030670166016,0.002438873052597046,0.006975896656513214,-0.02493598684668541,-0.007070918567478657,-0.006231591571122408,1.6522036392910915,-0.2879306052471428,-1.8626547038755301
1687100405.300188,0.9557610154151917,0.28364408016204834,0.07789409160614014,0.008518457412719727,0.0032517313957214355,-0.003751508891582489,-0.047602683305740356,-0.02230542153120041,0.01286280807107687,1.6521161457131521,-0.28759215423282625,-1.8608483807944198
1687100405.374759,0.9558261036872864,0.2835530936717987,0.07742299139499664,-0.0035860538482666016,0.010254889726638794,0.003998033702373505,-0.014999998733401299,-0.015750981867313385,-0.004141609184443951,1.6516209908526398,-0.2874972557430972,-1.86032437052269
1687100405.4093661,0.9558104872703552,0.2837361991405487,0.07694603502750397,0.000763237476348877,0.0022440850734710693,0.014896757900714874,-0.06645706295967102,-0.02898915484547615,0.010316025465726852,1.6511265348283686,-0.2876882013590649,-1.8576715472201433
1687100405.481719,0.9558849930763245,0.28355103731155396,0.07670055329799652,-0.0006236433982849121,0.006076067686080933,0.005620718002319336,-0.009986331686377525,-0.02077716588973999,0.0018590250983834267,1.6508651346285381,-0.28749511626158286,-1.8550236841270311
1687100405.513444,0.956145703792572,0.2827525734901428,0.07639989256858826,0.00872880220413208,-0.009147197008132935,0.009263046085834503,-0.0871114730834961,-0.03491033986210823,0.02023976296186447,1.6505309499391256,-0.28666259232227936,-1.8521584049468045
1687100405.5689712,0.9565622806549072,0.2815355658531189,0.07567359507083893,-0.005451381206512451,0.012196153402328491,0.0060220882296562195,0.008604130707681179,-0.025996293872594833,0.01705116033554077,1.6497418662617236,-0.28539402466738634,-1.850046764345214
1687100405.608762,0.9569835662841797,0.2802906930446625,0.07496657967567444,-0.0015696287155151367,0.0077342689037323,0.0131072998046875,-0.020515138283371925,-0.019589129835367203,0.015783628448843956,1.648973001706291,-0.28409692210577525,-1.8496203147452621
1687100405.65467,0.9570502042770386,0.28012606501579285,0.07473104447126389,-0.0030858516693115234,0.02236419916152954,0.0023717880249023438,-0.08104559034109116,-0.029191134497523308,-0.005877391435205936,1.6487229728907302,-0.2839254282074469,-1.8469654339069068
1687100405.7161322,0.9569447040557861,0.2804547846317291,0.07484833896160126,0.011835932731628418,0.023805469274520874,0.000408172607421875,0.02747315913438797,-0.009920035488903522,-0.011974100023508072,1.6488533578821707,-0.28426787438413437,-1.8449240638870363
1687100405.753409,0.9565995931625366,0.28161999583244324,0.07488575577735901,-1.0669231414794922e-05,-0.005283266305923462,0.00604701042175293,-0.07526067644357681,-0.007935314439237118,-0.022056693211197853,1.6489202806797092,-0.28548201695722203,-1.8448068745019823
1687100405.827977,0.9563716650009155,0.2821827232837677,0.0756731778383255,0.003116309642791748,-0.026720017194747925,0.006632804870605469,-0.13437619805335999,-0.015607615001499653,0.0073350174352526665,1.6497570978186493,-0.2860685329081873,-1.8377474589758866
1687100405.866955,0.9567419290542603,0.2810530960559845,0.07519602030515671,-0.0007328987121582031,-0.007218778133392334,-0.004120469093322754,0.02993605099618435,-0.015373523347079754,0.01995227485895157,1.649231018092368,-0.2848912482660256,-1.8358900916461114
1687100405.921475,0.9573850631713867,0.2789662480354309,0.07477913796901703,0.003033757209777832,-0.01845291256904602,-0.002437114715576172,-0.08179260790348053,-0.04098254442214966,0.03570307418704033,1.648745754831178,-0.2827174586786045,-1.8335935789659663
1687100405.9735699,0.95795738697052,0.2773202657699585,0.07356327027082443,0.0023393630981445312,0.02277436852455139,0.009856700897216797,0.04028403013944626,-0.024771973490715027,0.0201861672103405,1.6474377052917366,-0.28100385617083906,-1.8325620181378048
1687100406.0139642,0.9583694338798523,0.2761293649673462,0.0726691335439682,-0.00048363208770751953,0.008996397256851196,0.005974762141704559,-0.029727810993790627,-0.00829317606985569,0.004486433696001768,1.6464773090201068,-0.27976455085369706,-1.833110728130497
1687100406.069655,0.9581658840179443,0.27685198187828064,0.07260431349277496,0.006693243980407715,0.020312964916229248,-0.0006589889526367188,0.00597452512010932,-0.015069057233631611,-0.0005195108242332935,1.6464260596372537,-0.2805164806388311,-1.832124184856615
1687100406.132359,0.9579808712005615,0.27748316526412964,0.07263626903295517,-0.0034061670303344727,0.008924394845962524,-0.004841327667236328,-0.04189446195960045,-0.0027441028505563736,-0.016402803361415863,1.6464737822968987,-0.2811733982011621,-1.8318092016682033
1687100406.1839042,0.9576928615570068,0.2784636616706848,0.0726819708943367,0.005167365074157715,0.0040985941886901855,0.012752048671245575,0.02229118160903454,0.003531103488057852,-0.011366765946149826,1.6465439016792986,-0.28219414176374435,-1.8304612203781285
1687100406.240834,0.9574975371360779,0.2791997790336609,0.0724322497844696,0.005683243274688721,-0.0182439386844635,-0.0057207271456718445,-0.020273590460419655,-0.0024697971530258656,-0.005677187815308571,1.6462999795111877,-0.2829606494963063,-1.8311022090807128
1687100406.282908,0.95757657289505,0.2788809835910797,0.07261460274457932,0.001118004322052002,-0.009044498205184937,0.004259347915649414,-0.006692001596093178,-0.006588798016309738,0.004298813175410032,1.646483110596889,-0.2826286588595003,-1.8299970526704201
1687100406.32219,0.9577906131744385,0.27813950181007385,0.0726340264081955,0.0018346905708312988,-0.009157568216323853,-0.00370991975069046,-0.0008056166116148233,0.007934041321277618,0.006944663822650909,1.6464864232803118,-0.28185663556284435,-1.8298114154510463
1687100406.367638,0.9579504132270813,0.2774959206581116,0.07298783957958221,-0.0028264522552490234,0.004929065704345703,0.002970576286315918,-0.015062049962580204,0.00020847725681960583,0.005050091538578272,1.6468410695280018,-0.28118668560180765,-1.82993270390188
1687100406.426049,0.9580928683280945,0.27704939246177673,0.07281524688005447,-0.0021905899047851562,0.00987696647644043,-0.005157701671123505,-0.04120470583438873,-0.015541546046733856,0.003644208423793316,1.6466507047579124,-0.28072193887970964,-1.8282268431646653
1687100406.475896,0.9580573439598083,0.2772194445133209,0.07263640314340591,0.002956688404083252,0.013079077005386353,0.004649527370929718,-0.05997439846396446,-0.011257118545472622,-0.009301617741584778,1.6464679025305586,-0.28089890717810734,-1.826255533972815
1687100406.513188,0.9579335451126099,0.2775217294692993,0.07311191409826279,0.0007610321044921875,0.0038503706455230713,0.007347814738750458,-0.05825932323932648,-0.004779667593538761,-0.005508942995220423,1.646971182734556,-0.2812135607875581,-1.8221980858716715
1687100406.5647202,0.9577594995498657,0.2779559791088104,0.0737420842051506,0.0012862086296081543,0.002805769443511963,-0.008907310664653778,-0.07813795655965805,-0.0019013010896742344,-0.01819031685590744,1.6476390904033473,-0.28166559431298344,-1.8199741502967062
1687100406.611507,0.9576226472854614,0.2782839834690094,0.07427866756916046,0.005054593086242676,0.006536632776260376,-0.013075582683086395,-0.03285675868391991,-0.01948699727654457,-0.006142308935523033,1.6482070251585315,-0.28200704613610983,-1.8161168576405917
1687100406.673806,0.957746684551239,0.2780003845691681,0.07374031096696854,0.0024892091751098633,-0.019165486097335815,-0.016672365367412567,-0.2735050618648529,-0.08446433395147324,-0.0010568033903837204,1.6476382735678188,-0.2817117963514347,-1.8084464637336748
1687100406.724294,0.958084225654602,0.27702948451042175,0.07300502806901932,-0.0019530653953552246,0.013696223497390747,-0.037619709968566895,-0.5485643148422241,-0.16688181459903717,-0.045109279453754425,1.6468483277707637,-0.28070121123843234,-1.788955618421582
1687100406.781791,0.9570506811141968,0.28031590580940247,0.07400883734226227,-0.020618677139282227,0.1564517319202423,-0.10019278526306152,-1.2954347133636475,-0.3555832803249359,-0.2950384020805359,1.6479728475702613,-0.2841231838692128,-1.742041040857634
1687100406.820873,0.9512197971343994,0.2989741861820221,0.07613018900156021,-0.08252143859863281,0.38986867666244507,-0.07611476629972458,-1.6025829315185547,-0.44956493377685547,-0.7193695306777954,1.6506603716506736,-0.30361749094524654,-1.6586724045933843
1687100406.860317,0.9365416765213013,0.3414068818092346,0.07957009971141815,0.06351947784423828,0.6578302383422852,-0.04639744758605957,-1.3363778591156006,-0.38516852259635925,-1.341246247291565,1.6555543980628245,-0.3484132982577359,-1.5719576871902803
1687100406.914799,0.9043067097663879,0.41713425517082214,0.0907130017876625,0.09006297588348389,0.86963951587677,0.0993964746594429,-1.1227657794952393,-0.02118791453540325,-2.21454119682312,1.6707740803026236,-0.4302898633541337,-1.5023400283234163
1687100406.9748812,0.8376442193984985,0.5296537280082703,0.13348931074142456,0.2714104652404785,0.7905672788619995,0.27558374404907227,-1.087225079536438,0.8135342001914978,-3.2014811038970947,1.7288302191019453,-0.5581922705201584,-1.4179853001372937
1687100407.02161,0.720845639705658,0.6644454598426819,0.1972157508134842,0.4697214365005493,0.6441025733947754,0.18579529225826263,0.14081543684005737,1.5046919584274292,-3.8421075344085693,1.837850684709647,-0.7267515354045301,-1.3352783077598578
1687100407.073254,0.5527853965759277,0.8015146255493164,0.22804135084152222,0.7316842079162598,0.42489534616470337,0.3873763084411621,0.9081048965454102,1.844757318496704,-4.257695198059082,1.9620587701854895,-0.9298238583417017,-1.2818112306147487
1687100407.1227632,0.3391282558441162,0.9131667613983154,0.22609534859657288,0.8986953496932983,0.24102354049682617,0.39951518177986145,1.2564985752105713,2.1303977966308594,-4.477433681488037,2.1588190283000586,-1.1509871616249814,-1.1703069765748038
1687100407.1639318,0.0948687270283699,0.9785764813423157,0.182724729180336,0.9547681212425232,0.18020659685134888,0.3989710807800293,1.7766072750091553,2.2932825088500977,-4.6902618408203125,2.662711722199132,-1.3634296294224661,-0.7607668437041701
1687100407.240254,-0.15827926993370056,0.9850183129310608,0.06845949590206146,1.0459898710250854,0.15821599960327148,0.3493567705154419,2.4125595092773438,2.0758981704711914,-4.924108028411865,-1.9790220931801938,-1.3974801090991031,0.7858711979572959
1687100407.283053,-0.3955458402633667,0.9139465689659119,-0.09080386906862259,0.9375380277633667,0.23917549848556519,0.5195759534835815,2.8593597412109375,1.8114267587661743,-4.9933366775512695,-1.3451401999598944,-1.1529045266427083,1.3398721305461168
1687100407.323607,-0.594017744064331,0.7671520709991455,-0.24211761355400085,0.916695237159729,0.15214431285858154,0.4479740858078003,2.726778984069824,1.3875648975372314,-5.017718315124512,-1.1837612411452585,-0.8743895672998321,1.433451897276673
1687100407.365304,-0.7463968396186829,0.5590558648109436,-0.36103811860084534,0.8705270290374756,0.23012882471084595,0.312652587890625,1.8005489110946655,0.9032890796661377,-5.07529354095459,-1.1202670663916545,-0.593246631175096,1.4428323728462757
1687100407.4368172,-0.8423572182655334,0.32267773151397705,-0.43164053559303284,0.7671923637390137,0.27096548676490784,0.3857879340648651,2.444579839706421,0.715167224407196,-5.006168365478516,-1.097262311736587,-0.3285571902261761,1.4023569022540692
1687100407.4840732,-0.8803767561912537,0.040217384696006775,-0.4725668728351593,0.8602350354194641,0.34581470489501953,0.07948529720306396,2.175957441329956,0.06834826618432999,-5.299955368041992,-1.078161014936108,-0.040228234155882336,1.3971640327207575
1687100407.5238528,-0.8558675646781921,-0.2336062788963318,-0.46143150329589844,0.7209340333938599,0.2798556089401245,0.2704830765724182,1.8798772096633911,-0.19315803050994873,-4.971137046813965,-1.0763299891015434,0.2357849419190005,1.362786414578889
1687100407.574964,-0.7797763347625732,-0.4579889178276062,-0.4268432557582855,0.698828399181366,0.021450191736221313,0.0452667772769928,0.33806803822517395,-0.4109780788421631,-4.586537837982178,-1.069957695494983,0.4757315934557883,1.2989720905617312
1687100407.625624,-0.6681974530220032,-0.614072859287262,-0.42003190517425537,0.5804135799407959,0.10215568542480469,0.20872831344604492,-0.14855806529521942,-0.2686638832092285,-4.063652038574219,-1.0096092098478142,0.6612107398211049,1.1610017680161844
1687100407.6847491,-0.5439139008522034,-0.7259125709533691,-0.4209616184234619,0.4607076644897461,-0.19010311365127563,-0.05709609389305115,-0.4463287889957428,-0.29363709688186646,-3.614468574523926,-0.9121431746261537,0.8123603099392623,0.9961509910394757
1687100407.723407,-0.4267079830169678,-0.7971850037574768,-0.42710235714912415,0.3565022945404053,-0.19364452362060547,0.021920591592788696,0.14293557405471802,-0.2991120219230652,-2.8773176670074463,-0.7849362685551069,0.9226181504153064,0.810966713736853
1687100407.819535,-0.3274235129356384,-0.8518223762512207,-0.4088919162750244,0.25851479172706604,-0.2538753151893616,-0.04641500115394592,0.550743043422699,-0.11335685104131699,-2.1473193168640137,-0.6752030047459826,1.0194544633273563,0.6645678260907861
1687100407.834093,-0.24763134121894836,-0.8934977054595947,-0.37462088465690613,0.2015344798564911,-0.2163047194480896,0.2247796356678009,0.6027849316596985,0.33690768480300903,-1.3928825855255127,-0.5840821621945315,1.1050746577151056,0.5654748549432989
1687100407.8787189,-0.18841560184955597,-0.9082280993461609,-0.373659610748291,0.16825872659683228,-0.1934870481491089,0.2508569359779358,0.2460305392742157,0.7648414969444275,-0.7937830686569214,-0.467037007817896,1.13903029842987,0.46799184878608885
1687100407.945712,-0.14802435040473938,-0.9158227443695068,-0.37330618500709534,0.16474798321723938,-0.19816046953201294,0.1712494194507599,0.055005982518196106,0.7463728785514832,-0.3453928828239441,-0.3775050516303895,1.1575518941808636,0.4199607500307176
1687100407.962821,-0.1322292983531952,-0.9224143028259277,-0.3628600239753723,0.0757565051317215,0.020070433616638184,-0.32827144861221313,0.22967632114887238,0.20551525056362152,-0.06561941653490067,-0.3494528486877526,1.1742859647877921,0.4148986696957609
1687100408.008733,-0.12867631018161774,-0.9290829300880432,-0.34676721692085266,0.015150904655456543,0.06253618001937866,-0.17943203449249268,0.7234764695167542,-0.012494201771914959,-0.024371780455112457,-0.35532427934342853,1.191925633961445,0.4234586793185625
1687100408.0773711,-0.12556611001491547,-0.9384394884109497,-0.3218143582344055,-0.008009329438209534,-0.06952565908432007,0.08624932169914246,0.07707666605710983,0.14226134121418,-0.016610130667686462,-0.3720138524403625,1.2180847478753676,0.4445440859629385
1687100408.116527,-0.12460725009441376,-0.9367693662643433,-0.3270114064216614,0.018863841891288757,-0.03230118751525879,-0.025115549564361572,0.13120514154434204,0.174557626247406,0.0382511243224144,-0.3640629986841133,1.2132814418068076,0.4452417926209782
1687100408.166304,-0.12341229617595673,-0.9380468130111694,-0.32378631830215454,-0.00543290376663208,-0.026720643043518066,-0.018040984869003296,-0.11614099889993668,0.1340305358171463,0.02832179144024849,-0.3641546152182241,1.2169498455655603,0.45389654207029656
1687100408.234641,-0.12254670262336731,-0.9374493360519409,-0.3258395791053772,0.016086101531982422,0.049143433570861816,-0.014645010232925415,0.17082738876342773,0.03878267854452133,-0.023401789367198944,-0.3597305047094943,1.2152295050664308,0.45379416266831
1687100408.27735,-0.12160500138998032,-0.9406497478485107,-0.31684476137161255,0.004402227699756622,-0.0026944875717163086,0.007579684257507324,0.03976444527506828,-0.023374680429697037,-0.011351185850799084,-0.36646326484758274,1.2245397403894727,0.459950795304804
1687100408.322032,-0.1215939074754715,-0.9406036138534546,-0.31698569655418396,0.021145284175872803,0.0026152729988098145,-0.013580620288848877,0.12895184755325317,-0.05237260088324547,0.007677366025745869,-0.3662840251480318,1.2244039058021055,0.45858709002974807
1687100408.3666692,-0.12320386618375778,-0.9413726925849915,-0.31406766176223755,-0.011821173131465912,0.016598403453826904,0.015804201364517212,-0.0948420986533165,-0.02806275337934494,0.040131643414497375,-0.3738374135002519,1.22667624064197,0.4635656461500301
1687100408.416399,-0.12440566718578339,-0.9347532391548157,-0.3328060805797577,0.017380505800247192,-0.05694609880447388,0.051464617252349854,-0.41501906514167786,0.02514130249619484,0.02154318057000637,-0.35772548009932964,1.2075639637180515,0.4483679691620525
1687100408.529824,-0.1273694932460785,-0.9352571368217468,-0.3302592933177948,0.002201646566390991,-0.0003966093063354492,-0.11978331208229065,-0.061622895300388336,0.00526872742921114,0.08942189812660217,-0.36808798542077814,1.2089848478278498,0.45877924255752794
1687100408.5446281,-0.14490847289562225,-0.8861668705940247,-0.440125048160553,0.12353090941905975,-0.9774349331855774,0.33189451694488525,-3.8243565559387207,0.11015628278255463,0.9687823057174683,-0.3180655514749264,1.0890062625792742,0.41757195710807904
1687100408.565662,-0.22729691863059998,-0.8101986646652222,-0.540290892124176,0.5249958634376526,-0.4321109652519226,-0.18614941835403442,-2.0623209476470947,-0.8655882477760315,2.385444164276123,-0.3982174295946513,0.9444909750686493,0.49335411711568405
1687100408.63662,-0.3791157603263855,-0.6938840746879578,-0.612205982208252,0.6930042505264282,-0.3177889585494995,-0.29042762517929077,-2.3415920734405518,-1.998865008354187,3.3270771503448486,-0.5544623070916568,0.7668690323439353,0.6053904768327047
1687100408.694644,-0.5673538446426392,-0.5267073512077332,-0.6330000758171082,0.7713485360145569,-0.2732957601547241,-0.1385757327079773,-2.812893867492676,-2.7955026626586914,3.8080880641937256,-0.7307634871180154,0.5547224047096029,0.6925110008697345
1687100408.735997,-0.7444561719894409,-0.316943883895874,-0.5876493453979492,0.6817577481269836,-0.24709728360176086,0.01640605926513672,-2.4776806831359863,-3.282012939453125,3.9892823696136475,-0.9025724795935378,0.3225055011080863,0.7364937030478399
1687100408.833261,-0.8796332478523254,-0.09391671419143677,-0.466288685798645,0.7664282321929932,-0.027772128582000732,0.12208104133605957,-2.046766996383667,-3.7546584606170654,3.790318250656128,-1.0833640310116,0.09405533070732955,0.7454599989753676
1687100408.842444,-0.9515984654426575,0.1076488196849823,-0.28787529468536377,0.7850639820098877,-0.023237191140651703,0.11876228451728821,-1.688096284866333,-3.985771417617798,3.4254744052886963,-1.2770314055266783,-0.10785782378266372,0.7369118797013243
1687100408.8905,-0.9584239721298218,0.27527958154678345,-0.07513224333524704,0.7576334476470947,-0.00580933690071106,0.12051200866699219,-1.2283132076263428,-4.148083686828613,2.9042165279388428,-1.4925648647373213,-0.27888051104829614,0.6931162794957874
1687100408.932903,-0.904276967048645,0.4015677571296692,0.14500631392002106,0.723444938659668,-0.1162436306476593,0.07713127136230469,-1.418213963508606,-4.231819152832031,2.626828908920288,-1.7297987716638947,-0.4132280516739516,0.6214298726457986
1687100408.9818769,-0.7951897978782654,0.4955889880657196,0.34937819838523865,0.8137138485908508,-0.05166497826576233,0.11433660984039307,-0.7898957133293152,-4.125382900238037,2.420419692993164,-1.9847706896670914,-0.5185128357107394,0.5150689053675208
1687100409.0237179,-0.6450923681259155,0.5640043020248413,0.515514612197876,0.573025107383728,-0.20847445726394653,0.09509652853012085,-0.5853638648986816,-3.803297281265259,2.4156928062438965,-2.2450084174961105,-0.5992269649167161,0.40686491141025716
1687100409.071475,-0.4635917842388153,0.6312728524208069,0.621753454208374,0.6360008716583252,0.02097928524017334,0.23124349117279053,0.04235010966658592,-3.465825080871582,2.424633502960205,-2.500900675990545,-0.6831933258300016,0.286368790604784
1687100409.122256,-0.2720777690410614,0.6709257960319519,0.6898061037063599,0.6839277148246765,-0.1821715235710144,0.14951902627944946,-0.09453131258487701,-3.341965675354004,2.5912930965423584,-2.7659002882049326,-0.7354565626031224,0.1405700131657171
1687100409.175142,-0.07538528740406036,0.7093494534492493,0.7008145451545715,0.5104896426200867,0.016938447952270508,0.19451045989990234,0.8856536149978638,-2.744213342666626,2.696946859359741,-3.0344365874417463,-0.7885748627129382,-0.03207791680651561
1687100409.2222428,0.1215583086013794,0.7423954606056213,0.6588419675827026,0.5329521894454956,0.06276506185531616,0.3179953694343567,0.927776038646698,-2.429171323776245,2.918182134628296,2.9591414968731415,-0.8366388701145442,-0.2453137791635307
1687100409.2821422,0.31075218319892883,0.7357137203216553,0.6017965078353882,0.49962687492370605,0.14055287837982178,0.2811230421066284,0.904530942440033,-2.3620150089263916,3.117919921875,2.664931657739608,-0.826719854393007,-0.4793354705972215
1687100409.32269,0.48111939430236816,0.6926276087760925,0.5373931527137756,0.4084680676460266,0.33851563930511475,0.3014742136001587,0.48720452189445496,-2.224506378173828,2.902529716491699,2.4113893063349288,-0.7651256186327376,-0.675855059921134
1687100409.424746,0.6269276738166809,0.6391802430152893,0.44543299078941345,0.3554636836051941,0.5033063292503357,0.2543657720088959,1.2015101909637451,-1.943821907043457,2.651721239089966,2.188535467247995,-0.6934318844575097,-0.8527654201507542
1687100409.43992,0.7434874773025513,0.5750134587287903,0.3414473831653595,0.412472665309906,0.23786813020706177,0.25883352756500244,2.537018299102783,-1.3627924919128418,2.8204824924468994,2.0013167045269658,-0.6126206019944936,-1.0218926513729913
1687100409.477097,0.8281168341636658,0.5118260979652405,0.22859786450862885,0.26816630363464355,0.4413905739784241,0.07818034291267395,1.930539608001709,-0.9191280603408813,2.460252285003662,1.8401341958533393,-0.5373090644944806,-1.2162096351232012
1687100409.524895,0.8960334658622742,0.4210488796234131,0.140862375497818,0.27462100982666016,0.3504661023616791,0.19983603060245514,3.158869504928589,-0.6766654849052429,2.3801300525665283,1.7267267419043193,-0.4346014033214368,-1.383772105977739
1687100409.598264,0.9396131038665771,0.335721880197525,0.06646992266178131,0.008171439170837402,0.44456684589385986,0.044354796409606934,3.1976397037506104,-0.011585930362343788,2.1806840896606445,1.641420475939387,-0.342371488021306,-1.5662340989337837
1687100409.632574,0.9657277464866638,0.2578994035720825,0.02929774299263954,0.11686831712722778,0.5622758269309998,-0.020127054303884506,2.4837422370910645,0.26511630415916443,1.3591386079788208,1.6011245021217768,-0.26084743543725736,-1.7311602484438564
1687100409.68011,0.9794479012489319,0.20015020668506622,0.02494264580309391,0.11802548170089722,0.34701478481292725,0.062017325311899185,0.8597304224967957,0.3144947290420532,1.0868639945983887,1.5962568502531695,-0.2015112211426948,-1.821769316986853
1687100409.72655,0.9867075085639954,0.15781064331531525,0.038783926516771317,0.02688807249069214,0.45650818943977356,-0.01273704320192337,-0.6961894631385803,0.31728559732437134,0.5830630660057068,1.6100825091012287,-0.1584731156422294,-1.8351721436322281
1687100409.777375,0.9873777627944946,0.1522456407546997,0.0436692088842392,-0.04371297359466553,0.7874669432640076,-0.24009549617767334,0.8359787464141846,0.20577162504196167,-0.24851413071155548,1.6149949812504982,-0.15283999828230435,-1.8374278443891898
1687100409.819298,0.9854491353034973,0.16557075083255768,0.038423407822847366,-0.047231972217559814,-0.12112189829349518,0.02682327851653099,-0.9228860139846802,-0.274032324552536,-0.2524201273918152,1.609767344949874,-0.16633671902343544,-1.8455385058782248
1687100409.8840818,0.983734667301178,0.17616324126720428,0.03510963171720505,-0.06672722101211548,-0.08046010136604309,0.2114725112915039,-0.836685061454773,-0.09890006482601166,-0.2206554114818573,1.6064713285154884,-0.1770873686176998,-1.7920937389260554
1687100409.92242,0.9822102189064026,0.1834789514541626,0.03998425602912903,0.0015697479248046875,-0.1511455476284027,-0.01723325252532959,0.07653684169054031,0.0807129517197609,-0.0907045304775238,1.6114823102178468,-0.1845243208177156,-1.7725826036494892
1687100410.03389,0.981582760810852,0.18557707965373993,0.04534982144832611,-0.023284971714019775,-0.06684841215610504,-0.09623777866363525,0.243748739361763,0.19044488668441772,0.016554880887269974,1.6169642068837196,-0.18665911606420538,-1.7870070240598823
1687100410.0547419,0.9820217490196228,0.18308116495609283,0.045989956706762314,0.0233190655708313,-0.01721806824207306,-0.0660855770111084,-0.010628686286509037,-0.06799940019845963,0.05427549406886101,1.6175940457714244,-0.18411968622056785,-1.791031947763578
1687100410.073165,0.9825201630592346,0.18134313821792603,0.0420590415596962,-0.0010137557983398438,-0.012641951441764832,-0.011617664247751236,-0.3026062250137329,-0.13138605654239655,0.02345140278339386,1.6135775133758015,-0.18235205908287894,-1.781419672335069
1687100410.139684,0.982832133769989,0.18042604625225067,0.03857111185789108,0.005250871181488037,-0.020605504512786865,0.10029923915863037,-0.2716746926307678,-0.05432720482349396,0.021184053272008896,1.610021059335105,-0.18141959001876887,-1.7673933879962431
1687100410.180931,0.9833114743232727,0.17773519456386566,0.038846731185913086,-0.011524796485900879,0.019576221704483032,0.038088202476501465,0.14126816391944885,0.022900428622961044,0.06576497107744217,1.610281820943734,-0.17868452925927575,-1.7637601435450743
1687100410.2236838,0.983475387096405,0.17644192278385162,0.040556810796260834,0.023711681365966797,0.008265793323516846,0.017503023147583008,-0.02667556330561638,-0.010949679650366306,0.013880733400583267,1.6120112312093693,-0.1773704746891041,-1.7639970792721327
1687100410.285246,0.9835894703865051,0.17631714046001434,0.03826533630490303,-0.00034350156784057617,0.010892942547798157,-0.04150009527802467,-0.04003531113266945,-0.07016104459762573,-0.008237284608185291,1.6096804872228723,-0.17724371193121852,-1.76696934362312
1687100410.3329659,0.98373943567276,0.17587894201278687,0.0363813079893589,-0.02020782232284546,0.0014434754848480225,0.0008349418640136719,-0.029422346502542496,-0.026955988258123398,0.012850090861320496,1.6077621472109318,-0.17679854992880223,-1.763616166033939
1687100410.3899941,0.9837923049926758,0.17568442225456238,0.03588516637682915,0.02534770965576172,-0.029703572392463684,0.013873811811208725,-0.07538451254367828,0.00027066213078796864,0.022824160754680634,1.6072565263095457,-0.17660096347504445,-1.7550585554830336
1687100410.429914,0.9837630987167358,0.17569178342819214,0.03663983568549156,0.008637964725494385,0.03074437379837036,-0.008563525974750519,-0.10088614374399185,0.01862281560897827,-0.012641554698348045,1.6080236923222613,-0.17660843213349756,-1.7519892197452407
1687100410.4792252,0.982868492603302,0.18020369112491608,0.038683243095874786,-0.07300204038619995,0.22799944877624512,-0.04951679706573486,0.10101102292537689,0.05330287665128708,-0.24189119040966034,1.6101335189944448,-0.18119353325959006,-1.753713168640693
1687100410.547161,0.9784516096115112,0.20188888907432556,0.04328738525509834,-0.05962824821472168,0.4091951549053192,-0.03622245788574219,-1.322583556175232,-0.1635490357875824,-0.7443152070045471,1.6150081980206914,-0.20328613808156734,-1.7169293591188983
1687100410.5777202,0.9648236036300659,0.2591662108898163,0.04414282739162445,0.09392285346984863,0.9165692329406738,-0.046523094177246094,-1.410463809967041,-0.29724061489105225,-1.7753130197525024,1.6165166699487596,-0.2621588267129152,-1.6459899514270189
1687100410.654454,0.9295716285705566,0.36372414231300354,0.0600147545337677,0.14978957176208496,1.2107845544815063,0.010114796459674835,-1.8326369524002075,0.008540242910385132,-2.8360307216644287,1.6352685780984795,-0.3722627620249103,-1.555130145488873
1687100410.6919851,0.856407642364502,0.5033302903175354,0.11500106006860733,0.47875189781188965,0.9836540818214417,0.17986001074314117,-1.8514090776443481,0.6402176022529602,-3.6744532585144043,1.7042809066527163,-0.5274485228926954,-1.4273443674442505
1687100410.732439,0.731610894203186,0.6531230211257935,0.195387601852417,0.809542179107666,0.7228536605834961,0.259034663438797,-0.7681030631065369,1.4803016185760498,-4.257152080535889,1.8317704867726705,-0.7117013166913636,-1.3031929372389541
1687100410.779799,0.5511083602905273,0.7916440367698669,0.26377952098846436,1.0475702285766602,0.4085361361503601,0.2453453540802002,0.09901658445596695,1.9862096309661865,-4.452611923217773,2.0172059559955753,-0.9134951153521323,-1.1719219865670507
1687100410.8381581,0.3307819962501526,0.8966227173805237,0.2943657636642456,1.1696758270263672,0.2001180648803711,0.22898027300834656,0.9567845463752747,2.1127467155456543,-4.451854705810547,2.298008059216864,-1.112082416631139,-0.9631738260331334
1687100410.882945,0.08445826172828674,0.9741361141204834,0.20958538353443146,1.2689200639724731,0.18049657344818115,0.28992652893066406,3.4094321727752686,2.209310531616211,-4.757393836975098,2.7585218398546028,-1.3428658557173918,-0.5933447084510373
1687100410.932733,-0.16680951416492462,0.9856991767883301,0.02391444705426693,1.3011325597763062,-0.009350240230560303,0.5235404968261719,3.6588845252990723,1.9525856971740723,-4.912942409515381,-1.7131898823392118,-1.401473858985946,1.1331284576098744
1687100411.004992,-0.40729448199272156,0.901477575302124,-0.1464569866657257,1.376761555671692,-0.04491007328033447,0.6410554647445679,2.288426637649536,1.5507723093032837,-5.360535621643066,-1.2256082040390326,-1.123171257225608,1.5427418511603086
1687100411.044692,-0.6222845911979675,0.7370524406433105,-0.26365822553634644,1.2347265481948853,-0.009849011898040771,0.5369737148284912,1.495896577835083,1.563632845878601,-5.718404769897461,-1.1700324147973922,-0.8286985477059852,1.5175098747942206
1687100411.087529,-0.780708909034729,0.5053799152374268,-0.3675392270088196,1.203758716583252,0.1509922742843628,0.5804452300071716,1.7846980094909668,1.5514155626296997,-5.949810981750488,-1.1307997883764171,-0.5298221603939268,1.4509985874326312
1687100411.131324,-0.8597286939620972,0.20874053239822388,-0.4661480486392975,1.0663936138153076,0.17268343269824982,0.22693613171577454,2.8842289447784424,1.0524041652679443,-5.840775012969971,-1.0739584692868815,-0.21028694354096686,1.4229766333983254
1687100411.181139,-0.8564580082893372,-0.0846291109919548,-0.5092325806617737,0.8298923373222351,-0.268672913312912,0.30905258655548096,0.5031605958938599,0.648280680179596,-5.63798189163208,-1.0343718497578736,0.08473046120246458,1.3545866399109983
1687100411.254839,-0.7845525741577148,-0.3232232332229614,-0.5291542410850525,0.8069981932640076,0.09525689482688904,0.23024988174438477,0.6397791504859924,0.5808258652687073,-5.018160820007324,-0.9774134451512035,0.3291335748103374,1.2414253094228132
1687100411.322705,-0.6716192960739136,-0.5071824193000793,-0.5400866270065308,0.7236669659614563,-0.058796584606170654,0.1309833526611328,-0.11463391035795212,0.3293890058994293,-4.492244243621826,-0.8935263885378485,0.5319123364934916,1.1007163711207353
1687100411.3377361,-0.5466359257698059,-0.6329383254051208,-0.5482502579689026,0.5995991826057434,-0.18449032306671143,0.03523463010787964,0.11329192668199539,0.038568004965782166,-3.797255754470825,-0.7839237353113903,0.6853426072293926,0.9239237256070066
1687100411.393414,-0.432260662317276,-0.720555305480957,-0.5421724319458008,0.4526005685329437,-0.2681533098220825,-0.08076757192611694,0.3561972379684448,-0.08750264346599579,-2.906836986541748,-0.6730773076855769,0.804602824589604,0.7567317843223341
1687100411.43693,-0.3424462378025055,-0.7780748009681702,-0.5266215801239014,0.254021555185318,-0.3029341697692871,0.07689940929412842,0.2842189073562622,-0.09604817628860474,-2.0706419944763184,-0.5765650338532833,0.8915952391343129,0.6205511924111105
1687100411.4816031,-0.2738908529281616,-0.815293550491333,-0.5101768374443054,0.12290510535240173,-0.33804214000701904,-0.008316755294799805,0.37870627641677856,0.16414739191532135,-1.3136252164840698,-0.49269487105428555,0.9532359388831078,0.5162532411585473
1687100411.523118,-0.2262275665998459,-0.8385001420974731,-0.4957204759120941,0.0820624828338623,-0.2908487319946289,0.13254612684249878,0.4709019660949707,0.3872242867946625,-0.6634158492088318,-0.4281312476766931,0.9945247912004775,0.4563813124389638
1687100411.598629,-0.2013235092163086,-0.8452274203300476,-0.49503499269485474,0.1534566730260849,-0.30612462759017944,0.135278582572937,-0.5138369798660278,0.35470208525657654,0.07140108942985535,-0.38625634944817727,1.006990560629141,0.43504440122747
1687100411.631635,-0.19388607144355774,-0.8483983874320984,-0.4925733208656311,-0.04911012947559357,0.04950916767120361,-0.32940226793289185,0.4471393823623657,-0.13165836036205292,-0.096891388297081,-0.3749931872448258,1.0129523143277057,0.43058477097481324
1687100411.683636,-0.19460880756378174,-0.8668662309646606,-0.4589884579181671,0.029417142271995544,-0.10751432180404663,-0.06843149662017822,0.674174427986145,-0.08749236911535263,-0.05081457272171974,-0.4010190957679842,1.0488817110132211,0.45026546870557566
1687100411.749861,-0.19196540117263794,-0.8752484917640686,-0.4439476728439331,-0.0019433200359344482,-0.05195188522338867,0.21740055084228516,-0.0040940879844129086,0.35650378465652466,0.03386829048395157,-0.40812637610573965,1.0659493892234058,0.4678446036279527
1687100411.827083,-0.18559084832668304,-0.873162567615509,-0.4507143199443817,0.015241697430610657,0.06791037321090698,-0.06303375959396362,-0.000489499419927597,0.2765870988368988,0.019916187971830368,-0.3906119727244714,1.0616532939630503,0.4671874447939937
1687100411.842904,-0.18194718658924103,-0.8731201887130737,-0.45227906107902527,0.015870511531829834,-0.019992053508758545,-0.02048391103744507,-0.025571683421730995,0.1672983318567276,0.027372773736715317,-0.38247863914376196,1.0615664492164694,0.4705027615401109
1687100411.882201,-0.18126653134822845,-0.8725961446762085,-0.4535621702671051,0.012885764241218567,-0.0005729198455810547,0.012445926666259766,0.015004771761596203,0.10039843618869781,0.015351930633187294,-0.38020538756560773,1.0604924891044325,0.47471870116452153
1687100411.932911,-0.17821794748306274,-0.8728501200675964,-0.4542810022830963,-0.02039046585559845,-0.018370091915130615,0.022136926651000977,-0.019838163629174232,0.13317809998989105,0.006627548485994339,-0.37385756988150687,1.0610126528600998,0.47500746853947196
1687100412.010715,-0.1767466515302658,-0.8763735890388489,-0.4480293393135071,0.01684977114200592,-6.097555160522461e-05,-0.04205244779586792,0.28192833065986633,0.01579374074935913,-0.00433488842099905,-0.3757542384753797,1.068280417146767,0.48104678051822797
1687100412.053709,-0.1786336898803711,-0.880703866481781,-0.4386921226978302,0.013350456953048706,-0.00030815601348876953,-0.005903184413909912,0.11966566741466522,-0.05495675280690193,0.03134780749678612,-0.3866944233396112,1.0773461818531622,0.4920535723657129
1687100412.124069,-0.1822260469198227,-0.8806332349777222,-0.43735432624816895,0.024572238326072693,0.021990597248077393,-0.015190750360488892,0.09670522809028625,-0.2277577817440033,0.10896124690771103,-0.39478151685287083,1.0771970339493466,0.4954805309648131
1687100412.142034,-0.19973379373550415,-0.8639607429504395,-0.4622536599636078,0.07743456959724426,-0.3476634621620178,-0.08286648988723755,-2.1011416912078857,-0.3828321695327759,0.30376818776130676,-0.40785803347944494,1.0430829335339062,0.49100020483113355
1687100412.213584,-0.2400030791759491,-0.812961220741272,-0.5305588841438293,0.2422155737876892,-0.23194551467895508,0.19819200038909912,-1.3659731149673462,-0.5689833760261536,1.1808557510375977,-0.4248139121938294,0.9492194153763742,0.4875715760356485
1687100412.255516,-0.3341730237007141,-0.734154999256134,-0.5910540819168091,0.42357420921325684,-0.6312015056610107,-0.14589953422546387,-2.1241514682769775,-1.2949033975601196,2.3760926723480225,-0.5145781878228207,0.8244213361252705,0.5445489945067836
1687100412.298349,-0.4883189797401428,-0.6038585305213928,-0.6299996376037598,0.627295970916748,-0.5267415642738342,-0.21312469244003296,-2.443713665008545,-2.145528793334961,3.4676294326782227,-0.6593787530055052,0.6483330243128143,0.6300355685748938
1687100412.3416271,-0.6682115793228149,-0.40381550788879395,-0.6248410940170288,0.8064408898353577,-0.45723801851272583,-0.12018454074859619,-3.1938066482543945,-3.160726308822632,4.026564598083496,-0.8189267563954211,0.4156837179147688,0.6840399104386881
1687100412.426799,-0.832501232624054,-0.1547342985868454,-0.531976580619812,0.8486754298210144,-0.1822408139705658,-0.18021202087402344,-3.4041099548339844,-4.075674057006836,4.0187835693359375,-1.0021857707428252,0.15535850582617428,0.6800501970799582
1687100412.441742,-0.9374638795852661,0.0760626420378685,-0.3396705985069275,1.0136966705322266,0.0365319699048996,0.14243561029434204,-2.24800968170166,-4.710426330566406,3.454881191253662,-1.223180235703758,-0.07613617945188107,0.6345132894224627
1687100412.507612,-0.9620837569236755,0.2576432228088379,-0.08952638506889343,0.8739794492721558,-0.11804056167602539,-0.05503522604703903,-1.4673737287521362,-5.030442714691162,3.1511011123657227,-1.4780088634901258,-0.2605822791437922,0.581934001224181
1687100412.551371,-0.9050744771957397,0.3893878757953644,0.17093053460121155,0.877227246761322,0.03445550799369812,0.1005081832408905,-1.0494667291641235,-5.025440692901611,2.6300251483917236,-1.7574558146502788,-0.3999669301761824,0.5006093874805327
1687100412.604135,-0.780373215675354,0.493868887424469,0.3835515081882477,0.8690112829208374,-0.04654210805892944,0.21981173753738403,0.09248678386211395,-4.589273452758789,2.3916244506835938,-2.0276188489402727,-0.5165335182409353,0.4331826779599422
1687100412.662068,-0.626076877117157,0.5725621581077576,0.5293401479721069,0.6757745742797852,0.03461569547653198,0.43684667348861694,0.2705821990966797,-3.656406879425049,2.2272984981536865,-2.27266479858836,-0.6096275633601835,0.36732390034192763
1687100412.726527,-0.4620644450187683,0.6651467680931091,0.5865805149078369,0.6422248482704163,-0.09388816356658936,0.2538738250732422,1.3776955604553223,-2.927645206451416,2.4208576679229736,-2.4743811111848983,-0.727690390730243,0.3030090291517432
1687100412.741864,-0.28370538353919983,0.7428613901138306,0.6063565611839294,0.4749132990837097,-0.34840643405914307,0.27200043201446533,0.6573341488838196,-2.4517905712127686,3.1507256031036377,-2.703965144786356,-0.8373345440448555,0.17278317075485028
1687100412.787684,-0.09201991558074951,0.7991895079612732,0.5939939618110657,0.525476336479187,0.11644476652145386,0.07740819454193115,0.8550520539283752,-2.3642077445983887,3.057349920272827,-2.987897151637953,-0.9259456243159276,-0.040232314554217614
1687100412.861346,0.11137811839580536,0.8228515386581421,0.5572345852851868,0.5142627358436584,-0.1279662847518921,0.23280459642410278,1.0164886713027954,-2.22122859954834,3.465679168701172,2.944315818897356,-0.9664110328530217,-0.33051164423132556
1687100412.914792,0.3082824647426605,0.8014107942581177,0.5125458240509033,0.47305914759635925,0.06641781330108643,0.2657899260520935,0.07145606726408005,-2.001620292663574,3.5232441425323486,2.6000907700044276,-0.9296502166860326,-0.616661323017939
1687100412.958475,0.4886455535888672,0.7461456060409546,0.45220863819122314,0.4453449845314026,0.5849244594573975,0.2032785415649414,0.692850649356842,-1.9512510299682617,3.148303508758545,2.317486363489713,-0.8422538655711389,-0.8492064514291298
1687100413.022589,0.6421650648117065,0.6687442064285278,0.3747076690196991,0.579728364944458,0.11487102508544922,0.3194148540496826,1.6118543148040771,-1.4873578548431396,3.2918193340301514,2.0990001789301864,-0.7325184917162222,-1.0394696101681375
1687100413.038587,0.7588323950767517,0.5839267373085022,0.28844916820526123,0.18400812149047852,0.4683650732040405,0.1820862889289856,0.6808466911315918,-1.2174912691116333,2.9040770530700684,1.9340502569051257,-0.623557371696777,-1.185258237998207
1687100413.108275,0.8445751070976257,0.4866013526916504,0.22341153025627136,0.4264211654663086,0.5663009881973267,0.24727657437324524,1.3549647331237793,-0.8829056024551392,2.3131308555603027,1.8293985044404808,-0.5081952318509674,-1.293261544477201
1687100413.1588202,0.8963773250579834,0.40795284509658813,0.17344367504119873,0.1975560188293457,0.44086316227912903,0.18802191317081451,1.1968879699707031,-0.2859306037425995,2.033182382583618,1.7619283998670419,-0.4202107268657289,-1.3843227640825466
1687100413.19783,0.9281789660453796,0.3420727550983429,0.14652594923973083,0.07340782880783081,0.5370165109634399,0.14027829468250275,0.6385871171951294,-0.09971833974123001,1.3169395923614502,1.72736812125387,-0.34912184847311795,-1.4525245389369295
1687100413.2382689,0.9469892978668213,0.29038241505622864,0.1374392956495285,0.050615131855010986,0.5268325805664062,0.09983502328395844,0.30568957328796387,-0.09752487391233444,0.9626867175102234,1.7149229016462504,-0.29462644006863403,-1.4791044570199452
1687100413.3512511,0.9577216506004333,0.25844085216522217,0.12640443444252014,0.04870247840881348,0.352887362241745,0.05273391306400299,0.8716099858283997,-0.0031549176201224327,0.6086062788963318,1.7020223773857703,-0.26140788262933085,-1.5201598788791404
1687100413.36937,0.9639209508895874,0.2376941293478012,0.1198253482580185,-0.018837273120880127,0.2587658762931824,0.10035919398069382,0.6821218132972717,0.08702035993337631,0.45539921522140503,1.6944722209707275,-0.23999124683271553,-1.5651845212106799
1687100413.402759,0.9676770567893982,0.2232573926448822,0.1172923892736435,-0.09220391511917114,0.172311469912529,-0.031659968197345734,0.35542917251586914,0.05092811584472656,0.2211320549249649,1.6914181681385645,-0.2251549372627707,-1.5887899998493942
1687100413.449442,0.9675891995429993,0.22483974695205688,0.11497211456298828,-0.008131682872772217,0.16297763586044312,-0.01319575309753418,0.41383257508277893,0.06505163013935089,-0.11153730750083923,1.6890650718746494,-0.2267785725257493,-1.6190509334364407
1687100413.493644,0.9674556851387024,0.2248288094997406,0.11611060053110123,-0.03145104646682739,-0.041601285338401794,-0.004583977162837982,-0.2978535592556,0.012748192995786667,0.03411809355020523,1.690241472415307,-0.22676735149140242,-1.6161224476283076
1687100413.538712,0.9681308269500732,0.22260865569114685,0.11475362628698349,-0.006796479225158691,-0.02799805998802185,-0.04399847984313965,-0.06920704245567322,-0.11930977553129196,0.06919412314891815,1.6887769689532761,-0.22448944936495774,-1.6094120207118665
1687100413.625421,0.9697335958480835,0.21755583584308624,0.11084546148777008,-0.0019141435623168945,0.014835596084594727,-0.017019018530845642,-0.19238010048866272,-0.15617206692695618,0.06713663041591644,1.6846074358461134,-0.21930961774399035,-1.6006678714952143
1687100413.659056,0.9712984561920166,0.21410951018333435,0.10361696779727936,-0.0168306827545166,0.04290950298309326,-0.030222073197364807,-0.041933879256248474,-0.12001555413007736,0.0004410245455801487,1.6770732041156708,-0.21578011068732386,-1.6000192340449055
1687100413.704801,0.9718649983406067,0.2133990228176117,0.09969782084226608,0.014035999774932861,0.0029400885105133057,0.05325639247894287,-0.18308381736278534,-0.10808375477790833,-0.0052790455520153046,1.6730227584306212,-0.21505281756467007,-1.5922917221315074
1687100413.756324,0.9710578918457031,0.2175924926996231,0.09849032014608383,-0.03100961446762085,0.13398529589176178,0.0071768686175346375,-0.505754828453064,-0.09662505984306335,-0.22937658429145813,1.6718764585308252,-0.21934717400450437,-1.5756069521240221
1687100413.79361,0.9669413566589355,0.23581811785697937,0.09702848643064499,-0.147605299949646,0.4402988851070404,-0.059720635414123535,-1.084467887878418,-0.29530784487724304,-0.7324113845825195,1.6708073273091777,-0.23806034145191676,-1.5325934985103764
1687100413.837846,0.9541504383087158,0.2829325199127197,0.0977044627070427,0.020748794078826904,0.7622182369232178,0.03974686563014984,-0.9653698205947876,-0.2226255238056183,-1.451505422592163,1.6728400873876947,-0.28685018553769054,-1.469366332925705
1687100413.93601,0.9242565035820007,0.36709481477737427,0.1048419252038002,0.25366121530532837,0.8771984577178955,0.1365370899438858,-0.7577846646308899,-0.012360134162008762,-2.281620502471924,1.6837473203080242,-0.3758838351955748,-1.4163106021095173
1687100413.952674,0.8668846487998962,0.47903621196746826,0.13796964287757874,0.34316790103912354,0.8034040927886963,0.2530064582824707,-1.3399454355239868,0.5348947048187256,-2.906207323074341,1.728628265653021,-0.49955641930087424,-1.3419299862010465
1687100413.988778,0.771416187286377,0.6006737351417542,0.21001972258090973,0.49784040451049805,0.7219428420066833,0.28657767176628113,-1.12919282913208,1.2112680673599243,-3.4999988079071045,1.8366061031845522,-0.6443435130981331,-1.22417905923888
1687100414.0565472,0.6267171502113342,0.7270897626876831,0.2802969813346863,0.7105326652526855,0.5339881777763367,0.31606245040893555,0.3567325174808502,1.9024181365966797,-3.980767011642456,1.9913579693595187,-0.8140734297456915,-1.1097857876357828
1687100414.101901,0.43225088715553284,0.8539551496505737,0.28968924283981323,0.9190675020217896,0.369692862033844,0.4206532835960388,1.7945899963378906,2.280820846557617,-4.293232440948486,2.161232647367661,-1.0235395367432323,-1.0290945016930255
1687100414.142575,0.1994699239730835,0.954338014125824,0.22237589955329895,1.133675217628479,0.2977830767631531,0.38742661476135254,2.589036703109741,2.2353785037994385,-4.571315288543701,2.410440612131584,-1.2674359434558624,-0.8816982560689058
1687100414.253108,-0.04863058775663376,0.9940126538276672,0.09784910827875137,1.2268685102462769,0.07266849279403687,0.38792991638183594,2.7107417583465576,1.7673075199127197,-4.772159576416016,-2.680351343151351,-1.4613128075987882,0.22465912466405882
1687100414.270225,-0.2881057858467102,0.9557393193244934,-0.0596446692943573,1.1941115856170654,0.07786053419113159,0.39541441202163696,3.1847333908081055,1.3759745359420776,-4.95152473449707,-1.3666566139176102,-1.2721624185542337,1.4743607461603174
1687100414.316478,-0.512298047542572,0.8333608508110046,-0.2075105905532837,1.2118982076644897,-0.04762464761734009,0.5617434978485107,2.8998830318450928,0.8600516319274902,-5.179941177368164,-1.1859369610061357,-0.9851605266633534,1.6127886079307858
1687100414.356549,-0.6996569633483887,0.6233755946159363,-0.3491176962852478,1.1733508110046387,0.136222243309021,0.43413975834846497,2.911890983581543,0.49955442547798157,-5.5457072257995605,-1.1079617675318503,-0.6730523509178542,1.6673233765940074
1687100414.4078841,-0.8336711525917053,0.35785430669784546,-0.4206339120864868,1.077765941619873,0.20440158247947693,0.4506785273551941,1.9026867151260376,0.2544551193714142,-5.778258323669434,-1.103510447425138,-0.3659690273693105,1.638696357187168
1687100414.461848,-0.8955046534538269,0.0668078288435936,-0.4400094747543335,1.1234251260757446,0.2058667242527008,0.24817603826522827,1.701748013496399,-0.2578798234462738,-5.841814041137695,-1.1140897112405104,-0.06685762681560564,1.5851885486882866
1687100414.551173,-0.8828734159469604,-0.21123895049095154,-0.419419527053833,0.9130246639251709,-0.01027292013168335,0.15484750270843506,-0.4162504971027374,-0.6918238997459412,-5.7761945724487305,-1.127297480037894,0.2128423411254232,1.4908661712656437
1687100414.5703092,-0.8063702583312988,-0.44741755723953247,-0.3867618441581726,0.6240733861923218,-0.054733991622924805,0.06438946723937988,0.45100176334381104,-0.8305713534355164,-5.179170608520508,-1.1235746102943234,0.46387565415620496,1.3675084878860828
1687100414.611484,-0.6886688470840454,-0.6352819204330444,-0.3495030999183655,0.6185699105262756,-0.2736232280731201,-0.010955214500427246,0.013273716904222965,-0.9247598648071289,-4.544008255004883,-1.1011625152100077,0.6883734786571234,1.2487463564110652
1687100414.651064,-0.5637397170066833,-0.7607658505439758,-0.32161015272140503,0.5381506085395813,-0.4181740880012512,0.05037003755569458,-0.3819662928581238,-0.8551368117332458,-3.3637375831604004,-1.0523549624723116,0.8644922544493094,1.1188496031203328
1687100414.6938071,-0.4579150676727295,-0.8288586139678955,-0.321414589881897,0.4865252375602722,-0.22300606966018677,0.12448471784591675,-0.6683679819107056,-0.6309590935707092,-2.538083076477051,-0.9587904692327469,0.9770644615552747,0.9569545336815635
1687100414.801104,-0.37305179238319397,-0.861372172832489,-0.3447762131690979,0.21619141101837158,-0.32321351766586304,0.0020943880081176758,-0.6441715359687805,-0.10373418778181076,-1.783551573753357,-0.8247682622784114,1.0379648307969431,0.778248090080203
1687100414.820846,-0.3027561604976654,-0.8864163160324097,-0.3501497507095337,0.1178654134273529,-0.06676977872848511,0.15671417117118835,0.12097248435020447,0.3206123411655426,-1.3389875888824463,-0.7129365568145317,1.0895448097406752,0.6568670062365554
1687100414.8604012,-0.24246957898139954,-0.9002043008804321,-0.3617195188999176,0.05875374376773834,-0.1913486123085022,0.06464624404907227,-0.3272324800491333,0.693373441696167,-0.982610285282135,-0.5905309108089528,1.120238374506845,0.5502419971454033
1687100414.8970761,-0.19923542439937592,-0.9034767150878906,-0.3795197308063507,0.1306166648864746,-0.29233938455581665,0.42602863907814026,-1.1366780996322632,0.6889633536338806,-0.27764785289764404,-0.4834213257574548,1.1278124793298037,0.4756523915909541
1687100414.939043,-0.18714134395122528,-0.8935561180114746,-0.40808799862861633,-0.00012978911399841309,0.10939157009124756,-0.6118552088737488,0.7201552391052246,-0.08748801797628403,-0.03718557953834534,-0.42996681287711286,1.1052046631309618,0.4331820582532851
1687100414.9902248,-0.1861809641122818,-0.9094873666763306,-0.371711790561676,-0.018180012702941895,-0.047818660736083984,0.0124894380569458,0.5899628400802612,0.1594104915857315,0.009121865034103394,-0.4643469696719635,1.1420492954132853,0.4700254750945753
1687100415.06623,-0.18202157318592072,-0.912003755569458,-0.3675830662250519,-0.0027318447828292847,-0.05078011751174927,0.13543596863746643,-0.024012934416532516,0.3921795189380646,0.06303103268146515,-0.4597880731068694,1.148142923910368,0.48237294960712607
1687100415.100951,-0.179117351770401,-0.9118909239768982,-0.36928609013557434,0.009241238236427307,0.009836912155151367,-0.057120680809020996,0.020831236615777016,0.2900524139404297,0.07803681492805481,-0.45160559070098194,1.147867816036726,0.49226284234712636
1687100415.179348,-0.17820928990840912,-0.9112294912338257,-0.3713518977165222,0.02018927037715912,0.051076292991638184,-0.02798578143119812,0.0971374586224556,0.10398323088884354,0.0038212426006793976,-0.4474332570781283,1.146259228900879,0.4982637589395836
1687100415.201647,-0.1766129583120346,-0.9115169644355774,-0.3714091181755066,-0.006461992859840393,-0.006146669387817383,0.01760372519493103,-0.1004246175289154,0.0007917981129139662,-0.017987050116062164,-0.44387360350709526,1.1469577379505644,0.49720595324787303
1687100415.2497082,-0.1759740263223648,-0.9111610054969788,-0.3725840151309967,-0.000737994909286499,0.033368587493896484,-0.039815157651901245,0.15338528156280518,-0.10035958886146545,-0.04384022206068039,-0.44124879359610086,1.1460930183226568,0.49092428690415846
1687100415.303508,-0.175813689827919,-0.9130927920341492,-0.3679009675979614,0.015703201293945312,0.02065199613571167,0.03905889391899109,-0.06578248739242554,-0.04369000345468521,-0.0309545136988163,-0.4457981290379587,1.1508058200791387,0.49139020055999777
1687100415.345679,-0.17537245154380798,-0.9124506115913391,-0.36970052123069763,0.03076489269733429,-0.009210824966430664,-0.04060819745063782,0.04641782119870186,-0.03432304784655571,-0.021788179874420166,-0.44292889671975655,1.149233598964045,0.4860399634442638
1687100415.454805,-0.17661400139331818,-0.9135037660598755,-0.3664950430393219,0.013528034090995789,-0.016077041625976562,-0.015081465244293213,0.03910105302929878,-0.04135876148939133,0.05479394644498825,-0.44906312311753777,1.1518147610633291,0.4906746003960668
1687100415.471012,-0.18213237822055817,-0.9065158367156982,-0.3808632493019104,0.057635918259620667,-0.04961514472961426,-0.010371983051300049,-1.0623255968093872,-0.12922026216983795,0.20830175280570984,-0.446063645849697,1.13495655924322,0.48478474808240823
1687100415.5198832,-0.200660839676857,-0.8761551380157471,-0.43827804923057556,0.1239243745803833,-0.15625464916229248,-0.10339361429214478,-1.3248589038848877,-0.2847447693347931,0.5274614095687866,-0.42935380165125164,1.0678270304482547,0.454423393806608
1687100415.561524,-0.2508030831813812,-0.8361485600471497,-0.48780497908592224,0.29737287759780884,-0.45213598012924194,0.08445417881011963,-1.5453507900238037,-0.7032644152641296,1.2909342050552368,-0.4749004499366845,0.9902234183422177,0.47940623440352825
1687100415.616195,-0.3625815212726593,-0.7534268498420715,-0.5485278367996216,0.4537069797515869,-0.6908938884735107,-0.21187865734100342,-2.2658088207244873,-1.6310856342315674,2.935157537460327,-0.584075137328697,0.8532583503134663,0.5468944698232262
1687100415.665666,-0.5460284948348999,-0.6039519906044006,-0.5805989503860474,0.8312456607818604,-0.6447510719299316,-0.22242534160614014,-2.598921537399292,-2.559674024581909,4.081355094909668,-0.7547228849371516,0.6484502955890145,0.6377647896761431
1687100415.752399,-0.7429630756378174,-0.3808645009994507,-0.5504074692726135,0.8730441331863403,-0.4625651240348816,-0.0909651517868042,-3.05181884765625,-3.5075221061706543,4.714860439300537,-0.9331915412127022,0.39073107092939213,0.693278481308832
1687100415.7716088,-0.9036068916320801,-0.10577922314405441,-0.41509684920310974,1.15043306350708,-0.2544350326061249,-0.1458008587360382,-3.606492042541504,-4.740740776062012,4.571696758270264,-1.1401713295489972,0.10597748650097627,0.6714159050086144
1687100415.818469,-0.9752135872840881,0.14076732099056244,-0.17071303725242615,1.073144555091858,0.09194447100162506,0.3830391764640808,-2.674839973449707,-5.161689281463623,3.594230890274048,-1.3975002631087585,-0.14123640753142805,0.5735267683735743
1687100415.882842,-0.946576714515686,0.302547425031662,0.1116156056523323,1.140836238861084,-0.1408194601535797,-0.16424308717250824,-2.4644854068756104,-5.320333957672119,2.856945276260376,-1.6881693580513075,-0.3073642111941453,0.4470941331049766
1687100415.925077,-0.840275764465332,0.39404407143592834,0.3723788559436798,1.0116167068481445,0.06667977571487427,0.43723735213279724,-0.625293493270874,-4.7449235916137695,2.3497860431671143,-1.9879498081604148,-0.40502753675677383,0.3216610224599973
1687100415.96932,-0.6894586086273193,0.4900355041027069,0.533397376537323,0.71420818567276,-0.18470704555511475,0.2353253960609436,0.45687592029571533,-3.826889753341675,2.5367021560668945,-2.2292603727397666,-0.5121304856144664,0.25576689479718323
1687100416.056631,-0.5153845548629761,0.6021252870559692,0.6097738146781921,0.6152228116989136,-0.03745853900909424,0.3009471297264099,1.4925297498703003,-3.0824592113494873,2.8483288288116455,-2.439888279991196,-0.6461603765991225,0.19148853575187055
1687100416.073561,-0.32187870144844055,0.7169366478919983,0.6183817982673645,0.5544683933258057,-0.2928338646888733,0.21418356895446777,1.3484489917755127,-2.504049062728882,3.3788976669311523,-2.6616659095590056,-0.7993981274071367,0.07334122634704059
1687100416.11441,-0.11840175092220306,0.7807114720344543,0.6135721206665039,0.5897915363311768,0.05800306797027588,0.09609901905059814,0.6645894050598145,-2.588080883026123,3.3795289993286133,-2.9509645896788723,-0.8958035929000362,-0.1414928758806635
1687100416.157291,0.08928731828927994,0.8113095760345459,0.5777583718299866,0.5689616203308105,0.0270540714263916,0.2673802971839905,1.0139189958572388,-2.0591883659362793,3.4130499362945557,2.988264689277383,-0.9463887399125444,-0.4320952962145312
1687100416.232853,0.29578065872192383,0.8124006390571594,0.5025132298469543,0.6168628334999084,0.015953361988067627,0.2603195905685425,1.7929450273513794,-1.8359017372131348,3.8899991512298584,2.609595683269453,-0.9482574538859765,-0.7696146920466491
1687100416.2624269,0.48167821764945984,0.7761680483818054,0.406877726316452,0.5889089703559875,0.4133918881416321,0.1331767439842224,1.4482216835021973,-1.550949215888977,3.7203023433685303,2.272210432473956,-0.8885655017981338,-1.0843063100093573
1687100416.346395,0.644746720790863,0.7007305026054382,0.3054158091545105,0.5277997851371765,0.579283595085144,0.17807435989379883,1.5385938882827759,-1.406723976135254,3.2991278171539307,2.013182568735052,-0.7764209270790087,-1.3401138054486716
1687100416.3566,0.7668116092681885,0.6011028289794922,0.22511249780654907,0.5446355938911438,0.3001118302345276,0.23226986825466156,1.6257208585739136,-0.7290168404579163,3.305067539215088,1.8563431928657823,-0.6448803345974444,-1.498958325851012
1687100416.3956928,0.8477321863174438,0.5067048668861389,0.15684613585472107,-0.0356135368347168,0.8078246116638184,0.016707420349121094,1.2300883531570435,-0.23488196730613708,2.275547504425049,1.7537459832984146,-0.5313583584575694,-1.6225845206314373
1687100416.4694529,0.8993926644325256,0.42061564326286316,0.11905995011329651,0.3200896978378296,0.5668721199035645,0.13222192227840424,1.4391666650772095,-0.14881058037281036,1.7903480529785156,1.702409254105445,-0.4341238087595417,-1.7199741228373107
1687100416.5291882,0.9298399686813354,0.35418465733528137,0.09975546598434448,0.10141009092330933,0.464144229888916,0.013998985290527344,0.460675984621048,0.08886215835809708,1.4587221145629883,1.6776699566083062,-0.3620420614709807,-1.7879946926630372
1687100416.570008,0.9492747187614441,0.2987435460090637,0.09813277423381805,0.08342492580413818,0.42385169863700867,-0.013247981667518616,0.253860205411911,-0.07635778188705444,0.9103652834892273,1.6738070032530468,-0.30337581221532917,-1.804076569860576
1687100416.6507459,0.9622430801391602,0.2580254077911377,0.08666807413101196,-0.01696103811264038,0.2095801830291748,0.06712531298398972,-0.3316434621810913,-0.3686677813529968,0.7790402173995972,1.6606227420320954,-0.26097784634518956,-1.8105296360068122
1687100416.67178,0.9722442030906677,0.22241781651973724,0.07260801643133163,-0.06590253114700317,0.18886762857437134,0.08374893665313721,-0.7341880202293396,-0.4712115526199341,0.5882361531257629,1.6453387952120877,-0.2242937137965426,-1.7826178068375926
1687100416.7042298,0.9790518879890442,0.19455669820308685,0.06004408001899719,-0.046312570571899414,0.18355612456798553,0.22804200649261475,-0.6359966993331909,-0.23818334937095642,0.44290032982826233,1.6320484102661386,-0.1958054932503827,-1.74587094670291
1687100416.748798,0.9829390048980713,0.17400379478931427,0.059612397104501724,0.03137373924255371,0.2784498333930969,-0.015316016972064972,0.09694118052721024,-0.07228434085845947,0.21589209139347076,1.6313692337796037,-0.17489403943494872,-1.7300063623579696
1687100416.8183398,0.9828295707702637,0.17662227153778076,0.05339151993393898,0.002476215362548828,0.31342899799346924,-0.030289657413959503,0.6416747570037842,0.03597468510270119,-0.09924022853374481,1.625067270098628,-0.17755371155437535,-1.7677610110736914
1687100416.860344,0.9819413423538208,0.18199358880519867,0.0516698956489563,-0.06395727396011353,-0.08168227970600128,0.002178546041250229,-0.23848316073417664,-0.005248295143246651,-0.03551824018359184,1.6233679872574964,-0.1830135150807775,-1.7681688523157375
1687100416.9024181,0.9816492199897766,0.18278980255126953,0.05434228852391243,-0.026891350746154785,-0.05711840093135834,-0.02414499968290329,0.011967702768743038,0.06804149597883224,0.0024505797773599625,1.6260980356745418,-0.18382332129770776,-1.7661089057098964
1687100416.952682,0.9823199510574341,0.1786838173866272,0.0558585524559021,-0.02069556713104248,-0.0010867267847061157,-0.0016438886523246765,0.06419336050748825,-0.01363807450979948,0.09357016533613205,1.6275990633047281,-0.17964857944274998,-1.7621793605897034
1687100417.028271,0.982735812664032,0.17701762914657593,0.05381007120013237,0.010565757751464844,0.08918720483779907,-0.0690230131149292,-0.1325514018535614,-0.08190132677555084,-0.046440064907073975,1.6254970816330752,-0.17795539717652653,-1.7644462861182153
1687100417.0671868,0.9822991490364075,0.18027323484420776,0.05089222639799118,-0.01068049669265747,0.039300739765167236,0.06597494333982468,-0.1313425898551941,-0.04787653684616089,-0.11324765533208847,1.6225593428350211,-0.18126423742309897,-1.7564378248840038
1687100417.112915,0.9817104339599609,0.1837289184331894,0.04988427832722664,0.025369703769683838,-0.05564664304256439,0.04002069681882858,0.1324128955602646,0.006157712545245886,-0.000940689817070961,1.6215662974459972,-0.18477861252881336,-1.7533418902798679
1687100417.1607718,0.981265127658844,0.18535976111888885,0.05254184082150459,0.010403633117675781,-0.025188222527503967,0.027124401181936264,-0.11878125369548798,0.06075111776590347,-0.0217103511095047,1.624290241132926,-0.18643795969548257,-1.758490534038751
1687100417.249469,0.981374204158783,0.18436799943447113,0.053975652903318405,-0.0037435293197631836,0.05598847568035126,-0.04234826937317848,0.1284772753715515,-0.005659664981067181,0.0032134419307112694,1.625741041864032,-0.18542879793727043,-1.759491990150039
1687100417.258806,0.9815216660499573,0.18359863758087158,0.05391637980937958,-0.0013427138328552246,-0.014103993773460388,-0.010886434465646744,-0.08209940791130066,-0.028521794825792313,0.0019360571168363094,1.6256725952130264,-0.18464607338321784,-1.7556900235131214
1687100417.303197,0.9813963770866394,0.18486778438091278,0.05182027816772461,-0.007702469825744629,0.0207139253616333,0.013212800025939941,0.034844789654016495,0.013049151748418808,-0.0023501012474298477,1.623549930673611,-0.18593732749151973,-1.7573165085922173
1687100417.381431,0.9814167022705078,0.18484410643577576,0.0515185222029686,-0.009813189506530762,0.02436918020248413,0.03780651092529297,0.3305688500404358,0.07478093355894089,0.004758608527481556,1.62324222473986,-0.18591323480703492,-1.7626379541551942
1687100417.408104,0.9808101654052734,0.1874559074640274,0.05359175056219101,-0.006963610649108887,0.01763749122619629,-0.002627253532409668,0.4090820252895355,0.08049342036247253,-0.03623383492231369,1.6253823364099982,-0.1885715042363823,-1.7823042082520641
1687100417.480815,0.9795945882797241,0.19293788075447083,0.056302037090063095,-0.00965416431427002,0.010080397129058838,-0.0041168853640556335,0.245169535279274,0.03495573624968529,-0.08042453229427338,1.6282080003168473,-0.19415540625950742,-1.7970801151343858
1687100417.548271,0.9787198901176453,0.19747494161128998,0.05577705055475235,0.048486530780792236,0.035603076219558716,0.010949723422527313,0.47812846302986145,0.07731209695339203,-0.07902683317661285,1.6277245471975743,-0.19878146798264879,-1.817093839351125
1687100417.5586429,0.9780812859535217,0.20051410794258118,0.056134965270757675,0.02005714178085327,-0.04762104153633118,0.01664959266781807,-0.0559823177754879,-0.010262117721140385,-0.0020907092839479446,1.6281263821528211,-0.2018826506230137,-1.823705133409711
1687100417.607209,0.9778124690055847,0.2018498182296753,0.056033387780189514,0.000535428524017334,0.007287174463272095,0.03608405590057373,0.1708119511604309,0.03249875083565712,-0.025638112798333168,1.628038566825907,-0.20324625126315043,-1.8273376802200554
1687100417.65621,0.9777194261550903,0.20173998177051544,0.058017171919345856,-0.004696846008300781,-0.023151040077209473,-0.00670170783996582,0.1685892641544342,0.08039414882659912,-0.008331160992383957,1.6300661098091804,-0.20313410218214734,-1.8365978668419105
1687100417.732555,0.9772183895111084,0.2030712515115738,0.06169708073139191,-0.006682991981506348,-0.016502007842063904,-0.006887439638376236,0.25205644965171814,0.07454797625541687,-0.012015111744403839,1.6338480488170448,-0.2044935186705788,-1.845343320599694
1687100417.7654371,0.9771732687950134,0.20271901786327362,0.06354434043169022,-0.008392572402954102,0.0014894306659698486,-0.012015216052532196,0.32906121015548706,0.15310928225517273,0.004750019870698452,1.6357336258690864,-0.20413379509862611,-1.8609366330237618
