Timestamp,gravityX,gravityY,gravityZ,accelerationX,accelerationY,accelerationZ,rotationRateX,rotationRateY,rotationRateZ,attitudeRoll,attitudePitch,attitudeYaw
1687099156.178354,0.8922682404518127,0.4478274881839752,-0.05751745030283928,0.007725775241851807,0.0026425421237945557,0.004477977752685547,-0.005748443771153688,-0.02835811860859394,0.0019234735518693924,1.5064233307252222,-0.4643340705761557,2.382090622240085
1687099156.195862,0.8921608924865723,0.44797635078430176,-0.05802106484770775,0.008092522621154785,-0.00837060809135437,-0.0030445456504821777,-0.06152675300836563,-0.02713499590754509,0.0013474985025823116,1.5058534749725017,-0.4645005610033643,2.38405679739457
1687099156.232435,0.8922175765037537,0.4479251205921173,-0.0575425885617733,-0.0015925168991088867,0.009228259325027466,0.0024126172065734863,0.023823296651244164,-5.204638000577688e-05,0.006126075051724911,1.5063916279707474,-0.46444328041817606,2.3863354606602596
1687099156.307411,0.8923802375793457,0.44748973846435547,-0.05840150639414787,0.004394173622131348,0.004994422197341919,-0.006509304046630859,0.029362672939896584,-0.0016256419476121664,0.0062463837675750256,1.5054448755899392,-0.4639563818665091,2.3844785840064273
1687099156.355766,0.8923274874687195,0.44756612181663513,-0.05861905962228775,0.0018222928047180176,0.014943063259124756,0.009073857218027115,0.013986378908157349,0.00832239631563425,-0.014055758714675903,1.5051982675981763,-0.46404179343744045,2.3829877525215832
1687099156.382999,0.892148494720459,0.44777339696884155,-0.059750717133283615,0.009584903717041016,0.020747721195220947,-0.014651115983724594,0.08860974758863449,-0.013729576021432877,0.007137610111385584,1.5039222358377844,-0.4642735826279621,2.381220950081024
1687099156.470233,0.8919153809547424,0.4478803277015686,-0.0623721107840538,-0.007165014743804932,0.020762860774993896,-0.006750162690877914,0.11569543182849884,-0.008611734956502914,-0.012413321062922478,1.5009794624711752,-0.464393180632559,2.3757189629494766
1687099156.4975271,0.8912825584411621,0.4485635459423065,-0.06638085097074509,-0.004960417747497559,0.019255727529525757,-0.014002382755279541,0.15807218849658966,-0.008346084505319595,-0.045582059770822525,1.4964556790141117,-0.46515747654304535,2.3671092724178324
1687099156.5410209,0.8898984789848328,0.4508913457393646,-0.06912080198526382,0.00042128562927246094,-0.007943987846374512,-0.005998186767101288,0.06268787384033203,-0.029286719858646393,-0.04458557441830635,1.493279284201637,-0.46776369302874354,2.3626426430833267
1687099156.598217,0.889096200466156,0.45186784863471985,-0.0729631707072258,0.0025359392166137695,-0.0031220614910125732,-0.0010113716125488281,0.09402715414762497,-0.028688572347164154,-0.026983410120010376,1.4889153779060813,-0.4688580366396882,2.3568286398873264
1687099156.636959,0.88850998878479,0.45255520939826965,-0.07578971236944199,-0.011327862739562988,-0.011377811431884766,0.004241287708282471,0.11262374371290207,-0.025035560131072998,-0.021898502483963966,1.4857025269727906,-0.46962868147300324,2.3522595456698494
1687099156.772338,0.888386070728302,0.45191168785095215,-0.0809081420302391,-0.000919640064239502,-0.01325199007987976,0.003958113491535187,0.20416510105133057,-0.025251764804124832,0.011372235603630543,1.479973701614643,-0.46890716996735193,2.342417116744617
1687099156.7890239,0.8889434933662415,0.45005279779434204,-0.08504310995340347,0.013690352439880371,-0.019571751356124878,0.013082675635814667,0.08407465368509293,-0.0062672654166817665,0.03187478333711624,1.4754189764547199,-0.46682446796600907,2.333938897639929
1687099156.792573,0.890032172203064,0.44721925258636475,-0.08853189647197723,0.0015541911125183105,-0.016662001609802246,-0.0035396218299865723,0.22613058984279633,-0.00494562741369009,0.05423681437969208,1.4716520129646717,-0.46365394210272204,2.325707125238589
1687099156.834372,0.8914324641227722,0.44351860880851746,-0.09295032918453217,-0.004225313663482666,-0.009589076042175293,-0.0035157203674316406,0.16821296513080597,-0.02657713182270527,0.05520254001021385,1.4669010178550568,-0.45952072063298766,2.315456376868558
1687099156.9145598,0.8924997448921204,0.4405600428581238,-0.09670190513134003,-0.003904104232788086,0.0023415684700012207,0.002112746238708496,0.12512461841106415,-0.04108738526701927,0.05573084577918053,1.4628678573324156,-0.45622242422311005,2.309107294259969
1687099156.980078,0.8932321071624756,0.4383193850517273,-0.1000632718205452,-0.0040108561515808105,-0.0033980607986450195,0.002437591552734375,-0.053841669112443924,-0.05319790914654732,0.03559555113315582,1.4592376243216882,-0.45372801456431305,2.306729851998472
1687099156.994042,0.8930660486221313,0.43861228227615356,-0.1002628281712532,0.0018162727355957031,0.010530233383178711,-0.015139341354370117,-0.20451027154922485,-0.09391771256923676,0.007076623383909464,1.4589963744956125,-0.45405391959006014,2.3149607445507145
1687099157.0681028,0.8924282789230347,0.43970486521720886,-0.101151242852211,0.0010196566581726074,0.019371062517166138,-0.04678266495466232,-0.23662586510181427,-0.14177289605140686,-0.018238186836242676,1.4579341539212909,-0.45527004972006313,2.3272304608651497
1687099157.113379,0.8906449675559998,0.4430796205997467,-0.10213810950517654,-0.0015915632247924805,0.01775112748146057,-0.03751027584075928,-0.5032029747962952,-0.2089444100856781,-0.08169632405042648,1.4566163082924046,-0.4590309978160865,2.343684704981366
1687099157.164555,0.8881738781929016,0.4487185776233673,-0.09898880124092102,0.011911571025848389,0.011669635772705078,-0.0027414485812187195,-0.41818156838417053,-0.21736039221286774,-0.035574499517679214,1.4598023365335562,-0.4653309308957365,2.375829483478901
1687099157.189485,0.886763870716095,0.4504799246788025,-0.10352716594934464,-0.0005638599395751953,0.01823955774307251,0.005047030746936798,0.056513067334890366,-0.10637977719306946,-0.007403449155390263,1.4545752824384655,-0.4673028182697405,2.383716811278952
1687099157.2630029,0.8858872056007385,0.45056918263435364,-0.11041554063558578,-0.0022047758102416992,0.007240384817123413,0.06289969384670258,0.3626577854156494,0.03465275838971138,-0.03964061662554741,1.446797413651826,-0.46740280297511716,2.3695506583970682
1687099157.301445,0.885454535484314,0.4503331184387207,-0.11476334929466248,0.01104515790939331,-0.05044597387313843,0.04420673847198486,0.13624624907970428,0.04418565332889557,-0.01552908681333065,1.4419053214111666,-0.46713840933493045,2.354816973968045
1687099157.376826,0.8861910700798035,0.44891542196273804,-0.11463269591331482,-0.0022187232971191406,-0.023561298847198486,0.01850239932537079,0.050070080906152725,0.042413853108882904,0.0437621995806694,1.4421562685712397,-0.46555120680398093,2.3497057160051837
1687099157.391865,0.8880848288536072,0.4451080560684204,-0.1148228719830513,0.0005718469619750977,-0.0046935975551605225,-0.010924756526947021,0.21680766344070435,0.03530840575695038,0.08022180944681168,1.4422169410893815,-0.4612949324578546,2.3447433967810043
1687099157.439851,0.8906079530715942,0.43819016218185425,-0.12168458849191666,0.004793107509613037,0.014400839805603027,-0.03331410884857178,0.5940278768539429,0.045657962560653687,0.12410584837198257,1.4350062135377901,-0.45358425816726533,2.323881288171692
1687099157.512704,0.8953626751899719,0.42198511958122253,-0.14231866598129272,0.008354425430297852,0.05415022373199463,-0.042663633823394775,2.0434138774871826,0.1617411971092224,0.2907370328903198,1.4131641891327535,-0.43563382667187683,2.2621406319670285
1687099157.567659,0.9052349328994751,0.37761884927749634,-0.1948179006576538,-0.003013134002685547,0.10727500915527344,-0.051687806844711304,4.180604457855225,0.44686952233314514,0.4120144844055176,1.3588170360883036,-0.3872234071916248,2.091926897052103
1687099157.605341,0.9196187257766724,0.3033846318721771,-0.24951839447021484,-0.0034351348876953125,0.11353126168251038,0.05774599313735962,5.729416847229004,0.7847663164138794,0.38692840933799744,1.3058470521910406,-0.30824270488516414,1.8400791622504264
1687099157.673722,0.9365805983543396,0.20617248117923737,-0.28338977694511414,-0.008373141288757324,-0.00788453221321106,0.05954337120056152,5.623391628265381,0.9850319623947144,0.3687373697757721,1.27697501274999,-0.2076617833740411,1.5530160174765337
1687099157.710942,0.9564117789268494,0.11050991714000702,-0.2703040540218353,-0.02629697322845459,0.12102693319320679,0.22291028499603271,6.33467960357666,1.5296251773834229,0.21206505596637726,1.2953569017687596,-0.11073609469172654,1.2754832217705208
1687099157.7513409,0.97489994764328,0.024124158546328545,-0.221332848072052,0.08532655239105225,-0.057327330112457275,0.19054068624973297,5.873101234436035,1.453029990196228,0.11262861639261246,1.3475492731060033,-0.024126499703303616,0.9688952442666151
1687099157.803184,0.989777147769928,-0.0250866562128067,-0.14039894938468933,-0.011642992496490479,0.02946588583290577,0.1945219784975052,5.335933208465576,1.712679147720337,-0.28386080265045166,1.4298873430221022,0.025089287910608875,0.6920825798337655
1687099157.854572,0.9988210797309875,-0.018783094361424446,-0.04476575925946236,0.04950368404388428,-0.02862599678337574,0.2130703330039978,3.8648061752319336,1.8305197954177856,-0.8784120082855225,1.5260077033862347,0.018784199783711365,0.4602321633691741
1687099157.913029,0.9982650279998779,0.039659179747104645,0.04352245107293129,0.14939433336257935,0.12154988944530487,0.09537839889526367,4.3233256340026855,1.6580414772033691,-1.3124873638153076,1.6143668277805094,-0.039669582586859195,0.26183678359686163
1687099157.975833,0.9860233664512634,0.13192754983901978,0.10174943506717682,0.13359016180038452,0.05828846991062164,0.14225398004055023,3.555513858795166,1.3833078145980835,-1.6842576265335083,1.673624079239204,-0.1323132717046002,0.05854564071013754
1687099157.991749,0.9605533480644226,0.24045495688915253,0.1397104412317276,0.06389129161834717,-0.05155116319656372,0.10508644580841064,2.239006996154785,1.0895438194274902,-2.019801139831543,1.7152313674926079,-0.242834535380606,-0.0656137513051124
1687099158.067805,0.9218598008155823,0.3572768568992615,0.15009263157844543,0.20065301656723022,-0.021263092756271362,-0.01897372305393219,1.3566789627075195,0.5265499353408813,-2.3366475105285645,1.7321951515591303,-0.36535068279347954,-0.14761371616718394
1687099158.101511,0.8702501654624939,0.46943199634552,0.1493266373872757,0.24149000644683838,-0.03637230396270752,-0.04231657087802887,0.004663450643420219,0.08600695431232452,-2.3789491653442383,1.740731888237322,-0.4886473741170988,-0.16863537043890478
1687099158.1407928,0.8106924295425415,0.5656090974807739,0.1512100249528885,0.22785139083862305,-0.07157522439956665,-0.20151805877685547,-0.08660653978586197,-0.26420527696609497,-2.2388226985931396,1.7551970119470568,-0.6011716397931011,-0.12949824090613307
1687099158.2272,0.7483589053153992,0.6467325091362,0.14729610085487366,0.2165154218673706,-0.24231356382369995,-0.14404582977294922,-0.7294089198112488,-0.445183128118515,-2.0321197509765625,1.7651376019717704,-0.7032926091145021,-0.08429024669113964
1687099158.2747931,0.6900050640106201,0.7086654305458069,0.14726395905017853,0.19418084621429443,-0.16471999883651733,-0.15280281007289886,-0.27318310737609863,-0.4692695140838623,-1.5984734296798706,1.7810660777543523,-0.7876048961126821,-0.024826612599826027
1687099158.314543,0.6403124332427979,0.755530595779419,0.138467937707901,0.18688172101974487,-0.20268946886062622,-0.15012553334236145,0.04486573114991188,-0.47025585174560547,-1.2368189096450806,1.7837675020852855,-0.8564636546273445,0.010932553583540457
1687099158.363945,0.5981622338294983,0.7924442887306213,0.11930589377880096,0.09567010402679443,-0.1866704225540161,-0.06118502467870712,0.2562224268913269,-0.4263819754123688,-1.0270317792892456,1.7676668958994088,-0.9148060476448594,0.017656485322460492
1687099158.3985128,0.5656183958053589,0.8198291659355164,0.08919654786586761,0.03306019306182861,-0.12935370206832886,-0.017251260578632355,0.5113045573234558,-0.34409207105636597,-0.7202396392822266,1.727205646327545,-0.9611126164535923,-0.007389230862576928
1687099158.4437141,0.5405292510986328,0.8389849662780762,0.06270890682935715,0.018980026245117188,-0.14594608545303345,-0.042506106197834015,0.47682857513427734,-0.4161199629306793,-0.5288048386573792,1.6862939137194135,-0.9954152372031986,-0.03524574785626475
1687099158.516868,0.5207464098930359,0.8530793190002441,0.032843831926584244,-0.012567758560180664,-0.1422792673110962,-0.015036709606647491,0.2663717567920685,-0.4107632637023926,-0.4827076494693756,1.633783581960355,-1.0218587036734412,-0.07257541362248139
1687099158.569543,0.5032361745834351,0.8641148209571838,0.007685299497097731,-0.03790414333343506,-0.05163007974624634,-0.007868289947509766,0.5594062805175781,-0.39780476689338684,-0.38123083114624023,1.5860668954133836,-1.0433889848642972,-0.10540335901870833
1687099158.610493,0.48647135496139526,0.8732603192329407,-0.027607107535004616,-0.010320782661437988,0.009094417095184326,0.06671547889709473,0.3027989864349365,-0.3100724220275879,-0.43334564566612244,1.5141074249156896,-1.06185397115865,-0.1664112614325068
1687099158.652679,0.46825283765792847,0.8828833699226379,-0.03544407710433006,-0.03903833031654358,-0.04647284746170044,0.1737193465232849,0.06209025904536247,-0.09860516339540482,-0.3308767080307007,1.4952460900631195,-1.081967299495016,-0.17547051806105876
1687099158.710075,0.4581136703491211,0.888068675994873,-0.03828660771250725,-0.06300261616706848,-0.13498646020889282,0.15332269668579102,0.025338636711239815,0.09856349974870682,-0.09554269909858704,1.487415624961588,-1.093126781594534,-0.1835504177584585
1687099158.7581391,0.4588090777397156,0.8878691792488098,-0.03439653664827347,-0.05516815185546875,-0.09882164001464844,0.08584927767515182,-0.04534538835287094,0.1287117898464203,0.07163078337907791,1.4959671344990169,-1.0926929627528743,-0.1818893620710983
1687099158.822078,0.4611402153968811,0.8866186738014221,-0.03545776754617691,0.01365235447883606,0.06865787506103516,-0.07364249229431152,0.06376884877681732,-0.052377212792634964,0.011044399812817574,1.4940558166919171,-1.0899822414355451,-0.18557429569642941
1687099158.872427,0.45847973227500916,0.8879611492156982,-0.03635197877883911,0.004349946975708008,0.03995639085769653,-0.004571974277496338,-0.03311242163181305,-0.03323676437139511,-0.09293699264526367,1.491673767540218,-1.0928929531755935,-0.18592356799649057
1687099158.896476,0.4555693566799164,0.8894264101982117,-0.03711375966668129,0.022625893354415894,-0.022956013679504395,0.027882277965545654,-0.011624175123870373,0.011796068400144577,-0.03537056967616081,1.489509080503935,-1.0960887602825717,-0.1872424624858258
1687099158.94951,0.4567045271396637,0.8887986540794373,-0.03818181902170181,-0.010034024715423584,-0.03873157501220703,0.016178730875253677,0.053987059742212296,-0.023651093244552612,0.08602523803710938,1.4873874037111396,-1.0947171154026094,-0.1903277349890125
1687099159.005958,0.4593687951564789,0.8873835802078247,-0.039124034345149994,-0.010760366916656494,0.024985134601593018,0.025757435709238052,0.0013747133780270815,-0.022460104897618294,0.004054268356412649,1.4858322484228665,-1.0916387137260244,-0.19117069662574382
1687099159.0641341,0.4604966938495636,0.8867007493972778,-0.04128510504961014,0.031400829553604126,-0.0027744174003601074,-0.01744585484266281,0.01972123049199581,-0.10286618024110794,0.03648464381694794,1.4813819570194975,-1.090159627607818,-0.19248681105110332
1687099159.1168199,0.4619861841201782,0.8858367204666138,-0.04315397888422012,0.01404234766960144,0.00022596120834350586,0.027269721031188965,-0.012030573561787605,-0.07710373401641846,0.040375787764787674,1.4776569198182512,-1.0882941793848837,-0.19150840574955774
1687099159.168247,0.4631511867046356,0.8850507736206055,-0.04664797708392143,-0.0008709430694580078,0.021962106227874756,0.014925070106983185,0.10464438050985336,-0.024877013638615608,0.012990772724151611,1.470416156627413,-1.0866030107592766,-0.19707979591120164
1687099159.208113,0.46342533826828003,0.8848352432250977,-0.0479956716299057,0.004836410284042358,-0.016839027404785156,0.021735433489084244,-0.0516568124294281,-0.028479738160967827,-0.008460458368062973,1.4675970416829967,-1.0861402839354843,-0.19920695327472093
1687099159.249628,0.4630863666534424,0.8848586678504944,-0.05075611174106598,0.018374234437942505,0.031935155391693115,-0.019373174756765366,0.08388956636190414,-0.05198841542005539,0.002729145810008049,1.4616280992681854,-1.086190585196773,-0.20389441638649936
1687099159.3052192,0.46345099806785583,0.884497880935669,-0.0536346510052681,0.002338796854019165,-0.013541460037231445,0.021682865917682648,0.032676443457603455,-0.008171691559255123,0.013030518777668476,1.4555800218646182,-1.085416662131106,-0.20872407435297438
1687099159.363311,0.4643075168132782,0.8840168714523315,-0.05415764078497887,0.005037665367126465,-0.019575834274291992,0.006000995635986328,0.05786701664328575,0.010983160696923733,0.01382860355079174,1.4546792831501647,-1.084386608513072,-0.20988242854437364
1687099159.402014,0.46535229682922363,0.8833534121513367,-0.055983491241931915,0.0017955899238586426,-0.0077887773513793945,-0.00035178661346435547,-0.04262976348400116,0.002783132717013359,0.01783885806798935,1.4510682548756753,-1.082969269997258,-0.21410624900221722
1687099159.497191,0.46638160943984985,0.8828612565994263,-0.05517589673399925,0.020709514617919922,0.008130013942718506,0.0017549991607666016,0.017818668857216835,0.008462145924568176,0.0071366773918271065,1.4530373615601773,-1.0819203127898702,-0.21230644140690752
1687099159.510717,0.46742555499076843,0.8822629451751709,-0.05590856075286865,-0.0019255578517913818,-0.012344002723693848,0.014877788722515106,0.019427217543125153,0.030751250684261322,0.04012245684862137,1.4517523237988004,-1.0806478494578073,-0.2150364151069746
1687099159.548501,0.470718115568161,0.880624532699585,-0.05408398061990738,-0.019424110651016235,-0.02654433250427246,0.026358842849731445,-0.03656601160764694,0.06663044542074203,0.08997529745101929,1.4564012053639983,-1.0771787385724003,-0.21262981783955742
1687099159.5929751,0.4784892499446869,0.8764081597328186,-0.054377827793359756,-0.023884087800979614,-0.04695558547973633,0.049663007259368896,0.14513906836509705,0.1793382465839386,0.2470940202474594,1.4576369883893834,-1.0683522142136417,-0.21790662464607893
1687099159.669375,0.4954308569431305,0.8670860528945923,-0.05205797776579857,-0.015633463859558105,-0.12657707929611206,0.058710936456918716,0.19858898222446442,0.29652243852615356,0.5094624161720276,1.4661043268815246,-1.0493228119008,-0.22153382198646576
1687099159.709443,0.5262678861618042,0.8488852381706238,-0.049357835203409195,-0.031211674213409424,-0.131874680519104,0.06077152490615845,-0.08565579354763031,0.492577463388443,0.8861604928970337,1.477281459594515,-1.0138727073044043,-0.23148582569806447
1687099159.769545,0.5753481984138489,0.8174672722816467,-0.026862062513828278,-0.020676016807556152,-0.282631516456604,0.06432247906923294,-0.17430256307125092,0.6615464687347412,1.4296963214874268,1.5241418494140606,-0.9569999334010378,-0.2102028607018649
1687099159.8146281,0.6454227566719055,0.7636718153953552,0.015325666405260563,-0.05324441194534302,-0.3624266982078552,-0.008657456375658512,-0.5704296827316284,0.7733148336410522,2.1329240798950195,1.5945370242641095,-0.8689815030871799,-0.16651418192275985
1687099159.865066,0.7295738458633423,0.6810067892074585,0.06286182254552841,-0.0016227960586547852,-0.20233869552612305,-0.003474488854408264,-0.9610869288444519,0.8748779296875,2.5972840785980225,1.6567464390799902,-0.7491366676610232,-0.13870406070504573
1687099159.905181,0.8166537284851074,0.5635601878166199,0.12440454959869385,0.1260799765586853,-0.08371710777282715,-0.19915726780891418,-0.8727730512619019,0.4237472414970398,3.1239371299743652,1.721968634330332,-0.5986892650308204,-0.08817157314028974
1687099159.952779,0.8948783874511719,0.4106265604496002,0.17486795783042908,0.1121254563331604,-0.12009921669960022,-0.13929951190948486,-2.5773251056671143,0.015444088727235794,3.359025239944458,1.7637743129956103,-0.4231411371069432,-0.03055685751087377
1687099160.015825,0.953650176525116,0.2151723951101303,0.21036268770694733,0.3120207190513611,-0.026344895362854004,-0.08858215808868408,-4.976727485656738,-0.963373064994812,3.240656852722168,1.787906322180719,-0.21686835699062046,0.11902973736504989
1687099160.081058,0.984600305557251,0.026421304792165756,0.1728139966726303,0.4393653869628906,0.48725053668022156,0.11115230619907379,-5.448857307434082,-2.0317299365997314,2.28659725189209,1.7445434868248055,-0.026424380650834335,0.3692208381588195
1687099160.118037,0.9954416751861572,-0.08832555264234543,0.03598469868302345,0.3118094801902771,0.12641143798828125,0.09310472011566162,-6.954195976257324,-2.6736650466918945,0.9767360687255859,1.6069300716527337,0.08844080313458862,0.6496489378302
1687099160.163745,0.9889422655105591,-0.07678840309381485,-0.1268731951713562,0.19381225109100342,0.20500797033309937,0.3001673221588135,-7.413839340209961,-2.5011775493621826,-0.5937120318412781,1.4432014925092067,0.07686406378236149,1.0336529932122973
1687099160.204071,0.9681087136268616,0.029713118448853493,-0.24876238405704498,0.03936809301376343,0.06010010838508606,0.28588706254959106,-5.90311336517334,-1.7659447193145752,-0.9757460355758667,1.319280620248378,-0.02971749219380294,1.351731960578722
1687099160.255547,0.9425830841064453,0.1451810747385025,-0.3007652759552002,0.010526776313781738,0.060644686222076416,0.04896479845046997,-3.8660120964050293,-1.3781489133834839,-1.0605435371398926,1.2619224881106832,-0.14569598396189776,1.57143286957972
1687099160.322226,0.9168139100074768,0.24899430572986603,-0.3121762275695801,0.06884276866912842,-0.23767229914665222,0.22770360112190247,-4.030712127685547,-0.8117658495903015,-0.8095966577529907,1.2426086464820143,-0.25164171413999575,1.752414050216632
1687099160.36972,0.8946362733840942,0.3383193016052246,-0.29183274507522583,0.04992866516113281,-0.12385702133178711,0.0782860517501831,-3.1355857849121094,-0.47510284185409546,-0.6662137508392334,1.2554770391698444,-0.34513030149965346,1.9113794183654853
1687099160.406877,0.8783875107765198,0.40514758229255676,-0.25355690717697144,0.02088940143585205,-0.0646933913230896,0.028306633234024048,-2.583205223083496,-0.19386842846870422,-0.6222501397132874,1.289773752661756,-0.41714026216975464,2.0477434158896006
1687099160.4506578,0.8652774095535278,0.45777857303619385,-0.20428937673568726,0.072909414768219,-0.1371150016784668,-0.023020774126052856,-2.4513208866119385,-0.10188067704439163,-0.4451625645160675,1.3389450497987092,-0.47549497948589625,2.17731986256211
1687099160.509301,0.8564334511756897,0.492436945438385,-0.15500947833061218,0.02383100986480713,-0.02597564458847046,-0.020848050713539124,-1.6782937049865723,0.060127269476652145,-0.27960434556007385,1.3917405659646183,-0.5148875093627273,2.2916595306554184
1687099160.55527,0.8508180975914001,0.5119261741638184,-0.11849187314510345,0.033627212047576904,-0.020318448543548584,-0.07973499596118927,-0.992081880569458,0.1280801147222519,-0.19678330421447754,1.4324182300551802,-0.537425581869412,2.3620940008125997
1687099160.616945,0.8467249870300293,0.5245015621185303,-0.08919095247983932,0.023148059844970703,-0.04432272911071777,-0.0798000618815422,-0.905562698841095,0.11321879178285599,-0.1943739354610443,1.4658469569423844,-0.552129575747666,2.415144639453817
1687099160.703661,0.8423801064491272,0.5354793071746826,-0.060480568557977676,0.011974811553955078,-0.04341387748718262,-0.09747838973999023,-1.0400493144989014,-0.011131107807159424,-0.14694030582904816,1.499122069208184,-0.5650751849450008,2.471174841153847
1687099160.712225,0.8394181132316589,0.5423611402511597,-0.03495440259575844,0.02477872371673584,-0.0038936734199523926,-0.0622439943253994,-0.831664502620697,-0.04053906351327896,-0.07191160321235657,1.5291791412798252,-0.5732449385400579,2.530357711132894
1687099160.751708,0.8375760912895203,0.5459582805633545,-0.01989791728556156,0.009240925312042236,0.0011304020881652832,-0.05960029363632202,-0.40788206458091736,-0.023574061691761017,-0.04866819828748703,1.547044245602633,-0.5775324456839643,2.566623240927262
1687099160.819793,0.8370934128761292,0.5468136072158813,-0.016420932486653328,-0.001659393310546875,0.020462393760681152,-0.041272521018981934,0.06609351933002472,-0.02255438081920147,0.00028855912387371063,1.5511822350820852,-0.5785537461918181,2.5758692328120274
1687099160.863961,0.8372761607170105,0.5464766621589661,-0.018225088715553284,-0.0011097192764282227,-0.016294658184051514,-0.0027862191200256348,-0.0897677093744278,-0.029370497912168503,0.01023007184267044,1.5490326451106469,-0.5781513075887046,2.5744251778829166
1687099160.904454,0.8370930552482605,0.5468795895576477,-0.014070930890738964,0.009830772876739502,-0.030415356159210205,-0.015790460631251335,-0.42511215806007385,-0.08439101278781891,0.021653834730386734,1.5539886308734119,-0.578632512031825,2.5904639992564853
1687099160.975517,0.8375207185745239,0.5463103652000427,-0.010204651392996311,-0.007091641426086426,0.040496885776519775,-0.014865457080304623,-0.1954299658536911,-0.09883370250463486,0.0033988645300269127,1.5586125724667137,-0.5779527947589367,2.6079724474360306
1687099161.019209,0.8382292985916138,0.5452147722244263,-0.010603322647511959,8.851289749145508e-05,0.01362311840057373,-0.004670619033277035,-0.06901103258132935,-0.07396912574768066,0.014637337997555733,1.5581473327714046,-0.5766452872267159,2.6152395526471834
1687099161.0704079,0.8382931351661682,0.5450989603996277,-0.011487346142530441,-0.0006160736083984375,-0.00270998477935791,0.020245909690856934,-0.005786526948213577,-0.044146712869405746,0.019794482737779617,1.5570939275319913,-0.5765071652638413,2.6191505923955174
1687099161.110666,0.8382678627967834,0.5451313257217407,-0.01179900486022234,-0.0039476752281188965,-0.011638164520263672,0.0014994125813245773,-0.19185493886470795,-0.046871617436409,0.00010719755664467812,1.5567217981216193,-0.5765457320432463,2.6226528914298273
1687099161.1814752,0.8384981751441956,0.5448420643806458,-0.008244561962783337,0.00027745962142944336,0.013126075267791748,0.0011035213246941566,-0.09696757048368454,-0.04515527933835983,0.019203195348381996,1.5609641097694542,-0.5762007578595014,2.6345481031820426
1687099161.223186,0.8391731977462769,0.5437824130058289,-0.009461001493036747,-0.0006110072135925293,0.006129145622253418,7.694866508245468e-05,0.006441377103328705,-0.01649005338549614,0.020133238285779953,1.5595226103453155,-0.5749375946099713,2.6346295563198603
1687099161.273528,0.8397169709205627,0.5429120063781738,-0.011050168424844742,-0.0018721222877502441,0.013774454593658447,0.0034666061401367188,0.11368314176797867,-0.011490168049931526,0.021292708814144135,1.557637689979627,-0.5739007922788245,2.63190130644208
1687099161.316144,0.8401122093200684,0.5422598719596863,-0.012875942513346672,0.003149569034576416,0.001380324363708496,0.007352292537689209,-0.06189959496259689,-0.013595419004559517,0.011518843472003937,1.5554710715752051,-0.5731244451231049,2.629165920036428
1687099161.363085,0.8403966426849365,0.5418303608894348,-0.012386363931000233,0.0061914920806884766,0.012368857860565186,-0.0017126789316534996,-0.024785783141851425,-0.032446715980768204,0.020715469494462013,1.5560586827125167,-0.5726133413192095,2.63225143928233
1687099161.412163,0.8407451510429382,0.5412803888320923,-0.012783766724169254,-0.006852269172668457,0.01069110631942749,0.013882458209991455,-0.029834603890776634,-0.019846122711896896,0.00439169118180871,1.5555922164653648,-0.5719591138027849,2.6336156384600913
1687099161.457892,0.8406332731246948,0.5414385199546814,-0.013433339074254036,-0.002666175365447998,0.006764113903045654,0.007268844172358513,0.0498165488243103,0.007236315403133631,-0.00017949147149920464,1.5548176643101344,-0.5721471970169453,2.6328123925586344
1687099161.5219321,0.8404194712638855,0.5417624711990356,-0.013730858452618122,0.0063974857330322266,-0.00842195749282837,0.010709645226597786,0.005323914811015129,0.015881046652793884,-0.006743052043020725,1.554459678899363,-0.5725325173854735,2.630941738483356
1687099161.565998,0.8403328061103821,0.5419074296951294,-0.013316347263753414,0.0036613941192626953,0.00045096874237060547,0.0031235218048095703,0.009400948882102966,0.004796904046088457,0.0008598072454333305,1.5549511363501989,-0.572705043435726,2.6302051628277336
1687099161.636179,0.8404964208602905,0.5416824817657471,-0.012097429484128952,0.0009496808052062988,-0.01081383228302002,0.006024478003382683,-0.015641022473573685,0.009312914684414864,0.005737918894737959,1.556404124730549,-0.5724373836573925,2.63207250418816
1687099161.680666,0.8405242562294006,0.5416499376296997,-0.011601039208471775,0.0007996559143066406,0.002219080924987793,-0.001780867576599121,-0.01855984516441822,0.01523105800151825,0.0021766736172139645,1.556995056564363,-0.572398699200656,2.63201700555706
1687099161.708127,0.8404011726379395,0.5418694019317627,-0.010174513794481754,-0.0005726218223571777,0.005036115646362305,0.004360973834991455,0.0029153518844395876,0.0012562756892293692,-0.002154492074623704,1.5586901840312397,-0.5726598042121778,2.633695389785114
1687099161.777349,0.8404877185821533,0.5417250990867615,-0.010698141530156136,0.00019532442092895508,0.0033798813819885254,-0.010084270499646664,0.013110199011862278,-0.0027438364923000336,0.0061573670245707035,1.5580685222404622,-0.5724881143912935,2.6327306928274896
1687099161.869004,0.840356171131134,0.5419325232505798,-0.010534518398344517,0.004721403121948242,-0.0012829899787902832,-0.0034424662590026855,-0.0091751329600811,-0.004152626730501652,-0.005236900877207518,1.5582612056273764,-0.5727348526404507,2.6329386253962936
1687099161.877564,0.8401413559913635,0.5422569513320923,-0.010953952558338642,0.0008315443992614746,0.005564093589782715,0.0040417322888970375,0.05354603752493858,-0.0007205443689599633,-0.0031706211157143116,1.5577588401050313,-0.5731209515206621,2.6317476646360487
1687099161.916482,0.8403788805007935,0.5418633222579956,-0.01216222159564495,0.002471029758453369,-0.006172895431518555,-0.0034169573336839676,-0.013382661156356335,-0.01910412311553955,0.008127173408865929,1.5563250297254916,-0.5726525234754954,2.6304609273905375
1687099161.98055,0.8405026197433472,0.5416678786277771,-0.012305455282330513,0.0005618929862976074,0.0029183626174926758,0.0033943653106689453,-0.01362261176109314,-0.01410232950001955,0.002765764482319355,1.5561567818054665,-0.5724199839485771,2.6314612980701924
1687099162.028636,0.8406766057014465,0.5413771271705627,-0.013183604925870895,-0.006829500198364258,0.003926277160644531,0.0008698105812072754,0.019724426791071892,-0.00863135326653719,-0.0008906223811209202,1.555115476795333,-0.5720741429728623,2.6310162038398577
1687099162.0767741,0.8407679200172424,0.5412333011627197,-0.013268006034195423,0.007758200168609619,-0.007404506206512451,0.002342820167541504,-0.018955592066049576,-0.019385553896427155,0.014544260688126087,1.5550168171838044,-0.5719031057384578,2.6319298669542652
1687099162.204509,0.8410531282424927,0.5407730937004089,-0.013942022807896137,-0.0066719651222229,0.00453031063079834,0.009517073631286621,0.009735441766679287,-0.007162220776081085,0.009909960441291332,1.554220981821713,-0.5713559000588688,2.6313988606430287
1687099162.2073731,0.8413360714912415,0.5403298735618591,-0.01405324786901474,-0.0016753673553466797,0.0048362016677856445,0.008560121059417725,0.007060828618705273,0.0032175162341445684,0.007368439342826605,1.55409439094449,-0.5708291014911097,2.631071478258605
1687099162.227956,0.8414250612258911,0.54020756483078,-0.013406489044427872,0.0007075071334838867,-0.0024268031120300293,0.006692708469927311,-0.004453082103282213,0.011573140509426594,0.014976691454648972,1.5548645999643844,-0.5706837621988071,2.631789886232668
1687099162.267425,0.8417200446128845,0.539760172367096,-0.012894967570900917,0.0010228157043457031,-0.0006976723670959473,0.003602387383580208,-0.005231790244579315,0.013508636504411697,0.014755915850400925,1.5554777434315659,-0.5701522104915305,2.6315600845706717
1687099162.302999,0.8420933485031128,0.5392000079154968,-0.011927653104066849,-0.006506800651550293,-0.00024431943893432617,-0.0013169636949896812,-0.01416429877281189,0.004123901017010212,0.013256488367915154,1.5566329857081254,-0.5694869454042061,2.632562221201496
1687099162.383909,0.8424230217933655,0.5386943817138672,-0.011483017355203629,0.002715468406677246,0.0006123185157775879,0.00278556440025568,0.02380944974720478,0.01408523228019476,0.016545891761779785,1.5571662316906438,-0.5688866450450892,2.6326293799675398
1687099162.417146,0.8428650498390198,0.537999153137207,-0.011646939441561699,0.0022430419921875,-0.004063546657562256,-0.00475621223449707,-0.009255560114979744,0.008735786192119122,0.015573438256978989,1.556978933234673,-0.5680616677604519,2.6313690496243374
1687099162.4941921,0.843268096446991,0.5373820662498474,-0.010925089940428734,0.002694368362426758,0.004228651523590088,0.002761722542345524,0.013221252709627151,0.009984586387872696,0.013191907666623592,1.5578413974543348,-0.5673298131337781,2.6320744693799303
1687099162.538437,0.8436179757118225,0.5368271470069885,-0.01120893657207489,0.0019173622131347656,0.00675201416015625,-0.003912508487701416,0.028240149840712547,0.011168339289724827,0.013013409450650215,1.5575103640032697,-0.5666719037897704,2.630367072721009
1687099162.590925,0.843944787979126,0.5363029837608337,-0.011683627963066101,0.007724583148956299,0.0068337321281433105,-0.00842738151550293,0.017034899443387985,-0.006578921340405941,0.013422070071101189,1.5569531446286131,-0.5660507430907771,2.6291076600204044
1687099162.6297998,0.8444573283195496,0.5354816913604736,-0.012312175706028938,0.008097231388092041,0.007441401481628418,-0.0020768065005540848,0.011933348141610622,-0.008753903210163116,0.012799223884940147,1.5562173734584939,-0.5650780258500235,2.628468008056975
1687099162.658859,0.8445895910263062,0.5352658629417419,-0.01261691004037857,-0.0004885196685791016,0.006848454475402832,0.0019816160202026367,0.01706179790198803,-0.0008559440029785037,-0.004339548759162426,1.5558589271952639,-0.5648224462438776,2.628441031525421
1687099162.804086,0.8444952964782715,0.5353947877883911,-0.013429424725472927,0.003573000431060791,0.006811082363128662,-0.0013563036918640137,0.0312841422855854,-0.0046816859394311905,-0.002198700560256839,1.5548953583612963,-0.5649750747919133,2.6269165740171196
1687099162.8114119,0.8445931077003479,0.5352098941802979,-0.01460461225360632,0.01044851541519165,0.005241215229034424,-0.0034464597702026367,0.04728627949953079,-0.015727922320365906,0.0070944661274552345,1.553506158147396,-0.5647562135164308,2.62532029850823
1687099162.827585,0.8446124196052551,0.5351344347000122,-0.016163868829607964,0.0026015043258666992,0.004691064357757568,0.002461550757288933,0.017990175634622574,-0.011206341907382011,-0.0022543605882674456,1.551661046205255,-0.5646668902673527,2.6232669186648687
1687099162.858892,0.844437301158905,0.5353714823722839,-0.017420150339603424,-0.006149768829345703,0.007322728633880615,0.0019324999302625656,0.07069706171751022,1.970352604985237e-05,-0.011711977422237396,1.5501699522524117,-0.564947524167948,2.620713848810821
1687099162.9244561,0.8441953659057617,0.5356926321983337,-0.019182536751031876,0.003399968147277832,-0.008730292320251465,0.00862354040145874,0.08620864152908325,0.0006148535758256912,-0.003790871240198612,1.548077371447814,-0.5653277783906474,2.6165826097187046
1687099163.0102801,0.8442951440811157,0.5354490280151367,-0.021448791027069092,-0.000697791576385498,-0.011630058288574219,0.013575317338109016,0.13514049351215363,0.007264123298227787,0.022456644102931023,1.5453974145022016,-0.5650393513217323,2.6107478121340555
1687099163.057716,0.845170259475708,0.5338377356529236,-0.02654915861785412,-0.000809788703918457,-0.007043302059173584,0.006529688835144043,0.3280191123485565,0.0214847382158041,0.04641031473875046,1.5393938593643606,-0.5631326606762048,2.597905737018644
1687099163.072834,0.8476027250289917,0.529081404209137,-0.04053160548210144,0.0029528141021728516,0.0040607452392578125,-0.0004076957702636719,1.1718319654464722,0.12718011438846588,0.15229420363903046,1.523013617109456,-0.5575176493953836,2.5609737425534047
1687099163.1356869,0.855486273765564,0.5100386738777161,-0.08946377784013748,0.01469188928604126,0.061464011669158936,0.014253266155719757,3.596909999847412,0.4443966746330261,0.36780625581741333,1.4665985474717456,-0.5352297683070594,2.4262690263603464
1687099163.1652179,0.8698150515556335,0.46148449182510376,-0.17451076209545135,-0.0026274919509887695,0.017992466688156128,0.10319121181964874,5.344605445861816,0.8926481008529663,0.4621000587940216,1.372795316059029,-0.4796677852616492,2.1670954996032528
1687099163.2206779,0.8933270573616028,0.3706989884376526,-0.25406545400619507,0.013579130172729492,0.05108445882797241,0.11498165130615234,7.108494758605957,1.3892320394515991,0.5469899773597717,1.2937088164614128,-0.37976153087240744,1.8401617545685303
1687099163.277563,0.9228284358978271,0.2518048584461212,-0.29151687026023865,0.04068785905838013,-0.012104600667953491,0.21766439080238342,6.869516849517822,1.840112328529358,0.3109073042869568,1.26482152938267,-0.25454475891909895,1.4871202258344989
1687099163.3596091,0.9529643058776855,0.14353320002555847,-0.266941100358963,0.031792283058166504,-0.05509328842163086,0.2199745774269104,6.727849960327148,2.082930564880371,0.16878409683704376,1.2976795325439088,-0.14403066122128252,1.1592786759137717
1687099163.376276,0.9793586134910583,0.06796683371067047,-0.19036135077476501,0.039623379707336426,-0.07669490575790405,0.2644733786582947,5.780188083648682,2.3864173889160156,-0.1401991844177246,1.3788166873223162,-0.06801927310987696,0.8497459546483013
1687099163.426591,0.9960067272186279,0.04450741037726402,-0.07739266753196716,0.04543614387512207,0.06700378656387329,0.2805635929107666,6.800261497497559,2.7313685417175293,-0.6182357668876648,1.4932491869673508,-0.044522117288536604,0.5433211176206094
1687099163.4659328,0.9953725934028625,0.09080759435892105,0.03142588958144188,0.21640419960021973,-0.07600659877061844,0.2414318323135376,4.8531975746154785,2.361773729324341,-1.5598583221435547,1.6023578266093852,-0.09093285708571912,0.22868212810491284
1687099163.5245981,0.9745953679084778,0.19386261701583862,0.11216694116592407,0.219435453414917,-0.12026949226856232,0.09304869174957275,2.9946773052215576,1.7334973812103271,-2.212062358856201,1.6853829475410314,-0.19509794293830013,0.04640438067941997
1687099163.5653338,0.933734118938446,0.3288390636444092,0.14144019782543182,0.2981231212615967,0.062426745891571045,0.01683923602104187,2.1061272621154785,0.9525386691093445,-2.784092664718628,1.7211314503853643,-0.33507401523154146,-0.06682687858710139
1687099163.6681771,0.8726869225502014,0.4709374010562897,0.1289788782596588,0.3379911780357361,0.08457401394844055,-0.18635179102420807,1.1131305694580078,0.08314590901136398,-2.8420307636260986,1.7175292247229714,-0.4903531041094129,-0.13867673838824401
1687099163.681823,0.7965558767318726,0.5915014147758484,0.12499883770942688,0.18455368280410767,-0.18622803688049316,-0.14959588646888733,-0.7642228603363037,-0.3286917805671692,-2.794959306716919,1.7264510673979776,-0.6329196406697774,-0.10991366568283345
1687099163.734741,0.7170872688293457,0.6858215928077698,0.12423878163099289,0.15232831239700317,-0.18386828899383545,-0.12695464491844177,-0.09579204767942429,-0.43522053956985474,-2.3500850200653076,1.7423481124192752,-0.7557320327721923,-0.05580844846454687
1687099163.7794209,0.6438068151473999,0.7558902502059937,0.11892513930797577,0.16359686851501465,-0.3204042911529541,-0.07052408158779144,-0.5466692447662354,-0.38667285442352295,-1.8914902210235596,1.7534590600836473,-0.8570128855741911,-0.011542172353439214
1687099163.8438392,0.5776190161705017,0.8074852824211121,0.11968347430229187,0.23442333936691284,-0.13969957828521729,-0.11670780181884766,-0.1899760663509369,-0.4746547341346741,-1.6163097620010376,1.7751066423473523,-0.9398765773233442,0.042826935142803016
1687099163.888541,0.5228239893913269,0.8450210094451904,0.11222672462463379,0.16505759954452515,-0.21963948011398315,-0.08096134662628174,0.05958795174956322,-0.417779803276062,-1.146693229675293,1.7822426129547626,-1.0066044195266524,0.07997702199290294
1687099163.9199948,0.4848121404647827,0.8691022992134094,0.09807353466749191,0.13219228386878967,-0.2657545208930969,-0.05290735512971878,-0.028703028336167336,-0.45571672916412354,-0.7836664319038391,1.7703946014887804,-1.053384524618563,0.08921885431645916
1687099163.978557,0.4597054123878479,0.8834661245346069,0.09032595157623291,0.06635665893554688,-0.21272021532058716,-0.12078237533569336,-0.061793070286512375,-0.5317699909210205,-0.44758814573287964,1.7648113436896897,-1.0832098455387718,0.11085895710392209
1687099164.0200372,0.4443191885948181,0.8931427001953125,0.06983455270528793,-0.06748807430267334,-0.01058948040008545,-0.03959155082702637,0.3871186673641205,-0.3446483612060547,-0.4012117385864258,1.7266930116902206,-1.1042846633616732,0.0937020666899966
1687099164.070588,0.42593279480934143,0.9032281041145325,0.05254245176911354,-0.11561465263366699,-0.09811317920684814,0.0856717899441719,0.15226276218891144,-0.15772895514965057,-0.4344575107097626,1.6935348047160914,-1.1272328813157866,0.06946385192253512
1687099164.144174,0.4122169017791748,0.9104781150817871,0.0332760252058506,0.0001977384090423584,-0.10867428779602051,-0.03925728425383568,0.47466981410980225,-0.20306776463985443,-0.1325216144323349,1.6513462166866921,-1.1444386321241191,0.03233002330824746
1687099164.1660562,0.4093238413333893,0.9122475981712341,0.01608278974890709,-0.07813170552253723,-0.0968787670135498,0.10884106159210205,0.2981475293636322,-0.03481355309486389,-0.018319547176361084,1.610067240278018,-1.1487377624997046,-0.0066570882786709295
1687099164.2348409,0.4080484211444855,0.9129428267478943,0.005666681565344334,-0.008359670639038086,-0.009469866752624512,0.056329965591430664,0.059698741883039474,0.0011486175935715437,-0.05619555711746216,1.5846827116244175,-1.1504380837517132,-0.03458276213049211
1687099164.27394,0.40563222765922546,0.9140343070030212,0.001995973289012909,0.01831802725791931,0.032773613929748535,-0.03440546989440918,0.19260965287685394,-0.03843558579683304,-0.051869653165340424,1.5757169345236186,-1.1531208069978072,-0.04269035138786918
1687099164.340599,0.40244993567466736,0.9154095649719238,-0.007724191527813673,0.027069777250289917,0.018931984901428223,-0.009334981441497803,0.04009174928069115,-0.10758598148822784,-0.08246005326509476,1.5516057569910446,-1.156524223184526,-0.06543705064546716
1687099164.382567,0.3987313210964203,0.9169904589653015,-0.011927638202905655,0.017803221940994263,0.011842727661132812,0.0006514769047498703,-0.003116974141448736,-0.11579488962888718,-0.0935126319527626,1.5408912713806238,-1.1604693744682035,-0.06965055533457186
1687099164.430605,0.3944518566131592,0.9188082218170166,-0.014125680550932884,0.011538773775100708,0.005203127861022949,0.039226531982421875,0.05148075893521309,-0.04588351771235466,-0.04102432727813721,1.5350007125256357,-1.1650503241194654,-0.07236866901391685
1687099164.476252,0.3943134844303131,0.9187923073768616,-0.018370917066931725,-0.00719800591468811,0.0008701086044311523,0.03523200750350952,0.19173666834831238,-0.02615264616906643,0.028768204152584076,1.5242403679267262,-1.1650100247129866,-0.08266707202942569
1687099164.5173512,0.39637359976768494,0.9177908301353455,-0.023414308205246925,0.01741430163383484,-0.022374451160430908,0.0117262601852417,-0.0593395009636879,-0.08642839640378952,0.027614055201411247,1.511793580606534,-1.162480381035904,-0.09256041004831021
1687099164.582968,0.3977736830711365,0.9171547293663025,-0.024561047554016113,-0.006782472133636475,0.014089107513427734,0.0008032359182834625,0.09549535065889359,-0.042738545686006546,0.033939264714717865,1.5091283347301514,-1.1608814250072277,-0.09215163522056175
1687099164.661066,0.3995993733406067,0.9162382483482361,-0.02877640165388584,-0.011507272720336914,-0.005822539329528809,0.00997769832611084,0.07130852341651917,-0.02578062377870083,0.03115379624068737,1.49890729458736,-1.158587768811672,-0.10181182005250616
1687099164.675236,0.40017032623291016,0.9158665537834167,-0.03244183212518692,0.007117360830307007,0.025799274444580078,-0.004469040781259537,0.04818962141871452,-0.07131490856409073,-0.006806102581322193,1.4899031767642863,-1.1576610603691972,-0.10845441453883549
1687099164.722533,0.3992357552051544,0.9161869287490845,-0.034819651395082474,0.023310720920562744,0.00014913082122802734,0.01794356107711792,0.008204390294849873,-0.001112095545977354,-0.02126912958920002,1.483800696640099,-1.1584597961207017,-0.11300781047714019
1687099164.771409,0.39792099595069885,0.916747510433197,-0.03511533513665199,0.0026680827140808105,-0.0009454488754272461,0.002324342727661133,0.05989634618163109,0.004930861294269562,-0.02005239948630333,1.4827773382827703,-1.1598608583792527,-0.11489489231705557
1687099164.877672,0.39826104044914246,0.9164777994155884,-0.03816624730825424,-0.00868883728981018,-0.015583634376525879,-0.0126454196870327,0.04263826459646225,-0.04159422963857651,0.02267688885331154,1.4752558543391139,-1.1591861981511242,-0.12208059616879596
1687099164.892844,0.3989723026752472,0.9160817265510559,-0.040197353810071945,-0.0022436678409576416,-0.006718754768371582,-0.00917995348572731,0.04611262306571007,-0.03649454191327095,-0.0039760274812579155,1.4703829384152987,-1.1581972591241683,-0.12494110930823633
1687099164.9475842,0.3990308940410614,0.9158207774162292,-0.04524243250489235,0.002382129430770874,-0.008670449256896973,0.0064699649810791016,0.10226511210203171,-0.0018371855840086937,-0.0034997209440916777,1.45789767394844,-1.1575470708289508,-0.13714389709644256
1687099164.9944692,0.39821669459342957,0.9159951210021973,-0.04874992370605469,0.01726493239402771,0.012273311614990234,0.0016003847122192383,0.08766566216945648,-0.006951830815523863,-0.0028103620279580355,1.4489818584873737,-1.157981438061565,-0.14758323446434526
1687099165.025649,0.39877432584762573,0.915601372718811,-0.051511313766241074,0.0007313787937164307,-0.00979381799697876,0.013227105140686035,0.024994822219014168,-0.033122025430202484,0.004345219116657972,1.4423335889054703,-1.1570010595364164,-0.15346492704266407
1687099165.0734,0.39920344948768616,0.9153119325637817,-0.05329789221286774,-0.009814441204071045,0.010103106498718262,0.00790310651063919,0.016435688361525536,-0.012039312161505222,-0.0001587853766977787,1.438070629656702,-1.1562817641341656,-0.15692185968918845
1687099165.123087,0.39960265159606934,0.9150071740150452,-0.055494558066129684,0.008325845003128052,0.003022611141204834,0.0032790936529636383,0.03988482058048248,-0.025339316576719284,-0.0026507051661610603,1.432804567825783,-1.155525695571799,-0.16157100070002542
1687099165.188873,0.39955204725265503,0.9149410128593445,-0.05693235620856285,-0.011261582374572754,-0.013589024543762207,0.008867263793945312,0.025391099974513054,0.0009046497289091349,0.008955683559179306,1.4292586361038346,-1.1553617194321735,-0.16453631094355042
1687099165.25611,0.401138573884964,0.9141548871994019,-0.05838770046830177,1.5050172805786133e-05,0.0010063648223876953,0.02329254150390625,0.04396585002541542,0.024697909131646156,0.05956413224339485,1.4262564373159206,-1.153418108400461,-0.16888484283245578
1687099165.2748451,0.4056376814842224,0.9121969938278198,-0.057922378182411194,-0.0030497312545776367,-0.030727148056030273,0.01562511920928955,-0.0106483930721879,0.05780443921685219,0.12908534705638885,1.428961756696049,-1.1486142115505524,-0.1680041578416512
1687099165.32169,0.4149787425994873,0.9080579280853271,-0.056775253266096115,-0.013199567794799805,-0.062110722064971924,0.02496076375246048,0.03626425564289093,0.18011535704135895,0.2909797132015228,1.4348256695389863,-1.1386237560803505,-0.16800348181129807
1687099165.397532,0.4372042417526245,0.8980893492698669,-0.047835931181907654,-0.03659987449645996,-0.16183733940124512,0.08827178925275803,-0.07578451931476593,0.40572595596313477,0.6582995057106018,1.4618165879525868,-1.1154058156538273,-0.153711073185003
1687099165.425554,0.4760107398033142,0.878616452217102,-0.03804249316453934,-0.013226836919784546,-0.2058868408203125,0.05795532464981079,0.059276629239320755,0.619763195514679,1.0593996047973633,1.4910464277512168,-1.0729570714819467,-0.14934458489083333
1687099165.476099,0.5325406789779663,0.8462839126586914,-0.014289237558841705,-0.04297757148742676,-0.2788248062133789,0.09937238693237305,-0.23311874270439148,0.8463220596313477,1.496753215789795,1.5439705627136175,-1.0089706411662007,-0.13188182180908647
1687099165.5346398,0.6044591069221497,0.7965695261955261,0.010315251536667347,-0.012143373489379883,-0.12988245487213135,-0.00889599323272705,0.04631609097123146,1.0325762033462524,1.9459657669067383,1.5878599294642717,-0.9215993404345748,-0.13683911424751022
1687099165.576283,0.6858131289482117,0.7255353331565857,0.05709068849682808,0.01003354787826538,-0.24787408113479614,0.02927423268556595,-0.3273184895515442,1.0369257926940918,2.3942627906799316,1.6538500891740309,-0.8118119439403345,-0.1188923000800369
1687099165.644826,0.7703660130500793,0.6292371153831482,0.10294146090745926,0.030415236949920654,-0.1167401671409607,-0.11519421637058258,-0.6912921667098999,1.0034624338150024,2.825559139251709,1.7036360837208337,-0.6805712265560878,-0.12336128219431469
1687099165.693146,0.8487553596496582,0.5009584426879883,0.16927805542945862,0.15574592351913452,-0.06144434213638306,-0.14281919598579407,-1.100894808769226,0.5429827570915222,3.0484206676483154,1.7676559722490135,-0.5247058182154568,-0.08032684589554376
1687099165.7314758,0.9157240390777588,0.3418140709400177,0.21121765673160553,0.2088640332221985,-0.1373157799243927,-0.3734031915664673,-3.058993101119995,-0.037371523678302765,3.156766653060913,1.7974880836799503,-0.3488465557385418,-0.0254034403232743
1687099165.792132,0.9556614756584167,0.1588945835828781,0.24791865050792694,0.4021875858306885,0.1525067538022995,-0.043847471475601196,-4.564483165740967,-1.0512620210647583,2.5981228351593018,1.8246219533326093,-0.15957090863608628,0.14122364811324506
1687099165.837868,0.9833253026008606,-0.011155287735164165,0.18151330947875977,0.2865264415740967,0.17990219593048096,-0.08417737483978271,-5.8067240715026855,-2.0653762817382812,1.87848961353302,1.75333289102084,0.011155519131536302,0.35796856151526957
1687099165.8862329,0.993547260761261,-0.10801060497760773,0.034609321504831314,0.3396437168121338,0.27636075019836426,0.037198662757873535,-6.933490753173828,-2.959650754928589,0.4454846680164337,1.6056163446946987,0.10822172545466073,0.6725370509799845
1687099165.942548,0.9864241480827332,-0.07737892866134644,-0.14484524726867676,0.1073717474937439,0.003785759210586548,0.30944186449050903,-7.96725606918335,-2.696338415145874,-0.759469211101532,1.4249995312815098,0.07745635774307438,1.055441344483571
1687099165.986223,0.9613884687423706,0.054159242659807205,-0.26981303095817566,0.061438679695129395,0.0613802932202816,0.29105332493782043,-6.635895252227783,-1.9694968461990356,-1.2715643644332886,1.297185596190359,-0.05418575351341032,1.3960858650270513
1687099166.024852,0.9295369386672974,0.20460258424282074,-0.3067554533481598,0.07383531332015991,-0.05979670584201813,0.19300124049186707,-4.784432411193848,-1.173109769821167,-1.2919021844863892,1.2520407596972492,-0.20605768514973913,1.6614496754307384
1687099166.073844,0.9005979895591736,0.3156232535839081,-0.2988400161266327,0.06922018527984619,-0.1196088194847107,0.021099597215652466,-3.057976007461548,-0.6610140800476074,-1.0494016408920288,1.250404783278192,-0.3211133967899295,1.8281272089342804
1687099166.1361852,0.8765659332275391,0.39815205335617065,-0.2703832685947418,0.10133928060531616,-0.18547505140304565,0.0343298614025116,-2.5727133750915527,-0.36795103549957275,-0.8090893030166626,1.2715986028694746,-0.4095014507850274,1.9566596054024687
1687099166.180234,0.8572713136672974,0.4587392508983612,-0.23376120626926422,0.03997600078582764,-0.11849874258041382,0.003567114472389221,-1.972931981086731,-0.1931382417678833,-0.682249903678894,1.304587778035227,-0.4765758195512463,2.0650171765568723
1687099166.246429,0.8419902324676514,0.5027232766151428,-0.19575941562652588,0.04807019233703613,-0.13050037622451782,0.001225203275680542,-1.6062957048416138,-0.07258252799510956,-0.4862966537475586,1.3423585852767854,-0.5267462283112396,2.157167663528296
1687099166.293874,0.8308699727058411,0.5319084525108337,-0.16348879039287567,0.051774680614471436,-0.09424066543579102,-0.03046564757823944,-1.0715076923370361,0.015380882658064365,-0.32774484157562256,1.376510198202561,-0.5608527252324891,2.226958201337946
1687099166.381878,0.823564350605011,0.5498992800712585,-0.13911354541778564,0.022337138652801514,-0.09952086210250854,-0.056076809763908386,-0.8137968182563782,0.0196287352591753,-0.2387600541114807,1.4034595031284205,-0.5822436393410468,2.275511409592045
1687099166.397067,0.8189007639884949,0.5615531206130981,-0.1185736209154129,0.024971365928649902,-0.048308491706848145,-0.027513980865478516,-0.378287136554718,0.06646130979061127,-0.13123251497745514,1.4269996315272593,-0.5962616169956549,2.3140546073232655
1687099166.434376,0.8163415789604187,0.5674471855163574,-0.10765790194272995,0.018756747245788574,-0.07120084762573242,-0.024635791778564453,-0.2833997905254364,0.06129664182662964,-0.06593366712331772,1.4396744876244532,-0.6034022583175217,2.3302653607734185
1687099166.476173,0.8150237202644348,0.5713008642196655,-0.09670516103506088,0.005456686019897461,-0.04040169715881348,-0.013447999954223633,-0.3441579341888428,0.05443793535232544,-0.03578109294176102,1.4526953082169083,-0.6080899484120046,2.348146971356298
1687099166.575531,0.8149070739746094,0.57297283411026,-0.08734261989593506,0.0068703293800354,-0.009679317474365234,-0.037931978702545166,-0.22155503928661346,0.002512156032025814,-0.007301783189177513,1.4640228605920396,-0.6101285857449188,2.364992260038501
1687099166.590681,0.8150416016578674,0.5736569166183472,-0.08139583468437195,0.0052100419998168945,-0.018023252487182617,-0.018121905624866486,-0.2179432511329651,-0.032614562660455704,0.03717254102230072,1.4712592701230942,-0.6109635089520976,2.379608583794094
1687099166.677546,0.8159028887748718,0.572425127029419,-0.08143969625234604,-0.0054168701171875,0.025933146476745605,-0.027645297348499298,-0.025524012744426727,-0.03052244707942009,0.02721797674894333,1.471310427129296,-0.6094604406470202,2.383544267717123
1687099166.693243,0.8166233897209167,0.5712751150131226,-0.08228804916143417,-0.0013309717178344727,0.011870086193084717,0.008771240711212158,0.04846925660967827,-0.01570255681872368,0.029633797705173492,1.4703691027955161,-0.6080586037651073,2.384265570644151
1687099166.732928,0.8170681595802307,0.5700848698616028,-0.08604007959365845,0.0013064742088317871,0.015425324440002441,0.01188243180513382,0.030806105583906174,-0.01252194307744503,0.013827404007315636,1.4658795567922513,-0.6066091848195202,2.378387958694474
1687099166.78351,0.8173074722290039,0.5699057579040527,-0.08494721353054047,-0.0008859634399414062,0.008738100528717041,0.0063187554478645325,0.019187266007065773,-0.001936477143317461,0.007365044206380844,1.4672327356582862,-0.6063911250330967,2.3806267588095604
1687099166.855795,0.8172934651374817,0.5698457360267639,-0.0854833647608757,-0.00036835670471191406,0.01020193099975586,0.008136570453643799,-0.024231845512986183,-0.019766872748732567,0.007762387860566378,1.466582019791805,-0.6063180838349183,2.3806233355552524
1687099166.891037,0.8172547221183777,0.5697551369667053,-0.08645227551460266,0.00438535213470459,0.020836353302001953,-0.004032313823699951,0.043820708990097046,-0.00846974365413189,-0.011600124649703503,1.4654045270834863,-0.6062078641076899,2.379508314382026
1687099166.9295092,0.8166465759277344,0.5705668330192566,-0.08684532344341278,-0.0015830397605895996,0.002675473690032959,0.008735597133636475,0.04175436124205589,0.002317856065928936,-0.013140430673956871,1.4648506844493017,-0.607195872468801,2.3784015176583613
1687099166.984618,0.8162015676498413,0.5709172487258911,-0.08870478719472885,-0.0005887746810913086,-0.007394909858703613,-0.001993410289287567,0.047727830708026886,-0.024979544803500175,0.008246617391705513,1.4625412078754692,-0.6076226361401587,2.375282789857932
1687099167.038316,0.8165279626846313,0.5701907873153687,-0.09035947173833847,0.0036625266075134277,-0.003219902515411377,0.003887951374053955,0.0468098409473896,-0.026165073737502098,0.02240005135536194,1.4605817237978955,-0.6067381013110019,2.3734280906607172
1687099167.079951,0.8170608878135681,0.5691887140274048,-0.09184790402650833,0.003938436508178711,-0.004888057708740234,0.010961048305034637,0.03410789370536804,-0.015991264954209328,0.020266328006982803,1.4588537213941273,-0.6055188255036543,2.3716823113333345
1687099167.174335,0.8176238536834717,0.5681343674659729,-0.09335228055715561,0.0027039647102355957,0.0007743239402770996,0.0012655332684516907,0.017384571954607964,-0.015904424712061882,0.023204129189252853,1.457113518048997,-0.6042370247583114,2.3695683479932077
1687099167.181417,0.8184037208557129,0.5669390559196472,-0.09378517419099808,0.0008559823036193848,-0.002379119396209717,0.007954485714435577,0.028458528220653534,-0.01021149568259716,0.02656923234462738,1.4566987929241841,-0.6027852531158181,2.3695858388487063
1687099167.2777271,0.8189796805381775,0.5659942030906677,-0.09446142613887787,-0.0009407401084899902,0.0020294785499572754,0.006235130131244659,-0.0032195060048252344,-0.008675850927829742,0.02098238654434681,1.4559633791106268,-0.6016386988012975,2.368848436351204
1687099167.293141,0.819486677646637,0.5650773048400879,-0.09554906189441681,0.0014820694923400879,0.014100611209869385,-0.0010848045349121094,0.052238427102565765,-0.005528171546757221,0.010620025917887688,1.4547241810168892,-0.600526922132744,2.3671886333743606
1687099167.3627582,0.8196179270744324,0.5648619532585144,-0.09569545090198517,0.00042003393173217773,0.003314375877380371,0.00576019287109375,-0.03590448200702667,-0.011628608219325542,0.002963637001812458,1.4545663951652186,-0.6002659583773545,2.3670686495655584
1687099167.381696,0.8195950984954834,0.5648511648178101,-0.09595408290624619,0.00021392107009887695,0.015623688697814941,0.00392836332321167,0.04672994464635849,-0.011496070772409439,0.006262228824198246,1.454251883103081,-0.6002528925449312,2.3673327815609824
1687099167.4572492,0.8193730711936951,0.5649796724319458,-0.0970870852470398,0.003823399543762207,0.005302369594573975,0.003108203411102295,0.02627074159681797,0.000309299910441041,-0.010834399610757828,1.4528567517000164,-0.6004086168841821,2.365233460396513
1687099167.4925451,0.8189651370048523,0.5655007362365723,-0.0974944606423378,0.0059250593185424805,0.005635678768157959,0.0030883625149726868,0.00033501526922918856,0.00040852511301636696,-0.00887411367148161,1.452308033376492,-0.6010402953908666,2.3639321869506693
1687099167.5815392,0.8188146352767944,0.5655357837677002,-0.09854944795370102,-7.37905502319336e-05,-0.00155562162399292,-0.001273512840270996,0.04528704285621643,-0.007751178927719593,0.0045318398624658585,1.451016241528506,-0.6010827966567556,2.3621754750088284
1687099167.596725,0.8188613057136536,0.5651876926422119,-0.10014539211988449,0.0054489970207214355,-0.009477853775024414,0.00578511506319046,0.023703722283244133,-0.010217864066362381,0.008913072757422924,1.4491022827502844,-0.6006607337679013,2.3597626473352453
1687099167.653449,0.8194027543067932,0.5641831755638123,-0.10137461125850677,0.0077610015869140625,-0.0072983503341674805,0.005030691623687744,0.08271138370037079,0.005067237187176943,0.02769548073410988,1.447704120683392,-0.5994435827631979,2.3574563613178046
1687099167.701253,0.8206148147583008,0.5620201230049133,-0.1035609021782875,0.0023070573806762695,-0.010658979415893555,0.009933054447174072,0.1631777286529541,0.044383659958839417,0.03203243762254715,1.4452607861998723,-0.5968260931262707,2.3507547420002557
1687099167.740242,0.8220517039299011,0.5592502355575562,-0.10710001736879349,0.004089713096618652,-0.012039482593536377,0.013273775577545166,0.3052520155906677,0.08930433541536331,0.043454136699438095,1.4412422563065297,-0.5934810976973041,2.3379827936318884
1687099167.803802,0.8248593211174011,0.5530550479888916,-0.11720684915781021,0.015045523643493652,0.009429752826690674,0.011692404747009277,0.8989042043685913,0.19634398818016052,0.0845893919467926,1.4296480797048423,-0.5860266704692603,2.303250259246545
1687099167.8793201,0.8292530179023743,0.5416905283927917,-0.13751767575740814,-0.0011432170867919922,-0.028140664100646973,0.01979619264602661,1.5352381467819214,0.35057348012924194,0.14558689296245575,1.406458700705798,-0.5724469523423334,2.2371696536682073
1687099167.8939939,0.8380264639854431,0.5161005854606628,-0.17706458270549774,-0.004148900508880615,0.04153186082839966,0.0656755119562149,3.123263120651245,0.715114951133728,0.21786795556545258,1.3625712640841496,-0.5422920930548636,2.1059200017989745
1687099167.943922,0.8537247180938721,0.4652291238307953,-0.23391509056091309,0.029652535915374756,-0.008899658918380737,0.07273653149604797,4.129904747009277,1.0973541736602783,0.3039363920688629,1.3033660288691356,-0.4838934198586171,1.895979564490536
1687099167.9844131,0.8760855197906494,0.3973868787288666,-0.2730533182621002,0.04813939332962036,0.0022560954093933105,0.1251193881034851,4.865115165710449,1.4813185930252075,0.2513902485370636,1.2686638850371368,-0.4086674663703122,1.6652754834643806
1687099168.053453,0.9041580557823181,0.3090869188308716,-0.2948962450027466,0.02345442771911621,-0.000706791877746582,0.1461077630519867,5.358623504638672,1.7122553586959839,0.2800684869289398,1.2555195664687662,-0.31423279857491865,1.3981410262934444
1687099168.0898309,0.9349263906478882,0.22742393612861633,-0.27238014340400696,0.02060943841934204,-0.08821798861026764,0.1763109266757965,4.702823162078857,2.1285834312438965,0.26991209387779236,1.2873045990490606,-0.2294314710046192,1.1598509700842508
1687099168.181346,0.9648385047912598,0.1503317505121231,-0.2156088501214981,0.04552227258682251,0.094159796833992,0.14349587261676788,5.884130954742432,2.3395419120788574,0.12535712122917175,1.350942210415546,-0.15090382462148783,0.8983326494052535
1687099168.196567,0.9863518476486206,0.10985830426216125,-0.12264293432235718,0.06137770414352417,-0.04908258467912674,0.23796898126602173,5.2591118812561035,2.8229167461395264,-0.43819186091423035,1.447091285420487,-0.1100804889946839,0.6216595358444311
1687099168.235265,0.9919224977493286,0.12645773589611053,-0.009915947914123535,0.15656083822250366,0.04859106242656708,0.2669656276702881,6.251814365386963,2.99117112159729,-1.1537281274795532,1.5607999638635368,-0.12679723252513941,0.3238729220541077
1687099168.292964,0.9728719592094421,0.21843281388282776,0.0762077197432518,0.2759685516357422,-0.09108294546604156,0.19782495498657227,4.576714038848877,2.2779252529144287,-2.1027421951293945,1.648969427132988,-0.22020821977653127,0.04620548933370438
1687099168.335787,0.9291918873786926,0.353014200925827,0.10946924239397049,0.3063885569572449,0.16013887524604797,0.05848442763090134,2.8452529907226562,1.3205010890960693,-2.759188413619995,1.6880670041988832,-0.36079075375860625,-0.13916248885308957
1687099168.4032888,0.8627593517303467,0.49368739128112793,0.1091751903295517,0.2557709813117981,-0.07146143913269043,-0.13572537899017334,1.027199149131775,0.3353119194507599,-2.951646089553833,1.6966691872037114,-0.5163248031140613,-0.21376985882990168
1687099168.487577,0.7821153998374939,0.6162844896316528,0.09213544428348541,0.16379213333129883,-0.07261383533477783,-0.22564971446990967,0.20819634199142456,-0.28830739855766296,-2.79179310798645,1.6880587552171904,-0.6640159455012447,-0.23019529732895327
1687099168.530881,0.6947795152664185,0.7149753570556641,0.07805216312408447,0.1335592269897461,-0.2063692808151245,-0.19920682907104492,-0.20301784574985504,-0.6012549996376038,-2.54190731048584,1.6826681857587826,-0.7965888849526294,-0.20367512540750324
1687099168.5435572,0.6111167669296265,0.789271891117096,0.059885650873184204,0.18070757389068604,-0.18696171045303345,-0.14498376846313477,-0.008184170350432396,-0.6201549768447876,-1.9290342330932617,1.6684782411587282,-0.9096222968045835,-0.1804947786525909
1687099168.6105618,0.5355114936828613,0.8429892063140869,0.050961434841156006,0.22379648685455322,-0.21092426776885986,-0.06187128275632858,-0.18939204514026642,-0.6585012078285217,-1.7147635221481323,1.665674637331526,-1.0028161688358996,-0.1435263159298342
1687099168.6385431,0.4745011031627655,0.8795782923698425,0.0345122255384922,0.19984596967697144,-0.3327488899230957,-0.08684980869293213,0.15087871253490448,-0.5871181488037109,-1.143018126487732,1.6434021829275827,-1.0749751216540193,-0.13029050652520452
1687099168.6891952,0.4368005692958832,0.8993833065032959,0.017751064151525497,0.15237188339233398,-0.3869321346282959,-0.0002949237823486328,0.0707165002822876,-0.32673612236976624,-0.5018391013145447,1.6114128103076897,-1.118356824478902,-0.14212127302828384
1687099168.776373,0.42634257674217224,0.9043101668357849,0.021332019940018654,0.17966020107269287,-0.3943004608154297,-0.21699535846710205,-0.23866504430770874,-0.5202881097793579,0.13978393375873566,1.6207895643922734,-1.1297609760197236,-0.10696781624638442
1687099168.795277,0.4329662322998047,0.9014011025428772,-0.00403721584007144,-0.12780573964118958,0.03397786617279053,0.09090560674667358,0.47833698987960815,-0.047058235853910446,0.1079435870051384,1.5614720457675118,-1.1229945456142696,-0.1565908873875813
1687099168.836868,0.436239629983902,0.8996360301971436,-0.01870855689048767,-0.04939880967140198,0.08696675300598145,0.12480306625366211,0.22774286568164825,0.16623423993587494,-0.0009054024703800678,1.527936624333614,-1.1189351921602075,-0.19613216484389084
1687099168.8885698,0.4336753785610199,0.9008713960647583,-0.01888578198850155,-0.016118556261062622,0.08591455221176147,0.024089157581329346,-0.041399382054805756,0.007733549457043409,-0.01900504343211651,1.5272756240457166,-1.121772767575803,-0.20149897555013097
1687099168.958348,0.4314146637916565,0.9020301103591919,-0.01494313683360815,0.0041474997997283936,-0.03444582223892212,0.07921326160430908,-0.019901013001799583,-0.030180031433701515,-0.02128291316330433,1.5361726423091073,-1.1244495731655884,-0.18989836806710514
1687099168.995817,0.4308091700077057,0.9022852182388306,-0.01687934435904026,0.003791630268096924,0.0001348257064819336,-0.03735029697418213,0.06411612778902054,-0.024573523551225662,0.011315843090415001,1.5316357985321265,-1.1250408329818902,-0.19331101057106623
1687099169.075458,0.4306586682796478,0.90231853723526,-0.01883280836045742,-0.035959482192993164,-0.026906490325927734,-0.016918420791625977,-0.02283288724720478,-0.001873737433925271,-0.017451955005526543,1.5270939274113084,-1.1251181953875427,-0.19782177697411954
1687099169.10134,0.4299202561378479,0.9026871919631958,-0.018018195405602455,-0.004123657941818237,-0.007438719272613525,0.019361140206456184,0.11088549345731735,0.030009960755705833,0.006591262761503458,1.5289102850481244,-1.1259741051056391,-0.19655397696010737
1687099169.141648,0.42982667684555054,0.9026668071746826,-0.021018000319600105,-0.005418717861175537,0.008450806140899658,0.036948323249816895,0.01038551889359951,0.014308471232652664,-0.00386597216129303,1.5219364661368358,-1.1259267863401814,-0.20537196178467468
1687099169.214363,0.4295247793197632,0.9028475880622864,-0.019361980259418488,0.018152892589569092,0.010970830917358398,-0.0016797780990600586,-0.13472241163253784,-0.028619175776839256,-0.0424436591565609,1.5257491440875148,-1.1263470988324167,-0.20081296551154731
1687099169.250745,0.42733290791511536,0.9039271473884583,-0.017387891188263893,0.0034837424755096436,0.003513038158416748,-0.006461499258875847,0.020461589097976685,-0.030538827180862427,-0.019589874893426895,1.5301294252475597,-1.1288645248426825,-0.1947750298922433
1687099169.290166,0.4265402555465698,0.9042931795120239,-0.01782301254570484,0.00030925869941711426,0.0021248459815979004,0.0021218638867139816,0.020274901762604713,-0.025166453793644905,-0.007348188664764166,1.5290355547733627,-1.1297211198656218,-0.19501263061255308
1687099169.368978,0.426433801651001,0.9043379426002502,-0.01809316873550415,-0.015392482280731201,-0.011393547058105469,0.018673062324523926,-0.01133735291659832,-0.038764044642448425,0.0011432338505983353,1.5283927385403286,-1.1298260136686014,-0.19383617050819696
1687099169.4147902,0.4261695146560669,0.9044957160949707,-0.016348209232091904,0.005257546901702881,0.010161995887756348,0.0012421607971191406,-0.07471712678670883,-0.03828238695859909,-0.01861668936908245,1.5324543134192323,-1.130195796442918,-0.1868736302856991
1687099169.453587,0.4254264235496521,0.9048423767089844,-0.01652352698147297,0.008854031562805176,-0.006725192070007324,-0.012345969676971436,0.00908935908228159,-0.024819843471050262,-0.006776541005820036,1.5319759209060548,-1.1310093839747934,-0.18603843615481372
1687099169.492134,0.4250849485397339,0.9049899578094482,-0.01721525378525257,0.011606484651565552,-0.001242220401763916,-0.0023921746760606766,0.010714152827858925,-0.003893057117238641,-0.004979373421519995,1.53032005988556,-1.1313561171499882,-0.18722187122071762
1687099169.541809,0.4250054955482483,0.9050337672233582,-0.01686839759349823,0.008695125579833984,-0.001209855079650879,0.0008162260055541992,0.00873409304767847,-0.0059225186705589294,0.0008237878791987896,1.531127311536705,-1.1314590872594927,-0.18623902148127772
1687099169.613208,0.42516037821769714,0.9049531817436218,-0.01727953366935253,-0.0007370710372924805,-0.01065075397491455,-0.0016412138938903809,-0.007713856641203165,-0.03311481326818466,-0.0022953064180910587,1.5301762932433354,-1.1312697298607954,-0.18603901558455735
1687099169.6813478,0.4254325032234192,0.9047929644584656,-0.018898220732808113,-0.0030538737773895264,-0.00022137165069580078,-0.0015789270401000977,0.009090689942240715,-0.019143294543027878,0.0013818531297147274,1.5264043150762103,-1.1308932542170584,-0.18835790255228232
1687099169.695952,0.42548060417175293,0.9047587513923645,-0.019448304548859596,0.006282210350036621,-0.0017129182815551758,-0.004355313256382942,-0.0013704730663448572,-0.011568731628358364,-0.0009614625014364719,1.5251190916360169,-1.1308129955700719,-0.18905513372742264
1687099169.758086,0.4252188205718994,0.9048752784729004,-0.019746102392673492,0.006666004657745361,0.00023043155670166016,0.0011914968490600586,0.02182592637836933,0.007264056243002415,-0.002774076536297798,1.5243921557384004,-1.1310866027212136,-0.18974573947214654
1687099169.812718,0.42516085505485535,0.9048784375190735,-0.02082107961177826,0.0012766122817993164,-0.00032204389572143555,0.005608201026916504,0.005941768176853657,0.013238148763775826,-0.006585592404007912,1.5218631803410636,-1.1310940019999802,-0.19282337561076365
1687099169.851893,0.4253155291080475,0.9047698378562927,-0.022323884069919586,0.00296822190284729,-0.0018157362937927246,-0.009872077032923698,0.03319070115685463,0.0004471852444112301,0.003588547930121422,1.518356626228623,-1.1308389602221214,-0.1971377417156282
1687099169.89272,0.42580875754356384,0.9045161008834839,-0.023189567029476166,-0.0002257823944091797,-0.0018213391304016113,0.005993068218231201,0.025158872827887535,0.001981476554647088,0.009469207376241684,1.516390019251776,-1.1302436729983787,-0.19924003342024826
1687099169.979584,0.4260149300098419,0.9043929576873779,-0.024185923859477043,-0.0010423362255096436,0.004435896873474121,-0.003859579563140869,0.026593783870339394,-0.008041085675358772,-0.003675156971439719,1.5140847207294026,-1.1299548725850628,-0.20161420518758616
1687099169.994648,0.4262130856513977,0.904275119304657,-0.02508251741528511,-0.001454085111618042,0.000723719596862793,0.013028144836425781,-0.01573316752910614,-0.024972110986709595,0.007767447270452976,1.5120144102913258,-1.129678875404531,-0.20305559664180495
1687099170.070613,0.426683247089386,0.9040627479553223,-0.02473653480410576,0.001219034194946289,-0.001612246036529541,0.0016043204814195633,-0.0007638050010427833,-0.020886266604065895,0.016560738906264305,1.5128871458553235,-1.1291817601500425,-0.2009476114134476
1687099170.109034,0.4274293780326843,0.9036991000175476,-0.025148535147309303,0.0023650825023651123,-0.0010652542114257812,0.0009939633309841156,-0.029253503307700157,-0.02117779292166233,0.008852486498653889,1.5120273730681264,-1.1283316421171774,-0.20058814062855138
1687099170.16404,0.4277338683605194,0.9035468697547913,-0.025437913835048676,0.004593461751937866,0.005342960357666016,-0.0031874775886535645,0.012088344432413578,-0.0019101561047136784,0.002283865585923195,1.511394934379447,-1.1279762826829018,-0.2005908169201742
1687099170.201642,0.42805734276771545,0.9034009575843811,-0.025173954665660858,-0.0012384653091430664,-0.0039716362953186035,0.003979625180363655,0.005050141829997301,0.008045539259910583,0.01191332284361124,1.5120542153485168,-1.1276357553272767,-0.20024115072938392
1687099170.282382,0.42889267206192017,0.9029942154884338,-0.025550387799739838,-0.0010209083557128906,0.0011653900146484375,0.0008770227432250977,-0.02109624072909355,-0.02051992528140545,0.01967737078666687,1.5112937300518086,-1.126688135056191,-0.20030326222158248
1687099170.317313,0.42971232533454895,0.9025789499282837,-0.02643338404595852,0.0001583397388458252,0.0003293752670288086,0.005025386810302734,0.03251186013221741,-0.00023083342239260674,0.022858981043100357,1.5093595986995867,-1.1257226643848883,-0.20183904869040925
1687099170.376848,0.431676983833313,0.9015859961509705,-0.0282480139285326,-0.002874433994293213,-0.012685179710388184,0.03345143795013428,0.043158113956451416,0.020496506243944168,0.0605258010327816,1.5054516398510593,-1.1234217758421619,-0.2063940374706511
1687099170.419176,0.43931660056114197,0.8977400064468384,-0.03261900693178177,0.00331038236618042,-0.0907483696937561,0.05511057749390602,0.17214512825012207,0.07474707067012787,0.3409852087497711,1.4966828897705136,-1.1146121359469097,-0.21847560524399157
1687099170.4592261,0.4681723713874817,0.8832917809486389,-0.02470930851995945,0.039457082748413086,-0.24785470962524414,0.05759209394454956,-0.38791313767433167,0.28178340196609497,0.8499897718429565,1.5180670212459828,-1.0828377853886648,-0.20412193280044064
1687099170.500091,0.5160744190216064,0.856543779373169,-0.0005237440927885473,-0.00018996000289916992,-0.24571913480758667,0.03537493944168091,-0.08292978256940842,0.6343058347702026,1.3616459369659424,1.5697814655511952,-1.028534799947814,-0.17138164924108865
1687099170.587012,0.5845656991004944,0.810555100440979,0.035829078406095505,-0.012238919734954834,-0.3740772604942322,0.08723318576812744,-0.5659430623054504,0.9096400737762451,1.9642077684402466,1.6320115375595927,-0.9450993127508656,-0.1442669081638658
1687099170.595715,0.6715846061706543,0.7358753681182861,0.08638168126344681,0.04638725519180298,-0.25414007902145386,0.03069913387298584,-0.5984336137771606,1.135237455368042,2.6361188888549805,1.6987176415317586,-0.8269585748281993,-0.12423638905037412
1687099170.664384,0.7667111158370972,0.6231428980827332,0.15442481637001038,0.15208160877227783,-0.24232935905456543,-0.09349633753299713,-1.0937048196792603,0.9041592478752136,3.317000150680542,1.7695492153384227,-0.6727548280420731,-0.09959607416370457
1687099170.702692,0.8574965596199036,0.4576271176338196,0.23511134088039398,0.2100389003753662,-0.16458207368850708,-0.11076724529266357,-2.8078272342681885,0.26698654890060425,3.709244728088379,1.8384032147102864,-0.475324638960978,-0.030829021916251687
1687099170.7695642,0.9289566874504089,0.24783140420913696,0.2749897241592407,0.39375150203704834,0.11509887874126434,-0.23575928807258606,-3.9712438583374023,-0.7138302326202393,3.608571767807007,1.858597713170815,-0.250441185213406,0.07124655674416568
1687099170.821608,0.9693647027015686,0.02470933087170124,0.24438057839870453,0.46715885400772095,0.24370798468589783,-0.08169126510620117,-5.577639102935791,-2.167552947998047,2.7177906036376953,1.8177541025387547,-0.02471184532865959,0.277832375650628
1687099170.877065,0.9856199622154236,-0.13133342564105988,0.10632535815238953,0.2167268991470337,0.4066476821899414,0.29299724102020264,-6.171819686889648,-2.4085781574249268,1.4086453914642334,1.6782573811062398,0.13171393990765867,0.5374592889983922
1687099170.915389,0.9820141792297363,-0.16897323727607727,-0.08423922955989838,0.28795957565307617,0.2871220111846924,0.13309794664382935,-6.539829730987549,-3.015150308609009,0.11497452855110168,1.4852237212798642,0.16978783773963327,0.8555307824096049
1687099170.9629478,0.9603942036628723,-0.07671316713094711,-0.26787713170051575,0.06815499067306519,0.02562672644853592,0.476632684469223,-8.157332420349121,-2.4849979877471924,-1.034564733505249,1.298785542938812,0.0767886052402446,1.2257650300424492
1687099171.02577,0.9256499409675598,0.11046326160430908,-0.36189785599708557,0.035470664501190186,-0.05714906007051468,0.34093233942985535,-6.949423313140869,-1.5886236429214478,-1.3545451164245605,1.198101863845747,-0.11068915400549979,1.5718272324200993
1687099171.0696778,0.8929600715637207,0.26789364218711853,-0.36173924803733826,0.022094249725341797,0.02560916543006897,0.09171977639198303,-3.9550979137420654,-0.7388522624969482,-1.176622986793518,1.1859000723118385,-0.2712060890708532,1.8027628570932452
1687099171.122291,0.8668802380561829,0.3754507899284363,-0.32795631885528564,0.06373798847198486,-0.19364231824874878,0.04865947365760803,-3.0534565448760986,-0.2859555780887604,-0.9988371133804321,1.2091199846467917,-0.3848831014897911,1.9507199899112906
1687099171.191061,0.8449743986129761,0.4586060643196106,-0.2751341760158539,0.0668908953666687,-0.1319306492805481,0.05565178394317627,-2.1651554107666016,0.07736234366893768,-0.9155102968215942,1.256010607552389,-0.4764259565111868,2.0721573654352805
1687099171.204942,0.8288359642028809,0.5111055374145508,-0.22760099172592163,0.06387954950332642,-0.190670907497406,-0.013091087341308594,-1.305835247039795,0.19933931529521942,-0.5570144057273865,1.30279907524881,-0.5364705014107712,2.1534528259120735
1687099171.276509,0.8203077912330627,0.5374306440353394,-0.19561071693897247,0.02126026153564453,-0.12236106395721436,-0.03992389142513275,-0.5701729655265808,0.2058129608631134,-0.29435333609580994,1.3367078304547166,-0.567387382847908,2.198505363178925
1687099171.319162,0.8161024451255798,0.5514634847640991,-0.17281466722488403,0.04524099826812744,-0.11997544765472412,-0.030264556407928467,-0.5167422294616699,0.20066601037979126,-0.14732754230499268,1.3621228115927961,-0.5841176100069012,2.2262391474501904
1687099171.366631,0.814891517162323,0.5588812232017517,-0.15363602340221405,0.03232240676879883,-0.05727893114089966,-0.052372828125953674,-0.24932195246219635,0.2117443084716797,-0.07621580362319946,1.384448173644672,-0.5930360327257713,2.2486447904190685
1687099171.422494,0.8154603838920593,0.5609103441238403,-0.14284196496009827,0.0334165096282959,-0.03545874357223511,-0.06782083213329315,-0.017149701714515686,0.13718488812446594,-0.004183354787528515,1.3973883745860562,-0.595485033555023,2.254457686471783
1687099171.478804,0.8165197372436523,0.561287522315979,-0.1351005733013153,0.015343785285949707,-0.030693650245666504,-0.036804914474487305,-0.19337160885334015,0.08357860147953033,0.021104024723172188,1.4068228677586427,-0.5959406892143573,2.2616615411010876
1687099171.501221,0.8173379898071289,0.5613566040992737,-0.12975989282131195,0.00791841745376587,0.0006551742553710938,-0.06800919771194458,-0.1188928410410881,-0.001157058635726571,0.00881779845803976,1.4133511650692576,-0.5960241613084262,2.270689752238819
1687099171.559653,0.817432165145874,0.5617949962615967,-0.1272444874048233,0.003826439380645752,0.017779529094696045,-0.02368013560771942,-0.11485016345977783,-0.008757321164011955,-0.022987402975559235,1.4163720014723393,-0.5965539980541353,2.2766893846715055
1687099171.601814,0.8162768483161926,0.5643938183784485,-0.12309291213750839,0.0049054622650146484,0.002134561538696289,-0.005309760570526123,-0.30723774433135986,-0.03332511708140373,-0.036253273487091064,1.4211260306727842,-0.5996987536171671,2.2887100051818905
1687099171.659924,0.8149476647377014,0.5677196979522705,-0.11642556637525558,0.005700588226318359,0.017348110675811768,0.004502415657043457,-0.22276224195957184,-0.025051649659872055,-0.041011009365320206,1.4288938956441946,-0.6037332375879633,2.3056394681032057
1687099171.7346802,0.8142741322517395,0.5689985752105713,-0.11488500982522964,0.0019186735153198242,0.0008104443550109863,-0.0037368088960647583,-0.08109033852815628,-0.045615557581186295,-0.00302594481036067,1.4306326188794467,-0.6052875962284585,2.3124231009482616
1687099171.7906098,0.8137468099594116,0.5699875950813293,-0.11371254920959473,0.0012710094451904297,0.00684046745300293,0.019413292407989502,-0.09509696811437607,-0.030048983171582222,-0.0038857462350279093,1.4319559131620532,-0.606490722574513,2.3183666315623754
1687099171.807792,0.8131923675537109,0.5707260370254517,-0.11397524923086166,-0.006490588188171387,0.01948404312133789,0.014564275741577148,0.04686922952532768,-0.010934276506304741,-0.022219080477952957,1.431545625756542,-0.6073897310806541,2.319383452507384
1687099171.871417,0.8129397630691528,0.5706960558891296,-0.115911565721035,0.01082146167755127,-0.0001240372657775879,0.013830289244651794,0.0816439837217331,-0.018098492175340652,0.010660972446203232,1.4291677261307845,-0.6073532399963094,2.3155055838107974
1687099171.9087791,0.8134769797325134,0.569701075553894,-0.11702901870012283,0.002212047576904297,-0.02545064687728882,0.026529207825660706,-0.1135081946849823,-0.04439449682831764,0.029656900092959404,1.4279139416780104,-0.6061420834965161,2.3160638833964367
1687099171.971637,0.8143699765205383,0.5688437223434448,-0.11497224867343903,-0.007530927658081055,0.0018808245658874512,0.021847903728485107,-0.06389989703893661,-0.012642450630664825,0.03296954184770584,1.4305438586086832,-0.605099300800543,2.3230346791683174
1687099172.0175428,0.8148077130317688,0.5686017274856567,-0.11305160820484161,-0.0019109249114990234,0.006593644618988037,0.018843889236450195,-0.014479883015155792,0.053737904876470566,-0.017866477370262146,1.4329301386027673,-0.6048050955955792,2.325075150882509
1687099172.0821462,0.8142313361167908,0.5701412558555603,-0.10939177125692368,-0.0002664327621459961,-0.010418295860290527,-0.00636136531829834,-0.014742204919457436,0.06483549624681473,-0.021767407655715942,1.4372462697189894,-0.6066778156738605,2.3263422327932104
1687099172.123005,0.8147743344306946,0.56960129737854,-0.10815524309873581,0.013320326805114746,-0.016195476055145264,-0.007719948887825012,0.018899912014603615,-0.003688615281134844,0.05975807458162308,1.4388252737821496,-0.6060207147537919,2.326343325285421
