Timestamp,gravityX,gravityY,gravityZ,accelerationX,accelerationY,accelerationZ,rotationRateX,rotationRateY,rotationRateZ,attitudeRoll,attitudePitch,attitudeYaw
1687103386.763654,0.016437187790870667,0.6586113572120667,-0.7523037195205688,0.007183430716395378,-0.01415640115737915,0.004378974437713623,-0.01238930132240057,-0.00624547153711319,0.0014078612439334393,0.021845661546864934,-0.7189718246481165,0.6562362982113451
1687103386.770596,0.016076697036623955,0.6585495471954346,-0.7523656487464905,0.0009521227329969406,0.0005538463592529297,0.003693222999572754,0.0006047934293746948,0.004524484742432833,0.0011443416588008404,0.0213649450324741,-0.71888969156752,0.6559597730335763
1687103386.790666,0.016408855095505714,0.6591777205467224,-0.7518081665039062,0.0013981461524963379,-0.0021648406982421875,-0.00455474853515625,-0.009708031080663204,-0.0062371715903282166,0.00880199484527111,0.021822388806591264,-0.7197247962361333,0.6565794492340821
1687103386.885798,0.01620781607925892,0.6589048504829407,-0.7520517110824585,-0.0022002458572387695,0.009521722793579102,-0.002510666847229004,-0.006659511011093855,-0.005915261805057526,-0.0037044091150164604,0.021548129331828585,-0.7193619556557619,0.656389645062473
1687103386.898833,0.016236990690231323,0.6588548421859741,-0.7520948648452759,-0.0012376010417938232,0.002293229103088379,-0.002513289451599121,-0.000709210173226893,-0.0011745910160243511,0.00610581086948514,0.021585667074738357,-0.7192954966437394,0.6566715745822624
1687103387.00694,0.01647266373038292,0.6592209935188293,-0.7517688274383545,0.004996446892619133,-0.013789474964141846,0.0016010403633117676,-0.007702405098825693,-0.002540459856390953,0.004917974583804607,0.021908368256823973,-0.7197823057451878,0.6568978785568238
1687103387.012704,0.016343533992767334,0.6584673523902893,-0.7524317502975464,2.9144808650016785e-05,0.002619624137878418,0.009893357753753662,0.0213452260941267,0.003405047580599785,0.009019242599606514,0.021717537609695154,-0.7187805205837847,0.6569483021520701
1687103387.1284208,0.01649828441441059,0.6589065194129944,-0.7520439028739929,0.001705467700958252,-0.007203638553619385,-0.00335770845413208,0.002399231307208538,0.0017283875495195389,0.0029053566977381706,0.021934409774730025,-0.7193641708488739,0.6573079336963072
1687103387.133605,0.016438519582152367,0.6583192348480225,-0.7525594234466553,-0.001317054033279419,0.003439188003540039,0.00014853477478027344,0.0004151764151174575,-0.00624706968665123,-0.0006707357242703438,0.021840010610089954,-0.7185836779201615,0.6572355090663364
1687103387.217592,0.01637517288327217,0.6586073637008667,-0.7523086071014404,-0.004641175270080566,0.0081254243850708,-0.00664830207824707,-0.0025108386762440205,-0.007240606006234884,0.005216980818659067,0.021763127571385286,-0.7189665462014639,0.6575331709869024
1687103387.223726,0.016439707949757576,0.6580899953842163,-0.7527597546577454,-0.00011280179023742676,-0.0015348196029663086,-0.0016041994094848633,0.005634172819554806,-0.007317238487303257,0.0008796900510787964,0.0218357785537389,-0.7182792399673976,0.6576438841358495
1687103387.241785,0.01622707024216652,0.6583462953567505,-0.7525402307510376,0.0006338655948638916,-0.007528424263000488,0.004768013954162598,0.010198565199971199,-0.00010721839498728514,0.0015093940310180187,0.021559718423237832,-0.7186196659061551,0.6578482202687813
1687103387.30143,0.015767620876431465,0.6571304798126221,-0.7536119222640991,0.0013069789856672287,-0.00892186164855957,0.0032915472984313965,0.03939586505293846,-0.026782328262925148,-0.015394221059978008,0.020919678773767023,-0.7170055219459933,0.6575762041028151
1687103387.331964,0.01347721554338932,0.6547748446464539,-0.7557038068771362,0.001186460256576538,0.0016430020332336426,0.00896918773651123,0.05775516480207443,-0.031765587627887726,-0.028835328295826912,0.017832102166539604,-0.713884711270555,0.6555859799120475
1687103387.39312,0.012686464935541153,0.6449376344680786,-0.7641298770904541,0.016183167695999146,0.07387340068817139,-0.0162961483001709,0.398851215839386,-0.010722045786678791,-0.03280916437506676,0.016600973304628664,-0.7009416855947419,0.6533209557822274
1687103387.421659,0.011088987812399864,0.6320635080337524,-0.7748372554779053,-0.01780286431312561,0.014481902122497559,0.021968603134155273,0.3411785960197449,0.014734599739313126,-0.05557006970047951,0.014310400138427767,-0.6842131857602541,0.6499063937502145
1687103387.484324,0.011739896610379219,0.6144527196884155,-0.7888662815093994,-0.009771496057510376,0.019076943397521973,0.017214059829711914,0.7269161939620972,0.08285195380449295,0.007354034576565027,0.014880886681211621,-0.661692099175634,0.6470458635323175
1687103387.509871,0.008451037108898163,0.573631763458252,-0.8190696835517883,0.03935474157333374,0.03589576482772827,0.009407877922058105,1.1236023902893066,-0.2678312659263611,-0.10488475859165192,0.010317482896748694,-0.6109328005814195,0.6453549320624513
1687103387.574627,-0.004714586306363344,0.5265204310417175,-0.8501494526863098,-0.02731361985206604,0.10655146837234497,0.07710868120193481,0.26508116722106934,-0.4723456799983978,0.046018004417419434,-0.005545540547242532,-0.5545024998351912,0.6417249229769842
1687103387.726062,-0.01633337140083313,0.5253511667251587,-0.8507287502288818,-0.01645776629447937,0.10732406377792358,-0.061319589614868164,0.1498025357723236,-0.1755046248435974,0.06448084115982056,-0.01919691135158294,-0.5531277356757021,0.6441961063954005
1687103387.731859,-0.018402716144919395,0.522001326084137,-0.8527461290359497,-0.022109374403953552,-0.07110410928726196,0.04717361927032471,-0.04754755645990372,-0.04092482104897499,0.06862331926822662,-0.021577183707738447,-0.5491956617573933,0.6488208480791041
1687103387.846952,-0.02420475147664547,0.5326511263847351,-0.8459887504577637,0.013386279344558716,-0.017438054084777832,-0.04388856887817383,-0.29353922605514526,-0.2645861506462097,-0.0087811928242445,-0.028603395406765222,-0.5617299525525189,0.64922230999844
1687103387.868551,-0.033714503049850464,0.5352838039398193,-0.8439992070198059,-0.00107555091381073,0.044977426528930664,0.028523743152618408,0.13011299073696136,-0.0954088568687439,-0.03429993614554405,-0.039924904102831026,-0.5648436702370941,0.6467586729687852
1687103387.931673,-0.035275913774967194,0.5280689001083374,-0.848468542098999,-0.016848117113113403,0.026328742504119873,0.0072362422943115234,0.16697406768798828,-0.017361529171466827,-0.01569955237209797,-0.04155205300962626,-0.5563249063087591,0.6454649109449412
1687103387.997531,-0.03658871725201607,0.526259183883667,-0.849536657333374,0.0013256669044494629,-0.03317141532897949,0.0030095577239990234,-0.043311264365911484,-0.016434969380497932,-0.002487477846443653,-0.04304242598992402,-0.5541952765117663,0.6453220189744582
1687103388.010123,-0.03913668170571327,0.5296325087547302,-0.8473238945007324,0.013700276613235474,0.0012360811233520508,-0.005077838897705078,-0.018630685284733772,-0.07584144175052643,-0.013953317888081074,-0.04615576815006002,-0.5581672397408489,0.6446074634169235
1687103388.0499659,-0.04246443137526512,0.525077223777771,-0.8499945402145386,-0.004868313670158386,0.011849045753479004,0.0014075040817260742,0.1337583214044571,-0.059345196932554245,-0.024693313986063004,-0.049916975819836104,-0.5528058197454618,0.644087268734193
1687103388.11341,-0.043522126972675323,0.5202861428260803,-0.8528822064399719,-0.00510762631893158,0.0024951696395874023,0.0019758939743041992,0.10710540413856506,-0.007383018732070923,-0.016989056020975113,-0.05098524280612421,-0.5471860114785171,0.6433948513528291
1687103388.174426,-0.043297894299030304,0.5191826224327087,-0.8535658717155457,-0.010382547974586487,-0.028307318687438965,-0.01679539680480957,-0.05353673920035362,0.011128636077046394,0.02086891047656536,-0.05068245376606513,-0.5458942767188384,0.6434659985563973
1687103388.2002,-0.04345718026161194,0.5233306884765625,-0.851020872592926,0.009582683444023132,0.0037384033203125,-0.008094727993011475,-0.07369793206453323,-0.02099376916885376,-0.0026994654908776283,-0.05102044988956698,-0.5507549356167396,0.6436437480881988
1687103388.264443,-0.042915813624858856,0.5225328803062439,-0.8515384197235107,-0.010505229234695435,0.016544878482818604,0.014349699020385742,0.039599861949682236,0.08305753022432327,-0.02011973410844803,-0.05035537502271354,-0.5498189702081809,0.6428896119990891
1687103388.354455,-0.04174413904547691,0.519446611404419,-0.8534826636314392,0.019222170114517212,-0.004660844802856445,-0.003496706485748291,0.05403286591172218,0.0003578360192477703,-0.020571740344166756,-0.04887141014228484,-0.5462032000118965,0.6418600298013261
1687103388.367553,-0.041763268411159515,0.5202347636222839,-0.8530015349388123,-0.0066071003675460815,-0.011872947216033936,0.0024309158325195312,-0.02372504584491253,0.03896073251962662,0.0035099610686302185,-0.04892130049198187,-0.5471258274714623,0.6410409765936919
1687103388.41033,-0.04019263759255409,0.5210775136947632,-0.852562427520752,-0.0012044571340084076,0.003183901309967041,-0.01671546697616577,-0.012712609022855759,0.004856092855334282,0.0024518207646906376,-0.0471084574491024,-0.5481129321987601,0.6417425786174403
1687103388.504113,-0.03987433388829231,0.5208188891410828,-0.8527354598045349,-0.005322214215993881,0.01592421531677246,0.002744615077972412,0.009853153489530087,0.02037697285413742,-0.0063768913969397545,-0.0467264608196105,-0.547809952857899,0.6414887521930092
1687103388.51756,-0.03681180626153946,0.5210261940956116,-0.8527465462684631,-0.008949294686317444,-0.0324702262878418,0.009667932987213135,-0.018642403185367584,0.11315910518169403,0.05680473893880844,-0.04314173762161093,-0.548052757523146,0.6421679037860585
1687103388.5603719,-0.031416960060596466,0.5251044631004333,-0.8504576683044434,0.0012808628380298615,0.034679412841796875,-0.015860021114349365,-0.12994416058063507,0.08872202783823013,-0.016472402960062027,-0.03692444765316405,-0.552837880643935,0.6425698963705732
1687103388.650764,-0.031018221750855446,0.5294851064682007,-0.8477519750595093,0.014828622341156006,-0.023564696311950684,0.024616599082946777,-0.06377232819795609,0.09446585178375244,0.017583835870027542,-0.036572479849670166,-0.5579934912519585,0.640496976897223
1687103388.663813,-0.024503914639353752,0.5282161831855774,-0.8487563133239746,-0.0218217670917511,0.06995886564254761,-0.01826333999633789,0.027071287855505943,0.1495012491941452,-0.0009157466702163219,-0.02886236084739735,-0.5564983878027773,0.6413488743506809
1687103388.7112331,-0.022517452016472816,0.5328693389892578,-0.845897912979126,0.01473546028137207,-0.06968879699707031,-0.020404577255249023,-0.10445477813482285,0.024381257593631744,0.005539023317396641,-0.02661330235957345,-0.5619878110992844,0.6413722672076825
1687103388.77536,-0.020469719544053078,0.5349242687225342,-0.844651997089386,-0.0032576918601989746,0.01782536506652832,0.0020006299018859863,-0.016057806089520454,0.03875904530286789,-0.013943331316113472,-0.024229758584459273,-0.56441814491662,0.6405291832585193
1687103388.781115,-0.017701849341392517,0.5379917025566101,-0.8427642583847046,0.0027482211589813232,-0.029065310955047607,0.00484311580657959,-0.21408140659332275,0.1278368979692459,0.002399156801402569,-0.021001419873209116,-0.5680528490733664,0.6395819500997764
1687103388.833282,-0.0024727918207645416,0.5493459105491638,-0.8355913758277893,-0.04225072264671326,-0.004576623439788818,0.002369999885559082,-0.3098899722099304,0.7603209018707275,0.10720526427030563,-0.00295932272324735,-0.581581232844892,0.6416130510317839
1687103388.8977342,0.0386907123029232,0.5602824687957764,-0.8273974657058716,-0.007547527551651001,-0.03219103813171387,-0.05791747570037842,-0.3428444564342499,0.22632209956645966,0.19369855523109436,0.04672790143044855,-0.5947267880555898,0.6527318696632698
1687103388.910462,0.03892293944954872,0.5864543914794922,-0.8090465068817139,0.02397376298904419,-0.04597282409667969,-0.019444704055786133,-0.8374994397163391,-0.04443637654185295,-0.07513092458248138,0.048072577516677956,-0.6266744778066616,0.6562897836938174
1687103388.951925,0.037894099950790405,0.6265273690223694,-0.7784777283668518,-0.016119807958602905,-0.04596090316772461,-0.03475469350814819,-0.7360569834709167,0.04636915773153305,0.07496829330921173,0.04863878734965752,-0.6770896460706868,0.6574032196913454
1687103388.980206,0.041485823690891266,0.6336816549301147,-0.7724807858467102,0.001864403486251831,-0.014327406883239746,0.04901576042175293,0.00537424860522151,0.007611887063831091,0.04256555065512657,0.053653127409700366,-0.6863031275319401,0.6639232661837606
1687103389.045696,0.041484713554382324,0.6534140110015869,-0.7558631896972656,-0.007198214530944824,-0.14479279518127441,-0.061565399169921875,-0.7022902369499207,-0.07311628758907318,0.017697619274258614,0.05482888315516774,-0.7120856430235964,0.6680294109315917
1687103389.070894,0.03989541530609131,0.6611586213111877,-0.7491846084594727,-0.006005648523569107,0.09735572338104248,0.05295664072036743,0.11830639094114304,-0.00441692303866148,-0.004052351228892803,0.05320152709287409,-0.7223620338524303,0.6669321223504612
1687103389.101999,0.0379149354994297,0.6657039523124695,-0.7452521324157715,0.0006592869758605957,-0.025521457195281982,-0.025240421295166016,-0.18813556432724,-0.008124065585434437,-0.013412363827228546,0.05083148962368386,-0.7284368090076541,0.665566153374894
1687103389.164978,0.03690763935446739,0.6704849004745483,-0.7410046458244324,0.00041535496711730957,-0.00652921199798584,0.008292853832244873,-0.01982351578772068,-0.034940898418426514,-0.0007305238395929337,0.04976644102698346,-0.734862170776679,0.6654871990615876
1687103389.228435,0.035235803574323654,0.6696059703826904,-0.7418802380561829,0.002026170492172241,0.0009872913360595703,0.004728198051452637,0.01011361088603735,-0.03592333942651749,-0.001979546621441841,0.04745960784073967,-0.7336781053139703,0.664756826960375
1687103389.345562,0.034533824771642685,0.6698074340820312,-0.7417313456535339,-0.0038788914680480957,0.00786590576171875,-0.007017374038696289,-0.02699008211493492,-0.010493835434317589,0.0012097223661839962,0.04652480110443872,-0.7339494559842885,0.6645985163540855
1687103389.351198,0.035210445523262024,0.6698188781738281,-0.7416892647743225,0.0031653940677642822,0.002101898193359375,-0.0005592703819274902,0.026349838823080063,-0.01020949799567461,0.01057739183306694,0.047437694686245514,-0.7339648124833495,0.6657019326144705
1687103389.4652882,0.035050369799137115,0.6699191927909851,-0.7416062355041504,-0.0010690689086914062,-0.010617434978485107,0.0020737648010253906,-0.005915956571698189,0.006418169476091862,0.0026381080970168114,0.04722763430130642,-0.7340999597869887,0.6661037769768449
1687103389.4773278,0.03501809760928154,0.669454038143158,-0.7420276403427124,0.0027931630611419678,-0.008000850677490234,0.007271170616149902,-0.020211005583405495,-0.010132665745913982,-0.00765607412904501,0.04715745729121212,-0.7334736293490466,0.6656066690936727
1687103389.584382,0.03448515012860298,0.6701436042785645,-0.7414299249649048,-0.000671684741973877,0.008155345916748047,0.003209710121154785,0.020535359159111977,-0.008478443138301373,-0.005737133324146271,0.046478183425462206,-0.7344022770128608,0.6654232916799081
1687103389.596582,0.034143589437007904,0.669564425945282,-0.7419688105583191,0.0031946897506713867,0.0025089383125305176,-0.0018666386604309082,-0.006655250210314989,-0.014590287581086159,-0.004416405223309994,0.04598511424457177,-0.7336222292637065,0.6651604071368236
1687103389.677242,0.0337909534573555,0.668924868106842,-0.7425616383552551,-0.004967093467712402,0.008077085018157959,-0.0036847591400146484,0.008328760042786598,-0.0008240302558988333,8.893059566617012e-05,0.0454745555059322,-0.7327615039643066,0.6648751530476477
1687103389.684145,0.03393739461898804,0.6693740487098694,-0.7421500086784363,0.002592146396636963,0.00041049718856811523,-0.0007393956184387207,-0.010595396161079407,-0.008889480493962765,-0.009274143725633621,0.04569665113811652,-0.7333659354484523,0.6649109465049744
1687103389.699893,0.03328976407647133,0.669147789478302,-0.7423833608627319,-0.0007122494280338287,-0.000767052173614502,0.007138669490814209,-0.008048615418374538,-0.0027738194912672043,0.0037102974019944668,0.04481172523786135,-0.7330614085063177,0.664434717821732
1687103389.761815,0.03358205780386925,0.6678676605224609,-0.7435221076011658,0.007067352533340454,0.007486402988433838,0.010520398616790771,0.1115182638168335,0.008498875424265862,0.014006012119352818,0.04513551102685821,-0.7313400886762672,0.6650361144094478
1687103389.79287,0.03368791565299034,0.6662290692329407,-0.7449858784675598,0.001971866935491562,-0.012862980365753174,-0.00847780704498291,-0.04034902900457382,-0.006960019469261169,0.014420267194509506,0.04518875336030644,-0.7291407165697349,0.6651977976007684
1687103389.8542042,0.03369290009140968,0.6676213145256042,-0.7437382340431213,0.0014633536338806152,0.010174095630645752,-0.0016230940818786621,0.02596101723611355,-0.007244201377034187,0.002675925847142935,0.045271143797358866,-0.7310092251475167,0.6658312967590079
1687103389.882217,0.03378721699118614,0.6669769883155823,-0.7443118095397949,0.0022388100624084473,-0.0012055039405822754,-0.0015683174133300781,-0.06948135048151016,-0.010160761885344982,-0.004976801108568907,0.04536275964318647,-0.730144094852012,0.6660823081810396
1687103389.944818,0.03347432240843773,0.6671380400657654,-0.7441816926002502,0.0009342394769191742,0.01808840036392212,0.0010786652565002441,0.02464940957725048,-0.0011349542764946818,-0.014373231679201126,0.044951084943620274,-0.73036023491962,0.6655685277240889
1687103389.972561,0.03298743814229965,0.6674208641052246,-0.7439497709274292,0.004320293664932251,-0.006089687347412109,0.0018385648727416992,-0.04713396728038788,-0.0021551225800067186,0.0001050429418683052,0.04431192168932123,-0.7307399671711743,0.6650083393679354
1687103390.034019,0.032918378710746765,0.6673661470413208,-0.7440019249916077,0.001947939395904541,0.0037611722946166992,0.001097261905670166,0.02554263360798359,0.006240270100533962,-0.005958042573183775,0.04421618201798173,-0.7306664902216589,0.664946168007131
1687103390.154879,0.03296283632516861,0.6675335168838501,-0.7438497543334961,0.0033073127269744873,-0.008002877235412598,0.0023183822631835938,-0.025502173230051994,0.006572278216481209,0.0091239707544446,0.044284863162340815,-0.7308912292622695,0.6648424507072757
1687103390.161088,0.03468205779790878,0.6644518375396729,-0.7465258836746216,0.0007488429546356201,0.02265143394470215,0.007161259651184082,0.215490460395813,0.08246047049760818,0.07662578672170639,0.04642456458750986,-0.7267601148828561,0.6662470740051676
1687103390.276586,0.03465859219431877,0.6389510035514832,-0.7684662342071533,0.034311141818761826,-0.04246973991394043,0.0693848729133606,1.5791032314300537,-0.13434897363185883,0.07029038667678833,0.04507045336316549,-0.6931338255280071,0.6682321301361327
1687103390.282141,0.018057450652122498,0.5643908977508545,-0.8253101706504822,0.10193765163421631,0.3994762897491455,0.03560680150985718,0.5320625305175781,-0.5606889128684998,-0.20326977968215942,0.021876102631908007,-0.5996951918573891,0.6539506932415723
1687103390.426574,-0.008848827332258224,0.5541516542434692,-0.8323687314987183,0.02827325463294983,-0.19122135639190674,-0.02354252338409424,0.04510541632771492,-0.5483927130699158,-0.14071504771709442,-0.010630498186562977,-0.5873434835786683,0.6432569566548978
1687103390.432538,-0.025064898654818535,0.5518538951873779,-0.833564043045044,-0.0043387990444898605,0.01517796516418457,0.03073817491531372,-0.1425371915102005,-0.3020864725112915,-0.021683942526578903,-0.030060493831179085,-0.5845856304664473,0.6391671647249403
1687103390.578258,-0.04091169685125351,0.5685142278671265,-0.8216555118560791,0.022784262895584106,-0.047624945640563965,-0.00025916099548339844,-0.35670116543769836,-0.3752337694168091,-0.004813149571418762,-0.049750699107843084,-0.6046987271127042,0.6368480744563367
1687103390.584464,-0.05384046584367752,0.5735788941383362,-0.8173789978027344,-0.009498771280050278,0.02360433340072632,0.00954824686050415,-0.023942627012729645,-0.22655989229679108,-0.021490996703505516,-0.06577462803433286,-0.6108682334795853,0.63479985330363
1687103390.600984,-0.06144896522164345,0.5659388899803162,-0.8221539855003357,0.0009020864963531494,0.06612598896026611,0.02253246307373047,0.27435484528541565,-0.11602809280157089,-0.04777226597070694,-0.07460271681630283,-0.6015715987141124,0.633352834556191
1687103390.725496,-0.06658387184143066,0.5562532544136047,-0.8283410668373108,-0.00043272972106933594,-0.012002766132354736,-0.005460202693939209,0.12532354891300201,-0.11905793100595474,-0.019798291847109795,-0.08020974035991817,-0.589870318881728,0.6327562456256447
1687103390.731199,-0.07142135500907898,0.5558201670646667,-0.828228771686554,0.0006053149700164795,-0.009723365306854248,-0.0045195817947387695,-0.0025939294137060642,-0.08373162895441055,-0.007998889312148094,-0.08602104371488599,-0.5893492442801683,0.6320369269938813
1687103390.74748,-0.07252473384141922,0.5545983910560608,-0.8289516568183899,-0.00939970463514328,-0.011446535587310791,0.010638058185577393,0.06272435933351517,0.018887024372816086,0.027000505477190018,-0.08726749978428262,-0.5878802497424204,0.6329025349900886
1687103390.8117728,-0.07089492678642273,0.551188051700592,-0.8313637375831604,0.006457068026065826,-0.0019022226333618164,-0.0011405348777770996,0.06110648810863495,0.027195598930120468,-0.007766662165522575,-0.08506965791641884,-0.5837874656478065,0.6339328967804305
1687103390.9092789,-0.06917644292116165,0.54751056432724,-0.8339345455169678,-0.00023578107357025146,0.002706170082092285,0.011623144149780273,0.1082092821598053,0.08847175538539886,0.026867013424634933,-0.08276240447240106,-0.5793863556933839,0.634560829639381
1687103390.915378,-0.06715144217014313,0.5466732978820801,-0.8346490263938904,0.012601271271705627,-0.026562213897705078,-0.026144981384277344,-0.03714657947421074,-0.015732362866401672,0.002027845475822687,-0.08028178211996637,-0.5783861353312315,0.6354672494974114
1687103390.960295,-0.06705140322446823,0.5481873154640198,-0.8336634635925293,-0.0026202350854873657,0.007858216762542725,0.007705211639404297,0.019859980791807175,0.04252832755446434,0.0035292026586830616,-0.08025706135624963,-0.580195336893866,0.6352089362697875
1687103390.9900808,-0.06446908414363861,0.5444462299346924,-0.8363145589828491,-0.0034325122833251953,0.013476133346557617,-0.004765152931213379,0.0787762925028801,0.02976887859404087,0.003906106576323509,-0.07693497374487553,-0.5757287830799981,0.6365007596926983
1687103391.0861359,-0.06336488574743271,0.5441504716873169,-0.836591362953186,0.006541162729263306,-0.029013752937316895,0.010511040687561035,-0.02795547805726528,0.044774703681468964,0.014541372656822205,-0.07559739679477567,-0.5753762131964731,0.6366588450549397
1687103391.099381,-0.0610724538564682,0.5467047095298767,-0.8350952863693237,-0.003289114683866501,-0.01942199468612671,0.004956185817718506,-0.057400986552238464,0.05658968538045883,0.013924186117947102,-0.0730023542927054,-0.57842365644966,0.6371918977201184
1687103391.108261,-0.058965280652046204,0.548099935054779,-0.8343318104743958,0.00851970911026001,-0.006168782711029053,-0.005939185619354248,-0.05881565436720848,0.05435336381196976,0.002959218807518482,-0.0705563414877665,-0.5800908766845716,0.6372974722792195
1687103391.170708,-0.056127943098545074,0.5479624271392822,-0.8346177935600281,-0.0035339295864105225,0.011897802352905273,0.002403438091278076,0.04311550408601761,0.08982188999652863,-0.0027129806112498045,-0.06714876821801631,-0.5799264447136967,0.6370175290574729
1687103391.263699,-0.05161980539560318,0.5446361303329468,-0.8370823264122009,0.007033605128526688,-0.0007671713829040527,0.00019884109497070312,0.066091388463974,0.12564922869205475,0.017314257100224495,-0.061588353998512826,-0.5759552223049484,0.6372042551798935
1687103391.269587,-0.04367583617568016,0.5444510579109192,-0.8376547694206238,-0.013773500919342041,-0.008363962173461914,0.0007255077362060547,-0.035555075854063034,0.28449079394340515,0.041942305862903595,-0.05209343949630293,-0.5757345087032285,0.6383997914620957
1687103391.322017,-0.0258257444947958,0.5488222241401672,-0.8355400562286377,-0.021705387160182,-0.039666950702667236,0.004012405872344971,-0.14426876604557037,0.46336278319358826,0.09753865003585815,-0.030899206731795303,-0.5809546498505685,0.6421218205247877
1687103391.387051,-0.003975654952228069,0.5586106777191162,-0.8294204473495483,-0.014334887266159058,0.02763199806213379,0.0006545782089233398,-0.244826540350914,0.5450855493545532,0.04038362205028534,-0.004793255985049125,-0.5927098086178672,0.6441056190206018
1687103391.400748,0.022274253889918327,0.5696459412574768,-0.8215883374214172,-0.016857385635375977,0.012721061706542969,0.008005023002624512,-0.3708193600177765,0.6880475878715515,0.04075433313846588,0.02710457006963044,-0.6060749790081192,0.6465902390380822
1687103391.440134,0.0367230586707592,0.59991455078125,-0.7992208003997803,0.033955659717321396,-0.07852178812026978,-0.08882540464401245,-0.9223456382751465,0.04569646716117859,0.106600321829319,0.045916278604511016,-0.6433942960872863,0.6545626513457299
1687103391.534162,0.037321723997592926,0.6253160834312439,-0.7794786095619202,-0.025480926036834717,-0.0947985053062439,0.09255844354629517,-0.3156570494174957,0.06028992310166359,-0.06883048266172409,0.04784383162003729,-0.6755365262460054,0.6588199238917009
1687103391.5441952,0.03615345060825348,0.6342906951904297,-0.7722488045692444,0.017359133809804916,-0.07087522745132446,-0.03043973445892334,-0.27154871821403503,-0.06516937911510468,0.00464746356010437,0.0467816491360102,-0.6870906832470295,0.6569869342728737
1687103391.559009,0.03689204528927803,0.6450596451759338,-0.763241171836853,0.005679965019226074,0.03775596618652344,0.009823203086853027,-0.3096843659877777,0.014698626473546028,0.08699500560760498,0.0482984361613227,-0.7011013103401057,0.6611470952633798
1687103391.652677,0.03971506655216217,0.6658310890197754,-0.7450447678565979,-0.006237301975488663,-0.02746438980102539,-0.015560030937194824,-0.9533717632293701,-0.03745623305439949,0.05407633259892464,0.05325521023166223,-0.7286071508532636,0.668521674726255
1687103391.663579,0.03951377794146538,0.6941861510276794,-0.7187101244926453,0.009512722492218018,0.026715338230133057,0.017614543437957764,-0.41213086247444153,-0.03104979917407036,0.0034454460255801678,0.054923448297934226,-0.767288630439691,0.67440393477068
1687103391.777652,0.03851551562547684,0.7087640762329102,-0.7043934464454651,0.01827770471572876,-0.03351682424545288,-0.0021494626998901367,-0.35897281765937805,-0.03243251144886017,-0.007078034803271294,0.05462458337943408,-0.7877446643335999,0.675983882879023
1687103391.78293,0.037158288061618805,0.7126944065093994,-0.7004898190498352,0.010464400053024292,0.033338308334350586,0.02299964427947998,-0.026415372267365456,-0.048399318009614944,-0.01415698416531086,0.05299647766893756,-0.7933318103403169,0.6761723210963663
1687103391.896414,0.03621700033545494,0.7131730914115906,-0.7000518441200256,0.0017621219158172607,0.007667422294616699,-0.0018066763877868652,-0.03750663995742798,-0.025775451213121414,-0.0033638575114309788,0.05168865756128877,-0.7940144107442729,0.676566898977144
1687103391.9022288,0.03676840662956238,0.7147480845451355,-0.6984148025512695,-0.0023750998079776764,0.006595909595489502,0.007466375827789307,0.04329553246498108,0.0104200579226017,0.013748152181506157,0.052596961459478606,-0.7962638334578801,0.6777121390018077
1687103391.9889941,0.03708697855472565,0.7118875980377197,-0.7013134956359863,0.005820751190185547,-0.0044443607330322266,0.005054950714111328,0.038102634251117706,-0.0053199343383312225,-0.007046876009553671,0.05283295557309184,-0.7921823371984446,0.6777187973335552
1687103392.002334,0.03729240223765373,0.7117586135864258,-0.701433539390564,0.0008545815944671631,0.006228446960449219,0.007707953453063965,0.023603320121765137,0.010829208418726921,0.00043314462527632713,0.05311597023263111,-0.791998639223093,0.6778039503540736
1687103392.011477,0.03719340264797211,0.710817277431488,-0.7023926973342896,0.0030134916305541992,0.0011578202247619629,-0.004836916923522949,0.05156305059790611,-0.017400609329342842,-0.004734586458653212,0.05290302471981488,-0.7906594846236228,0.6778135390912251
1687103392.070335,0.03673654422163963,0.7097199559211731,-0.7035254836082458,-0.0009852051734924316,0.0035979747772216797,-0.0035668015480041504,0.03131077438592911,-0.010144006460905075,-0.0002931663766503334,0.0521704034949065,-0.7891005836417392,0.6779814388147537
1687103392.10338,0.036878496408462524,0.7089712619781494,-0.7042725682258606,0.0038929879665374756,-0.010347604751586914,-0.012768447399139404,-0.004409406334161758,-0.008094104938209057,-0.01045878417789936,0.052316173577045544,-0.7880384335996089,0.6782458258418601
1687103392.164089,0.037110086530447006,0.7085805535316467,-0.7046534419059753,4.509091377258301e-05,-0.0016865730285644531,0.0017268061637878418,0.03043512813746929,0.0076048970222473145,0.01726745255291462,0.05261570095862129,-0.7874845382301061,0.6788769763525425
1687103392.189929,0.037769243121147156,0.7071216106414795,-0.7060825228691101,0.009334653615951538,-0.007750272750854492,0.009381473064422607,0.009283503517508507,0.001256053801625967,0.003983471542596817,0.05344032847160679,-0.7854191207317957,0.6795515511187947
1687103392.253148,0.037341609597206116,0.7074162364006042,-0.7058100700378418,-0.0015902817249298096,0.004970848560333252,-0.001999378204345703,0.01784929446876049,-0.006740042939782143,0.005827576853334904,0.05285675273517098,-0.7858358873986675,0.6793722208312605
1687103392.281075,0.037161458283662796,0.7078105211257935,-0.7054242491722107,0.004083037376403809,-0.0009317994117736816,-0.00011163949966430664,-0.026823101565241814,-0.0017773087602108717,-0.007102536037564278,0.052630940983578206,-0.7863938719487114,0.6792622190291215
1687103392.3447552,0.03760111331939697,0.7071231007575989,-0.7060900926589966,-3.4868717193603516e-06,0.00028967857360839844,-0.005717158317565918,0.002024258254095912,-0.0047400533221662045,-0.01158696599304676,0.05320232184549104,-0.7854212096670786,0.6793085344394107
1687103392.46449,0.037844836711883545,0.7080347537994385,-0.705162763595581,-0.007159411907196045,0.0022466182708740234,-0.0035011768341064453,-0.013669749721884727,0.019637323915958405,0.003962831571698189,0.05361679033019706,-0.7867113979424882,0.6793044045244855
1687103392.476809,0.03809385374188423,0.7075221538543701,-0.7056637406349182,0.007529944181442261,0.002393066883087158,0.0010129213333129883,0.02097398042678833,0.0032751518301665783,-0.003165052505210042,0.053930664560228186,-0.7859857203426266,0.6792459803125819
1687103392.586625,0.03779226541519165,0.7081809043884277,-0.7050188183784485,0.00546640157699585,-0.017934322357177734,-0.004469096660614014,-0.03034433349967003,-0.012056844308972359,-0.005135525017976761,0.05355336392946214,-0.78691838222194,0.6790567020298655
1687103392.5988321,0.03789135441184044,0.7075586318969727,-0.70563805103302,0.0007133781909942627,0.0007849335670471191,0.0034590959548950195,0.0195262860506773,0.004048156552016735,-0.0010934462770819664,0.05364648000086396,-0.7860373399771925,0.6790287747218305
1687103392.675879,0.03755340725183487,0.706717848777771,-0.7064982056617737,-0.00204622745513916,0.005196213722229004,0.0022593140602111816,0.06370946019887924,-0.016424983739852905,-0.003835702780634165,0.053104312275282554,-0.7848482491381275,0.6784380015784598
1687103392.6988258,0.038449306041002274,0.700738251209259,-0.7123815417289734,-0.007733374834060669,0.025290191173553467,0.007684946060180664,0.3210086226463318,0.010416973382234573,-0.004796970635652542,0.053920594491348506,-0.7764318005233868,0.6788010595275413
1687103392.7961888,0.03642665967345238,0.6990117430686951,-0.7141818404197693,-0.007740139961242676,-0.04498952627182007,-0.024236738681793213,-0.008743700571358204,0.007380991708487272,-0.043097954243421555,0.050960580011241895,-0.7740146233999033,0.6770692117993377
1687103392.8025,0.037538010627031326,0.6998893022537231,-0.7132641673088074,0.00440838560461998,-0.03842085599899292,-0.02213311195373535,0.0073668258264660835,0.013087701983749866,0.026284581050276756,0.05257997354475275,-0.7752425244166532,0.6772420947156875
1687103392.848868,0.03880986571311951,0.6862477660179138,-0.7263317108154297,0.010201361030340195,0.009171485900878906,0.05273252725601196,0.9491689801216125,-0.05744072422385216,0.05796041712164879,0.05338194069345767,-0.7563177898944654,0.6785225650764843
1687103392.945938,0.03383103013038635,0.6231060028076172,-0.7814054489135742,0.017240136861801147,0.1366443634033203,0.07069683074951172,1.8560408353805542,-0.2482011467218399,-0.17417049407958984,0.043268083055657,-0.6727076153144492,0.6704843749843399
1687103392.951575,0.0024621374905109406,0.5803262591362,-0.8143803477287292,0.056864023208618164,-0.032444119453430176,-0.07284188270568848,0.20864588022232056,-0.6472010612487793,-0.2955900728702545,0.003023316975052442,-0.6191292271679514,0.6507989050629804
1687103393.002013,-0.023689953610301018,0.5742087364196777,-0.8183661699295044,-0.002631455659866333,-0.15791845321655273,0.042639851570129395,0.33594363927841187,-0.36046290397644043,0.012925898656249046,-0.02893978447176454,-0.6116373101736877,0.6421659482013865
1687103393.093934,-0.029942231252789497,0.5626734495162964,-0.8261368274688721,-0.016276657581329346,0.008493542671203613,-0.02180933952331543,-0.02782897837460041,-0.20558683574199677,-0.023733511567115784,-0.03622781470809992,-0.5976162082370569,0.6430014592393093
1687103393.099801,-0.043432366102933884,0.5655587911605835,-0.8235635757446289,0.02164280414581299,-0.005561172962188721,0.012711524963378906,0.10243288427591324,-0.2683209180831909,-0.0619012676179409,-0.052688303364523126,-0.6011106258294362,0.6402503235772192
1687103393.1190019,-0.05331531539559364,0.5613447427749634,-0.8258629441261292,0.00015369057655334473,-0.01981031894683838,-0.00017154216766357422,0.05297479033470154,-0.16655217111110687,-0.022771043702960014,-0.06446763566162053,-0.5960097857471588,0.6382545527172968
1687103393.214829,-0.05925876647233963,0.5568425059318542,-0.8285015821456909,-0.005453765392303467,-0.016025185585021973,0.030268549919128418,0.14743684232234955,-0.07990981638431549,0.0010563908144831657,-0.07140363108652158,-0.5905795359277379,0.6373983763156804
1687103393.2271419,-0.060680266469717026,0.555731475353241,-0.8291444182395935,-0.004535794258117676,-0.02565634250640869,-0.010989189147949219,-0.06807014346122742,-0.01264114212244749,-0.0055887955240905285,-0.07305395390731305,-0.5892425359547084,0.6377124511119825
1687103393.3345652,-0.061336368322372437,0.5565230250358582,-0.8285650014877319,0.0005453377962112427,-0.0014235377311706543,0.004269957542419434,0.020028559491038322,0.029407354071736336,0.02139255404472351,-0.0738924441343569,-0.590194974708909,0.6376429077250879
1687103393.3474731,-0.05925710126757622,0.5553439259529114,-0.8295069336891174,0.0014720559120178223,0.001342475414276123,-0.013373315334320068,-0.004444293677806854,0.009699784219264984,0.008373958989977837,-0.07131538825231742,-0.5887764658951976,0.638786364991251
1687103393.4572902,-0.05834197625517845,0.5530219674110413,-0.8311215043067932,-0.0009078942239284515,0.01022571325302124,0.009557843208312988,0.10260013490915298,0.07115526497364044,0.010532516986131668,-0.0700817276984593,-0.585986942186015,0.6386536486977694
1687103393.462594,-0.05539257451891899,0.550107479095459,-0.8332547545433044,0.010485947132110596,0.0005364418029785156,-0.002667546272277832,0.047540344297885895,0.01965310424566269,-0.0025222983676940203,-0.06637969214151217,-0.5824929181214904,0.6395008455548686
1687103393.54818,-0.055315062403678894,0.5503334403038025,-0.8331106901168823,-0.001447632908821106,-0.020700812339782715,0.010097384452819824,-0.019009387120604515,0.02844260074198246,0.002170990686863661,-0.06629850717118532,-0.5827635149328805,0.639140126794391
1687103393.561417,-0.05361320078372955,0.5505172610282898,-0.8331004977226257,0.0037322044372558594,0.0010422468185424805,0.0009014010429382324,0.018775807693600655,0.03212348744273186,0.004622030071914196,-0.06426520459974006,-0.5829836850481843,0.6396164451449099
1687103393.5740762,-0.05189328268170357,0.5493002533912659,-0.8340122103691101,-0.003938615322113037,0.003418862819671631,-0.004839718341827393,0.009656079113483429,0.05156654119491577,0.003422875888645649,-0.0621411422219726,-0.5815266278296101,0.63981437645424
1687103393.6669822,-0.04930020868778229,0.5487889051437378,-0.8345059752464294,-0.0003213733434677124,-0.003455042839050293,-0.0019960403442382812,0.013015923090279102,0.0614299550652504,0.013649014756083488,-0.059008531658510915,-0.5809148279730607,0.6403360574544265
1687103393.679523,-0.04764307662844658,0.54979407787323,-0.8339404463768005,0.011784940958023071,-0.01234900951385498,-0.008848249912261963,-0.048975806683301926,0.004768230486661196,0.00511478167027235,-0.05706803832805292,-0.5821176678543656,0.6404649669607669
1687103393.7910671,-0.04624981805682182,0.5518725514411926,-0.8326449394226074,-0.0031581223011016846,0.004249274730682373,0.012271404266357422,-0.036466941237449646,0.059145718812942505,0.003194909542798996,-0.05548864607452164,-0.5846080551662927,0.6404771732761532
1687103393.7961311,-0.044534943997859955,0.5522051453590393,-0.8325179219245911,0.010385751724243164,-0.009587287902832031,0.00417935848236084,0.005581176374107599,0.023641543462872505,0.004890876356512308,-0.05344333500237522,-0.585006894107013,0.6407401148328361
1687103393.9039922,-0.04262080788612366,0.5523203611373901,-0.8325417041778564,-0.005520671606063843,-0.007688403129577637,0.0023567676544189453,-0.024909887462854385,0.06670501083135605,0.004670833237469196,-0.05114894993306885,-0.5851451141547122,0.6409955166943018
1687103393.916534,-0.040374502539634705,0.5533917546272278,-0.8319420218467712,0.008895635604858398,-0.002686798572540283,-0.00414806604385376,0.0002934699587058276,0.026397602632641792,-0.01608617790043354,-0.04849238271207965,-0.5864308677949601,0.64106584055557
1687103393.999003,-0.03949315845966339,0.5535695552825928,-0.8318659663200378,0.002078622579574585,-0.034434974193573,0.001986265182495117,-0.09430653601884842,0.18417960405349731,0.006245759781450033,-0.04743976496203523,-0.5866443264545078,0.6397815188881711
1687103394.004887,-0.023754363879561424,0.5571778416633606,-0.8300533294677734,-0.021533725783228874,0.05437910556793213,-0.011667191982269287,-0.18923385441303253,0.45672935247421265,0.05197589844465256,-0.02861006747754118,-0.5909833351567643,0.6442808809259902
1687103394.021761,0.0005924006109125912,0.5716560482978821,-0.8204931616783142,-0.03632849454879761,0.00324934720993042,0.009778439998626709,-0.29627057909965515,0.771052360534668,0.05855623632669449,0.0007220054075127129,-0.6085227934172882,0.6457800287416376
1687103394.080049,0.026432139798998833,0.5849000215530396,-0.8106745481491089,0.06399142742156982,0.005767643451690674,-0.07058149576187134,-0.6940451264381409,0.060385555028915405,0.13908231258392334,0.032593572414213186,-0.624756824862412,0.6502566709623478
1687103394.1111,0.024536030367016792,0.6056979298591614,-0.7953162789344788,-0.03623953461647034,-0.0765688419342041,0.025098443031311035,-0.30322301387786865,0.021635627374053,-0.06867289543151855,0.03084087566766072,-0.6506426887532022,0.6517200527728824
1687103394.1751041,0.024313177913427353,0.6147719025611877,-0.788330078125,0.0233094971626997,-0.06348717212677002,0.0018005967140197754,-0.40201616287231445,-0.06531675904989243,-0.009506504982709885,0.030831592845428666,-0.6620967586848252,0.6511390364472904
1687103394.20006,0.022236216813325882,0.6204195618629456,-0.7839547991752625,-0.008671164512634277,0.08156102895736694,0.02602022886276245,0.12144839018583298,-0.02249208465218544,-0.0088567603379488,0.028356554500539827,-0.6692775940783658,0.6502810146730805
1687103394.2653341,0.02120998315513134,0.6188068985939026,-0.7852567434310913,0.0004574935883283615,-0.03720289468765259,-0.008535921573638916,-0.029039651155471802,-0.00274208327755332,0.03361373394727707,0.027003686367773883,-0.6672229418807121,0.6505393193573807
1687103394.2908468,0.02818240597844124,0.6214448809623718,-0.7829508185386658,-0.020156294107437134,0.015655338764190674,-0.0064473748207092285,-0.1454288512468338,0.22344693541526794,0.11763859540224075,0.03597958207252572,-0.6705856151360263,0.6555602492887966
1687103394.320699,0.0413203202188015,0.6299033761024475,-0.7755736112594604,-0.006484508514404297,-0.025456905364990234,-0.01959240436553955,-0.2645739018917084,0.2342517077922821,0.12017732113599777,0.053226790249577306,-0.6814287831006342,0.6643630610800862
1687103394.38708,0.05259951204061508,0.6381987929344177,-0.7680726051330566,-0.004915807396173477,0.0120849609375,0.004019320011138916,-0.12920141220092773,0.2579295337200165,0.164869487285614,0.0683757155744519,-0.6921563805671739,0.6718876191311738
1687103394.448535,0.07248351722955704,0.6448490023612976,-0.7608652114868164,-0.00485655665397644,0.017565548419952393,-0.010115623474121094,-0.23846477270126343,0.4073221981525421,0.299340158700943,0.09497796625277176,-0.7008257179758745,0.6872286987410771
1687103394.5085878,0.10123308002948761,0.6491076946258545,-0.7539304494857788,-0.000555574893951416,-0.007307767868041992,-0.03409445285797119,0.04781491681933403,0.4010359048843384,0.3897901475429535,0.13347542291003114,-0.7064108458937833,0.7143830082906419
