Timestamp,gravityX,gravityY,gravityZ,accelerationX,accelerationY,accelerationZ,rotationRateX,rotationRateY,rotationRateZ,attitudeRoll,attitudePitch,attitudeYaw
1687098978.542829,0.8404150605201721,0.5416488647460938,0.017871884629130363,-0.002264857292175293,0.0099564790725708,-0.0018959026783704758,-0.0348631851375103,-0.013717437162995338,0.00903637707233429,1.5920586673235224,-0.572397402865746,2.705333412374509
1687098978.543096,0.8405017852783203,0.541503369808197,0.018195874989032745,-0.002214372158050537,0.01896721124649048,-0.005591988563537598,-0.018816841766238213,-0.0001735531259328127,-0.0016758549027144909,1.5924417692950879,-0.5722243354449053,2.706822031453518
1687098978.6234689,0.8403446674346924,0.5417231321334839,0.018890250474214554,0.003374755382537842,0.015680432319641113,-0.005630256608128548,-0.022072821855545044,0.0023716299328953028,-0.009260538034141064,1.5932717102597365,-0.5724857768118192,2.708270700217684
1687098978.812852,0.8397711515426636,0.5425899028778076,0.01951339654624462,0.006054103374481201,0.018780946731567383,-0.007092714309692383,-0.037842195481061935,0.0035372506827116013,-0.026048174127936363,1.5940287106775815,-0.5735173004914732,2.709576918397286
1687098978.8140612,0.8388671875,0.5439256429672241,0.02114016003906727,-0.0014342665672302246,0.013859450817108154,-0.010733604431152344,-0.055302947759628296,0.004436134360730648,-0.03426861763000488,1.5959918369847148,-0.5751082644506118,2.7127803980370593
1687098978.9881191,0.8376454710960388,0.5457443594932556,0.022654784843325615,0.0010843873023986816,0.009797632694244385,-0.01574254222214222,-0.02980238012969494,-0.002632849384099245,-0.03980419784784317,1.5978355257791312,-0.5772771467465558,2.7161099320957427
1687098978.992079,0.8364013433456421,0.5476488471031189,0.022664204239845276,0.00681459903717041,0.012577593326568604,-0.011220099404454231,-0.016725193709135056,0.0011078265961259604,-0.04457605257630348,1.597886982130912,-0.5795516350050023,2.7161479486499363
1687098979.022166,0.8353440761566162,0.5492557883262634,0.02277163788676262,0.0052474141120910645,0.004897773265838623,-0.010946035385131836,0.006497303489595652,-0.008063500747084618,-0.02950076013803482,1.598049767458818,-0.5814733732653985,2.716973199850657
1687098979.074163,0.8344255089759827,0.550666093826294,0.022380637004971504,0.0026715993881225586,0.0032584667205810547,-0.015117408707737923,-0.018268229439854622,-0.017752347514033318,-0.03335195779800415,1.597611509460838,-0.5831620235188159,2.717712616778896
1687098979.2017112,0.8334338068962097,0.5522186160087585,0.021043119952082634,0.0010846257209777832,0.010281383991241455,-0.019761325791478157,0.025539439171552658,-0.03022468462586403,-0.03598915413022041,1.5960396630298415,-0.5850230588843889,2.71709401246898
1687098979.205357,0.8327209949493408,0.5533655285835266,0.019047055393457413,0.0037659406661987305,-0.002752065658569336,-0.011493921279907227,-0.006966040935367346,-0.053705573081970215,-0.01528114639222622,1.5936656124845696,-0.5863993906748973,2.7170330776031504
1687098979.2280679,0.8322772979736328,0.5541272759437561,0.01605571061372757,-0.011918962001800537,0.008021831512451172,-0.003299236297607422,0.024422774091362953,-0.03876788169145584,-0.025997107848525047,1.5900852334400155,-0.587314189195042,2.7152308424303175
1687098979.345285,0.8316146731376648,0.5551757216453552,0.014045651070773602,-0.0036727190017700195,-0.0016783475875854492,-0.004478335380554199,0.02886972203850746,-0.03231298178434372,-0.028043679893016815,1.5876843353978558,-0.5885742194587725,2.714042412285185
1687098979.533492,0.8309320211410522,0.556229293346405,0.012690565548837185,0.0004736185073852539,-0.0038611292839050293,0.005604743026196957,0.003792331088334322,-0.00982993096113205,-0.01822666823863983,1.5860678268963904,-0.5898414439922406,2.7129024977240404
1687098979.535293,0.8304765224456787,0.556922972202301,0.012084297835826874,0.00045627355575561523,0.003944456577301025,-0.001418350264430046,0.026945054531097412,-0.002325964393094182,-0.018525542691349983,1.5853463412223758,-0.590676425749653,2.7117270652787178
1687098979.589395,0.8300045132637024,0.5576344132423401,0.011690428480505943,-0.002352476119995117,0.0044994354248046875,0.007627248764038086,0.03932023048400879,0.008057767525315285,-0.008707866072654724,1.584880172741807,-0.59153324245556,2.710395152631114
1687098979.6803,0.8296167850494385,0.5582223534584045,0.011130347847938538,-0.0051538944244384766,0.002782285213470459,0.0029535284265875816,-0.002267958363518119,0.017192542552947998,-0.0199702400714159,1.5842117736201342,-0.5922417302558091,2.708281842191689
1687098979.833818,0.828959047794342,0.5591835379600525,0.0118788443505764,-0.00414508581161499,0.0071312785148620605,-0.006324648857116699,0.049348630011081696,0.016013938933610916,-0.02250470593571663,1.585125178708117,-0.5934006228783139,2.708474897517898
1687098979.835583,0.8284932374954224,0.5598923563957214,0.010946907103061676,0.007902085781097412,0.0017990469932556152,-0.003988862037658691,0.02337748371064663,0.013855135068297386,-0.008742153644561768,1.5840085895260745,-0.5942558545513521,2.705367909915397
1687098979.8876472,0.8279866576194763,0.5606443285942078,0.01077532023191452,0.00021463632583618164,0.011850237846374512,-0.003496885299682617,0.036052800714969635,0.01095590740442276,-0.012519914656877518,1.5838094737093664,-0.5951637017485031,2.7037959626305494
1687098979.924052,0.8275048732757568,0.5613625645637512,0.010394817218184471,-0.0042778849601745605,0.008080244064331055,-0.005893349647521973,0.027034536004066467,0.009297379292547703,-0.01933574303984642,1.5833573043395333,-0.5960313421218585,2.7020915291688157
1687098980.0414128,0.8267852663993835,0.562428891658783,0.010004197247326374,-0.0008727908134460449,0.007944703102111816,-0.013193250633776188,0.017764072865247726,0.013890288770198822,-0.025290770456194878,1.5828958523292296,-0.5973203910237967,2.700159850907744
1687098980.045381,0.8259923458099365,0.5635958313941956,0.009843720123171806,-0.0024142861366271973,0.007586538791656494,-0.015275835059583187,0.016678834334015846,0.010195153765380383,-0.031659454107284546,1.5827132096639558,-0.5987324307382762,2.699102541826203
1687098980.067821,0.8251131176948547,0.5648946166038513,0.00908922404050827,-0.003595113754272461,0.002137303352355957,-0.016596436500549316,0.02776663936674595,0.004395565949380398,-0.03204674273729324,1.5818116122954573,-0.6003055403150863,2.6973696540509287
1687098980.098052,0.8242316246032715,0.566188633441925,0.008534767664968967,0.001680910587310791,-0.0022695064544677734,-0.010899782180786133,0.004103654529899359,-0.00444661732763052,-0.027227886021137238,1.5811507734425034,-0.6018745757439404,2.6963430135059845
1687098980.2794662,0.82366943359375,0.5670153498649597,0.007911564782261848,-0.0025939345359802246,0.0004132986068725586,-0.011955022811889648,0.002247164724394679,-0.011707703582942486,-0.015720300376415253,1.5804012989160807,-0.6028778583000365,2.696110622485184
1687098980.373742,0.8233076930046082,0.5675497055053711,0.007219826336950064,-0.001759171485900879,-0.00019735097885131836,-0.005922794342041016,0.013112063519656658,-0.010619336739182472,-0.011787278577685356,1.579565394494495,-0.6035267256869753,2.6956163800715958
1687098980.378088,0.8232768177986145,0.5676079392433167,0.006063861772418022,0.0008656978607177734,-0.00466543436050415,-0.006689429748803377,0.038938865065574646,-0.012546177953481674,0.00432923948392272,1.5781617133991828,-0.6035975030597549,2.694283091504332
1687098980.3979092,0.8235287666320801,0.5672460794448853,0.005705426912754774,-0.006054341793060303,-0.0037541985511779785,0.004792690277099609,-0.02037239260971546,0.0069443657994270325,0.002789200283586979,1.5777242396861366,-0.6031580304055909,2.69373517535248
1687098980.550331,0.8235677480697632,0.5671902298927307,0.0056529282592237,-0.009846866130828857,0.009744703769683838,-0.0016702408902347088,0.044054798781871796,0.007871723733842373,-0.003428614931181073,1.577660169706864,-0.6030901875869832,2.6930852576030575
1687098980.6422958,0.8237165212631226,0.5669769048690796,0.0053667896427214146,0.0021503567695617676,-0.002477884292602539,0.0017133955843746662,-0.009464617818593979,0.00665676686912775,0.01617617905139923,1.5773115705185794,-0.6028311869036266,2.692099749061484
1687098980.6468592,0.8240581154823303,0.5664793252944946,0.005429692566394806,-0.0011363625526428223,0.008120894432067871,-0.004941344726830721,0.0021803195122629404,0.0053091407753527164,0.011482423171401024,1.577385199067607,-0.6022272724127842,2.6920927567369706
1687098980.7303581,0.8244354724884033,0.5659353733062744,0.004876691848039627,-0.006976187229156494,0.013624072074890137,0.00028085755184292793,0.044481173157691956,-0.0006607563700526953,0.015926508232951164,1.5767114471093202,-0.6015673397749536,2.6908417435896563
1687098980.881988,0.8248119950294495,0.5653961300849915,0.003550410270690918,0.0035572052001953125,0.011676013469696045,0.00024902820587158203,0.046047110110521317,-0.0013312736991792917,0.013877138495445251,1.575100808720432,-0.6009134690182099,2.68851874622071
1687098980.883987,0.8249231576919556,0.5652397871017456,0.0024306587874889374,-0.0003992319107055664,0.008002400398254395,-0.0010877849999815226,-0.005887726787477732,-9.625486563891172e-05,-0.001524654682725668,1.5737428458108338,-0.6007239342730426,2.686554709563475
1687098980.942028,0.8248823881149292,0.5652999877929688,0.0022386566270142794,-0.0028914213180541992,0.01680755615234375,-0.004832625389099121,0.018916422501206398,-0.009819012135267258,-0.003291928209364414,1.5735102300513963,-0.6007968804603085,2.686455736529675
1687098981.092835,0.8247527480125427,0.565491259098053,0.0016523313242942095,-0.0009154081344604492,0.012389600276947021,-0.003330707550048828,-0.00610504113137722,-0.012705878354609013,-0.004677038174122572,1.5727997503867914,-0.601028797725526,2.686193977350591
1687098981.0978851,0.8243438005447388,0.5660862922668457,0.0019626980647444725,-0.003359854221343994,0.007857799530029297,-0.0067234039306640625,0.007558839861303568,4.9841590225696564e-05,-0.01934206858277321,1.5731772441165985,-0.6017504557829259,2.687418338666836
1687098981.239697,0.8236081004142761,0.5671583414077759,0.001228605629876256,0.0008244514465332031,0.007426738739013672,-0.0043566226959228516,0.005868531297892332,0.0056364210322499275,-0.027253054082393646,1.5722880614469301,-0.6030514676617911,2.6855828526500334
1687098981.2455301,0.8229982256889343,0.5680431723594666,0.0011141285067424178,0.0036162137985229492,0.0024677515029907227,-0.007507443428039551,0.010317075997591019,-0.00636293925344944,-0.010400703176856041,1.5721500694529411,-0.6041261974746057,2.685594628672767
1687098981.265696,0.8227138519287109,0.5684553980827332,0.0006856654654257,-0.0030117034912109375,0.0003007650375366211,-0.005904078483581543,-0.03265542536973953,-0.004666062071919441,-0.008724777027964592,1.5716297457405666,-0.6046271876048924,2.685631381114027
1687098981.298075,0.8221844434738159,0.5692206025123596,0.0009316352661699057,-0.012125790119171143,0.006859779357910156,-0.007920265197753906,0.03348977118730545,0.0071868691593408585,-0.02465474046766758,1.5719294483471602,-0.6055575600209047,2.68606731147458
1687098981.42521,0.8217313289642334,0.569874107837677,0.0011417566565796733,0.009384453296661377,-0.009891808032989502,-0.002987980842590332,-0.03307274356484413,0.0040808022022247314,-0.006037180777639151,1.5721857784644253,-0.606352624890996,2.686184339403186
1687098981.4271998,0.8217101097106934,0.569901704788208,0.002219097688794136,-0.0018857121467590332,-0.006119847297668457,-0.004080653190612793,-0.03432575985789299,-0.0013338036369532347,0.009356820955872536,1.5734969047719194,-0.6063861960255197,2.6882825135122643
1687098981.448595,0.8221951723098755,0.5692021250724792,0.0020976285450160503,-0.004888594150543213,-0.0036349892616271973,-0.014182448387145996,0.017393894493579865,-0.0022596295457333326,0.020335104316473007,1.573347575121455,-0.605535092097624,2.688346458331316
1687098981.513681,0.8228419423103333,0.5682658553123474,0.002351417439058423,0.003864109516143799,-0.006818652153015137,-0.00927877426147461,-0.03035285510122776,-0.0035056336782872677,0.02492159977555275,1.5736539973135113,-0.6043968031724433,2.6890176019322563
1687098981.575866,0.823755145072937,0.5669417381286621,0.0021905777975916862,0.00015848875045776367,0.001753389835357666,-0.014107704162597656,-0.005675739608705044,-0.023751849308609962,0.03521158918738365,1.573455578966259,-0.6027885514275854,2.690015388501235
1687098981.662414,0.824685275554657,0.5655888319015503,0.0019374929834157228,-0.001916050910949707,0.008233249187469482,-0.011092662811279297,-0.004856018349528313,-0.021539028733968735,0.031566254794597626,1.573145695069558,-0.6011471191671861,2.6911731466153332
1687098981.664582,0.8254224061965942,0.564514696598053,0.0011464778799563646,-0.0006084442138671875,0.011443614959716797,-0.005098462104797363,-0.00578998913988471,-0.018771516159176826,0.021125463768839836,1.572185284978385,-0.5998451620084527,2.69108683856966
1687098981.749964,0.8259075880050659,0.5638043880462646,0.0012897637207061052,0.0011951923370361328,0.009590446949005127,-0.004661917686462402,-0.026057442650198936,-0.01638192869722843,0.013606627471745014,1.5723579575379854,-0.5989848819670492,2.692841792560137
1687098981.874319,0.8260611295700073,0.5635805726051331,0.0005216966383159161,-0.002406895160675049,0.011263847351074219,-0.009112358093261719,0.01568334549665451,-0.018922340124845505,0.006191788241267204,1.571427873972509,-0.5987139136946628,2.692743277398298
1687098981.877193,0.8260939121246338,0.5635325908660889,-0.00011978680413449183,0.0028551220893859863,0.005986511707305908,0.0005013346672058105,-0.02342437580227852,-0.018712837249040604,0.005327325779944658,1.5706513229434635,-0.5986558481926323,2.6926907517805674
1687098981.897469,0.826158881187439,0.5634372234344482,-0.00035495206248015165,0.002545952796936035,0.008034944534301758,-0.0026204586029052734,-0.020210206508636475,-0.023853959515690804,0.006742596626281738,1.5703666854034266,-0.5985404227479432,2.6942272605249076
1687098981.961403,0.8261861205101013,0.5633970499038696,-0.0006946030189283192,-0.0012806057929992676,0.009112775325775146,-0.00020557641983032227,-0.01512676477432251,-0.013946578837931156,-0.005560209043323994,1.569955592678652,-0.5984918221929258,2.695145278351712
1687098982.11521,0.8259776830673218,0.5637025833129883,-0.0006209022249095142,-0.004719138145446777,0.006777822971343994,-0.0016220808029174805,-0.020618734881281853,-0.010278163477778435,-0.0113728241994977,1.5700446089970128,-0.5988616319953163,2.6964825696699837
1687098982.117578,0.8255624175071716,0.5643105506896973,-0.0008274125284515321,-0.00099259614944458,0.00671917200088501,-0.004406273365020752,-0.0015129521489143372,-0.0014336500316858292,-0.013173986226320267,1.56979408609338,-0.5995978580916352,2.696433084901746
1687098982.140792,0.825394868850708,0.5645551681518555,-0.0008728782995603979,0.0001360774040222168,0.006474494934082031,-0.0010496972827240825,0.004595007747411728,-0.009049935266375542,-0.0011053397320210934,1.5697387990425824,-0.5998942340167546,2.696972310607952
1687098982.265314,0.8252062201499939,0.5648313164710999,-0.0006947321235202253,0.0008283853530883789,0.0010561943054199219,-0.0024790167808532715,-0.01579734869301319,0.00253809941932559,-0.01240859366953373,1.5699544379282642,-0.6002288151921622,2.6979663521451487
1687098982.268224,0.8248777985572815,0.5653111338615417,-9.160422632703558e-05,-0.0017271637916564941,0.0017818212509155273,0.000229001059778966,-0.042788486927747726,0.020146699622273445,-0.011798864230513573,1.5706852749119595,-0.6008103683572414,2.698263425011638
1687098982.386248,0.8244659304618835,0.5659037828445435,0.0030160988681018353,-0.0009032487869262695,0.004057824611663818,0.0017294883728027344,-0.06306765973567963,0.028131186962127686,-0.01675427332520485,1.5744545561816703,-0.6015290664740667,2.70262249483668
1687098982.390753,0.8242420554161072,0.5662198662757874,0.00452421372756362,0.008109807968139648,0.007022440433502197,-0.0179060697555542,-0.0037217780482023954,0.0037243380211293697,-0.0034500532783567905,1.5762852099606244,-0.6019124624685502,2.7043613228452696
1687098982.40863,0.8242479562759399,0.5662196278572083,0.0032967005390673876,0.006257474422454834,0.0020635128021240234,-0.030899763107299805,0.0318780280649662,-0.053267043083906174,0.01029159128665924,1.574795952047985,-0.6019121601476636,2.703925735410033
1687098982.4710422,0.8249524831771851,0.5651994943618774,-0.0017364418599754572,0.009489655494689941,0.005387663841247559,-0.0016356705455109477,0.015844998881220818,-0.07322816550731659,0.02499297261238098,1.5686914305800348,-0.6006750471221766,2.7001422818961625
1687098982.624826,0.8253049850463867,0.5646809935569763,-0.0026703239418566227,-0.004687309265136719,-0.004652917385101318,0.0020142795983701944,-0.09607727080583572,-0.05555014684796333,0.0006305086426436901,1.5675607779266036,-0.6000466720127945,2.7039629663614027
1687098982.627563,0.8253800272941589,0.5645720958709717,-0.0025318486150354147,0.00433194637298584,0.0004457235336303711,-0.002503514289855957,-0.0361311174929142,-0.03524729609489441,0.017366547137498856,1.567728842086087,-0.5999147116777116,2.708868293165276
1687098982.712092,0.8255365490913391,0.5643413066864014,-0.002969068707898259,-0.011937737464904785,0.005971312522888184,0.0035794968716800213,-0.07631421834230423,-0.030814465135335922,0.001772938296198845,1.5671998103708744,-0.5996351284599654,2.7105428172349986
1687098982.771439,0.8254818320274353,0.5644264817237854,-0.0016590169398114085,-0.006054222583770752,-0.004154205322265625,-0.012668907642364502,-0.08582863211631775,-0.039596572518348694,-0.012928709387779236,1.5687865736328686,-0.5997383535395405,2.716735246567211
1687098982.926317,0.8255999684333801,0.5642496347427368,-0.0026944184210151434,0.012397527694702148,0.030797481536865234,-0.0016238093376159668,0.0658210813999176,-0.02498975396156311,0.020247353240847588,1.5675327500265213,-0.5995240748722991,2.7163746510157982
1687098982.932337,0.8247564435005188,0.565478503704071,-0.0033204671926796436,-0.015811681747436523,0.07520759105682373,0.01816737651824951,-0.11750692874193192,-0.005532477051019669,-0.09543757140636444,1.5667703511930977,-0.6010133181082775,2.7175023362377204
1687098982.947305,0.8200297951698303,0.5723209977149963,-2.440541902615223e-05,-0.014365673065185547,0.08348649740219116,0.028756797313690186,0.034185122698545456,0.09356553852558136,-0.2332419753074646,1.5707665651695566,-0.6093334720347982,2.7208329647175162
1687098982.9786801,0.8114412426948547,0.5843971371650696,0.006601677276194096,-0.0013519525527954102,0.03845149278640747,0.048757314682006836,-0.08781934529542923,0.17557822167873383,-0.31498396396636963,1.5789318898834592,-0.624136947844468,2.7221130617496274
1687098983.162991,0.8023267984390259,0.5966190099716187,0.017825445160269737,0.014110028743743896,-0.0182192325592041,0.012402176856994629,-0.050490349531173706,0.20975914597511292,-0.2861390709877014,1.5930098590291153,-0.6392815127121683,2.7296963692249703
1687098983.166034,0.7940495014190674,0.6071596145629883,0.029033644124865532,0.008974969387054443,-0.078915536403656,0.013813141733407974,-0.11887712776660919,0.266267865896225,-0.23336774110794067,1.6073440685060143,-0.6524810058301937,2.7333350652985176
1687098983.189077,0.7877575755119324,0.6145134568214417,0.04256105795502663,0.0008319616317749023,-0.09850692749023438,-0.012363791465759277,-0.012174651026725769,0.2553821802139282,-0.10865224152803421,1.6247719649620538,-0.661769117147984,2.739548997368973
1687098983.250011,0.786487340927124,0.6154776811599731,0.05123434588313103,0.0229455828666687,-0.14059358835220337,-0.020289428532123566,0.018113745376467705,0.21666361391544342,0.05540400743484497,1.635847665224798,-0.6629918766766887,2.738065114188133
1687098983.343761,0.7906461358070374,0.6095495820045471,0.057691652327775955,0.018542885780334473,-0.16028493642807007,-0.04418765753507614,0.06846000999212265,0.1208886206150055,0.2632085978984833,1.6436349667815333,-0.6554922852493991,2.736483918254539
1687098983.3468142,0.8012114763259888,0.5956746935844421,0.056850261986255646,0.01955878734588623,-0.09533900022506714,-0.05277610197663307,0.036589693278074265,-0.020133789628744125,0.4313284754753113,1.6416329830282388,-0.6381054028129223,2.7294585649103436
1687098983.400484,0.815561056137085,0.5762329697608948,0.05306701362133026,-0.004968225955963135,-0.012466371059417725,-0.03437494486570358,0.12172109633684158,-0.09765031188726425,0.5108430981636047,1.6357728397356708,-0.6141119962536785,2.7246340883569182
1687098983.432677,0.8298341631889343,0.5560661554336548,0.04653923958539963,0.0003355741500854492,0.037714481353759766,-0.02087390422821045,0.01905863545835018,-0.10849816352128983,0.44901782274246216,1.6268202185452263,-0.5896451625407051,2.7182188942682477
1687098983.585486,0.8407431244850159,0.5398315191268921,0.041629619896411896,-0.0005026459693908691,0.09790956974029541,-0.025623206049203873,0.032381098717451096,-0.08893442898988724,0.32107627391815186,1.6202711879644207,-0.5702369272105531,2.715204311289972
1687098983.592802,0.8478726744651794,0.5288833975791931,0.037343479692935944,-0.002398371696472168,0.12028658390045166,-0.023305416107177734,0.03919479623436928,-0.0805140882730484,0.18939723074436188,1.614811614246045,-0.5572843739674478,2.7125224654726177
1687098983.733372,0.8517569899559021,0.522830069065094,0.0340411476790905,0.002185821533203125,0.107541024684906,-0.01304507628083229,-0.03618890792131424,-0.09354617446660995,0.09759221225976944,1.6107408660446993,-0.5501675560306336,2.713031328300757
1687098983.791366,0.8529011607170105,0.521166205406189,0.030751772224903107,-0.012492775917053223,0.10279625654220581,0.0028634071350097656,-0.02379561960697174,-0.06778883934020996,-0.018233327195048332,1.6068362081848688,-0.548216847584553,2.7136096556200666
1687098983.8841538,0.8516557812690735,0.5233067274093628,0.028857670724391937,0.0018447041511535645,0.05758023262023926,0.005810383707284927,0.010303759947419167,-0.04225720092654228,-0.07137084752321243,1.6046675623661526,-0.5507268584239507,2.714576731914294
1687098983.8875918,0.8499788641929626,0.5260984301567078,0.027507614344358444,0.007015824317932129,0.0027407407760620117,0.0064280033111572266,-0.03210015594959259,-0.03422807902097702,-0.052994370460510254,1.6031477403518941,-0.5540062375338638,2.71550070787038
1687098983.9096189,0.8490360975265503,0.5276834964752197,0.026230204850435257,-0.0011051297187805176,-0.008365809917449951,-0.009689569473266602,-0.028757888823747635,-0.06505610048770905,-0.012796283699572086,1.6016806033290483,-0.5558711321647669,2.7169434274792064
1687098984.03742,0.8487140536308289,0.5283084511756897,0.02397296205163002,0.010630428791046143,0.027615010738372803,-0.028291108086705208,-0.1033378466963768,-0.10153281688690186,-0.03304756060242653,1.599035035763827,-0.5566070544064731,2.7196196370755703
1687098984.045119,0.8470064997673035,0.5311005711555481,0.022634144872426987,0.003136932849884033,0.0903288722038269,-0.056661248207092285,-0.22018910944461823,-0.1559518575668335,-0.12309569120407104,1.5975124835159369,-0.5598989376740026,2.7290438973819833
1687098984.059362,0.8423141241073608,0.5385863780975342,0.02077958546578884,0.009690940380096436,0.1809723973274231,-0.07452106475830078,-0.18006111681461334,-0.24440976977348328,-0.24275565147399902,1.595460963365533,-0.5687584934677763,2.74361743203146
1687098984.118931,0.8327183127403259,0.5535810589790344,0.011337008327245712,0.03887903690338135,0.34369683265686035,-0.11750757694244385,-0.2130499631166458,-0.39399832487106323,-0.511576771736145,1.5844099433848562,-0.5866581558538139,2.752887542239937
1687098984.215352,0.8120765089988708,0.5835480093955994,-0.001939894980750978,0.06632637977600098,0.4727265238761902,-0.09771519899368286,-0.2627629339694977,-0.4881576597690582,-0.9753031730651855,1.568407523171056,-0.6230908999137778,2.7654920892615347
1687098984.218893,0.7737998366355896,0.6332590579986572,-0.014727686531841755,0.0918160080909729,0.5532338619232178,-0.029736340045928955,0.04007204249501228,-0.35372263193130493,-1.5495717525482178,1.551765684250272,-0.685756995817223,2.77544689401963
1687098984.241911,0.710202693939209,0.7035455107688904,-0.02521948143839836,0.2117791771888733,0.4942237138748169,0.03908979892730713,-0.010232407599687576,-0.20870305597782135,-2.1860759258270264,1.5353009825065487,-0.7803743804502029,2.7713711487817876
1687098984.334958,0.620137631893158,0.7832533717155457,-0.04408778250217438,0.3166147470474243,0.5216783285140991,0.07080596685409546,0.7394708395004272,-0.16410575807094574,-2.6121153831481934,1.499822195718251,-0.8998816672579159,2.7357628049250953
1687098984.337432,0.5034549832344055,0.8609118461608887,-0.07323970645666122,0.4602290987968445,0.3788648247718811,0.1175360158085823,0.3996903896331787,-0.12439297139644623,-3.015355348587036,1.4263355117686236,-1.0370593170711517,2.656274921991462
1687098984.483852,0.35914504528045654,0.9276736378669739,-0.10215984284877777,0.566773533821106,0.3202512264251709,0.14918744564056396,0.9918250441551208,0.06133073568344116,-3.336684465408325,1.293663266423478,-1.188133510304586,2.5113625738620255
1687098984.487646,0.19459471106529236,0.9690046906471252,-0.15219353139400482,0.6942754983901978,0.18639087677001953,0.13127374649047852,0.989328920841217,-0.023564163595438004,-3.5058979988098145,0.9070625337604687,-1.3211694634730937,2.10491689893676
1687098984.541013,0.021366318687796593,0.9758555293083191,-0.21736988425254822,0.6953542232513428,0.16194665431976318,0.17176145315170288,1.6558481454849243,-0.08261780440807343,-3.5124459266662598,0.09798000545450276,-1.3506043164424815,1.2783179358814074
1687098984.6023412,-0.15216456353664398,0.9464954137802124,-0.2845918834209442,0.7182046175003052,0.03729987144470215,0.1958773136138916,1.2703502178192139,-0.21321749687194824,-3.63037371635437,-0.49100237878213976,-1.2421973666823984,0.6771547021938479
1687098984.72769,-0.3228115141391754,0.875580906867981,-0.3593754768371582,0.7255061864852905,0.06384164094924927,0.2725987732410431,2.076833724975586,-0.20684689283370972,-3.63549542427063,-0.7318512686652335,-1.0666370545844168,0.42453714200447157
1687098984.730369,-0.4768601655960083,0.7647753357887268,-0.43327048420906067,0.6884689331054688,-0.04234778881072998,0.2955904006958008,1.6811729669570923,-0.46040159463882446,-3.5125834941864014,-0.8332554733721279,-0.8706925664505955,0.3223769996145255
1687098984.781876,-0.6095618009567261,0.6339627504348755,-0.4759473502635956,0.6022374629974365,0.021264970302581787,0.31978893280029297,1.4789921045303345,-0.486365407705307,-3.4000799655914307,-0.9078713209752294,-0.6866665645517642,0.25203471599347793
1687098984.870771,-0.7175542116165161,0.4923342764377594,-0.49266910552978516,0.5612889528274536,-0.05716890096664429,0.29071906208992004,0.8827398419380188,-0.4177589416503906,-3.4497714042663574,-0.9691237987226674,-0.514769551858206,0.1827363542288843
1687098984.995868,-0.7975665330886841,0.33776265382766724,-0.49980413913726807,0.4937945008277893,-0.06958943605422974,0.21374762058258057,1.3387274742126465,-0.4029037654399872,-3.1516048908233643,-1.0110032103344737,-0.3445388450349562,0.13424983108237787
1687098984.99862,-0.8457923531532288,0.17621728777885437,-0.5035700798034668,0.40022045373916626,-0.10707974433898926,0.20777851343154907,1.5180574655532837,-0.39412856101989746,-2.838975667953491,-1.033778886849531,-0.17714227716789763,0.11731856487644109
1687098985.016819,-0.8691370487213135,0.02606380730867386,-0.4938841462135315,0.3351556658744812,-0.14560118317604065,0.1838865876197815,1.1938722133636475,-0.3322629928588867,-2.5762321949005127,-1.0540522514367372,-0.02606675862950455,0.10745608831961642
1687098985.052387,-0.8714656233787537,-0.11386881023645401,-0.47705522179603577,0.2897700071334839,-0.10575098544359207,0.10281819105148315,1.355733871459961,-0.3422190248966217,-2.4430439472198486,-1.0699382738221717,0.11411632709282009,0.10114395422400378
1687098985.206295,-0.8592413067817688,-0.24656333029270172,-0.4482310116291046,0.22363638877868652,-0.16971173882484436,0.0807841420173645,1.3226875066757202,-0.41308486461639404,-2.1253392696380615,-1.0899719863397375,0.24913250273486207,0.10925992174175009
1687098985.214776,-0.8386605381965637,-0.3563701808452606,-0.4118845462799072,0.21420979499816895,-0.19314464926719666,0.086078941822052,0.9921321272850037,-0.4408891797065735,-1.781050205230713,-1.114276391709496,0.3643801104137611,0.11928494502823424
1687098985.228901,-0.817516565322876,-0.4351358115673065,-0.3772582411766052,0.1469690203666687,-0.22050392627716064,0.052886962890625,0.6213650107383728,-0.46631568670272827,-1.2745423316955566,-1.1384461282157747,0.4501891045761025,0.12311098846848752
1687098985.260011,-0.8025509119033813,-0.4849330186843872,-0.347493976354599,0.09696924686431885,-0.23331347107887268,0.058111101388931274,0.3418337404727936,-0.45386558771133423,-0.8237518668174744,-1.1621802462398036,0.5062865847456401,0.12196487308004167
1687098985.3217568,-0.7922074198722839,-0.5174992680549622,-0.3234223425388336,0.09860390424728394,-0.15405529737472534,0.0668611228466034,0.21532800793647766,-0.3494144678115845,-0.5668748617172241,-1.1831942025234738,0.5439258644219446,0.1220389551625756
1687098985.5055451,-0.7831681370735168,-0.5388724207878113,-0.31026491522789,0.06563878059387207,-0.0887521505355835,0.0975879430770874,-0.030246328562498093,-0.19470268487930298,-0.46044036746025085,-1.1935991187711494,0.569097983928126,0.11565053819180092
1687098985.51483,-0.7741773724555969,-0.5551376342773438,-0.3040919601917267,0.0553203821182251,-0.0691910982131958,0.056304484605789185,0.21622496843338013,-0.11619452387094498,-0.33944907784461975,-1.1965177141363177,0.588528431321567,0.1093354740071072
1687098985.529455,-0.7669184803962708,-0.5711137056350708,-0.2926861047744751,0.03768575191497803,-0.0387037992477417,0.07501956820487976,0.35222193598747253,0.021659839898347855,-0.27280962467193604,-1.2062177616949494,0.6078619737985135,0.11993635075524199
1687098985.592811,-0.7594653367996216,-0.5841189026832581,-0.286387175321579,0.03249078989028931,-0.04825115203857422,0.06127429008483887,0.1846337467432022,0.07685250043869019,-0.1877957284450531,-1.2101941216310184,0.6237941190997143,0.13042024814000835
1687098985.684569,-0.7533782124519348,-0.5911035537719727,-0.28812849521636963,0.0051177144050598145,-0.0733710527420044,0.052029311656951904,0.0666184350848198,0.14319971203804016,-0.09801211208105087,-1.2055113580624652,0.6324262902755012,0.13321387863923925
1687098985.6880379,-0.7494316697120667,-0.5940679311752319,-0.2922937572002411,0.022731781005859375,-0.05726879835128784,0.009960412979125977,0.006540979258716106,0.15204539895057678,-0.022433996200561523,-1.198922426016245,0.6361064923080082,0.13592878778896816
1687098985.708498,-0.7492704391479492,-0.5922250747680664,-0.29641762375831604,0.03378582000732422,-0.09046852588653564,-0.011886119842529297,-0.03745683655142784,0.06432336568832397,0.13796579837799072,-1.1940815867027363,0.6338174350415913,0.1359864932213845
1687098985.986401,-0.7537005543708801,-0.5828613638877869,-0.3036581575870514,0.06215691566467285,-0.1307007074356079,0.040108442306518555,-0.2690301537513733,0.08964794874191284,0.26240476965904236,-1.1878013358418393,0.6222456590442899,0.13139100447973723
1687098985.995897,-0.7618827223777771,-0.5658249855041504,-0.31524109840393066,0.10546481609344482,-0.15591579675674438,0.06968146562576294,-0.2288648784160614,0.18250206112861633,0.44126635789871216,-1.1784793805850557,0.6014334831435341,0.12627841121932376
1687098986.0441031,-0.7721672654151917,-0.5401021838188171,-0.33473461866378784,0.18241512775421143,-0.28787022829055786,0.1822536289691925,-0.2362956404685974,0.4576919376850128,0.7279210686683655,-1.161748071164686,0.5705585269840971,0.12452799254531144
1687098986.1644092,-0.786188006401062,-0.49946847558021545,-0.36392268538475037,0.2354220151901245,-0.3529485762119293,0.25268614292144775,-0.27537328004837036,0.803059458732605,1.1930590867996216,-1.1372706043412721,0.5229851412839283,0.1373906002849958
1687098986.16887,-0.8023796677589417,-0.4300130009651184,-0.4138549268245697,0.3166618347167969,-0.39942431449890137,0.2958892583847046,-0.5901024341583252,1.0970344543457031,1.791916847229004,-1.0946010860175777,0.4445071850628093,0.14963283794356547
1687098986.2556639,-0.8152382373809814,-0.33318188786506653,-0.4736841320991516,0.34059828519821167,-0.35334160923957825,0.2824305295944214,-0.6880753636360168,1.2893770933151245,2.3348214626312256,-1.0444364229303618,0.33967628077394385,0.17563129853909018
1687098986.265544,-0.8148254156112671,-0.20470885932445526,-0.5423595309257507,0.4283813238143921,-0.3068573474884033,0.2783825397491455,-0.8346839547157288,1.4842240810394287,2.854640483856201,-0.9835225643037454,0.2061662581483306,0.2093002292230581
1687098986.281085,-0.7903326749801636,-0.0575314462184906,-0.6099708676338196,0.4325140714645386,-0.21363253891468048,0.22282493114471436,-1.0159136056900024,1.6190428733825684,3.266594648361206,-0.9134948565908052,0.057563232038231466,0.2683170871308442
1687098986.340719,-0.7356480360031128,0.11562810093164444,-0.6674219965934753,0.5475376844406128,-0.17797553539276123,0.18104815483093262,-1.5468357801437378,1.4588390588760376,3.4169235229492188,-0.8339861426154033,-0.11588731831268295,0.32229734622020545
1687098986.43818,-0.6508774757385254,0.2933559715747833,-0.7002148032188416,0.4973739981651306,-0.08048063516616821,0.15054750442504883,-1.8621010780334473,1.3053719997406006,3.612058401107788,-0.7488977618816491,-0.2977353819563179,0.39087655183046427
1687098986.4479408,-0.5376772880554199,0.4768654704093933,-0.6953434944152832,0.5300478339195251,-0.01629418134689331,0.1735386848449707,-2.1203763484954834,1.1080055236816406,3.6960713863372803,-0.6582184373448791,-0.497085138431853,0.4681342079655122
1687098986.461375,-0.4019891321659088,0.6398898959159851,-0.6549394726753235,0.5542870759963989,-0.006009280681610107,0.14378535747528076,-2.3974881172180176,0.759376585483551,3.7333879470825195,-0.5504907301622481,-0.6943549615858231,0.5761214453534682
1687098986.522019,-0.24900180101394653,0.783064067363739,-0.5699200630187988,0.5164120197296143,0.06494313478469849,0.17612123489379883,-2.7372357845306396,0.43118906021118164,3.7686362266540527,-0.4119122199774076,-0.899577291148045,0.7296078914606128
1687098986.645711,-0.07693003118038177,0.8738337755203247,-0.48010045289993286,0.4592694938182831,0.19777578115463257,0.09737956523895264,-1.691834807395935,0.25733938813209534,3.908838987350464,-0.15888668927290092,-1.0630320346164182,1.0090954461435886
1687098986.650842,0.09644851088523865,0.9130118489265442,-0.39636746048927307,0.45678937435150146,0.17928862571716309,0.23268646001815796,-1.9635899066925049,0.3380952477455139,3.5008678436279297,0.2386922198168659,-1.1506072785103039,1.4323144273871513
1687098986.769027,0.2534791827201843,0.9116071462631226,-0.3236059248447418,0.2940213978290558,0.3812853693962097,0.1426061987876892,-1.2602813243865967,0.3963472247123718,3.0178380012512207,0.6644722163432688,-1.1471770085935098,1.8835791313260997
1687098986.778942,0.39474213123321533,0.8784745931625366,-0.2691860496997833,0.3702114522457123,0.30530232191085815,0.1214657723903656,-0.7631322741508484,0.4129456877708435,2.911004066467285,0.9723018875163831,-1.0726600725159519,2.2051979133230946
1687098986.886207,0.5158564448356628,0.8220958709716797,-0.24093759059906006,0.25324761867523193,0.38170069456100464,0.14943066239356995,-0.2043994814157486,0.5333852767944336,2.6006298065185547,1.1338435672780132,-0.965082432632904,2.3654816568634898
1687098986.8960838,0.6184489130973816,0.7555188536643982,-0.2161298543214798,0.16437268257141113,0.4195147156715393,0.05310501158237457,-0.1763039380311966,0.6143930554389954,2.1907958984375,1.23459301682663,-0.8564457595368958,2.457064158119006
1687098986.911032,0.6971601843833923,0.6902004480361938,-0.19388407468795776,0.15360885858535767,0.44416844844818115,-0.0012147128582000732,0.11872158199548721,0.6061875820159912,1.8265635967254639,1.299545273968619,-0.7617660195173901,2.505273333307358
1687098986.940216,0.7570057511329651,0.6283897757530212,-0.179077610373497,0.11628532409667969,0.40231096744537354,0.02993828058242798,0.36654600501060486,0.7906954288482666,1.3731986284255981,1.338506111296425,-0.6794815107878164,2.5121263968470546
1687098987.093252,0.8041609525680542,0.5739924311637878,-0.15445971488952637,0.16655737161636353,0.27578479051589966,-0.023884937167167664,0.16601799428462982,0.7993898391723633,1.288880705833435,1.3810318481322452,-0.6113731634801889,2.5148942831251873
1687098987.1037269,0.8396570086479187,0.5266258120536804,-0.13282062113285065,0.03871512413024902,0.3712317943572998,-0.10649815201759338,0.3837718665599823,0.7422881126403809,0.8869296908378601,1.4139118680162193,-0.5546264494645398,2.504854481164125
1687098987.152004,0.8622573614120483,0.49546894431114197,-0.10499066114425659,0.048249900341033936,0.2092430293560028,-0.12378430366516113,-0.19457854330539703,0.6178232431411743,0.639858067035675,1.449630227594322,-0.5183746071964866,2.5077544039706323
1687098987.214998,0.8777214884757996,0.47223031520843506,-0.0812637209892273,0.019617438316345215,0.29714837670326233,-0.16846156120300293,0.23984454572200775,0.4457676410675049,0.42601561546325684,1.4784746600949146,-0.4918192823711929,2.512405903055923
1687098987.24442,0.8867530226707458,0.45621275901794434,-0.07442547380924225,0.017589688301086426,0.2560523450374603,-0.17075270414352417,0.4347037672996521,0.28394031524658203,0.16999830305576324,1.487062246551379,-0.47373457411779296,2.490762347835562
1687098987.3666968,0.8886959552764893,0.45297378301620483,-0.0709553211927414,0.009238183498382568,0.17274349927902222,-0.1557139754295349,0.020628036931157112,0.11338638514280319,-0.0507669672369957,1.4911232727978483,-0.47009814376244474,2.4773649170168808
1687098987.371848,0.8860933780670166,0.45907217264175415,-0.06396465003490448,0.017486393451690674,0.09848397970199585,-0.10165423154830933,-0.2809632420539856,0.03771339729428291,-0.16992312669754028,1.4987340729983687,-0.47695054470721826,2.486577930483568
1687098987.4255018,0.8811962604522705,0.4688803553581238,-0.06037113070487976,0.0032032132148742676,0.05681547522544861,-0.08005541563034058,0.053733523935079575,-0.007615468464791775,-0.2433571219444275,1.5023927909507728,-0.48802273378273414,2.4937858645937245
1687098987.51364,0.8754578828811646,0.47876855731010437,-0.0659879818558693,0.00994873046875,-0.014794528484344482,-0.04595041275024414,0.17482426762580872,-0.05073568597435951,-0.2237996608018875,1.4955631909584928,-0.4992515387691507,2.4821633073717604
1687098987.696516,0.8707441687583923,0.486889511346817,-0.06887258589267731,0.02052175998687744,-0.07851850986480713,-0.004888355731964111,-0.08536284416913986,-0.053292166441679,-0.133579283952713,1.491864426217109,-0.5085250966575185,2.4809265244942003
1687098987.701853,0.8684278130531311,0.49050384759902954,-0.07238250225782394,0.013911724090576172,-0.060175418853759766,-0.022679686546325684,0.04550622031092644,-0.08015590906143188,-0.05225114896893501,1.4876396352893861,-0.5126678350030666,2.4803043944139156
1687098987.8174171,0.8681204319000244,0.49048957228660583,-0.07607343047857285,0.011487782001495361,-0.07447388768196106,0.00431138277053833,0.013232172466814518,-0.07409196346998215,0.04332577437162399,1.4833895621017317,-0.5126514584345533,2.479699819906589
1687098987.821671,0.8698208332061768,0.4866553246974945,-0.08110738545656204,-0.008294284343719482,-0.03511720895767212,-0.0038382411003112793,-0.01807781308889389,-0.08285029977560043,0.08103267103433609,1.4778190949502965,-0.5082570302413848,2.4771487297804264
1687098987.9355159,0.8716747164726257,0.48325684666633606,-0.08152473717927933,-0.007142186164855957,-0.020183026790618896,0.007046639919281006,-0.0944809764623642,-0.062343940138816833,0.08421095460653305,1.4775410437965646,-0.5043709765773706,2.484076753299171
1687098987.945148,0.8732382655143738,0.4801163673400879,-0.08332697302103043,-0.001045823097229004,0.015153467655181885,-0.0011456608772277832,-0.029170945286750793,-0.05276104435324669,0.0683189406991005,1.475661431047281,-0.500787365122182,2.4865040217740724
1687098987.960442,0.8748825192451477,0.47689518332481384,-0.08456888794898987,-0.003483414649963379,0.026828080415725708,0.0037126466631889343,-0.04525643587112427,-0.051360130310058594,0.05747108906507492,1.4744325764129718,-0.4971189370790407,2.489423126353556
1687098988.0250611,0.8756466507911682,0.47538062930107117,-0.08518553525209427,-0.0030878782272338867,0.024314284324645996,0.00860171765089035,-0.047409605234861374,-0.033415552228689194,0.04718123376369476,1.4738184854486276,-0.49539662925496797,2.492980335554995
1687098988.1468759,0.8760021924972534,0.4745558202266693,-0.08612337708473206,-0.004130184650421143,0.04590630531311035,0.0025968551635742188,-0.002384871244430542,-0.021682729944586754,0.01129167526960373,1.4727971476940758,-0.49445935102905436,2.4939984117604004
1687098988.151943,0.8758898973464966,0.4747592508792877,-0.08614374697208405,-0.0030565857887268066,0.030947625637054443,0.003425896167755127,-0.01450038980692625,-0.007977614179253578,-0.022477075457572937,1.4727616341501144,-0.49469045504613884,2.4953785906999495
1687098988.2350202,0.874744713306427,0.4769821763038635,-0.08549849689006805,-0.0029336214065551758,0.019081145524978638,0.0060460492968559265,-0.004007801413536072,0.013589641079306602,-0.043528296053409576,1.4733647189211223,-0.49721790838543295,2.4960838985045224
1687098988.2948399,0.8731722831726074,0.47995102405548096,-0.0849534347653389,-0.0016208291053771973,0.012587398290634155,0.007789798080921173,-0.0032330879475921392,0.017992466688156128,-0.05659536272287369,1.4738087146639776,-0.5005989013931852,2.4949925035971616
1687098988.385007,0.8719804883003235,0.4823097586631775,-0.08383198082447052,0.0034775137901306152,-0.0017493367195129395,-0.0032651498913764954,-0.0033558597788214684,0.03180785849690437,-0.055601008236408234,1.47495114947181,-0.5032895008889737,2.4949228533353067
1687098988.389128,0.8709001541137695,0.4844968318939209,-0.08243761956691742,0.005305349826812744,-0.011550605297088623,-0.0018365979194641113,-0.018719635903835297,0.01696222461760044,-0.031831294298172,1.476419583260822,-0.5057878927367394,2.495302801322151
1687098988.4103432,0.870384693145752,0.4856736361980438,-0.08094482123851776,0.003089606761932373,-0.00850069522857666,-0.006045527756214142,-0.04973054677248001,0.01607345975935459,-0.007505381479859352,1.4780641547143336,-0.5071336288041938,2.496894712249949
1687098988.441238,0.8702059984207153,0.48628929257392883,-0.07914702594280243,-0.0013400912284851074,-0.000754624605178833,-0.009689562022686005,-0.04087793454527855,0.01841304637491703,-0.018355898559093475,1.480093823656459,-0.5078380773043114,2.4992632762897258
1687098988.567076,0.8700910806655884,0.4867677688598633,-0.07745318114757538,-0.004139363765716553,0.0010558068752288818,-0.01525915414094925,-0.05272553861141205,0.0010455753654241562,-0.008209854364395142,1.482013019505581,-0.5083857336734188,2.5022853911591576
1687098988.57204,0.8699583411216736,0.487226665019989,-0.07604647427797318,0.0015323162078857422,0.005128800868988037,-0.010440297424793243,-0.07309658825397491,-0.004740741103887558,-0.0020866477862000465,1.4836040354102726,-0.5089111530522487,2.5064880902480917
1687098988.590563,0.8695695996284485,0.48795732855796814,-0.07580502331256866,-0.0005052685737609863,0.014484137296676636,-0.026413552463054657,-0.018709249794483185,-0.025583570823073387,-0.025134310126304626,1.4838408211773957,-0.5097480276902163,2.5082706426802877
1687098988.624476,0.8687644600868225,0.4896341860294342,-0.0742063820362091,-0.00023430585861206055,0.004765808582305908,-0.002163812518119812,-0.1328110545873642,-0.017804322764277458,-0.03656093403697014,1.4855871556932871,-0.5116701566785137,2.5135417734437375
1687098988.686942,0.8677740693092346,0.4913899600505829,-0.07418996840715408,-0.002280294895172119,0.021168053150177002,-0.010633580386638641,-0.00041546355350874364,-0.026868347078561783,-0.0379784032702446,1.4855091532430211,-0.5136849670704372,2.516239503311205
1687098988.7798228,0.8665980696678162,0.49336835741996765,-0.07480660080909729,0.0018103718757629395,0.010248124599456787,-0.0013041645288467407,-0.015044473111629486,-0.0231164637953043,-0.04876120761036873,1.48468764066236,-0.5159579769644924,2.5170829698236052
1687098988.784579,0.8648422956466675,0.4963074326515198,-0.07567579299211502,0.0017501115798950195,0.014739900827407837,-0.006721608340740204,-0.09923364967107773,-0.04761146381497383,-0.06246090680360794,1.4835162101956363,-0.5193401796433729,2.5187167742200116
1687098988.800617,0.862647294998169,0.500259280204773,-0.07470345497131348,-0.0051337480545043945,0.034393489360809326,-0.008304297924041748,-0.09963179379701614,-0.04548606276512146,-0.1030503436923027,1.4844139164924026,-0.5238981888195458,2.524893946549261
1687098988.894578,0.8600095510482788,0.5047932863235474,-0.07461629062891006,0.015326201915740967,0.04890239238739014,-0.02526766061782837,-0.15447454154491425,-0.08514716476202011,-0.09085539728403091,1.4842508879748646,-0.5291425200082505,2.5315142177592755
1687098989.016953,0.8565700054168701,0.5102986097335815,-0.0767037644982338,0.005948364734649658,0.16244620084762573,-0.06324982643127441,-0.056674208492040634,-0.16548819839954376,-0.17548353970050812,1.4814869577838246,-0.5355319425837235,2.5381302372505954
1687098989.022429,0.8470798134803772,0.524699330329895,-0.08453669399023056,0.0360531210899353,0.3611496686935425,-0.08153992146253586,-0.1917545348405838,-0.25176557898521423,-0.5471373200416565,1.4713278796224045,-0.5523619069615788,2.539670839791766
1687098989.0378819,0.8228859901428223,0.5616558194160461,-0.08603387326002121,0.046819329261779785,0.48976635932922363,-0.10764586925506592,-0.31359177827835083,-0.24260829389095306,-1.2011431455612183,1.4666234067669068,-0.596385719769981,2.554465459213439
1687098989.195613,0.7758737802505493,0.6242220997810364,-0.09147211164236069,0.11650615930557251,0.601913332939148,-0.09332699328660965,0.31604716181755066,-0.17285466194152832,-1.8594677448272705,1.453442435417412,-0.6741353948246055,2.5473748450796037
1687098989.2010021,0.7019493579864502,0.7024050354957581,-0.11787564307451248,0.25830161571502686,0.5886716842651367,-0.06046903133392334,0.6300373077392578,-0.23758560419082642,-2.489445209503174,1.4044224666202738,-0.778770802783427,2.4882846741563847
1687098989.217924,0.5985033512115479,0.7867493629455566,-0.1510610282421112,0.3755109906196594,0.4561859369277954,0.007811546325683594,0.9483931660652161,-0.28656983375549316,-2.914020538330078,1.323562024550141,-0.9055250276618256,2.397400861478397
1687098989.622045,0.4691130518913269,0.856995701789856,-0.2132878303527832,0.5067780613899231,0.3618001937866211,0.05857902765274048,1.2699278593063354,-0.3877434730529785,-3.1757659912109375,1.1440723195603426,-1.0294111446806187,2.2009067600092327
1687098989.70022,0.3200576901435852,0.907907247543335,-0.27067992091178894,0.6011764407157898,0.22254019975662231,0.11891603469848633,1.243350625038147,-0.4346490204334259,-3.280324935913086,0.8687909543756226,-1.138264177767331,1.913522565384143
1687098989.716748,0.16024437546730042,0.9222971796989441,-0.3516957759857178,0.6236149072647095,0.20885217189788818,0.12952780723571777,1.7556061744689941,-0.6182698607444763,-3.3177192211151123,0.4275288630689304,-1.1739828046540897,1.4610392328789135
1687098989.719871,-0.00587766058743,0.9064617156982422,-0.42224735021591187,0.7146636247634888,0.06512647867202759,0.22234195470809937,1.2708650827407837,-0.738243043422699,-3.2188103199005127,-0.013919047518714917,-1.1348283489120012,1.0186082071643607
1687098989.722917,-0.16422441601753235,0.8571476340293884,-0.48818886280059814,0.6506288051605225,0.11526453495025635,0.14713966846466064,1.8603613376617432,-0.939338743686676,-3.0999276638031006,-0.32450373920449976,-1.0297060433925123,0.7148158191161674
1687098989.725943,-0.31535273790359497,0.7725276350975037,-0.5511385798454285,0.6307518482208252,0.028955519199371338,0.27272677421569824,1.7387659549713135,-0.9820806384086609,-3.0330886840820312,-0.5197154788063323,-0.8828122421996781,0.5369719315428825
1687098989.73406,-0.4521477222442627,0.6675326824188232,-0.5915764570236206,0.5821220278739929,-0.026877164840698242,0.2705315351486206,1.5996793508529663,-1.0713410377502441,-2.838820219039917,-0.6525967026764568,-0.7308901559676972,0.4254704815217582
1687098989.736366,-0.5692238211631775,0.5478723645210266,-0.6130417585372925,0.5267432928085327,0.008341014385223389,0.2792404890060425,1.4886548519134521,-1.0474748611450195,-2.684009552001953,-0.7483524755109466,-0.5798188132245231,0.35723412677601757
1687098989.7386842,-0.6645686626434326,0.42674681544303894,-0.6133806109428406,0.43870800733566284,-0.04155394434928894,0.25045037269592285,1.2865078449249268,-1.0332629680633545,-2.4943366050720215,-0.825431575870354,-0.44089254588923465,0.3051213041581108
1687098989.746305,-0.7382029891014099,0.30108505487442017,-0.6036589741706848,0.37228190898895264,-0.014402925968170166,0.24616080522537231,1.3511345386505127,-0.9543150663375854,-2.2754437923431396,-0.8853308449437335,-0.3058302927969972,0.27592672700166015
1687098989.748112,-0.7923945188522339,0.17999300360679626,-0.5828494429588318,0.3307245373725891,-0.017059683799743652,0.2353762984275818,1.0761091709136963,-0.8528345823287964,-2.1230661869049072,-0.9366045873341322,-0.18097934419202802,0.255842820977445
1687098989.7498899,-0.8275663256645203,0.07047636806964874,-0.5569264888763428,0.2878018617630005,-0.04473482817411423,0.23240262269973755,0.6991820335388184,-0.7226157784461975,-2.105475902557373,-0.9784432281859915,-0.07053483856828932,0.22952819930382362
1687098989.779388,-0.8463578820228577,-0.037406712770462036,-0.5312994122505188,0.2312607765197754,-0.06159234791994095,0.20126712322235107,0.7856647372245789,-0.49350059032440186,-1.9977504014968872,-1.0102233934187361,0.03741544369015134,0.20576387875955043
1687098989.7938352,-0.8487228155136108,-0.13858352601528168,-0.5103569626808167,0.20144498348236084,-0.08703295886516571,0.16666805744171143,0.6850236058235168,-0.3402306139469147,-1.8716790676116943,-1.0294042438318465,0.13903099611419956,0.18501578629762083
1687098989.795615,-0.8390695452690125,-0.23132972419261932,-0.49239107966423035,0.16485989093780518,-0.11502958834171295,0.12968969345092773,0.6946772933006287,-0.22310751676559448,-1.6875110864639282,-1.0401170383987768,0.23344425955835182,0.16880512354664065
1687098989.79724,-0.8227335214614868,-0.31409668922424316,-0.47376468777656555,0.18000274896621704,-0.197408527135849,0.09458380937576294,0.629362165927887,-0.2419191598892212,-1.436167597770691,-1.0483293087887688,0.31950502563836997,0.160189941535542
1687098989.82812,-0.806857168674469,-0.37661802768707275,-0.4551267921924591,0.127993643283844,-0.267821729183197,0.07603749632835388,0.36408790946006775,-0.24583949148654938,-1.0801883935928345,-1.057212338153851,0.3861427791977472,0.14874075580222462
1687098989.8299398,-0.7934771180152893,-0.41694846749305725,-0.4433373808860779,0.0857744812965393,-0.26667582988739014,0.061562567949295044,-0.018706852570176125,-0.16538316011428833,-0.7482749223709106,-1.0612773327423322,0.43008544757953776,0.1325984892392078
1687098989.831759,-0.7851616740226746,-0.43949607014656067,-0.4363076686859131,0.05617302656173706,-0.21367168426513672,-0.000276714563369751,0.12302657961845398,-0.17763109505176544,-0.38405606150627136,-1.0635939332992086,0.45503758545058964,0.1189550114126388
1687098989.872019,-0.7824074625968933,-0.45256704092025757,-0.4278104901313782,0.04356151819229126,-0.14011499285697937,-0.009430110454559326,-0.02000034973025322,-0.17593559622764587,-0.24459922313690186,-1.0704230014243477,0.4696419492464557,0.1133632372797524
1687098989.8738642,-0.7824724912643433,-0.45905381441116333,-0.4207215905189514,0.037935078144073486,-0.07041099667549133,-0.04134500026702881,-0.04882320761680603,-0.2308771312236786,-0.1474311202764511,-1.0774592514982864,0.4769298564106849,0.1073414490846791
1687098989.875838,-0.7836726903915405,-0.46375617384910583,-0.41326451301574707,0.020946800708770752,-0.011341571807861328,-0.005711257457733154,0.1613614559173584,-0.1858774572610855,-0.09009253978729248,-1.0855141301978513,0.48223016915403616,0.10325856886293898
1687098989.89223,-0.7852299213409424,-0.4728815257549286,-0.39974626898765564,0.03141522407531738,-0.003833591938018799,0.000851064920425415,0.3083024024963379,-0.0989747866988182,-0.07362887263298035,-1.0999097113962457,0.4925582110494032,0.11726555130976259
1687098989.893879,-0.784798800945282,-0.4785674810409546,-0.3937819302082062,-0.002554774284362793,-0.018823355436325073,0.059965431690216064,-0.010059035383164883,-0.028491077944636345,-0.05282199755311012,-1.1057403995785478,0.4990224979703521,0.12331783543910504
1687098989.89553,-0.7845966219902039,-0.47926226258277893,-0.3933395743370056,0.026372015476226807,-0.010026216506958008,0.031523168087005615,-0.08001495152711868,-0.051656052470207214,-0.037783391773700714,-1.1060875762980042,0.4998139501591443,0.11906900659624266
1687098989.897274,-0.7846710681915283,-0.47917139530181885,-0.3933015763759613,0.02266240119934082,-0.00624123215675354,0.02028527855873108,-0.04436108469963074,-0.025101473554968834,-0.03410576656460762,-1.1061643017274831,0.499710437597876,0.11380543685937296
1687098989.948334,-0.7840702533721924,-0.48101192712783813,-0.3922519087791443,0.015134036540985107,-0.00922250747680664,0.0052890777587890625,0.09866078943014145,0.0009245122782886028,-0.029721472412347794,-1.106927539722825,0.501808576914614,0.11432978486915804
1687098989.953062,-0.7837983965873718,-0.4824904203414917,-0.39097702503204346,-0.002090275287628174,-0.021003901958465576,0.022263705730438232,0.010730931535363197,0.02242174930870533,0.012184767052531242,-1.1080904072627578,0.5034957665844213,0.11813391033890491
1687098989.9597812,-0.7839984893798828,-0.4820966124534607,-0.39106184244155884,-0.0022716522216796875,-0.0018970072269439697,-0.0026301145553588867,0.020446674898266792,0.014043777249753475,0.04445981606841087,-1.1081057223985353,0.5030462045397155,0.1201309908079813
1687098989.961364,-0.7845838069915771,-0.48036137223243713,-0.392022043466568,-0.006935417652130127,0.004302352666854858,0.01316159963607788,-0.06151476874947548,0.008539533242583275,0.018673691898584366,-1.1074239268084416,0.501066699088814,0.11935934630637411
1687098989.9902081,-0.7844200730323792,-0.4800613522529602,-0.39271655678749084,0.0004387497901916504,0.02104640007019043,0.004456698894500732,0.030401837080717087,0.01132222544401884,-0.012159988284111023,-1.106632253570223,0.5007246384532001,0.11877153236856207
1687098989.996794,-0.7838293313980103,-0.4817645251750946,-0.39180949330329895,-0.009993970394134521,0.01849234104156494,0.006403028964996338,-0.010445727035403252,0.0101064033806324,-0.036237094551324844,-1.1072560627519654,0.5026672186768814,0.1202724964054711
1687098989.9984589,-0.7831085920333862,-0.48169973492622375,-0.39332762360572815,-0.018435776233673096,0.0019479990005493164,0.004716813564300537,-0.05359479412436485,-0.009431188926100731,-0.023459579795598984,-1.1053387764294291,0.5025932700163301,0.11666575281265835
1687098990.000242,-0.7830312252044678,-0.48075613379478455,-0.39463362097740173,0.018901586532592773,-0.017962157726287842,0.01577320694923401,-0.07853769510984421,0.011679022572934628,-0.014907771721482277,-1.1039682261186679,0.5015168350845489,0.11287742015268039
1687098990.00183,-0.7829083204269409,-0.47937557101249695,-0.3965521454811096,0.020899713039398193,-0.04419928789138794,0.01032179594039917,-0.07019001990556717,0.030844105407595634,0.04837612435221672,-1.1019530250019332,0.4999430725180245,0.11094682715879713
1687098990.0034351,-0.7835482954978943,-0.4753778278827667,-0.400084912776947,0.017969131469726562,-0.048410654067993164,0.024184763431549072,0.023460041731595993,0.10198228806257248,0.11270718276500702,-1.0986995156220496,0.4953934335141535,0.11117134209200726
1687098990.0501208,-0.7845293283462524,-0.4708714187145233,-0.40347740054130554,0.033140718936920166,-0.06018030643463135,0.02133631706237793,-0.008612672798335552,0.11315373331308365,0.16848501563072205,-1.0957803780564923,0.49027829178670845,0.11649289601272458
1687098990.059568,-0.7862299680709839,-0.4644430875778198,-0.4075968563556671,0.03519231081008911,-0.06572359800338745,0.037861168384552,0.013588503003120422,0.13871678709983826,0.21956199407577515,-1.0925220235412503,0.4830056453775339,0.12232312096211502
1687098990.061349,-0.7892735600471497,-0.45388978719711304,-0.4135594069957733,0.03539782762527466,-0.10603150725364685,0.04841664433479309,0.04376797750592232,0.20116254687309265,0.39116641879081726,-1.0881533931982796,0.4711258679740717,0.13197292965288207
1687098990.06299,-0.7937945127487183,-0.4353567063808441,-0.4246821105480194,0.06596553325653076,-0.12558698654174805,0.0704493522644043,-0.08617430925369263,0.30059489607810974,0.5128212571144104,-1.0795403089229032,0.4504344569675936,0.1415490331528935
1687098990.078336,-0.7990427613258362,-0.41239428520202637,-0.4375632107257843,0.08043015003204346,-0.09590652585029602,0.058321356773376465,-0.10419245809316635,0.3211819529533386,0.6011216640472412,-1.0697904911675862,0.4250806759709448,0.15559597709216963
1687098990.091557,-0.8043683767318726,-0.38394710421562195,-0.4534049928188324,0.06474441289901733,-0.10975104570388794,0.05380788445472717,-0.04678589105606079,0.3691580891609192,0.7268825173377991,-1.0575122328219881,0.39406727207907566,0.16740407316882838
1687098990.093083,-0.8099604249000549,-0.3479194939136505,-0.4721398651599884,0.09594070911407471,-0.12543869018554688,0.06686651706695557,-0.3316133916378021,0.4185195565223694,0.812395453453064,-1.0430324276796539,0.3553510423779672,0.18027446268180153
1687098990.094588,-0.8135725855827332,-0.3060813546180725,-0.4943823218345642,0.057453811168670654,-0.10601282119750977,0.041638851165771484,-0.05543184280395508,0.49388226866722107,0.9819582104682922,-1.0247574052578463,0.3110740803085455,0.1944330866484166
1687098990.0962272,-0.8149135708808899,-0.2604007124900818,-0.5177909135818481,0.09729266166687012,-0.11339390277862549,0.06220930814743042,-0.31520724296569824,0.5274477005004883,1.0043034553527832,-1.0047578147037142,0.2634372088467287,0.21546999843091075
1687098990.0977159,-0.8136771321296692,-0.20773547887802124,-0.5429325103759766,0.07856959104537964,-0.10087358951568604,0.0067234039306640625,-0.10067442059516907,0.5096229910850525,1.2403333187103271,-0.9823845089015865,0.20925936605520182,0.2355203818566994
1687098990.099293,-0.8108235001564026,-0.1461915522813797,-0.5667392611503601,0.1410846710205078,-0.15388783812522888,0.07558941841125488,-0.6466813087463379,0.5209539532661438,1.2618552446365356,-0.9607636458649365,0.14671736077899228,0.2553890569284661
1687098990.135355,-0.8035110235214233,-0.07562916725873947,-0.5904661417007446,0.10203397274017334,-0.07566176354885101,0.016064345836639404,-0.4133950471878052,0.5163102149963379,1.4951388835906982,-0.9370570442584216,0.07570144915055987,0.2776164469323866
1687098990.136945,-0.7900742292404175,0.0027542132884263992,-0.6130050420761108,0.12929236888885498,-0.13750460743904114,0.07765042781829834,-0.5685707926750183,0.5546323657035828,1.5768343210220337,-0.9109349330866602,-0.002754216721703861,0.2988067426772102
1687098990.138455,-0.7699381113052368,0.08630169928073883,-0.6322559118270874,0.17064905166625977,-0.12171737849712372,0.0596240758895874,-0.8809755444526672,0.4977720379829407,1.6454395055770874,-0.8832749449077715,-0.08640918975923341,0.32677997864037533
1687098990.1440449,-0.7430629134178162,0.18207114934921265,-0.6439780592918396,0.12169444561004639,-0.12530848383903503,0.06333541870117188,-0.8885008692741394,0.45430508255958557,1.8323919773101807,-0.856713133293784,-0.18309239544472572,0.34364952784932984
1687098990.14531,-0.7065443992614746,0.28455349802970886,-0.6479384899139404,0.2215895652770996,-0.17586520314216614,0.1322677731513977,-1.2574630975723267,0.48293814063072205,1.9169508218765259,-0.828639312511051,-0.2885406481665938,0.3686005111715656
1687098990.147047,-0.6548824310302734,0.39071840047836304,-0.646891176700592,0.18736839294433594,-0.12401002645492554,0.10720306634902954,-0.9865027666091919,0.5324013233184814,2.189331293106079,-0.7915368480421343,-0.4014118917955427,0.40159070853885775
1687098990.148294,-0.586600661277771,0.4961785078048706,-0.6400833129882812,0.22554713487625122,-0.14113697409629822,0.17363739013671875,-1.2139630317687988,0.6584125757217407,2.212223768234253,-0.7418264148148426,-0.5191916726772596,0.4454334892305532
1687098990.149599,-0.5004833936691284,0.591560423374176,-0.6321176290512085,0.24813354015350342,-0.07955175638198853,0.122214674949646,-0.9204361438751221,0.6861225962638855,2.432992458343506,-0.6696943512209734,-0.6329928696707179,0.5157462764804335
1687098990.150976,-0.39900121092796326,0.6822104454040527,-0.6126883625984192,0.19834810495376587,-0.055974483489990234,0.1427481770515442,-1.2183040380477905,0.7120134234428406,2.5499460697174072,-0.5772396232986645,-0.7507816357756852,0.6046894279466966
1687098990.1696758,-0.28680264949798584,0.7664992809295654,-0.5746504664421082,0.27262720465660095,0.007045090198516846,0.0852554440498352,-1.399606466293335,0.6114140748977661,2.5011608600616455,-0.4629198044120501,-0.87337250233822,0.7152932024595773
1687098990.17526,-0.1699788123369217,0.8344334363937378,-0.5242405533790588,0.2283741533756256,0.04389303922653198,0.09925282001495361,-1.4150482416152954,0.5836004614830017,2.5768656730651855,-0.31354271677689416,-0.987103932913591,0.8661681029767525
1687098990.176556,-0.04757540300488472,0.8798443078994751,-0.47287479043006897,0.22500458359718323,0.1314319372177124,0.051701754331588745,-1.126384973526001,0.4971154034137726,2.5032389163970947,-0.10027147410380262,-1.0755345167687282,1.0836197545868864
1687098990.1778002,0.07311353087425232,0.9049146175384521,-0.41926607489585876,0.20773974061012268,0.12062865495681763,0.04104653000831604,-1.2770158052444458,0.4125456213951111,2.3762571811676025,0.1726484654780126,-1.1311790830771424,1.362326293911465
1687098990.213378,0.18873947858810425,0.9107454419136047,-0.36731475591659546,0.13903452455997467,0.22734659910202026,0.03272005915641785,-0.752997100353241,0.4395447075366974,2.2243971824645996,0.4746548992232339,-1.145085633032566,1.6721877499626194
1687098990.214796,0.2895255386829376,0.8962475657463074,-0.3360289931297302,0.18845602869987488,0.1803210973739624,0.045822083950042725,-0.5559711456298828,0.5372334122657776,1.908653736114502,0.7111951296566763,-1.1112359011247996,1.9066571136449444
1687098990.246561,0.38513612747192383,0.870543360710144,-0.3063075542449951,0.0914263129234314,0.21200662851333618,-0.029233157634735107,-0.14825180172920227,0.4492779076099396,1.9124367237091064,0.8989138375126078,-1.0563053703124095,2.0908326549265825
1687098990.323254,0.468453586101532,0.8341935873031616,-0.29098501801490784,0.13727456331253052,0.18573439121246338,0.05094912648200989,-0.0888206958770752,0.5517023801803589,1.7107458114624023,1.0149625167301093,-0.9866689172875589,2.1953355249733773
1687098990.359126,0.5443918704986572,0.7921034097671509,-0.27606096863746643,0.0615498423576355,0.16657578945159912,0.010985344648361206,-0.056379660964012146,0.5281208753585815,1.645186185836792,1.1014851186254129,-0.9142473174892385,2.2705864824000717
1687098990.369255,0.6118106245994568,0.7467865347862244,-0.2607640027999878,0.07626926898956299,0.2307831048965454,-0.028054356575012207,-0.12445592135190964,0.48990288376808167,1.4424406290054321,1.167895437337833,-0.8432170805587762,2.325119243104495
1687098990.409844,0.6669753193855286,0.7071372270584106,-0.23473592102527618,0.07660073041915894,0.13893210887908936,-0.0030722469091415405,-0.16935548186302185,0.5049602389335632,1.2870676517486572,1.2323934485612968,-0.7854411921267452,2.376918174080995
1687098990.5369902,0.7161288261413574,0.6629737019538879,-0.2182329148054123,0.041378557682037354,0.18602538108825684,-0.0009595155715942383,0.20691721141338348,0.5024405717849731,1.2352018356323242,1.274996837482272,-0.7247839080702424,2.402581496840452
1687098990.552472,0.758259654045105,0.6195988059043884,-0.20282980799674988,0.02401280403137207,0.13960230350494385,-0.004201412200927734,-0.01609349250793457,0.5362604260444641,1.0388654470443726,1.3094218059136173,-0.6682314626985117,2.4150086329082847
1687098990.556426,0.7942281365394592,0.5798106789588928,-0.1817183494567871,0.03969526290893555,0.14453941583633423,-0.04548501968383789,0.07879254221916199,0.4992767870426178,0.9814416766166687,1.3458691929905295,-0.6184962731142054,2.431741306942137
1687098990.641696,0.8234558701515198,0.5421113967895508,-0.16743972897529602,0.03048717975616455,0.2007628083229065,-0.044764235615730286,0.1281006932258606,0.4641844928264618,0.8085106611251831,1.3701933891680114,-0.5729477497281055,2.43255478280416
1687098990.661653,0.8447576761245728,0.5145958662033081,-0.14688698947429657,0.02310127019882202,0.14609450101852417,-0.049478352069854736,-0.3209674060344696,0.43469393253326416,0.5338842272758484,1.398636976752575,-0.5405362387875225,2.4459439904102367
1687098990.735797,0.8599855899810791,0.4952104389667511,-0.12325498461723328,0.057357728481292725,0.17747342586517334,-0.08777399361133575,0.09207771718502045,0.3982985019683838,0.47157174348831177,1.4284435904816393,-0.5180770288831237,2.4621303124775333
1687098990.758607,0.8708357810974121,0.47841572761535645,-0.11297642439603806,-0.022233426570892334,0.17417216300964355,-0.07914698123931885,0.24447977542877197,0.338925838470459,0.26911690831184387,1.4417835713324578,-0.49884970330816036,2.451145807481393
1687098990.806014,0.8771723508834839,0.4690457284450531,-0.10278533399105072,0.010156750679016113,0.1274356245994568,-0.10125517100095749,0.04599784314632416,0.2482624351978302,0.10992790013551712,1.4541502303139973,-0.48820995276583434,2.446283660302931
1687098990.8933392,0.879225492477417,0.46681544184684753,-0.09511105716228485,0.012727141380310059,0.11439186334609985,-0.08767390251159668,0.019732948392629623,0.15533073246479034,0.012688170187175274,1.4630393895539142,-0.48568634793679955,2.4438108389306845
1687098990.933749,0.8791950941085815,0.4679739773273468,-0.08953475952148438,0.009797275066375732,0.06991362571716309,-0.08647537231445312,-0.009125065058469772,0.07898405194282532,-0.060940176248550415,1.469309000687187,-0.4869968374022909,2.4454183962513594
1687098990.978571,0.8773097395896912,0.47160330414772034,-0.08898434042930603,0.008356213569641113,0.04357925057411194,-0.05576044321060181,0.12024038285017014,0.013587066903710365,-0.1142948791384697,1.4697133749602866,-0.49110808537592143,2.441281820506116
1687098991.037314,0.8744984269142151,0.4764252007007599,-0.09094775468111038,0.005475878715515137,-0.011001616716384888,-0.030786797404289246,0.0028956446330994368,-0.020753419026732445,-0.10058732330799103,1.4671689583999619,-0.4965843017416765,2.4369729536197444
1687098991.106481,0.8719872236251831,0.480618417263031,-0.0929756909608841,0.01019972562789917,-0.009045511484146118,-0.018367640674114227,0.029311273247003555,-0.028578031808137894,-0.08425568789243698,1.464572599764986,-0.5013597822533375,2.4343960631102677
1687098991.12118,0.8702653050422668,0.48322126269340515,-0.09558068960905075,0.00934290885925293,-0.033025890588760376,-0.005173087120056152,0.03649355098605156,-0.03352858126163483,-0.045879535377025604,1.4614053965503662,-0.5043303389730749,2.4322978021721475
1687098991.199023,0.8697564601898193,0.48350989818573,-0.09870187938213348,0.0071051716804504395,-0.030522197484970093,0.00257159024477005,0.03979241102933884,-0.038746580481529236,-0.0045637208968400955,1.4577975352035564,-0.5046600414082134,2.429424126942042
1687098991.20645,0.869891881942749,0.4827958345413208,-0.10097607970237732,0.0036126375198364258,-0.02086654305458069,0.0010615736246109009,0.006093301810324192,-0.04105494171380997,0.01883980631828308,1.4552346282426434,-0.5038444871618538,2.428523763967306
1687098991.262747,0.8705302476882935,0.4813461899757385,-0.10238716006278992,-0.006501197814941406,-0.007133513689041138,0.008438825607299805,-0.037413161247968674,-0.045617710798978806,0.027348671108484268,1.453719489161498,-0.5021898864627372,2.4297066956075444
1687098991.313179,0.8714314699172974,0.4792262017726898,-0.10464078187942505,-0.0002766251564025879,0.009726524353027344,0.0024527311325073242,0.01916569471359253,-0.04557701200246811,0.04874197766184807,1.4512893400364095,-0.4997728557749211,2.430057676776349
1687098991.3925982,0.8720692992210388,0.4775904417037964,-0.10678259283304214,-0.005919396877288818,0.014551281929016113,0.006318762898445129,0.017573123797774315,-0.03702699765563011,0.02882586233317852,1.4489554695174296,-0.49791012515087235,2.4293092045408478
1687098991.433037,0.8725690841674805,0.4763909876346588,-0.10805153101682663,-0.009501338005065918,0.01468271017074585,0.011448204517364502,0.028116580098867416,-0.019737334921956062,0.016964875161647797,1.4475920257671488,-0.496545387785263,2.429340137195451
1687098991.4774861,0.872500479221344,0.4763549566268921,-0.1087622195482254,-0.006121516227722168,0.009591758251190186,0.01110599935054779,-0.03553403541445732,-0.00996266771107912,0.010624352842569351,1.446780275063998,-0.49650442848600346,2.4291932438838155
1687098991.533803,0.8723821640014648,0.4767175018787384,-0.10812045633792877,0.0004969239234924316,0.012342005968093872,0.0010343194007873535,-0.0168149434030056,0.0026938722003251314,-0.009462139569222927,1.4474880804390364,-0.49691678951923063,2.4306091505551373
1687098991.622266,0.8722006678581238,0.47705650329589844,-0.10808900743722916,0.002845168113708496,0.011179029941558838,-0.007862508296966553,0.018494311720132828,-0.005742289125919342,-0.021640975028276443,1.4474981960036508,-0.49730247840436187,2.4307181637769437
1687098991.636845,0.8715019226074219,0.47819024324417114,-0.10871405154466629,-0.0017203092575073242,0.0004322528839111328,-0.007710456848144531,-0.013890525326132774,-0.01057515013962984,-0.020717456936836243,1.4466940576574783,-0.49859293795037585,2.4297667160291425
1687098991.6834679,0.8708416223526001,0.4793858230113983,-0.10874010622501373,-0.00017499923706054688,0.004226326942443848,-0.012811362743377686,0.02018728293478489,-0.014755935408174992,-0.02270783670246601,1.4465714631325621,-0.49995475015986535,2.4305303116818573
1687098991.728668,0.8701967000961304,0.4802073538303375,-0.11026600003242493,0.001553177833557129,0.002077162265777588,-0.005105599761009216,-0.027507800608873367,-0.018239017575979233,-0.024180099368095398,1.444754172077371,-0.5008910823308628,2.428632257535155
1687098991.781529,0.8696756958961487,0.48113125562667847,-0.11034917086362839,0.006117761135101318,-0.002432495355606079,-0.007524900138378143,0.007242988795042038,-0.023100972175598145,-0.012115180492401123,1.4445853474909722,-0.5019446754830181,2.4306065869551534
1687098991.859262,0.8692354559898376,0.4817008972167969,-0.11132855713367462,0.0030789971351623535,-0.008419007062911987,0.006149783730506897,-0.004076244775205851,-0.012970086187124252,-0.008734431117773056,1.4434134064018849,-0.5025945930259705,2.4302151503105294
1687098991.873351,0.8689567446708679,0.48195645213127136,-0.11239410936832428,0.006348550319671631,-0.0003890097141265869,-0.0021688342094421387,0.010192173533141613,-0.009443040005862713,-0.01570059359073639,1.4421667352192007,-0.5028862537234695,2.429183233538835
1687098991.92407,0.8686330914497375,0.4824316203594208,-0.11285680532455444,0.0037424564361572266,-0.006464123725891113,0.005328178405761719,-0.013996785506606102,-0.015369128435850143,-0.008205993101000786,1.441595472680988,-0.5034286295675213,2.4294893125730774
1687098991.962862,0.8686379194259644,0.4822942912578583,-0.1134047657251358,0.0016167163848876953,-0.002374798059463501,-0.009413182735443115,-0.009382326155900955,-0.031008008867502213,0.011830832809209824,1.4409758763066638,-0.5032718395793742,2.430597691635144
1687098992.01172,0.8687934875488281,0.4818800687789917,-0.11397325247526169,0.008617520332336426,0.008156031370162964,-0.011133551597595215,-0.024728791788220406,-0.0465608686208725,0.021001694723963737,1.4403555358104878,-0.5027990656909569,2.4324025367689606
1687098992.070044,0.868562638759613,0.4819035530090332,-0.11562001705169678,0.002286970615386963,0.050063639879226685,-0.025462739169597626,-0.06008598208427429,-0.0859629362821579,-0.002088645240291953,1.4384578488097768,-0.502825867459011,2.434664365756139
1687098992.136699,0.8677660226821899,0.48258906602859497,-0.11870231479406357,0.005677759647369385,0.12184220552444458,-0.07648809254169464,-0.13718849420547485,-0.17467853426933289,-0.03403439372777939,1.4348493796542727,-0.5036083893493604,2.4400067743119296
1687098992.2153091,0.8629810810089111,0.48968926072120667,-0.12437164783477783,0.03875237703323364,0.3163715600967407,-0.1666133999824524,-0.3375256061553955,-0.34764814376831055,-0.2730556130409241,1.4276632381671828,-0.5117333141256168,2.4516185482422603
1687098992.233018,0.8459252119064331,0.516031801700592,-0.13461829721927643,0.04335719347000122,0.5363364815711975,-0.21174092590808868,-0.27418550848960876,-0.5418696999549866,-0.8604487776756287,1.4129822910732268,-0.5422117713594494,2.46760523214953
1687098992.284099,0.8074563145637512,0.5692520141601562,-0.15481138229370117,0.12188029289245605,0.6522140502929688,-0.13702815771102905,-0.013487855903804302,-0.5572922229766846,-1.651033639907837,1.3813678287612892,-0.6055958235773765,2.461497741994885
1687098992.325656,0.7422665357589722,0.6460802555084229,-0.1778220683336258,0.25031769275665283,0.5970227718353271,-0.07085035741329193,0.4140309691429138,-0.5132225751876831,-2.254862070083618,1.3356614257153119,-0.702437736862386,2.430260494224054
1687098992.384804,0.6460829973220825,0.7301852703094482,-0.22227559983730316,0.39616864919662476,0.5662015080451965,-0.035918354988098145,0.647727370262146,-0.6304221749305725,-2.891597270965576,1.2394447975252327,-0.8185930507018804,2.3330558397385586
1687098992.43473,0.5155314207077026,0.8157898783683777,-0.26213398575782776,0.5480824112892151,0.3847258687019348,0.046771496534347534,0.6906039714813232,-0.563736081123352,-3.4532599449157715,1.1003930610203017,-0.9540936742312208,2.1928038618997117
1687098992.474446,0.3520330786705017,0.8803445100784302,-0.3179095387458801,0.6875177025794983,0.2707786560058594,0.0383838415145874,1.2023056745529175,-0.6216564774513245,-3.7524118423461914,0.836289219932017,-1.0765879539694088,1.9176789484348034
1687098992.513706,0.16846808791160583,0.910339891910553,-0.37802115082740784,0.7557719945907593,0.13758808374404907,0.14437860250473022,0.9911640882492065,-0.7744017243385315,-3.7714290618896484,0.4192371245931162,-1.1441045534466265,1.493431941884701
1687098992.574691,-0.014483691193163395,0.9047649502754211,-0.4256652295589447,0.7629425525665283,0.03333026170730591,0.1754363775253296,1.0573396682739258,-0.8613649010658264,-3.5703601837158203,-0.03401289351134793,-1.1308274530652023,1.0396265953598276
1687098992.616952,-0.19226506352424622,0.8607918620109558,-0.4712446331977844,0.7079510688781738,-1.3053417205810547e-05,0.2581862509250641,1.224764108657837,-0.7903894186019897,-3.513754367828369,-0.38737884917584464,-1.0368234861569459,0.6884346244939618
1687098992.6843681,-0.3518375754356384,0.780976414680481,-0.5160291194915771,0.6657718420028687,-0.05418515205383301,0.2580946087837219,1.5284610986709595,-0.8386742472648621,-3.261972188949585,-0.598418260081387,-0.8962276955333637,0.4826758657691399
1687098992.7227201,-0.48902133107185364,0.667123556137085,-0.5619646906852722,0.5541762709617615,-0.04070448875427246,0.298903226852417,1.846860647201538,-0.8668845295906067,-2.935152053833008,-0.7161045647088535,-0.7303408193229075,0.37909717161643436
1687098992.76749,-0.5980208516120911,0.5465319156646729,-0.5862371325492859,0.4142286777496338,-0.05539727210998535,0.2772466540336609,1.2421742677688599,-0.8821922540664673,-2.6217174530029297,-0.7953481374866369,-0.5782172990801664,0.3203987746719287
1687098992.816577,-0.6864773035049438,0.4339870512485504,-0.5834417939186096,0.4213405251502991,-0.024807333946228027,0.2244330644607544,0.9384217858314514,-0.8484230041503906,-2.4859254360198975,-0.8663563036796853,-0.44891362320682987,0.2632842403264932
1687098992.880641,-0.7558926939964294,0.31579354405403137,-0.5734986662864685,0.3558529019355774,0.02769702672958374,0.20596027374267578,1.1213245391845703,-0.8105718493461609,-2.29770565032959,-0.921747974304067,-0.321292888198128,0.22658596512783608
1687098992.920435,-0.8068984746932983,0.20082542300224304,-0.5555033683776855,0.31605374813079834,0.018031373620033264,0.22927051782608032,0.6976778507232666,-0.6893054246902466,-2.276216983795166,-0.967869120277901,-0.20220043416425132,0.19597597773030992
1687098992.9904509,-0.8381523489952087,0.08481575548648834,-0.5388016104698181,0.2648031711578369,0.042625635862350464,0.20960843563079834,0.9256916046142578,-0.4291515350341797,-2.2711572647094727,-0.9994678190401194,-0.08491777372789101,0.1627833309901288
1687098993.037479,-0.8495749235153198,-0.041605643928050995,-0.5258244276046753,0.2107962965965271,0.05004372447729111,0.15044301748275757,1.444414496421814,-0.26847219467163086,-2.1324093341827393,-1.0165764319607815,0.04161765614844997,0.1566959203465862
1687098993.120823,-0.8451495170593262,-0.16582252085208893,-0.5081586837768555,0.19361448287963867,-0.004969149827957153,0.14745622873306274,1.2526754140853882,-0.19919563829898834,-2.000272750854492,-1.0294473173502778,0.1665920177766077,0.16242824870970918
1687098993.179061,-0.8287615776062012,-0.2789117991924286,-0.48514172434806824,0.22182798385620117,-0.0623663067817688,0.1361580193042755,1.317260503768921,-0.21786406636238098,-1.8654992580413818,-1.0411950491328548,0.2826607551617116,0.16797356155360763
1687098993.187612,-0.8054405450820923,-0.3794194161891937,-0.45530936121940613,0.2003379464149475,-0.14639848470687866,0.10348749160766602,0.9601526260375977,-0.296421617269516,-1.6367772817611694,-1.0562882080160365,0.38916871729401226,0.17480572279055584
1687098993.225606,-0.781547486782074,-0.45088818669319153,-0.4311421513557434,0.1577681303024292,-0.29429009556770325,0.10353600978851318,0.3385913372039795,-0.28504565358161926,-1.2505366802215576,-1.0666857431771013,0.46776018030936667,0.16340219200866274
1687098993.279101,-0.7618147134780884,-0.5003107190132141,-0.4114941954612732,0.11792439222335815,-0.2501928210258484,0.07273393869400024,0.42206281423568726,-0.20926214754581451,-0.8557953238487244,-1.075546942580055,0.5239576260377685,0.1564333505837717
1687098993.320997,-0.748346745967865,-0.5306065678596497,-0.3980375826358795,0.10320514440536499,-0.2586696147918701,0.04468989372253418,0.014702503569424152,-0.25207969546318054,-0.5567039847373962,-1.081963968420563,0.559316025860912,0.14678197799606682
1687098993.366785,-0.7412662506103516,-0.5470017790794373,-0.3889904320240021,0.09888648986816406,-0.18725121021270752,0.01257142424583435,-0.02047732099890709,-0.28208211064338684,-0.3552805185317993,-1.0875337314913587,0.5787784540635679,0.13234962615441453
1687098993.452934,-0.7390140891075134,-0.5521410703659058,-0.38600295782089233,0.021393239498138428,-0.24014103412628174,0.12030178308486938,-0.16849395632743835,-0.0676136240363121,0.013011611998081207,-1.0894514043650545,0.5849300562049345,0.1218247534251161
1687098993.492274,-0.739904522895813,-0.5521147847175598,-0.3843315839767456,0.04068571329116821,0.009176492691040039,0.046746134757995605,0.10069943964481354,0.01463171374052763,0.017041506245732307,-1.0917226622778242,0.5848985488371713,0.12292223480947091
1687098993.5341392,-0.7403746247291565,-0.5528075098991394,-0.3824259042739868,0.014300346374511719,0.018993914127349854,0.015406310558319092,0.07681167870759964,0.033465322107076645,0.026999332010746002,-1.0940121066229804,0.5857295667955212,0.12828609021526738
1687098993.590915,-0.739944577217102,-0.552545964717865,-0.3836340606212616,0.0008087754249572754,0.021387457847595215,0.005872249603271484,0.01874331757426262,0.007235383614897728,-0.02365885116159916,-1.092487476787843,0.5854157436117102,0.1284038317654317
1687098993.635336,-0.7392067313194275,-0.5539312958717346,-0.38305845856666565,0.003412604331970215,-0.008751928806304932,-0.007093548774719238,-0.031637564301490784,-0.012630421668291092,-0.0077894749119877815,-1.0926933451577434,0.5870787799059769,0.1286986878087649
1687098993.7124019,-0.7402068972587585,-0.5517603754997253,-0.38425788283348083,0.0008575916290283203,-0.015591919422149658,-0.00912889838218689,-0.0968911349773407,-0.031639933586120605,0.019017238169908524,-1.091968217167018,0.5844735395613833,0.12484082274434766
1687098993.723217,-0.7406839728355408,-0.5504344701766968,-0.38523948192596436,0.004325211048126221,0.0061686038970947266,-0.0005179643630981445,-0.05176334083080292,-0.005247362889349461,0.0011972957290709019,-1.0911879434041578,0.5828845542593095,0.12245936399672405
1687098993.795517,-0.7409662008285522,-0.5496292114257812,-0.3858458995819092,0.004485428333282471,-0.004890561103820801,-0.00691533088684082,0.007413164712488651,-0.011144334450364113,0.00949191115796566,-1.0906998638401444,0.5819203041482681,0.1210277197999911
1687098993.84359,-0.7413966655731201,-0.5494339466094971,-0.38529667258262634,0.004839599132537842,-0.006398022174835205,-0.0023528337478637695,-0.017429865896701813,-0.0047464449889957905,0.012926856055855751,-1.091520857804302,0.5816866014197944,0.12196369660631262
1687098993.8834782,-0.7417677044868469,-0.5486477017402649,-0.38570258021354675,-0.007927119731903076,0.006960630416870117,0.0012726783752441406,0.018253829330205917,-0.0031713624484837055,0.013373734429478645,-1.09129467082289,0.5807458964763262,0.12127477998947664
1687098993.927098,-0.7421432137489319,-0.5484108924865723,-0.38531693816185,0.005280971527099609,0.0034279227256774902,-0.0014780759811401367,-0.04491528496146202,-0.0256130900233984,0.010763904079794884,-1.0919110017869214,0.5804626708515542,0.12113890300816932
1687098994.018151,-0.7424842119216919,-0.547339677810669,-0.3861822783946991,0.007025778293609619,0.0071479082107543945,0.011823177337646484,-0.04394616186618805,-0.005962066818028688,-0.006595113314688206,-1.0911810883886828,0.5791821459384535,0.11885556354545775
1687098994.032922,-0.7429009079933167,-0.5466650128364563,-0.38633644580841064,0.015865325927734375,-0.014690697193145752,0.0012503862380981445,-0.027978647500276566,-0.009410150349140167,0.019080156460404396,-1.0912473945047212,0.5783762409599948,0.11779892581358285
1687098994.083362,-0.7435635328292847,-0.5450708866119385,-0.3873128592967987,0.04277300834655762,-0.0343359112739563,0.037047386169433594,-0.0828874334692955,0.018518753349781036,0.0367933064699173,-1.090578761330439,0.5764736880812327,0.11646745303388546
1687098994.123882,-0.7454043030738831,-0.5374232530593872,-0.3943967819213867,0.08363062143325806,-0.18799489736557007,0.1086149513721466,-0.19932030141353607,0.11174317449331284,0.23802395164966583,-1.0841371027107634,0.5673785895294483,0.10943333825796935
1687098994.189702,-0.7542173862457275,-0.5154016613960266,-0.4068385362625122,0.1688290238380432,-0.37574225664138794,0.1498042345046997,-0.20962567627429962,0.3126054108142853,0.7376010417938232,-1.0761136748465612,0.5414762812511923,0.11436760651931498
1687098994.2556071,-0.7682062387466431,-0.4731527864933014,-0.431260347366333,0.2561366558074951,-0.4590676426887512,0.2564252018928528,-0.404666543006897,0.6238785982131958,1.2180979251861572,-1.0592534207879178,0.4928660927506502,0.1274160410521135
1687098994.315517,-0.7850997447967529,-0.40124738216400146,-0.4718252122402191,0.33359211683273315,-0.4849984347820282,0.270485520362854,-0.580769419670105,0.8598963022232056,1.846502661705017,-1.0296603203270631,0.412878245487785,0.14522612672514668
1687098994.331424,-0.7978405952453613,-0.30098241567611694,-0.5223599672317505,0.39777040481567383,-0.44547757506370544,0.30742478370666504,-0.6820547580718994,1.1086666584014893,2.4343929290771484,-0.9911121155526311,0.30572268289303534,0.177172623214045
1687098994.39501,-0.7974756360054016,-0.16813978552818298,-0.5794494152069092,0.4936731457710266,-0.3722502589225769,0.29603272676467896,-0.9620286226272583,1.2778522968292236,3.0362393856048584,-0.9424372434007936,0.1689422824628021,0.22498133909646992
1687098994.4514751,-0.7721362113952637,-0.0007952077430672944,-0.6354566812515259,0.5578722357749939,-0.3167096972465515,0.2761579751968384,-1.5428783893585205,1.2727489471435547,3.5117592811584473,-0.8821962861393117,0.0007952078359728986,0.2765858293935088
1687098994.475568,-0.7098861336708069,0.18811047077178955,-0.6787313222885132,0.6225905418395996,-0.19845595955848694,0.25583404302597046,-1.4063788652420044,1.3743795156478882,3.917261838912964,-0.8078302230296265,-0.18923791547008909,0.3443838861521955
1687098994.582351,-0.6023848652839661,0.373315691947937,-0.7055267095565796,0.6299574375152588,-0.06011378765106201,0.29009097814559937,-1.5260889530181885,1.5117099285125732,4.063684463500977,-0.7067010561590747,-0.3825805309937121,0.44241960823100634
1687098994.590833,-0.4593697488307953,0.5331985354423523,-0.7104074954986572,0.6392555236816406,0.1208389401435852,0.13820290565490723,-1.2556793689727783,1.2414060831069946,4.098469257354736,-0.5740014752939724,-0.5623769102019421,0.5817440448359811
1687098994.631675,-0.30326351523399353,0.6668739318847656,-0.6806690692901611,0.6277722120285034,0.20985031127929688,0.1401265263557434,-2.1785593032836914,0.901338517665863,3.7719318866729736,-0.41913661574744526,-0.7300057644690722,0.7496336074237516
1687098994.691163,-0.14271877706050873,0.784694492816925,-0.6032297015190125,0.46860069036483765,0.3298075199127197,0.14229220151901245,-2.4672305583953857,0.7760729789733887,3.5525643825531006,-0.2323192530657036,-0.9022031280470023,0.9508168459111251
1687098994.730767,0.01485366653650999,0.8566269874572754,-0.5157225131988525,0.48995283246040344,0.37115633487701416,0.06140732765197754,-1.8295271396636963,0.4259766638278961,3.324467897415161,0.028793704106649824,-1.0286961059064428,1.2337025455183799
1687098994.780846,0.16323892772197723,0.8863751292228699,-0.43323463201522827,0.3833766579627991,0.3528216481208801,0.09693095088005066,-1.695065975189209,0.3702220320701599,2.952390432357788,0.36033995717146866,-1.0894558167451074,1.5867272670506922
1687098994.8350182,0.29834815859794617,0.8766708970069885,-0.3774075508117676,0.25438615679740906,0.4105452299118042,0.09344154596328735,-0.41990914940834045,0.5085168480873108,2.6152710914611816,0.6689335642174573,-1.0688980144678324,1.9060628913358357
1687098994.908792,0.4157731831073761,0.8370742797851562,-0.3555833101272583,0.2388288974761963,0.2589035630226135,0.1638566255569458,-0.19200673699378967,0.7517667412757874,2.3716208934783936,0.8632715339507105,-0.9919133214848457,2.0923828926815853
1687098994.945806,0.5255945920944214,0.785126805305481,-0.32760706543922424,0.1276494264602661,0.23997390270233154,0.036759257316589355,-0.23356856405735016,0.784460723400116,2.3077807426452637,1.0134150363428243,-0.9029008914404681,2.229627994048451
1687098994.990055,0.6225724816322327,0.7215940952301025,-0.3028292655944824,0.2065901756286621,0.24418044090270996,0.0519137978553772,0.01856168918311596,0.7797196507453918,2.2520053386688232,1.118074795790933,-0.8061021540274196,2.3160828201113652
1687098995.045012,0.708981990814209,0.6489388942718506,-0.27608522772789,0.1880517601966858,0.2919791340827942,0.011085867881774902,0.02662361040711403,0.7982054352760315,2.0202343463897705,1.1994517817066475,-0.7061889213358631,2.3776917130491597
1687098995.083755,0.7770910859107971,0.5776772499084473,-0.24983708560466766,0.13555240631103516,0.3351340889930725,0.004231691360473633,0.1270277202129364,0.8737195134162903,1.6430379152297974,1.2597306188997448,-0.6158802215643772,2.408365654354056
1687098995.126433,0.8271400928497314,0.5176892876625061,-0.21871691942214966,0.10294413566589355,0.3430742621421814,-0.06889592111110687,-0.07297009229660034,0.8551979660987854,1.225957989692688,1.31228749698392,-0.5441479358074818,2.428638399713957
1687098995.196739,0.8617917895317078,0.4738871455192566,-0.18095827102661133,0.09967970848083496,0.347523957490921,-0.1266435831785202,-0.07225795835256577,0.7995191812515259,0.8934614062309265,1.363824148621264,-0.49369984724079474,2.448544626709684
1687098995.231997,0.8856568336486816,0.4404620826244354,-0.14698678255081177,0.05605459213256836,0.31269651651382446,-0.11772261559963226,-0.022850198671221733,0.7060951590538025,0.6648935675621033,1.4063318090540875,-0.4561132993642231,2.459875713081143
1687098995.301399,0.9016082882881165,0.4145094156265259,-0.12363124638795853,0.05673527717590332,0.3436388373374939,-0.2092697024345398,0.2785216271877289,0.4737013280391693,0.444210022687912,1.4345231796442444,-0.42740366134558105,2.4561595446756836
1687098995.34693,0.9090827107429504,0.40071922540664673,-0.11398661881685257,-0.029184579849243164,0.31514692306518555,-0.20696669816970825,0.4534771740436554,0.30014804005622864,0.06383244693279266,1.4460608832756308,-0.41230172719536085,2.438556302523739
1687098995.388722,0.9084790945053101,0.4023649990558624,-0.11299724876880646,0.017256438732147217,0.20105910301208496,-0.16820693016052246,0.26828068494796753,0.14044953882694244,-0.22081692516803741,1.4470511761315499,-0.4140987336655388,2.4141294814117162
1687098995.436602,0.9035708904266357,0.4140203893184662,-0.11021300405263901,0.026040315628051758,0.0900537371635437,-0.10020565241575241,0.10955791175365448,0.06964230537414551,-0.32549887895584106,1.4494209491899996,-0.4268663464505136,2.405950915087442
1687098995.482003,0.8967475295066833,0.42831841111183167,-0.11129970103502274,0.020458459854125977,-0.007099449634552002,-0.07133270800113678,0.17453211545944214,0.01480939146131277,-0.3334237039089203,1.447312943828277,-0.4426310209838961,2.3954304691366533
1687098995.557754,0.8897805213928223,0.44179269671440125,-0.11449931561946869,0.00404888391494751,-0.06859320402145386,-0.029589354991912842,0.08616816252470016,-0.010083774104714394,-0.296710342168808,1.4428169929908605,-0.45759596694108917,2.3850555503008803
1687098995.595522,0.8842885494232178,0.4520106911659241,-0.11713363230228424,0.010517418384552002,-0.0939936637878418,-0.022041738033294678,0.08684168010950089,-0.04451713711023331,-0.18409760296344757,1.4391021178526497,-0.4690181594454233,2.3795314806579153
1687098995.667855,0.8806682229042053,0.4584197998046875,-0.11947747319936752,0.007606983184814453,-0.0900421142578125,0.006196267902851105,0.018077794462442398,-0.04307851940393448,-0.09291581809520721,1.4359527527979492,-0.47621635721287736,2.3761508370953734
1687098995.704206,0.8796235918998718,0.45990297198295593,-0.12145718187093735,-0.00828564167022705,-0.06947630643844604,0.001935124397277832,0.06137093901634216,-0.020316816866397858,-0.0390690341591835,1.4335853653926554,-0.4778859392625381,2.3737996557135492
1687098995.785017,0.8796959519386292,0.45947322249412537,-0.12255421280860901,0.011264801025390625,-0.06599479913711548,0.007106304168701172,-0.02715945988893509,-0.022023281082510948,0.0469241738319397,1.4323729833882874,-0.477402011308912,2.3725444977125423
1687098995.799164,0.8809441328048706,0.4571022093296051,-0.12245474755764008,-0.00156480073928833,-0.02540045976638794,-0.0012482404708862305,-0.06555958092212677,-0.027678435668349266,0.07200255990028381,1.4326773815762162,-0.47473435791080343,2.37586894248255
1687098995.8413,0.8830205798149109,0.45279914140701294,-0.12348219007253647,-0.0006505250930786133,0.008184164762496948,-0.009437084197998047,0.0742393359541893,-0.016715334728360176,0.08782420307397842,1.4318566578330862,-0.469902265465117,2.3764990667230523
1687098995.8863049,0.8847114443778992,0.449084609746933,-0.12493602931499481,-0.009589195251464844,0.014584332704544067,0.0037050098180770874,-0.051633644849061966,-0.009163875132799149,0.054806530475616455,1.4305072733170558,-0.46574055698675454,2.3752244298044465
1687098995.930373,0.8855032920837402,0.44772645831108093,-0.12419784069061279,-0.0020499229431152344,0.033123791217803955,0.0031499266624450684,-0.02013510651886463,-0.011914520524442196,0.03273145481944084,1.4314485555550092,-0.46422108267099715,2.378832181659502
1687098995.9849129,0.8856778740882874,0.4473375082015991,-0.12435516715049744,0.0016971826553344727,0.03325343132019043,-0.00432218611240387,-0.01350623182952404,-0.007442052010446787,0.009131984785199165,1.4313014657438892,-0.46378616353732005,2.379351198959703
1687098996.079236,0.8852149844169617,0.448350727558136,-0.1240014135837555,0.00023734569549560547,0.0305769145488739,0.0024652481079101562,-0.03895539790391922,-0.008498217910528183,-0.029781991615891457,1.4316213650680447,-0.4649193654635503,2.380894451224905
1687098996.088727,0.8840605020523071,0.4506140947341919,-0.12403350323438644,-0.004436969757080078,0.02433103322982788,-0.0013478994369506836,-0.003714587539434433,-0.009020240977406502,-0.047317709773778915,1.4314063691746473,-0.46745309828467857,2.3814910180741244
1687098996.128454,0.8824948668479919,0.45361295342445374,-0.12425097823143005,0.005215764045715332,0.016281485557556152,-0.004685699939727783,-0.023394282907247543,-0.015789175406098366,-0.07049699872732162,1.4309206286857488,-0.4708152174167358,2.3818348458907614
1687098996.189911,0.8807738423347473,0.45683553814888,-0.12465448677539825,0.0058228373527526855,0.012906312942504883,0.005040884017944336,0.04540528729557991,0.0005464102141559124,-0.07118908315896988,1.430201719226895,-0.4744345776964726,2.380871179208782
