Timestamp,gravityX,gravityY,gravityZ,accelerationX,accelerationY,accelerationZ,rotationRateX,rotationRateY,rotationRateZ,attitudeRoll,attitudePitch,attitudeYaw
1687101401.0370069,0.9752603769302368,0.19691655039787292,0.1004531979560852,0.0009510517120361328,0.047193512320518494,0.037333592772483826,0.00554149504750967,-0.03508981317281723,0.010515564121305943,1.6734357846753416,-0.1982118958729519,-2.0126817082172987
1687101401.114569,0.9750463366508484,0.19771550595760345,0.10096213221549988,0.012655138969421387,0.028938576579093933,0.03955604135990143,-0.017333194613456726,0.01849815808236599,0.042797405272722244,1.6739746061082557,-0.1990268660580131,-2.0124987065396778
1687101401.1242971,0.975109875202179,0.19619077444076538,0.10329413414001465,0.0014982819557189941,0.037940025329589844,-0.003440752625465393,0.13222593069076538,0.011640761978924274,0.06969393044710159,1.6763335137615474,-0.19747168460634945,-2.0151829427348535
1687101401.1685581,0.9753769040107727,0.19511716067790985,0.10280528664588928,-0.006886422634124756,0.030072003602981567,0.01490090787410736,0.08251244574785233,-0.004664197564125061,0.03335263580083847,1.6758091767991228,-0.1963768979900762,-2.0213250610844846
1687101401.244952,0.9750519394874573,0.19704844057559967,0.10220309346914291,-0.022857844829559326,-0.006023705005645752,-0.0021512582898139954,0.039844341576099396,0.012057013809680939,-0.0033437928650528193,1.6752330694691064,-0.19834642111291845,-2.025720545842646
1687101401.289217,0.9747275710105896,0.19777019321918488,0.10389015823602676,0.009357452392578125,-0.02829083800315857,0.0046912431716918945,-0.02385394461452961,0.02975105494260788,0.032707151025533676,1.6769792443526106,-0.1990826592113879,-2.0262820333362
1687101401.3269138,0.9751942753791809,0.19442296028137207,0.10580848157405853,-0.007451534271240234,-0.04487161338329315,0.007686235010623932,-0.06790795177221298,0.04936978593468666,0.07617000490427017,1.678873449201796,-0.19566915308063648,-2.0231525368237615
1687101401.412737,0.9757975339889526,0.18937155604362488,0.10935016721487045,-0.029813706874847412,-0.046137332916259766,-0.011388778686523438,-0.05386963486671448,0.0870102196931839,0.05544109642505646,1.682393096691305,-0.190522086388961,-2.02134019041559
1687101401.429548,0.9759859442710876,0.185327410697937,0.11447668820619583,0.0008053183555603027,-0.0445956289768219,-0.030339844524860382,-0.06917508691549301,0.08723893761634827,0.04069343954324722,1.6875562061472023,-0.1864050399923313,-2.0175478928420003
1687101401.497316,0.9763030409812927,0.1817575842142105,0.11745855212211609,0.02166748046875,-0.031626373529434204,-0.03550374507904053,-0.05221900716423988,0.01960589922964573,0.05200168862938881,1.6905303688877547,-0.18277350874961099,-2.0153988480743363
1687101401.537661,0.9773868322372437,0.17617155611515045,0.11695505678653717,0.007583200931549072,-0.015359193086624146,-0.020901083946228027,-0.07500767707824707,-0.006044270005077124,0.05845499411225319,1.6898910172490538,-0.1770958177600212,-2.0107983353539076
1687101401.5850868,0.9786573052406311,0.17139095067977905,0.11338022351264954,0.02502000331878662,-0.005543187260627747,-0.03542304039001465,-0.04563460499048233,-0.057986605912446976,0.06219446659088135,1.6861349771341352,-0.17224133926348295,-2.0123954198234224
1687101401.642644,0.9798153638839722,0.16749587655067444,0.10911892354488373,0.004895269870758057,0.023910358548164368,-0.004840373992919922,0.0724632740020752,-0.08608952909708023,0.05750011280179024,1.6817061330190188,-0.16828911438111058,-2.0108901586047043
1687101401.682131,0.9806973338127136,0.1659502238035202,0.10340713709592819,0.017288386821746826,0.011341631412506104,0.0015732049942016602,-0.010868104174733162,-0.06814520806074142,0.004627380985766649,1.6758505956148286,-0.16672151790637132,-2.015593924577295
1687101401.739379,0.9808963537216187,0.16602618992328644,0.10137999057769775,0.007262885570526123,0.003453180193901062,0.00649966299533844,-0.07481379806995392,-0.0411740243434906,-0.004323436878621578,1.6737850863113763,-0.16679855577602035,-2.009931556079613
1687101401.787775,0.9809592366218567,0.1666984260082245,0.09965331852436066,0.00027257204055786133,-0.009593918919563293,0.008363619446754456,-0.0324556864798069,-0.033176399767398834,-0.009953692555427551,1.6720366370501474,-0.16748028358547917,-2.008959659339575
1687101401.827101,0.9810434579849243,0.16657330095767975,0.09903102368116379,0.002812802791595459,-0.010353818535804749,0.0008834749460220337,-0.03028441220521927,-0.03236018493771553,0.0047180610708892345,1.671400127202729,-0.16735339635174848,-2.0066543280277123
1687101401.879564,0.9812523722648621,0.16567040979862213,0.09847381711006165,-0.001638174057006836,-0.004476577043533325,0.008383512496948242,-0.013646047562360764,-0.030582325533032417,0.006606043316423893,1.6708166928833126,-0.1664377821719604,-2.005260474887489
1687101401.9413362,0.9815407395362854,0.1644010990858078,0.09772488474845886,-0.0015755295753479004,0.002957284450531006,0.007591128349304199,-0.010780486278235912,-0.025733131915330887,0.025629067793488503,1.6700320306559053,-0.16515081646061835,-2.004299722088327
1687101401.985138,0.9817968606948853,0.16299131512641907,0.09751331806182861,0.0035242438316345215,0.007785052061080933,0.01099182665348053,-0.035130299627780914,-0.01470487006008625,0.01915871910750866,1.669792929875917,-0.16372176409238728,-2.0024840692897548
1687101402.0359411,0.9818547964096069,0.1624235212802887,0.09787549823522568,-0.005246579647064209,0.015234559774398804,0.0052890777587890625,-0.00775593426078558,-0.007881052792072296,0.006865302100777626,1.6701523830881302,-0.16314629121701588,-2.001124592862084
1687101402.094118,0.9816129803657532,0.16297514736652374,0.09937357902526855,0.0047762393951416016,0.008655712008476257,0.007254734635353088,-0.052344441413879395,0.019628092646598816,-0.012993823736906052,1.6716875885362332,-0.16370537051216938,-1.9983581425997425
1687101402.1316829,0.9811602234840393,0.1648010015487671,0.10082222521305084,0.001688838005065918,0.00219118595123291,-0.006278872489929199,-0.0687553733587265,0.017378542572259903,-0.03393179550766945,1.6731950861699603,-0.16555624687634604,-1.9958667632732108
1687101402.178282,0.9809512495994568,0.16592882573604584,0.10100405663251877,0.0026453137397766113,0.006464928388595581,-0.0030579715967178345,-0.10976831614971161,-0.01589108631014824,-0.03104599565267563,1.6734001653866888,-0.16669982484461376,-1.9924612035147589
1687101402.243176,0.9810189008712769,0.1662251353263855,0.09985391795635223,0.01762288808822632,0.037708550691604614,-0.0781560093164444,-0.7580139636993408,-0.18089985847473145,-0.07392321527004242,1.6722329104677338,-0.1670003042871607,-1.9744191649990381
1687101402.2885861,0.9817947745323181,0.16568121314048767,0.09289059787988663,-0.04075479507446289,0.27392446994781494,-0.07338988780975342,-0.5442574620246887,-0.35393235087394714,-0.15809288620948792,1.6651285696068783,-0.16644872895498422,-1.9313169559179706
1687101402.328579,0.9809494018554688,0.18210378289222717,0.0676480308175087,0.0938032865524292,0.5245307087898254,-0.139989972114563,-0.3058518171310425,-0.7174475193023682,-0.5954650044441223,1.6396491107130193,-0.18312558144771535,-1.911988462612439
1687101402.379694,0.9720461368560791,0.2320324331521988,0.03587675467133522,0.20336884260177612,0.6767352819442749,-0.20589029788970947,-0.9908549189567566,-0.8170715570449829,-1.5075256824493408,1.6076880705949337,-0.23416662077819617,-1.8831384489324507
1687101402.455297,0.9451698064804077,0.3260904550552368,0.01785185933113098,0.23395293951034546,0.6178639531135559,-0.08338844776153564,-0.9276900887489319,-0.5805069804191589,-2.432201385498047,1.5896815430926663,-0.3321650105359206,-1.8201532630292983
1687101402.493434,0.8922293782234192,0.4515760838985443,0.0023350410629063845,0.521420955657959,0.45423129200935364,-0.0033268933184444904,-0.4357525706291199,-0.4967649579048157,-2.99932861328125,1.5734134069174481,-0.46853100595075553,-1.7911123544121181
1687101402.5465431,0.8079384565353394,0.5891852974891663,0.009807389229536057,0.6095114350318909,0.23997730016708374,0.11427700519561768,-0.8227639198303223,-0.18243543803691864,-3.3768577575683594,1.5829345128651058,-0.6300501508623182,-1.7441584795957357
1687101402.5862951,0.6915806531906128,0.7216583490371704,0.030420571565628052,0.6388331651687622,0.18265372514724731,0.10887682437896729,-0.2654218375682831,0.3225165605545044,-3.7588276863098145,1.6147550110384372,-0.8061949467796855,-1.706529464514831
1687101402.660527,0.52394038438797,0.8489745259284973,0.0687669962644577,0.6682136058807373,0.06386733055114746,0.13611268997192383,-0.5796250700950623,0.9133651852607727,-4.628546714782715,1.7013000301444203,-1.0140416339313114,-1.6355772112231166
1687101402.675578,0.29623380303382874,0.9502555727958679,0.09622888267040253,0.8495486974716187,-0.060530781745910645,0.0523916631937027,0.45999714732170105,1.0062960386276245,-5.0954270362854,1.8848844137513745,-1.25405533071187,-1.4917545950902822
1687101402.7492108,0.03674341365695,0.997029721736908,0.06768728792667389,0.8930203914642334,-0.12215185165405273,0.0668036937713623,1.0640063285827637,0.8619773983955383,-5.388237953186035,2.644262634302664,-1.4937025689525851,-0.7715027353837747
1687101402.800585,-0.24207384884357452,0.9702228903770447,-0.00822529662400484,0.9840019941329956,-0.11205339431762695,0.04188615083694458,1.7669256925582886,0.4124240279197693,-5.768579006195068,-1.5368309329453338,-1.3261492872393872,1.3079571366817695
1687101402.845186,-0.5117172002792358,0.8519149422645569,-0.11129478365182877,1.0445083379745483,-0.005631923675537109,0.0018586963415145874,2.4200356006622314,-0.08413367718458176,-5.982916831970215,-1.3566387676438807,-1.0196311744769646,1.4848388536618147
1687101402.875891,-0.7432842254638672,0.644038736820221,-0.18094855546951294,0.9863110780715942,0.0458415150642395,0.13709475100040436,1.7350960969924927,-0.5288241505622864,-6.089468479156494,-1.3319968832724403,-0.6997660626809318,1.5381946201106425
1687101402.928753,-0.9071131348609924,0.37477898597717285,-0.19153675436973572,0.8608028292655945,0.11318176984786987,0.015572383999824524,2.2770116329193115,-1.4485920667648315,-5.82850456237793,-1.362703161254541,-0.38415838658674617,1.5672983331237178
1687101403.008741,-0.9875609278678894,0.08578024059534073,-0.13177621364593506,0.560437023639679,0.06221475452184677,0.11497624218463898,1.688212513923645,-1.915292501449585,-5.5521368980407715,-1.4381438989176396,-0.08588579173999483,1.6253312404721914
1687101403.0481129,-0.9821854829788208,-0.18615134060382843,-0.02567582204937935,0.6447069644927979,0.09716206789016724,-0.008275032043457031,-0.029172277078032494,-2.372607946395874,-5.301476001739502,-1.5446607585254177,0.1872435517926299,1.6461696336589908
1687101403.0859752,-0.8979562520980835,-0.4315169155597687,0.08641629666090012,0.449088454246521,-0.08612221479415894,-0.04636204242706299,-0.5727421045303345,-2.532560110092163,-4.86403226852417,-1.6667375141388772,0.4461736381222152,1.6332437416084327
1687101403.1441278,-0.7541341185569763,-0.637719988822937,0.1568273901939392,0.3981618881225586,-0.06288731098175049,0.014223575592041016,-1.6462420225143433,-2.373508930206299,-4.530160903930664,-1.7758308982498339,0.6915345683785568,1.6045490292426456
1687101403.184523,-0.5803682208061218,-0.7942690849304199,0.1797473281621933,0.4030458927154541,-0.21491658687591553,-0.012709379196166992,-1.1425777673721313,-2.068936586380005,-3.9518635272979736,-1.8711397206589289,0.9178036508164674,1.5811332054331515
1687101403.279358,-0.4110438823699951,-0.8917823433876038,0.18912136554718018,0.2706173360347748,-0.2069113850593567,0.07180379331111908,-0.7228235006332397,-1.3064223527908325,-3.092470407485962,-2.002017756182612,1.101269200968975,1.6317670604648618
1687101403.310258,-0.28208696842193604,-0.9318199753761292,0.22833824157714844,0.24108663201332092,-0.21165835857391357,0.024332046508789062,1.560400128364563,-0.7905031442642212,-2.0448505878448486,-2.2512792828802373,1.1993958314994548,1.8452863773441113
1687101403.376076,-0.21126510202884674,-0.9435199499130249,0.25521963834762573,0.02060653269290924,-0.5089641213417053,0.4304644763469696,-1.078181266784668,0.9100863337516785,-0.7205209136009216,-2.4501421359083335,1.233098633586631,2.0585854025505474
1687101403.391026,-0.21642261743545532,-0.9434758424758911,0.2510271668434143,0.15593674778938293,-0.03201860189437866,-0.5145159959793091,1.9896607398986816,-0.17115885019302368,0.21313638985157013,-2.43008808135362,1.2329655446775405,2.065998800364868
1687101403.438431,-0.21405665576457977,-0.9373533129692078,0.27486056089401245,0.03156156837940216,-0.047296226024627686,0.010219305753707886,-0.874782145023346,-0.2623516321182251,0.12325649708509445,-2.479923620387142,1.214953850839742,2.099076959078799
1687101403.479414,-0.21119852364063263,-0.9404205083847046,0.26646682620048523,-0.0006239414215087891,0.06586301326751709,0.08987164497375488,0.20079034566879272,0.09673375636339188,-0.029123924672603607,-2.471387331986741,1.223864865654184,2.0865155392774724
1687101403.560145,-0.21456731855869293,-0.9398865699768066,0.26565709710121155,-0.02929861843585968,-0.05878573656082153,-0.008149921894073486,-0.08307572454214096,0.10892177373170853,-0.0051139965653419495,-2.462183112956807,1.2222979171089234,2.0842121297248206
1687101403.59728,-0.21442186832427979,-0.940688967704773,0.26292067766189575,-0.032389044761657715,-0.037124693393707275,-0.004177570343017578,-0.04673289507627487,0.04188799113035202,-0.029850967228412628,-2.4574487159152767,1.224655359577694,2.0821351082275803
1687101403.659332,-0.21482154726982117,-0.9415735602378845,0.2594049870967865,-0.018164873123168945,0.003661632537841797,0.011789441108703613,-0.03496305271983147,0.1365315467119217,-0.03657078742980957,-2.4499318983994205,1.227272127485438,2.080701240454424
1687101403.7422628,-0.21485218405723572,-0.9419955015182495,0.2578427493572235,0.0289391428232193,0.004144608974456787,-0.028320103883743286,-0.010908317752182484,0.04168698936700821,-0.018307030200958252,-2.446892773908926,1.2285270937830104,2.0822927055175633
1687101403.755974,-0.21508638560771942,-0.9413077235221863,0.26014894247055054,0.010771214962005615,-0.0031807422637939453,0.0025615692138671875,-0.021908238530158997,0.012734388932585716,-0.01633216254413128,-2.45073335647346,1.2264837022934156,2.0871584653480766
1687101403.8214169,-0.21383066475391388,-0.942882239818573,0.2554399371147156,-0.023916512727737427,0.019481360912322998,0.007987737655639648,-0.07694059610366821,0.023293467238545418,-0.01827174425125122,-2.4446312022796883,1.2311790255651063,2.0817774017170567
1687101403.834508,-0.21149717271327972,-0.9455232620239258,0.2474963515996933,0.003718271851539612,-0.012682795524597168,0.010453447699546814,-0.18478050827980042,0.02378985844552517,-0.04470741003751755,-2.4344649716995375,1.2391982111654019,2.0716770998315375
1687101403.906299,-0.21206893026828766,-0.9457113146781921,0.24628615379333496,0.011888861656188965,-0.013822317123413086,0.008550882339477539,-0.008704817853868008,0.0067653353326022625,-0.0023455738555639982,-2.430708496993217,1.2397762683781155,2.0692836636164857
1687101403.9614239,-0.21162481606006622,-0.9462429285049438,0.2446194291114807,0.008332028985023499,0.01171863079071045,0.0073639750480651855,-0.13310720026493073,-0.00917135365307331,0.0013741301372647285,-2.4283866826998937,1.2414158259812444,2.0663285618880503
1687101404.045788,-0.21046790480613708,-0.9485326409339905,0.2366197407245636,0.016162484884262085,0.006867051124572754,0.0022107362747192383,-0.1851498931646347,-0.028558434918522835,-0.02628353051841259,-2.4146216765951793,1.2485697837999465,2.0505258460383446
1687101404.0662088,-0.21030591428279877,-0.9491816163063049,0.23414844274520874,0.001138448715209961,-0.003027796745300293,0.004514217376708984,-0.04555950686335564,-0.017763998359441757,0.022040393203496933,-2.4097876255658788,1.250625391618273,2.0437214252414173
1687101404.103533,-0.21104557812213898,-0.949206531047821,0.2333812713623047,-0.0048968493938446045,0.00844109058380127,-0.0005473792552947998,0.028035618364810944,0.0022126391995698214,0.0326182022690773,-2.406409537982873,1.2507045136871613,2.0398674157659364
1687101404.147421,-0.212100088596344,-0.9489127993583679,0.2336198389530182,0.0016966462135314941,-0.042710185050964355,-0.049614161252975464,-0.21525320410728455,-0.05739884823560715,0.109198197722435,-2.404437897749353,1.2497722445988069,2.0352775884502288
1687101404.2025928,-0.23042519390583038,-0.9517457485198975,0.2026922106742859,0.06555403769016266,-0.26094645261764526,-0.029169335961341858,-1.4153167009353638,0.08683507144451141,0.8811733722686768,-2.2922506633375415,1.2588750932982995,1.9175801145528817
1687101404.2488341,-0.2960643172264099,-0.9530714154243469,0.06325245648622513,0.30096235871315,-0.3390733003616333,-0.03645813465118408,-3.579301118850708,-0.248490110039711,2.0034446716308594,-1.7812763493984611,1.263224254361377,1.382736260408892
1687101404.2913,-0.4273032248020172,-0.9010990858078003,-0.07370559871196747,0.4988669455051422,-0.4732447862625122,-0.0037175416946411133,-3.1116783618927,-1.0132575035095215,3.476625442504883,-1.3999869591672691,1.1222976056032514,0.9403234042468116
1687101404.348991,-0.6008252501487732,-0.7833015322685242,-0.15952397882938385,0.4765423536300659,-0.2471703290939331,0.05690859258174896,-2.253352165222168,-1.551581621170044,4.285252094268799,-1.3112758781909277,0.8999591686492434,0.7610351112870849
1687101404.392782,-0.7705696225166321,-0.6181147694587708,-0.15542353689670563,0.47441184520721436,-0.05984842777252197,0.046735167503356934,-1.2378324270248413,-1.8058662414550781,4.372052192687988,-1.3717671291644773,0.6663422118516729,0.7212459268391631
1687101404.462513,-0.8991501927375793,-0.4218441843986511,-0.11651702225208282,0.4459947943687439,0.00010654330253601074,-0.013304822146892548,-1.6381475925445557,-2.114569664001465,4.157691955566406,-1.4419287453390817,0.4354783876936638,0.6762403633789973
1687101404.5098839,-0.9743330478668213,-0.22317636013031006,-0.029450073838233948,0.37582236528396606,-0.03278981149196625,-0.014159619808197021,-1.0822447538375854,-2.393087387084961,4.003871917724609,-1.5405796458785448,0.2250718129979684,0.6225062142382263
1687101404.555239,-0.995485246181488,-0.03411933779716492,0.08857159316539764,0.4159717559814453,-0.03623892366886139,-0.03182423114776611,-1.3677211999893188,-2.6768345832824707,3.7619736194610596,-1.6595359421543174,0.03412596274745776,0.560436239123446
1687101404.602581,-0.9607977271080017,0.14045368134975433,0.2390405237674713,0.4243292808532715,-0.08210407197475433,-0.13706612586975098,-0.678727924823761,-3.312253475189209,3.65567684173584,-1.8146394233023897,-0.14091961809162964,0.47850031375913077
1687101404.6427789,-0.8693442344665527,0.28937575221061707,0.4006272554397583,0.4573875069618225,-0.09650468826293945,0.05957770347595215,-1.3797008991241455,-3.252584934234619,3.4772684574127197,-2.0026268748222,-0.2935746168419225,0.376642404773966
1687101404.715872,-0.7287100553512573,0.3955673277378082,0.5590242147445679,0.6004141569137573,-0.12779086828231812,-0.11584806442260742,-0.556188702583313,-3.703181266784668,3.3701975345611572,-2.2251784385869815,-0.40668548513146097,0.2274630551604492
1687101404.756723,-0.5292878746986389,0.5176690816879272,0.672215461730957,0.29666751623153687,-0.09818965196609497,-0.005589306354522705,0.40678396821022034,-3.529365062713623,3.934260845184326,-2.474595367487312,-0.5441243420269566,0.08917877513478847
1687101404.809519,-0.2932080328464508,0.5916227102279663,0.7510068416595459,0.4919995963573456,-0.01688528060913086,0.028518736362457275,-0.32581114768981934,-3.5646142959594727,3.7942306995391846,-2.7693721749792215,-0.6330701452943351,-0.11366484295239924
1687101404.8478289,-0.049387674778699875,0.6255373954772949,0.7786295413970947,0.5341746807098389,-0.04718351364135742,0.09557700157165527,-0.28435850143432617,-3.3527839183807373,3.197740316390991,-3.078248534931349,-0.6758201408936914,-0.3297663409175333
1687101404.8962932,0.17408932745456696,0.6112273931503296,0.7720708250999451,0.34200865030288696,0.10540145635604858,0.02152329683303833,0.4834446609020233,-2.9958133697509766,2.9307861328125,2.9198179364983092,-0.6576104920887379,-0.5345127094522854
1687101404.948863,0.36729755997657776,0.5893205404281616,0.719578742980957,0.40192845463752747,0.06882143020629883,0.1101788878440857,0.5944140553474426,-2.6509487628936768,2.828186511993408,2.6696326062567826,-0.6302175664001558,-0.7149535689573511
1687101404.999734,0.5244662165641785,0.5549299716949463,0.6457459330558777,0.21152621507644653,0.09976357221603394,0.15131211280822754,0.8148220777511597,-2.1198391914367676,2.493182420730591,2.459464900963705,-0.5882787910041537,-0.8778429841359874
1687101405.0711231,0.6429057121276855,0.5107491612434387,0.5707958340644836,0.20749729871749878,0.09638285636901855,0.12167859077453613,0.7848237156867981,-1.5577269792556763,2.2321736812591553,2.296851084104371,-0.5360559579085913,-1.0161071188732518
1687101405.1157799,0.7425594329833984,0.4547309875488281,0.491757333278656,0.2030124068260193,0.2582817077636719,0.10997295379638672,1.2722080945968628,-1.4662295579910278,2.209097385406494,2.1557325163294494,-0.47207013802488507,-1.1344955342804448
1687101405.184721,0.8130717277526855,0.40561234951019287,0.4176033139228821,0.20554381608963013,0.054852038621902466,0.11363127827644348,1.4864863157272339,-1.0286900997161865,1.9599189758300781,2.0452740528670863,-0.4176486808070331,-1.2520289857928435
1687101405.199551,0.8722059726715088,0.3517933785915375,0.339849591255188,0.2653518319129944,0.2503642141819,0.10596629977226257,1.103564977645874,-0.972904622554779,1.9798593521118164,1.9423431375067683,-0.35948624617029384,-1.3708925631322482
1687101405.236374,0.9157223105430603,0.283897340297699,0.28435060381889343,0.18112534284591675,0.3358841836452484,0.03837278485298157,0.7118600010871887,-0.9161582589149475,1.6299247741699219,1.8718768423156464,-0.28785626213816945,-1.4429936717889713
1687101405.317987,0.945755660533905,0.22298941016197205,0.2362663596868515,0.16587752103805542,0.26304876804351807,0.1290290206670761,0.6587421894073486,-0.7728744149208069,1.3735442161560059,1.8156032693423523,-0.22488002287929926,-1.4919854254424114
1687101405.365258,0.9665305018424988,0.17510341107845306,0.18750327825546265,0.14281392097473145,0.30077242851257324,0.07085847854614258,0.9439573884010315,-0.823559045791626,1.111215591430664,1.7624124257077058,-0.17601080227132793,-1.5600350078290937
1687101405.412127,0.9805141091346741,0.12924626469612122,0.14794450998306274,0.05130046606063843,0.3725847899913788,0.10240639746189117,0.871503472328186,-0.7093713879585266,0.8206915855407715,1.7205513208730319,-0.12960883646820245,-1.602445973897405
1687101405.450906,0.9882780909538269,0.10171841084957123,0.11384109407663345,-0.039135634899139404,0.29247716069221497,0.10126198828220367,0.7667895555496216,-0.4932749569416046,0.515149712562561,1.6854822061827321,-0.10189463880620846,-1.651920070042899
1687101405.506638,0.9917054772377014,0.08915944397449493,0.09257961064577103,0.04265737533569336,0.31692272424697876,0.14779198169708252,0.661932647228241,-0.2754518389701843,0.10728172212839127,1.663880483472527,-0.0892779974153819,-1.6852978070373485
1687101405.545827,0.9925689697265625,0.09290008991956711,0.07858936488628387,-0.0035400986671447754,0.1805984377861023,0.07616519182920456,0.7446685433387756,-0.18193647265434265,-0.11676689237356186,1.6498092250811736,-0.09303424077778139,-1.72243748553919
1687101405.614839,0.9918447136878967,0.10420721024274826,0.07338089495897293,0.01325160264968872,0.11651115864515305,0.1150040552020073,0.3393271863460541,0.04196546599268913,-0.24924756586551666,1.6446460384406802,-0.10439673521724094,-1.7486829284143826
1687101405.6572242,0.9902636408805847,0.11733917891979218,0.0748945102095604,0.023789584636688232,0.02487272024154663,0.036280982196331024,0.22478383779525757,0.07896538823843002,-0.24939724802970886,1.6462834965157822,-0.11761012225889295,-1.7623616945093394
1687101405.718384,0.9883148670196533,0.1295679211616516,0.0802859216928482,0.014355361461639404,-0.03101140260696411,0.014455914497375488,-0.07980003207921982,0.12142786383628845,-0.21333491802215576,1.6518534985573823,-0.12993320816145942,-1.7649384360346905
1687101405.7585258,0.9863302707672119,0.1399032473564148,0.0870598629117012,0.009824395179748535,-0.04250642657279968,-0.003960497677326202,0.06753109395503998,0.09895600378513336,-0.20075474679470062,1.6588346051827507,-0.14036369796065884,-1.7609010928143847
1687101405.79712,0.984929621219635,0.14692926406860352,0.0912441536784172,0.01444476842880249,-0.07379388809204102,-0.016247272491455078,-0.04123399779200554,0.06821233779191971,-0.10180644690990448,1.6631729408364242,-0.14746311815064325,-1.7641920644394824
1687101405.86922,0.9849053025245667,0.14564503729343414,0.09353600442409515,-0.011242032051086426,-0.026489153504371643,-0.015807747840881348,-0.029842860996723175,0.06987066566944122,-0.05011775717139244,1.6654818848078272,-0.1461649284549533,-1.7616323829989204
1687101405.906423,0.9854075908660889,0.14204786717891693,0.09377717226743698,-0.0004222989082336426,-0.011539459228515625,-0.016415119171142578,-0.031945690512657166,0.025049222633242607,-0.0211084745824337,1.665676458518969,-0.14252995759679357,-1.761050026998198
1687101405.966562,0.9854634404182434,0.14027653634548187,0.09583241492509842,-0.02048259973526001,0.012021377682685852,-0.012412682175636292,-0.08543102443218231,0.08084458112716675,-0.015350455418229103,1.667737547219172,-0.14074070235435904,-1.756463269105752
1687101406.0124211,0.9853587746620178,0.14083805680274963,0.09608666598796844,0.011284172534942627,0.026566103100776672,-0.020464181900024414,0.07569315284490585,0.02349158562719822,-0.032489094883203506,1.6680033819759088,-0.14130786022310737,-1.7599186447463304
1687101406.044636,0.9851816296577454,0.14231446385383606,0.09572761505842209,-0.0016306638717651367,0.016239598393440247,-0.01915907859802246,-0.03855112940073013,-0.0009854623349383473,-0.002460422459989786,1.6676597234459216,-0.1427992861316849,-1.7579249322789225
1687101406.117073,0.985206127166748,0.14369377493858337,0.09338562190532684,0.0029529929161071777,-0.004716739058494568,-0.009569168090820312,-0.07377063482999802,-0.024248262867331505,0.0025156941264867783,1.6653018690794272,-0.1441929261727406,-1.7567880164469674
1687101406.149925,0.9853007197380066,0.144049733877182,0.09182696789503098,-0.0005137920379638672,0.014412790536880493,-0.015426278114318848,-0.013112882152199745,-0.031419578939676285,0.0018646842800080776,1.6637247949540006,-0.14455261931560529,-1.7538706620468814
1687101406.197109,0.9854695200920105,0.14371255040168762,0.09053386002779007,-0.0023610591888427734,0.007975071668624878,-0.0074803829193115234,-0.06129186227917671,-0.037445779889822006,0.02415347844362259,1.6624079305330552,-0.14421189611051055,-1.751186470691428
1687101406.247816,0.985638439655304,0.14332453906536102,0.0893009677529335,0.009005546569824219,0.0023816078901290894,0.01130019873380661,-0.09786878526210785,-0.03049439564347267,0.016665734350681305,1.6611517833152758,-0.14381982276882835,-1.7459163995570885
1687101406.3018641,0.9858957529067993,0.1425957977771759,0.08761213719844818,0.003331482410430908,0.020917385816574097,0.008731722831726074,-0.05509734898805618,-0.026220954954624176,0.011442876420915127,1.6594290170222523,-0.14308351710310502,-1.7443120395867262
1687101406.373248,0.9860097765922546,0.14200764894485474,0.0872836709022522,0.007337331771850586,0.026495158672332764,0.00033223628997802734,-0.013006090186536312,-0.02556326426565647,0.015341944992542267,1.6590882958678175,-0.14248932207095485,-1.741525978170338
1687101406.408679,0.9860355854034424,0.14221343398094177,0.08665475249290466,0.005190551280975342,0.02894437313079834,0.00898730754852295,-0.07387556880712509,-0.03823314234614372,0.0078537343069911,1.658453094316939,-0.14269721504282798,-1.7397799232396884
1687101406.449919,0.9859418869018555,0.14310432970523834,0.08625328540802002,0.004780709743499756,0.04801197350025177,-0.0009262636303901672,-0.18992067873477936,-0.05699298158288002,-0.028920259326696396,1.6580573032249726,-0.14359732624800872,-1.7328725057603924
1687101406.510663,0.9857562184333801,0.1454496830701828,0.08443466573953629,-0.0041429996490478516,0.1381654441356659,0.018470533192157745,-0.23671720921993256,-0.11412480473518372,-0.07637805491685867,1.6562424850696402,-0.14596746819626005,-1.7193739795713208
1687101406.558846,0.9847245216369629,0.156336709856987,0.07665789127349854,0.01890707015991211,0.3842669129371643,-0.013211965560913086,0.4549752175807953,-0.14557798206806183,-0.43052759766578674,1.6484866829683633,-0.15698066723496573,-1.7286637322897636
1687101406.609118,0.9793893098831177,0.18967115879058838,0.06943680346012115,0.09861356019973755,0.4285691976547241,0.013830423355102539,-0.037191055715084076,-0.10253792256116867,-0.943179726600647,1.641575950560208,-0.19082721637039798,-1.733438733007489
1687101406.663764,0.9650278091430664,0.25131756067276,0.07457108050584793,0.09026998281478882,0.5155738592147827,0.04469156265258789,-0.7333176732063293,0.18246197700500488,-1.6526057720184326,1.6479165732286882,-0.2540412742789849,-1.7069581617558807
1687101406.708678,0.9331014752388,0.346107542514801,0.09762917459011078,0.24831032752990723,0.43532559275627136,0.05746115744113922,-0.9949354529380798,0.3851765990257263,-2.392883777618408,1.6750456961336233,-0.35341902831331473,-1.6610100580877776
1687101406.755521,0.875810444355011,0.4626290500164032,0.13758711516857147,0.35119450092315674,0.4192984104156494,0.07716500759124756,-0.2932646572589874,0.6787033081054688,-2.916736125946045,1.7266196802221834,-0.4809584013661788,-1.6049962393640955
1687101406.795913,0.7866899371147156,0.591336190700531,0.17731378972530365,0.3692089915275574,0.20863622426986694,0.08817383646965027,0.11286582052707672,0.993010401725769,-3.322675943374634,1.7924840514930545,-0.6327147315679119,-1.5578275616857562
1687101406.866354,0.6640098690986633,0.7176807522773743,0.20982101559638977,0.5196447968482971,-0.020293235778808594,0.07951600849628448,0.010149562731385231,0.9952545762062073,-3.3395469188690186,1.8768582823813016,-0.8004660840894621,-1.5007231964343997
1687101406.912683,0.5192422270774841,0.8218731880187988,0.2343323975801468,0.4906911253929138,-0.03947889804840088,0.11684855818748474,-0.09105801582336426,1.0813041925430298,-3.603527545928955,1.9947282098633072,-0.964691483205889,-1.4154719502451563
1687101406.9448571,0.3524743914604187,0.8966265916824341,0.2679974436759949,0.5015906095504761,-0.04541498422622681,0.04958370327949524,-0.04246038571000099,1.2668293714523315,-3.527536392211914,2.220876945031132,-1.1120911110707814,-1.2186630392830753
1687101407.018894,0.16105429828166962,0.9447757005691528,0.28541210293769836,0.5664084553718567,-0.07186627388000488,-0.009457021951675415,0.20647940039634705,1.2185176610946655,-3.842595338821411,2.62784685639111,-1.236909492842797,-0.8485981927392628
1687101407.046231,-0.05327665060758591,0.9636911153793335,0.261650949716568,0.5852895975112915,0.08045268058776855,0.03751283884048462,0.9107283353805542,1.327012300491333,-4.394214630126953,-2.9407213819498654,-1.3004974068464827,-0.17386481387352917
1687101407.1013489,-0.287117600440979,0.9370092153549194,0.19893977046012878,0.6479727029800415,0.08130121231079102,0.01199766993522644,1.3000413179397583,1.2618317604064941,-4.684023380279541,-2.1767318142032646,-1.2139673661907768,0.5558136447730488
1687101407.217958,-0.5140635371208191,0.8507378101348877,0.10947079956531525,0.7195536494255066,0.0710914134979248,0.06310607492923737,1.660724401473999,1.0187020301818848,-4.883534908294678,-1.7806140455753492,-1.0173874948778252,0.9298743530874926
1687101407.232345,-0.7081239223480225,0.7059205770492554,0.015374492853879929,0.669153094291687,0.03992891311645508,0.07887899875640869,1.7193397283554077,0.5614917874336243,-4.760570526123047,-1.5925045025181916,-0.7837220348637434,1.1149790242484732
1687101407.2462602,-0.8532264232635498,0.5192174315452576,-0.049169689416885376,0.5107430219650269,0.01845639944076538,0.11699491739273071,1.3420425653457642,0.1919640153646469,-4.65552282333374,-1.51323204625316,-0.5459350229399786,1.2111664007559537
1687101407.318402,-0.9472995400428772,0.3122827112674713,-0.07143394649028778,0.44443100690841675,0.002445012331008911,0.006446726620197296,1.1760588884353638,-0.23680034279823303,-4.367094039916992,-1.495530791545618,-0.3175949732290813,1.2597179055105718
1687101407.371983,-0.9937273263931274,0.09457980841398239,-0.05966999754309654,0.499830961227417,0.09012783318758011,-0.0005412064492702484,0.8434329628944397,-0.7313514351844788,-4.3559417724609375,-1.510821687557585,-0.09472138761570041,1.2991662147031424
1687101407.4116611,-0.9925296306610107,-0.12044572830200195,-0.01943252980709076,0.3979252576828003,0.054314158856868744,0.001442374661564827,0.1376151144504547,-0.8477129936218262,-4.263177394866943,-1.5512200368033573,0.1207388651469208,1.3079827549319434
1687101407.454299,-0.9463756084442139,-0.3212142586708069,0.03456002101302147,0.3839825391769409,0.07133638858795166,-0.04208267107605934,0.37575656175613403,-1.0634056329727173,-4.035886764526367,-1.6072984003041901,0.32701142869240857,1.3294162097356022
1687101407.5123038,-0.8628949522972107,-0.49939319491386414,0.0775817334651947,0.2773846387863159,-0.11526137590408325,0.008142121136188507,-0.4115135371685028,-1.0469390153884888,-3.607682943344116,-1.66046390476256,0.5228982312646173,1.3314993841666072
1687101407.5543041,-0.7607372999191284,-0.6392143964767456,0.11262134462594986,0.24849987030029297,-0.02599245309829712,0.03552614897489548,-0.2408331334590912,-0.9328901767730713,-3.228379726409912,-1.717771163101305,0.6934762891395727,1.3446202795092623
1687101407.605308,-0.6484670639038086,-0.751352071762085,0.12231362611055374,0.18543905019760132,-0.034536659717559814,0.025589719414711,-0.585634708404541,-0.6680837273597717,-2.8610355854034424,-1.757225682566727,0.8501085994227017,1.343878689005568
1687101407.6613789,-0.541449785232544,-0.8296216726303101,0.1362353265285492,0.10440754890441895,-0.07691824436187744,-0.030919313430786133,0.44487330317497253,-0.5825806856155396,-2.3157958984375,-1.8172917125452355,0.9784296866511476,1.3812316223841434
1687101407.707592,-0.44408169388771057,-0.8825232982635498,0.15473893284797668,0.059392333030700684,-0.0835106372833252,0.055115118622779846,-0.08314976096153259,-0.2794044613838196,-2.0263748168945312,-1.906086958955928,1.0812011818784673,1.4579020641360112
1687101407.813909,-0.3549603521823883,-0.9213114976882935,0.15870694816112518,0.07860848307609558,-0.09648001194000244,-0.02964821457862854,0.20352542400360107,-0.2627595365047455,-1.8087188005447388,-1.991245813071069,1.1714400207003415,1.539730351319244
1687101407.831795,-0.28127264976501465,-0.9431126713752747,0.1772681474685669,0.049979984760284424,-0.17724859714508057,0.04970620572566986,0.31772440671920776,-0.04130103811621666,-1.2688281536102295,-2.1331520076692994,1.2318714138287068,1.682317367717628
1687101407.848359,-0.23680269718170166,-0.9566037654876709,0.16980481147766113,0.02560584247112274,-0.23081988096237183,0.11652635037899017,-0.5465765595436096,0.36608806252479553,-0.6772993206977844,-2.1928889768952864,1.2751147810564574,1.7555816305318723
1687101407.917386,-0.22615684568881989,-0.9611654877662659,0.15815740823745728,0.04360072314739227,-0.12878495454788208,-0.08607496321201324,0.9527665972709656,0.11344872415065765,0.1479150354862213,-2.181069932513176,1.2911947290093462,1.7625757612797353
1687101407.958901,-0.2283635139465332,-0.9515703916549683,0.2058245688676834,0.05975392460823059,0.006807267665863037,-0.04986453056335449,0.07853847742080688,-0.16979795694351196,0.06933081150054932,-2.304330473186932,1.2583043009734602,1.8843566540993815
1687101408.0321321,-0.22825537621974945,-0.9534417986869812,0.19709919393062592,0.049773335456848145,0.15345406532287598,-0.03364706039428711,0.29058918356895447,-0.13275030255317688,-0.026047175750136375,-2.283077536227407,1.2644499916388325,1.8578569346552158
1687101408.063775,-0.22951921820640564,-0.9501481056213379,0.21104326844215393,0.032360389828681946,-0.11790597438812256,-0.016798987984657288,-0.1286461353302002,-0.02197696454823017,0.1266716569662094,-2.314281865342301,1.2537105450542922,1.885154841677816
1687101408.13973,-0.2337035834789276,-0.9511722326278687,0.2016276717185974,-0.006103485822677612,0.024994373321533203,-0.018003493547439575,-0.1718447357416153,0.0565471388399601,-0.016990695148706436,-2.2826457962059985,1.2570116786712875,1.8535410172439843
1687101408.173792,-0.233970507979393,-0.9513862133026123,0.20030495524406433,-0.015571743249893188,-0.02293318510055542,0.00045490264892578125,0.046696919947862625,0.12528787553310394,-0.011664839461445808,-2.278828050062314,1.2577056914263798,1.8549101374797115
1687101408.2122889,-0.2360510528087616,-0.9510212540626526,0.19959476590156555,-0.002779453992843628,0.014528512954711914,0.0021110475063323975,0.05496390536427498,0.09995768219232559,0.013346569612622261,-2.272705688050241,1.2565229067353716,1.8547493822455714
1687101408.262247,-0.23605762422084808,-0.9508923292160034,0.20020107924938202,0.010364890098571777,0.006419181823730469,-0.011388897895812988,0.01411714032292366,-0.0020768700633198023,0.025076795369386673,-2.274187804781201,1.2561062383143002,1.8585749612336873
1687101408.312432,-0.23594722151756287,-0.9514039158821106,0.1978883296251297,0.0068364739418029785,0.01031792163848877,0.0240202397108078,-0.07345078885555267,-0.016716932877898216,-0.0003900807350873947,-2.2686919503740794,1.257763177020976,1.8511707701419553
1687101408.366708,-0.23480749130249023,-0.9527280330657959,0.19280624389648438,0.002873927354812622,-0.005203187465667725,0.0019721537828445435,-0.12196186929941177,0.021247204393148422,-0.016675110906362534,-2.258286159378172,1.262092072378002,1.8407633463246855
1687101408.456514,-0.23333102464675903,-0.9538331031799316,0.18910065293312073,0.007394134998321533,0.006018161773681641,-0.02151346206665039,-0.06008917838335037,-0.012000007554888725,-0.009216262958943844,-2.251870431238244,1.2657501956011616,1.8337551491266884
1687101408.470944,-0.23245427012443542,-0.9551870822906494,0.1832546889781952,0.0012226253747940063,-0.00909191370010376,0.004397839307785034,-0.2167927771806717,0.057118188589811325,-0.02898324280977249,-2.2383914424611917,1.270291067352408,1.8206313256700735
1687101408.510303,-0.23081569373607635,-0.9576623439788818,0.17206622660160065,-0.000293925404548645,-0.0017949938774108887,-0.0032888799905776978,-0.1350925862789154,0.0613727867603302,-0.024162588641047478,-2.211392064479794,1.278769536379829,1.7960497836311724
1687101408.558786,-0.23042742908000946,-0.9579062461853027,0.17122820019721985,0.004475265741348267,-0.017222046852111816,0.015447750687599182,-0.06074325367808342,0.07110530883073807,0.001988321077078581,-2.209860035431627,1.2796178550371524,1.797160956141011
1687101408.6331291,-0.23060612380504608,-0.9580853581428528,0.16998004913330078,0.014434903860092163,0.02194344997406006,-0.02392292022705078,0.00023834247258491814,-0.017869925126433372,-0.013723796233534813,-2.2059909283682675,1.2802424739462956,1.794990087411895
1687101408.669149,-0.2297074794769287,-0.9584137201309204,0.1693444401025772,0.010896444320678711,-0.0029051899909973145,0.009854793548583984,-0.047347817569971085,0.0032591726630926132,0.0003971494734287262,-2.206066526759782,1.281390879813005,1.793697388033689
1687101408.709643,-0.22941216826438904,-0.9586347341537476,0.16849155724048615,-0.001834765076637268,0.000413358211517334,-0.01298929750919342,-0.019836831837892532,-0.01797693967819214,-6.91036693751812e-05,-2.2042703538584836,1.282166290568321,1.7917815882895192
1687101408.782424,-0.22874002158641815,-0.959156334400177,0.16642358899116516,0.0012009888887405396,0.005512654781341553,0.004734143614768982,-0.05615302920341492,0.01810598373413086,-0.003673625411465764,-2.199784740622026,1.2840045371884374,1.7869077608646802
1687101408.8227072,-0.2293258011341095,-0.9597368836402893,0.16221798956394196,0.019547969102859497,-0.020914912223815918,-0.022050857543945312,-0.21382920444011688,-0.05580276995897293,0.0313543975353241,-2.1864509029887325,1.2860640004523236,1.7726436623690285
1687101408.891025,-0.23709991574287415,-0.9599743485450745,0.14910639822483063,0.045571595430374146,-0.11508357524871826,-0.041776180267333984,-0.57883220911026,-0.11661583185195923,0.3727315664291382,-2.1321778852659916,1.2869106114978963,1.7090226215260753
1687101408.9274979,-0.2742525339126587,-0.9591789841651917,0.06900280714035034,0.1382051706314087,-0.3157997131347656,0.00799299031496048,-2.790642261505127,-0.11057285219430923,1.2538725137710571,-1.8172832818224298,1.284084632339225,1.3802320321474781
1687101409.010829,-0.36905768513679504,-0.9276047945022583,-0.05783940479159355,0.4203425347805023,-0.3534008264541626,-0.16135309636592865,-2.373636245727539,-1.0739139318466187,2.6743435859680176,-1.4153390109670843,1.1879491454968194,0.9271859874691677
1687101409.02478,-0.5120603442192078,-0.847124457359314,-0.14203649759292603,0.34401530027389526,-0.3371102213859558,0.08968351781368256,-2.6940529346466064,-1.3683077096939087,3.4277291297912598,-1.300216634507854,1.0105504132479028,0.7284197793791176
1687101409.062872,-0.6742997765541077,-0.7174181342124939,-0.17501677572727203,0.49598562717437744,-0.20602846145629883,-0.10983431339263916,-1.262873649597168,-1.9523752927780151,3.889909029006958,-1.3168466738928368,0.8000890161023453,0.6462076544598668
1687101409.118274,-0.8211659789085388,-0.5549160838127136,-0.1332460194826126,0.3081197738647461,-0.15539580583572388,0.001822054386138916,-0.7521371841430664,-1.855718970298767,4.337696075439453,-1.4099339508295707,0.588262058110011,0.639832115087796
1687101409.1704478,-0.9294538497924805,-0.36173951625823975,-0.0725245401263237,0.433879017829895,-0.12242180109024048,-0.06118827313184738,-1.2156400680541992,-2.051509380340576,4.341667652130127,-1.4929249124913249,0.3701331049630844,0.6147697881408207
1687101409.210401,-0.9869020581245422,-0.15932516753673553,0.0252888984978199,0.47461891174316406,-0.023856565356254578,-0.022481326013803482,-1.2098826169967651,-2.5211195945739746,4.076583385467529,-1.596415249160829,0.16000704976834657,0.5603352062966115
1687101409.3130689,-0.9880353808403015,0.02838324010372162,0.1515924632549286,0.5017073750495911,-0.08331488072872162,0.00929616391658783,-1.60545814037323,-2.865493059158325,3.7357664108276367,-1.7230373161797672,-0.028387052287171265,0.46698260980847767
1687101409.322381,-0.9292784929275513,0.18825116753578186,0.31780993938446045,0.504397451877594,-0.10171854496002197,-0.1466369330883026,-1.3479727506637573,-3.6098804473876953,3.443936586380005,-1.9003233259540016,-0.18938116791327764,0.36005398066287475
1687101409.3691502,-0.8124671578407288,0.30183181166648865,0.4987931251525879,0.5018593072891235,-0.12675249576568604,0.06158590316772461,-1.879013180732727,-3.5853514671325684,3.407867193222046,-2.1213912138670556,-0.3066135029047502,0.20482048604390715
1687101409.4118009,-0.6426167488098145,0.3867519795894623,0.6614125370979309,0.5747457146644592,-0.05157744884490967,-0.13863122463226318,-1.06412672996521,-3.977673053741455,3.2794082164764404,-2.3706071306581924,-0.39710689789629616,0.0313794549013399
1687101409.4759002,-0.4344204366207123,0.4287305772304535,0.792129635810852,0.5632197856903076,-0.04611632227897644,-0.013824403285980225,-0.7566035389900208,-3.9036388397216797,2.8570497035980225,-2.6399626414268447,-0.44308721129436834,-0.14077327617179825
1687101409.516763,-0.21410518884658813,0.4637782871723175,0.8596912026405334,0.5096679329872131,-0.05726879835128784,0.017017900943756104,0.189748615026474,-3.736377716064453,2.652043581008911,-2.8975092942447644,-0.4822551307144666,-0.2814641631273866
1687101409.568959,0.0009118982125073671,0.5023467540740967,0.8646653890609741,0.5347936749458313,-0.0043457746505737305,0.025272667407989502,0.8784151673316956,-3.3713741302490234,2.572202205657959,3.1405380284462106,-0.5263106661212873,-0.4309622120457749
1687101409.612862,0.19912360608577728,0.5117736458778381,0.8357255458831787,0.289203405380249,0.008276283740997314,0.14343076944351196,0.2250394970178604,-2.638284921646118,2.5389111042022705,2.9076894309203927,-0.5372480252180148,-0.5876027966149512
1687101409.718817,0.36939769983291626,0.502718448638916,0.7815492749214172,0.36773911118507385,0.09960699081420898,0.09030723571777344,0.9662134647369385,-2.6694843769073486,2.5463550090789795,2.700065093560032,-0.5267405999461617,-0.7404585018865212
1687101409.734832,0.5234161019325256,0.47700178623199463,0.7060483694076538,0.4339202046394348,0.14638066291809082,0.24669486284255981,0.9862303137779236,-2.3314218521118164,2.475421667098999,2.503662313747105,-0.49724021378364214,-0.8900450973128424
1687101409.775595,0.6523171067237854,0.43618836998939514,0.6198567748069763,0.22925955057144165,0.24131718277931213,0.22728073596954346,1.0427039861679077,-1.8338946104049683,2.321139335632324,2.3306843696271717,-0.45135846261414797,-1.0335215190328544
1687101409.827708,0.7489905953407288,0.3845794200897217,0.5395473837852478,0.24650800228118896,0.24379271268844604,0.14767783880233765,0.8634253144264221,-1.5716856718063354,2.2338316440582275,2.195060412095779,-0.3947521682403903,-1.153800025382897
1687101409.9104881,0.8244531750679016,0.3212965428829193,0.4658816158771515,0.25669312477111816,0.3082810938358307,0.21099823713302612,0.6830866932868958,-1.4166404008865356,2.014380693435669,2.0851431440268975,-0.32709832140967915,-1.2474207814342706
1687101409.925823,0.879587709903717,0.26038140058517456,0.3981545865535736,0.12112951278686523,0.31661444902420044,0.16495567560195923,0.5718051791191101,-1.229141354560852,1.6584062576293945,1.9958605076062117,-0.26341719859053375,-1.3268689679040755
1687101409.9672499,0.9165135025978088,0.20546409487724304,0.3432013690471649,0.1797388195991516,0.34649205207824707,0.14466771483421326,0.754289984703064,-0.9892099499702454,1.2711817026138306,1.9290970607501199,-0.20693789412134744,-1.3835476539973453
1687101410.0116348,0.9423137307167053,0.15465447306632996,0.29686135053634644,0.011909842491149902,0.28261664509773254,0.1308577060699463,-0.009636125527322292,-0.8513615727424622,1.0337930917739868,1.8759885546709896,-0.15527771562488124,-1.4156630646971724
1687101410.07766,0.958701491355896,0.12062199413776398,0.25756895542144775,0.029747605323791504,0.28504815697669983,0.0942680835723877,0.6994041204452515,-0.6549498438835144,0.7407903671264648,1.8332628843830476,-0.12091642792512217,-1.4507018398446268
1687101410.115479,0.96953284740448,0.09427034109830856,0.22609557211399078,-0.01639258861541748,0.19187773764133453,0.07413628697395325,0.094735287129879,-0.5909988880157471,0.4951018989086151,1.799902300989376,-0.09441053412450849,-1.4719386084154311
1687101410.1576738,0.9768097400665283,0.07834771275520325,0.19925932586193085,0.03811323642730713,0.19872137904167175,0.12305200099945068,0.4099952280521393,-0.4649284780025482,0.332866907119751,1.7720253736758567,-0.07842808973089946,-1.4922796350587422
1687101410.212986,0.981488049030304,0.07164283841848373,0.17761939764022827,0.00854802131652832,0.09734825044870377,0.09764911234378815,0.1729816198348999,-0.37706810235977173,0.1623876541852951,1.7498281671328642,-0.0717042638158713,-1.518071715790678
1687101410.2651281,0.9845901131629944,0.06404902040958405,0.16272731125354767,-0.01081991195678711,0.14209720492362976,0.10782624781131744,0.08348076790571213,-0.25377264618873596,0.06770581752061844,1.7345898316395303,-0.06409289613237905,-1.5184262921805067
1687101410.312477,0.9861594438552856,0.061240363866090775,0.1540747731924057,0.01669389009475708,0.04419788718223572,0.09590983390808105,0.05251885950565338,-0.09278426319360733,0.02839895524084568,1.7257805640288004,-0.061278706740764674,-1.5208980588608518
1687101410.362022,0.9864840507507324,0.06202321872115135,0.15166489779949188,0.008358418941497803,0.01573556661605835,0.03559088706970215,-0.0529729463160038,-0.02339891344308853,-0.02526913210749626,1.7233447686596026,-0.062063052744236666,-1.5227792467644743
1687101410.433471,0.9856706857681274,0.0644988864660263,0.15586216747760773,-0.019728422164916992,0.0294647216796875,0.03735983371734619,0.0739799439907074,0.04342738911509514,-0.018029196187853813,1.7276258205728072,-0.06454369154727588,-1.522756430029969
1687101410.470089,0.9852709770202637,0.06576810032129288,0.15784727036952972,0.010883808135986328,-0.01806914061307907,-0.007288917899131775,0.0520075298845768,0.034717362374067307,-0.008203396573662758,1.7296533786820325,-0.06581560859895613,-1.5248452291441368
1687101410.514408,0.9847408533096313,0.06712595373392105,0.1605602204799652,-0.010986030101776123,0.013028472661972046,-0.028205513954162598,0.012546141631901264,0.021075164899230003,-0.017658883705735207,1.732422275510495,-0.06717646398093025,-1.5259052984418386
1687101410.561336,0.9846711158752441,0.06747941672801971,0.16083897650241852,0.001412808895111084,0.020945243537425995,-0.002559676766395569,0.010756763629615307,0.02535604126751423,-0.03382580354809761,1.7327092795828738,-0.06753073487948144,-1.5256926680282037
1687101410.6274009,0.9849117994308472,0.06977895647287369,0.15836460888385773,0.023983895778656006,0.0031732842326164246,-0.012505903840065002,-0.032780326902866364,-0.016274824738502502,-0.02102258801460266,1.7302224080851887,-0.06983570978186861,-1.5253659435298181
1687101410.666131,0.9849244356155396,0.0710192546248436,0.15773427486419678,-0.003601253032684326,-0.003987401723861694,-0.005589008331298828,-0.06808851659297943,0.003345015225932002,-0.005214663688093424,1.7295964781213906,-0.07107909053362364,-1.522207808436469
1687101410.737183,0.9851354360580444,0.07098636031150818,0.15642499923706055,-0.0028204917907714844,0.008359305560588837,0.0055926889181137085,-0.003542547347024083,0.018692634999752045,0.002229137811809778,1.728266964700197,-0.07104611605795311,-1.521765048168881
1687101410.82026,0.9851831793785095,0.07021763920783997,0.15647266805171967,0.009796679019927979,-0.0017209351062774658,-0.0003294944763183594,-0.023868057876825333,-0.008646178059279919,0.01783166639506817,1.7283066508871552,-0.07027546609079673,-1.520434460791062
1687101410.836026,0.9852570295333862,0.06977536529302597,0.15620502829551697,0.0006591677665710449,0.00883791595697403,0.0026540905237197876,-0.0025473241694271564,0.00873523112386465,-0.010378599166870117,1.7280300681650216,-0.0698321109440824,-1.519561011198848
1687101410.8982592,0.9852470755577087,0.0699218213558197,0.15620157122612,0.008176267147064209,-0.010977156460285187,-0.014630571007728577,-0.07363294810056686,-0.020550396293401718,0.007334883324801922,1.728028209109241,-0.06997892602353789,-1.5187497696420609
1687101410.9340749,0.9851071834564209,0.07042904943227768,0.1568560153245926,-0.002547919750213623,0.01967409998178482,0.007328525185585022,-0.04779363051056862,0.001241251127794385,-0.009890774264931679,1.7286981425119612,-0.0704874076121178,-1.5171197829642211
1687101410.987265,0.9852252006530762,0.06979554146528244,0.15639695525169373,0.0009808540344238281,0.027036726474761963,0.0028742551803588867,0.020050130784511566,-0.0011607203632593155,-0.00235582678578794,1.7282250804012826,-0.0698523350802517,-1.5151931246609212
1687101411.021388,0.9854100346565247,0.06997841596603394,0.15514501929283142,-0.0034917593002319336,0.04313495755195618,0.006277561187744141,-0.204816535115242,-0.0790238305926323,-0.021800631657242775,1.726956545095514,-0.07003565794029756,-1.509884579661763
1687101411.062515,0.985853374004364,0.07032161206007004,0.15214450657367706,-0.002256631851196289,0.15025940537452698,0.08419883251190186,-0.9797908067703247,-0.07282359153032303,-0.1562374085187912,1.723916049743195,-0.07037969951765949,-1.4844299917862167
1687101411.118808,0.9853111505508423,0.07648126035928726,0.1526842713356018,0.04979926347732544,0.46926456689834595,0.12908445298671722,-0.7894986271858215,0.018273454159498215,-0.4521831274032593,1.7245340209302953,-0.07655602024544195,-1.437385382686784
1687101411.172097,0.9798985719680786,0.1093701422214508,0.16684365272521973,0.07132506370544434,0.5412493348121643,0.15731404721736908,-0.6749313473701477,0.41849949955940247,-1.2123619318008423,1.7394452477365137,-0.10958936982518593,-1.3923262316281448
1687101411.2115312,0.9626850485801697,0.18203844130039215,0.2002491056919098,0.20529907941818237,0.5296161770820618,0.14945176243782043,-0.30780258774757385,0.7110243439674377,-1.862989068031311,1.775882799600901,-0.18305913990231965,-1.3527636807390782
1687101411.268209,0.9283773303031921,0.2827814519405365,0.2411431521177292,0.2918527126312256,0.4413853883743286,0.14772701263427734,0.016413584351539612,0.9567676186561584,-2.439652919769287,1.8249273133875383,-0.2866926983659971,-1.3234173636477187
1687101411.338068,0.8710140585899353,0.4018408954143524,0.2825920879840851,0.4166140556335449,0.2639915943145752,0.11517393589019775,0.6122990250587463,1.0682796239852905,-2.7149457931518555,1.8845219375472397,-0.41352630802770307,-1.29602996432912
1687101411.412455,0.7882010340690613,0.5334686040878296,0.30683979392051697,0.5633768439292908,0.12742012739181519,0.12066569924354553,0.7215893268585205,1.0719261169433594,-2.9383718967437744,1.9420371037046786,-0.5626961547207706,-1.2871626243301812
1687101411.421385,0.6782603859901428,0.6523036360740662,0.33832332491874695,0.5678027272224426,0.0019474029541015625,0.044412821531295776,0.32103872299194336,1.189132809638977,-3.103240728378296,2.0334917662437357,-0.7106197337938742,-1.232347627985412
1687101411.464721,0.5478062629699707,0.7571981549263,0.35575103759765625,0.5114129781723022,-0.08047103881835938,0.07833093404769897,0.5025714635848999,1.277698278427124,-3.1830995082855225,2.1467568784792026,-0.8590129016982702,-1.1588251457130305
1687101411.5413609,0.38901111483573914,0.837538480758667,0.38366612792015076,0.5267603993415833,-0.12353384494781494,0.02513200044631958,-0.12968024611473083,1.4955826997756958,-3.371476888656616,2.3492770852087586,-0.9927623389396989,-0.9954077465008315
1687101411.58738,0.20841586589813232,0.8881452083587646,0.40958625078201294,0.522556483745575,-0.12996643781661987,0.01250225305557251,0.1295611709356308,1.7612284421920776,-3.5079638957977295,2.6708942248589027,-1.0932933593077532,-0.719924347950072
1687101411.6337218,0.02092008665204048,0.916138231754303,0.40031641721725464,0.4884945750236511,-0.1026463508605957,0.007352650165557861,0.7243760824203491,1.583731770515442,-3.2551910877227783,3.0893812683587742,-1.1583382409440153,-0.34597714960594794
1687101411.727859,-0.17095093429088593,0.9156715273857117,0.36375993490219116,0.5372686386108398,-0.08907246589660645,-0.012273788452148438,0.5756752490997314,1.408167839050293,-3.6281614303588867,-2.7022683003575287,-1.1571755509633945,0.10668971352010788
1687101411.7475,-0.3586351275444031,0.8850733637809753,0.29669177532196045,0.5350877642631531,-0.027788877487182617,-0.05494678020477295,1.6033207178115845,1.2053037881851196,-3.759434700012207,-2.261951667240569,-1.086651653816291,0.5186020781832601
1687101411.781085,-0.5315772891044617,0.8225550055503845,0.20206062495708466,0.5130227208137512,-0.17280542850494385,0.005016297101974487,1.4646697044372559,0.9248312711715698,-3.6401939392089844,-1.934044039018092,-0.9658893648409361,0.842111345200922
1687101411.8221478,-0.6767701506614685,0.726052463054657,0.12177786231040955,0.4552583694458008,-0.08113986253738403,-0.05468500405550003,1.458554744720459,0.5931782722473145,-3.5749149322509766,-1.7488309240356201,-0.8125636987748712,1.0246853364915451
1687101411.868911,-0.7993987798690796,0.596817135810852,0.0690707117319107,0.45522159337997437,-0.17971819639205933,0.01648533344268799,1.0348091125488281,0.37837982177734375,-3.593184471130371,-1.6569855882945317,-0.6395284670217836,1.1292246649819602
1687101411.9244971,-0.8960615992546082,0.4426858127117157,0.03321206942200661,0.5158430337905884,-0.09344261884689331,-0.01654946431517601,1.0002617835998535,-0.025204449892044067,-3.747122049331665,-1.6078438636420527,-0.45859176243492067,1.2064368444696838
1687101411.9679708,-0.9641153812408447,0.26497218012809753,0.01647309772670269,0.49771517515182495,0.049511462450027466,0.03493368625640869,0.45095011591911316,-0.015335594303905964,-3.97815203666687,-1.5878808955056152,-0.2681750828540101,1.2576354055976076
1687101412.026387,-0.9975929856300354,0.0658128559589386,0.021839560940861702,0.3863105773925781,0.050947405397892,-0.01948976330459118,0.3659271001815796,-0.1590726524591446,-4.094625473022461,-1.592685086661897,-0.06586045904320115,1.272487781738171
1687101412.0678859,-0.9897841215133667,-0.13780327141284943,0.0365721620619297,0.2982558608055115,-0.015990033745765686,0.025119062513113022,0.3673316538333893,-0.37994933128356934,-3.962942361831665,-1.607729159234946,0.13824317921657256,1.3020595446916214
1687101412.131958,-0.9421425461769104,-0.3296118974685669,0.061020225286483765,0.20235073566436768,0.1973944902420044,-0.00016820430755615234,0.8272140026092529,-0.3630106449127197,-3.9880056381225586,-1.6354734978358365,0.33589247216834717,1.3447623408170932
1687101412.166964,-0.8574689626693726,-0.5065218806266785,0.09045810252428055,0.20097476243972778,0.06290310621261597,-0.02032875269651413,0.5497507452964783,-0.5140197277069092,-3.869624137878418,-1.6759018880832495,0.5311461101016381,1.3873159251292033
1687101412.249542,-0.7462945580482483,-0.6506885290145874,0.1401738077402115,0.13542431592941284,-0.07288318872451782,-0.012244239449501038,0.9186869263648987,-0.6745977401733398,-3.4969444274902344,-1.756459546181073,0.7084907961021369,1.475470102059761
1687101412.275082,-0.6283366680145264,-0.7535359859466553,0.19332975149154663,0.13709527254104614,-0.16807955503463745,0.046568870544433594,0.7495051026344299,-0.5930755734443665,-2.8937602043151855,-1.869288561702474,0.8534242807979394,1.5876716580394092
1687101412.325364,-0.5241138339042664,-0.8195409774780273,0.23164045810699463,0.08350104093551636,-0.2752162218093872,0.019290238618850708,0.8753061890602112,-0.5337838530540466,-2.0301871299743652,-1.9869490642428171,0.960609475601852,1.7029515502632584
1687101412.389481,-0.4454772472381592,-0.850172758102417,0.28063470125198364,0.03146064281463623,-0.22282510995864868,0.08122724294662476,0.39150968194007874,-0.26501625776290894,-1.4466607570648193,-2.1329574217150435,1.0163133122528358,1.849705928959972
1687101412.4367208,-0.39456993341445923,-0.8787519931793213,0.26853147149086,0.038017868995666504,-0.24966579675674438,0.06398794054985046,-0.696208655834198,-0.016889283433556557,-0.8798367977142334,-2.1683609486381217,1.0732409785268404,1.885184499589165
1687101412.5155602,-0.37146008014678955,-0.8931020498275757,0.25374409556388855,-0.0013731718063354492,-0.17974334955215454,0.05314064025878906,0.3185949921607971,0.07997161149978638,-0.16671700775623322,-2.1700891870996792,1.104194339443021,1.8881623472034608
1687101412.534558,-0.3669184744358063,-0.8926439881324768,0.2618347704410553,0.021047532558441162,-0.010996699333190918,-0.006753683090209961,-0.16221554577350616,0.1099582314491272,-0.11599217355251312,-2.190594752640309,1.103177171091135,1.9162373702916955
1687101412.632448,-0.36456987261772156,-0.8945112228393555,0.25872376561164856,0.09197169542312622,0.03412938117980957,-0.092113196849823,0.08043251186609268,-0.11186013370752335,-0.10908060520887375,-2.187981847758165,1.1073367131907632,1.9146104042282857
1687101412.651723,-0.36160680651664734,-0.8947843909263611,0.2619186043739319,0.007816523313522339,-0.03128671646118164,0.00012052059173583984,-0.07548811286687851,-0.03475813940167427,0.015350066125392914,-2.1976578594525615,1.107948069867602,1.920952177564567
1687101412.688319,-0.35981500148773193,-0.8968550562858582,0.2572624981403351,-0.02334842085838318,0.00655055046081543,-0.005141645669937134,-0.010267827659845352,0.014273229986429214,-0.021957624703645706,-2.1915090308771763,1.112607352938975,1.913903041246737
1687101412.7265391,-0.35818347334861755,-0.8990759253501892,0.2517280578613281,-0.006608396768569946,-0.021303653717041016,-0.0017739534378051758,-0.17945711314678192,0.04706961289048195,-0.05788366496562958,-2.1833928603294472,1.1176541693071096,1.9069869146607275
1687101412.7747378,-0.35766568779945374,-0.9013265371322632,0.24430663883686066,-0.017624229192733765,-0.012415468692779541,-0.0027753114700317383,-0.12334112077951431,0.031038695946335793,-0.029877666383981705,-2.1700615496051263,1.1228224102144466,1.8945839974265501
1687101412.846319,-0.35715728998184204,-0.9023321866989136,0.24131979048252106,0.004908174276351929,0.01286691427230835,-0.018999338150024414,-0.0244440995156765,-0.021297259256243706,-0.012169109657406807,-2.165004844007297,1.1251498863206368,1.8890598244220567
1687101412.9291248,-0.35735058784484863,-0.9030172228813171,0.23845478892326355,0.024007022380828857,0.00016987323760986328,-0.01224324107170105,-0.0760503038764,-0.020239362493157387,-0.00863615982234478,-2.1592271076305485,1.1267417907687782,1.8816505728821118
1687101412.953249,-0.3558190166950226,-0.9046327471733093,0.23458941280841827,-0.02139347791671753,0.015411674976348877,0.0015402734279632568,-0.050783295184373856,0.022762389853596687,-0.057922616600990295,-2.153677536457945,1.130517160529403,1.8755193107060641
1687101412.975504,-0.353346586227417,-0.9067970514297485,0.22992351651191711,0.0028065145015716553,-0.016771435737609863,-0.0032238364219665527,-0.11370686441659927,0.011233231984078884,-0.033132512122392654,-2.147665276160716,1.1356230899883175,1.8696385697247753
1687101413.048698,-0.3533034324645996,-0.9084138870239258,0.22351893782615662,-0.00021219253540039062,0.005917608737945557,0.0032875537872314453,-0.2082086056470871,0.004225167911499739,-0.043755728751420975,-2.134880958407576,1.1394743564067493,1.8559541641287665
1687101413.079721,-0.3505376875400543,-0.9119027853012085,0.2134392261505127,0.007962644100189209,0.006583750247955322,0.006928175687789917,-0.31663867831230164,-0.005760465748608112,-0.065836600959301,-2.1177276452864597,1.1478967529532798,1.8369174649953008
1687101413.126739,-0.34679654240608215,-0.9183372259140015,0.19075901806354523,0.004496097564697266,0.012377142906188965,0.013067871332168579,-0.6784142255783081,0.06794515997171402,-0.13039888441562653,-2.073685881131297,1.1638587749358946,1.7901137089681967
1687101413.175622,-0.3405461311340332,-0.928432047367096,0.14846615493297577,0.005569964647293091,-0.0012401342391967773,0.015382647514343262,-1.2663428783416748,0.08659971505403519,-0.18651755154132843,-1.981917548592607,1.1901698329551451,1.6949889894714172
1687101413.22947,-0.3320200741291046,-0.94190514087677,0.05076391249895096,-0.0018574297428131104,-0.13673847913742065,0.009019967168569565,-3.033919334411621,0.02066894620656967,-0.11876792460680008,-1.7225154899142545,1.2282580990862566,1.4221314170860448
1687101413.30365,-0.3481414020061493,-0.9352884292602539,-0.06350570917129517,0.09647819399833679,-0.24398696422576904,-0.1577315330505371,-1.8891324996948242,-0.4679393172264099,0.7828159928321838,-1.390366572334911,1.2090731971948292,1.0564186808962288
1687101413.3369951,-0.42421528697013855,-0.8903365731239319,-0.16535474359989166,0.28679466247558594,-0.5631545782089233,-0.06796741485595703,-2.4635066986083984,-1.0282748937606812,2.4239137172698975,-1.1991228014439173,1.098083894054803,0.810885665686483
1687101413.3813639,-0.5749641060829163,-0.7909554839134216,-0.20929750800132751,0.6107155680656433,-0.4469441771507263,-0.09006471931934357,-1.6841830015182495,-1.9144508838653564,3.9252166748046875,-1.2216879357311252,0.9123689543615573,0.7470547604454062
1687101413.428392,-0.7488124966621399,-0.6290149092674255,-0.20885372161865234,0.5762203931808472,-0.3233318328857422,0.04538625478744507,-1.536126971244812,-2.127214193344116,4.769863128662109,-1.2987956472234072,0.6802854207293751,0.7152042879797178
1687101413.551292,-0.9024966359138489,-0.407746821641922,-0.138716459274292,0.8074039220809937,-0.24848785996437073,-0.1500866860151291,-1.2309883832931519,-2.8631742000579834,5.135378360748291,-1.4182868284083117,0.41998507864942697,0.7049482994272288
1687101413.567095,-0.9869829416275024,-0.15933933854103088,-0.021806174889206886,0.5958544611930847,-0.07564601302146912,0.09060800075531006,-1.8164467811584473,-2.9503026008605957,5.015223026275635,-1.5487061499095827,0.16002140288642416,0.6452389595072452
1687101413.580882,-0.9877438545227051,0.08124971389770508,0.13326843082904816,0.6910977959632874,-0.08811616897583008,-0.12646305561065674,-1.3429136276245117,-3.5686590671539307,4.807252883911133,-1.7049085047574837,-0.08133937824137116,0.5517004831822627
1687101413.650827,-0.8985251188278198,0.29393208026885986,0.32597002387046814,0.7384756803512573,-0.07235920429229736,-0.01556059718132019,-1.54689359664917,-4.014037132263184,4.594822883605957,-1.9188137955879374,-0.29833805766823435,0.43623226108499763
1687101413.7050328,-0.7349134683609009,0.43252262473106384,0.5223273038864136,0.7162826657295227,0.029696494340896606,0.14307773113250732,-1.8464614152908325,-3.9761390686035156,3.8297319412231445,-2.1886894371525623,-0.44728878995094057,0.24656046476252363
1687101413.746344,-0.5242591500282288,0.5210937857627869,0.67350834608078,0.6770302057266235,-0.16483163833618164,-0.019425153732299805,0.23789910972118378,-4.053921222686768,3.8436431884765625,-2.4801616474476327,-0.5481320123280257,0.059107568167204645
1687101413.828532,-0.27422380447387695,0.5990626215934753,0.7522799968719482,0.609398365020752,-0.010470092296600342,0.05758011341094971,-0.2391689121723175,-4.048311710357666,3.494810104370117,-2.792038241329632,-0.6423298772505551,-0.12441462934195759
1687101413.854188,-0.02745320461690426,0.6191393136978149,0.7848010063171387,0.5736720561981201,-0.007872223854064941,0.09001564979553223,-0.2365073561668396,-3.569216728210449,3.2734200954437256,-3.1066258091834116,-0.6676461761789806,-0.3400319699415599
1687101413.88744,0.1945541650056839,0.5895389318466187,0.7839593291282654,0.4504348337650299,0.05897480249404907,0.1737736463546753,-0.008170321583747864,-2.7203056812286377,2.975257158279419,2.898338319380908,-0.6304879320096068,-0.5357477825584613
1687101413.929307,0.38147756457328796,0.5620458126068115,0.7338798642158508,0.4384687840938568,0.23089253902435303,0.09545069932937622,0.9193887114524841,-2.669297456741333,2.8373405933380127,2.6622234967643372,-0.5968571872158949,-0.7076198962409243
1687101413.980211,0.5341357588768005,0.541258692741394,0.6494136452674866,0.36039549112319946,0.12585562467575073,0.14402800798416138,1.5580291748046875,-2.247758388519287,2.6314523220062256,2.453288361953357,-0.5719333184842286,-0.8824979238715706
1687101414.037791,0.6695671081542969,0.513335645198822,0.536811351776123,0.2743263244628906,0.3014836311340332,0.26168107986450195,1.5958486795425415,-1.7840310335159302,2.5439276695251465,2.2465906279354235,-0.5390671496183825,-1.0697422114824386
1687101414.135298,0.7691463232040405,0.4540054202079773,0.44976985454559326,0.356814980506897,0.3439071774482727,0.1275005340576172,1.1450711488723755,-1.6767663955688477,2.3757197856903076,2.0999383203545516,-0.4712556576242448,-1.2094969286949642
1687101414.152485,0.8449291586875916,0.38938090205192566,0.3667108118534088,0.20283067226409912,0.4281391501426697,0.27310535311698914,1.1468528509140015,-1.144648790359497,1.9245809316635132,1.9802767989964647,-0.3999593369094012,-1.3206364460807596
1687101414.164418,0.8908209204673767,0.33565789461135864,0.30622225999832153,0.05899304151535034,0.38441962003707886,0.16142907738685608,0.9109240770339966,-0.7060419321060181,1.386509895324707,1.9018950054544237,-0.3423035714955583,-1.4085377576700808
1687101414.2694778,0.9181236624717712,0.29493796825408936,0.2646898925304413,0.09335106611251831,0.25434795022010803,0.1329541802406311,0.8775275349617004,-0.5680040121078491,1.0983428955078125,1.8514797275957688,-0.2993905961630364,-1.4775597703606673
1687101414.3027139,0.9390448331832886,0.26028475165367126,0.2246032953262329,0.048397183418273926,0.35842859745025635,0.14873337745666504,1.4681503772735596,-0.4380495250225067,0.8719477653503418,1.805568404398037,-0.263317114166316,-1.551482725221005
1687101414.360251,0.9518848061561584,0.23694413900375366,0.19435139000415802,0.06561684608459473,0.12381936609745026,0.10552951693534851,0.3662932813167572,-0.21389633417129517,0.659380316734314,1.7722033737660738,-0.23921920938162833,-1.6177718706164241
1687101414.395201,0.9599251747131348,0.20815066993236542,0.18766136467456818,0.031117796897888184,0.1822911947965622,0.019369810819625854,-0.011746681295335293,-0.1553088128566742,0.47282248735427856,1.763857226060279,-0.2096838289659262,-1.6192865319271503
1687101414.432756,0.9656954407691956,0.18980444967746735,0.1772187054157257,-0.028638005256652832,0.09973107278347015,-0.004763960838317871,0.17716358602046967,-0.1778886467218399,0.36603063344955444,1.7522909643997446,-0.1909629676662865,-1.6354956726722227
1687101414.509381,0.9699935913085938,0.17576588690280914,0.16798382997512817,0.0251997709274292,0.13137826323509216,0.014587506651878357,0.2532902956008911,-0.16974736750125885,0.2669360339641571,1.742275864905724,-0.17668371088071305,-1.6441566471095954
1687101414.549996,0.9731314778327942,0.16766765713691711,0.1578061580657959,0.001249074935913086,0.08192035555839539,0.0005037933588027954,0.3521423041820526,-0.1855286955833435,0.16192765533924103,1.7315601300144203,-0.16846335711377627,-1.6609522171043527
1687101414.600922,0.9753908514976501,0.16336050629615784,0.14807382225990295,0.005230367183685303,0.05766303837299347,0.03657267987728119,0.0912311002612114,-0.10522069782018661,0.08823246508836746,1.7214557140591538,-0.16409596521461342,-1.6734420248016049
1687101414.64061,0.9767049551010132,0.16063238680362701,0.14228318631649017,0.003199160099029541,0.0613982230424881,0.006291612982749939,0.1472024917602539,-0.11494720727205276,0.04287077486515045,1.7154554877875772,-0.16133132913617848,-1.680921482895809
1687101414.676485,0.976898193359375,0.16127927601337433,0.14020958542823792,-0.0022736787796020508,0.05283203721046448,0.03636501729488373,0.06734786927700043,-0.010086526162922382,-0.0056348443031311035,1.7133480927771831,-0.16198676247439475,-1.6830343748763126
1687101414.748606,0.9762099385261536,0.16576288640499115,0.13977335393428802,-0.0012039542198181152,0.028191566467285156,-0.0025205761194229126,0.1250109076499939,-0.004123132210224867,-0.018736664205789566,1.7130093900905856,-0.16653154613401658,-1.6900767408169408
1687101414.8330932,0.9750818610191345,0.16976654529571533,0.1428099423646927,0.007233142852783203,0.007326945662498474,0.01647651195526123,0.04444628581404686,0.06327424198389053,-0.05327053740620613,1.716221843949773,-0.1705927682614138,-1.690931846766062
1687101414.861401,0.9742958545684814,0.17375127971172333,0.1433800607919693,-0.001548171043395996,-0.011657178401947021,-0.01210881769657135,0.03810982406139374,0.015105356462299824,-0.036551814526319504,1.7169103098358895,-0.1746376132181827,-1.6956996639440718
1687101414.901917,0.9735799431800842,0.17674486339092255,0.1445789784193039,0.007285416126251221,0.030362635850906372,0.0010508149862289429,0.15581142902374268,0.03471842780709267,-0.0651116818189621,1.7182213341785364,-0.17767826558715233,-1.6994956209958756
1687101414.9429278,0.9727979302406311,0.1801050752401352,0.14569306373596191,-0.0007519721984863281,-0.010778307914733887,-0.01120208203792572,-0.031595755368471146,0.058871857821941376,-0.05406602472066879,1.7194584339463004,-0.18109327962944688,-1.7023577836738895
1687101414.984634,0.9717526435852051,0.18406011164188385,0.14771130681037903,0.0036196112632751465,0.005560845136642456,-0.0017458200454711914,0.05243097245693207,0.04917600005865097,-0.06067918613553047,1.7216466270398505,-0.1851155542617368,-1.7027491904605263
1687101415.052541,0.9711030125617981,0.18686050176620483,0.14846523106098175,0.001309037208557129,-0.018556073307991028,-0.029523134231567383,-2.690835390239954e-05,0.00880760233849287,-0.038910310715436935,1.722504731456212,-0.18796538864938933,-1.7043504133038243
1687101415.106575,0.9705854058265686,0.18892179429531097,0.14923924207687378,-0.004337966442108154,-0.004183650016784668,-0.012154355645179749,0.0708315521478653,0.02144809626042843,-0.043396469205617905,1.723363534676829,-0.19006404503368712,-1.7038891441605277
1687101415.144342,0.9705353379249573,0.18976669013500214,0.14849136769771576,-0.00802624225616455,-0.005181148648262024,0.005546092987060547,0.005056533496826887,0.030179712921380997,-0.03141464293003082,1.7226184142873422,-0.1909245170482723,-1.704085938127484
1687101415.195323,0.9706698656082153,0.18965977430343628,0.14774666726589203,0.012438595294952393,-0.012337416410446167,0.0037730932235717773,-0.015315849334001541,0.012941915541887283,-0.001667798962444067,1.7218479594015828,-0.19081562671738161,-1.7047863765835334
1687101415.2426,0.9708094000816345,0.18927671015262604,0.14732173085212708,0.006409287452697754,-0.009573951363563538,-0.015791043639183044,0.08461341261863708,-0.0003019399009644985,0.007061909418553114,1.7213987482948157,-0.1904254951514829,-1.7069932211330086
1687101415.306384,0.9709968566894531,0.18824395537376404,0.14740817248821259,0.0049704909324646,-0.008831113576889038,-0.0032889842987060547,0.028588224202394485,0.01104709878563881,0.027250466868281364,1.7214571122825089,-0.1893738342251096,-1.7087210187815098
