Timestamp,gravityX,gravityY,gravityZ,accelerationX,accelerationY,accelerationZ,rotationRateX,rotationRateY,rotationRateZ,attitudeRoll,attitudePitch,attitudeYaw
1687102557.01177,0.8496196866035461,0.5028367638587952,0.15906298160552979,-0.004710257053375244,-0.005400419235229492,-0.006673604249954224,0.1532992571592331,-0.058373142033815384,0.023873673751950264,1.7558705695969221,-0.5268775105079507,-1.8375918001410088
1687102557.056851,0.8504882454872131,0.503121554851532,0.1534208059310913,0.007925271987915039,-0.008843719959259033,0.014700397849082947,-0.05979356914758682,-0.08356083184480667,0.007887916639447212,1.7492683911889313,-0.5272070248768347,-1.8416566094686775
1687102557.105155,0.8517581224441528,0.5019804239273071,0.15007905662059784,-0.012433171272277832,-0.008373856544494629,0.018469467759132385,0.04396798089146614,-0.0563107468187809,0.027041636407375336,1.7452052756122054,-0.5258871025078242,-1.8432357304909073
1687102557.180437,0.8529216051101685,0.5002461671829224,0.1492597460746765,0.011397242546081543,-0.008028209209442139,0.02321016788482666,-0.018101248890161514,-0.052165091037750244,0.04078701138496399,1.744040243915612,-0.5238830535536256,-1.8407675265571535
1687102557.20441,0.854335606098175,0.49817681312561035,0.1480896919965744,-0.0050008296966552734,0.0052258968353271484,0.004360809922218323,-0.029180265963077545,-0.06428112089633942,0.04245235025882721,1.7424299138342405,-0.5214948214524084,-1.8398666688278449
1687102557.304288,0.8553170561790466,0.4965919852256775,0.1477462649345398,-0.012009680271148682,0.027623683214187622,0.02208399772644043,-0.012689439579844475,-0.0463704988360405,0.01196761429309845,1.741846932793842,-0.5196679774071592,-1.8382590462674473
1687102557.317184,0.855405330657959,0.496612012386322,0.14716726541519165,-0.0039039254188537598,0.01715141534805298,0.010517001152038574,-0.027194347232580185,-0.0342654325067997,-0.009545069187879562,1.741172304784317,-0.5196910514848391,-1.8360840083419412
1687102557.359202,0.8546666502952576,0.49757593870162964,0.14819906651973724,0.007515907287597656,0.017606526613235474,0.011239886283874512,-0.11984945088624954,-0.04213014617562294,-0.03031492978334427,1.7424889676416322,-0.520801949920021,-1.8322482156606836
1687102557.4166908,0.8544584512710571,0.4978196322917938,0.14857932925224304,0.0009948015213012695,0.0020582079887390137,0.006571874022483826,0.0350533165037632,-0.047274574637413025,0.024412231519818306,1.7429619814221127,-0.521082912631317,-1.8271417699669017
1687102557.4645119,0.855385422706604,0.4968031644821167,0.14663557708263397,0.00591200590133667,-0.01070404052734375,-0.0030962377786636353,-0.15924212336540222,-0.10600921511650085,0.017835956066846848,1.7405724175903223,-0.5199113051326045,-1.8253072961124177
1687102557.507138,0.8571254014968872,0.4941616356372833,0.1453961730003357,0.004278898239135742,-0.02437412738800049,-0.0030776411294937134,0.0224887877702713,-0.08451084792613983,0.08217073976993561,1.7388291093416728,-0.5168702377234072,-1.8189899550849071
1687102557.596404,0.8604412078857422,0.4897754192352295,0.14057235419750214,0.006593525409698486,-0.018523037433624268,-0.0162285715341568,-0.1898394525051117,-0.18725666403770447,0.08451751619577408,1.7327380712336093,-0.5118321327608166,-1.8184907983606104
1687102557.613385,0.8643889427185059,0.4840608835220337,0.13607631623744965,-0.0028014779090881348,-0.017737090587615967,-0.006041049957275391,-0.023985769599676132,-0.168709859251976,0.11917569488286972,1.7269397436037022,-0.5052896073559483,-1.8105383903187502
1687102557.68007,0.8690927028656006,0.4775242507457733,0.12902796268463135,-0.004789233207702637,-0.007675677537918091,-0.004836812615394592,-0.0994618833065033,-0.2230295091867447,0.17490780353546143,1.7181825943090572,-0.4978347811345941,-1.8092140774183902
1687102557.7183251,0.8768677711486816,0.46652618050575256,0.11600083112716675,0.001412808895111084,0.007518589496612549,-0.07162845134735107,-0.20980463922023773,-0.5937444567680359,0.2797584533691406,1.7023226038847268,-0.485359279160446,-1.8007874708631473
1687102557.7592201,0.8864762187004089,0.4531930088996887,0.09367872774600983,0.014204204082489014,0.040855973958969116,0.0019936487078666687,-0.0968056470155716,-0.5010426044464111,0.21174976229667664,1.6760809667351226,-0.4703440637496093,-1.7918620666565495
1687102557.8367891,0.889931321144104,0.44888854026794434,0.08075467497110367,0.009971022605895996,0.05605533719062805,0.03805018216371536,0.06281223893165588,-0.15129564702510834,0.01833609864115715,1.661291075323981,-0.46552112796735284,-1.790840035625881
1687102557.900197,0.8905591368675232,0.44896450638771057,0.07304423302412033,-0.010447382926940918,-0.029393553733825684,0.037002094089984894,-0.004326581954956055,-0.19995611906051636,0.0433989055454731,1.65263377927855,-0.46560615023564367,-1.793145267178852
1687102557.913774,0.8937999606132507,0.4439238905906677,0.06366416066884995,-0.015122652053833008,-0.0584869384765625,0.05317223072052002,-0.10248936712741852,-0.21996065974235535,0.13440963625907898,1.6419048782845445,-0.459972964428137,-1.7914642099710691
1687102557.9801211,0.8969935178756714,0.4378858506679535,0.06048740819096565,-0.007283985614776611,-0.023640215396881104,0.022871263325214386,-0.4315309226512909,-0.23099373281002045,0.10036338865756989,1.6381278868919005,-0.4532457495170502,-1.778554614132037
1687102558.0111508,0.8990928530693054,0.43278270959854126,0.06581010669469833,0.01162785291671753,0.055757880210876465,-0.0642995834350586,-1.7369868755340576,-0.5935725569725037,-0.04708998277783394,1.643862141330211,-0.4475772677499914,-1.7218677140276608
1687102558.061214,0.8983402252197266,0.4329421818256378,0.07447155565023422,0.015661299228668213,0.35042881965637207,-0.14785122871398926,-2.3130226135253906,-1.0360519886016846,-0.3175084590911865,1.653506263449052,-0.447754165219329,-1.605381192313047
1687102558.134162,0.8869373202323914,0.4541015028953552,0.08446241170167923,-0.03389477729797363,0.7306671142578125,0.13982641696929932,-1.753618836402893,-0.6803773641586304,-1.1332677602767944,1.6657393120505184,-0.47136347600565887,-1.4781770080395245
1687102558.1997008,0.8481482863426208,0.520356297492981,0.09936609119176865,-0.0331459641456604,0.9531086087226868,0.1749563217163086,-0.9111928343772888,0.07362893968820572,-2.1918466091156006,1.6874211857400012,-0.5472681003645824,-1.4052698747643861
1687102558.2138438,0.7690173387527466,0.6237941384315491,0.1396181881427765,0.3029889464378357,0.6800999045372009,0.18252529203891754,-0.3747113049030304,0.6600723266601562,-3.129225969314575,1.7503941033793287,-0.6735877236692548,-1.32803723430849
1687102558.2723188,0.6415050029754639,0.7581023573875427,0.11726901680231094,0.5260059833526611,0.6441345810890198,-0.06055222451686859,3.021095037460327,0.8296316862106323,-3.8248956203460693,1.7516029294305735,-0.8603983249309318,-1.3812312045803024
1687102558.320265,0.47105342149734497,0.8820495009422302,0.009865393862128258,0.5183569192886353,0.536712646484375,0.023352861404418945,2.099665403366089,0.24134229123592377,-4.337179183959961,1.591736524352549,-1.0801945892797897,-1.6054005890002645
1687102558.381228,0.25108787417411804,0.9666193723678589,-0.0510081946849823,0.8234970569610596,0.5266362428665161,-0.04667866975069046,1.273841381072998,-0.07560135424137115,-5.025303363800049,1.3703749386899924,-1.3116900811205385,-1.843277399363957
1687102558.423935,-0.013280457817018032,0.9945729374885559,-0.10318973660469055,0.9914451241493225,0.635141909122467,0.07819569855928421,0.6875647902488708,-0.045277517288923264,-5.866514205932617,-0.1279958196195349,-1.4665661114666133,2.929818975427124
1687102558.474447,-0.327576220035553,0.9304695129394531,-0.1640736311674118,1.5127568244934082,0.5604361295700073,0.11233097314834595,2.2439651489257812,-0.002867207396775484,-6.8662261962890625,-1.1064516577634647,-1.1956923048081247,1.9410572594535176
1687102558.5535212,-0.6151748895645142,0.7518167495727539,-0.23734164237976074,1.5167253017425537,0.2953784465789795,0.2578188478946686,0.6979234218597412,-0.3204880654811859,-6.555840969085693,-1.2025808175509316,-0.8508130683416705,1.838703970294886
1687102558.567316,-0.838046669960022,0.4815807640552521,-0.256432443857193,1.624957799911499,0.5366228818893433,0.18943104147911072,1.3012412786483765,-0.5464487671852112,-7.039477825164795,-1.2738548014837658,-0.5024575139072254,1.76264681567509
1687102558.622746,-0.9606021046638489,0.15840160846710205,-0.22836904227733612,1.4443669319152832,0.2725675702095032,0.26148051023483276,-0.374064177274704,-1.0109360218048096,-6.8108296394348145,-1.3373937820650945,-0.15907160753012503,1.696265282924741
1687102558.661289,-0.9714245200157166,-0.15018655359745026,-0.18378858268260956,0.9916272759437561,0.12514689564704895,0.2180139422416687,-1.7302714586257935,-0.6398458480834961,-6.23618221282959,-1.3838115222219816,0.15075696480784198,1.5709792255245738
1687102558.731508,-0.888325572013855,-0.42054814100265503,-0.18443623185157776,0.9308977127075195,0.0861670970916748,0.037600815296173096,-2.583491802215576,-0.6937738656997681,-5.868447780609131,-1.3660824622999113,0.4340494052695367,1.3971968926289537
1687102558.7667542,-0.7360181212425232,-0.6367157697677612,-0.22993506491184235,0.7582502961158752,0.3198976516723633,0.1217501312494278,-1.1945933103561401,0.16416402161121368,-5.829659461975098,-1.2679988490748293,0.6902315929187635,1.1955723488603205
1687102558.8854089,-0.5364735126495361,-0.8070600628852844,-0.2466782182455063,0.5835012197494507,-0.1941148042678833,-0.06013035774230957,-0.09921953827142715,0.07038749754428864,-5.088039875030518,-1.1398108418433186,0.9391560039443406,1.0244781045131133
1687102558.899138,-0.32031962275505066,-0.9168052673339844,-0.23846054077148438,0.5227580070495605,0.05149465799331665,0.19752109050750732,0.8386789560317993,0.2995418608188629,-4.615599632263184,-0.9308594943022666,1.1600053585883146,0.8030601033222061
1687102558.911796,-0.12371554225683212,-0.9848379492759705,-0.12160851806402206,0.45065033435821533,-0.14673852920532227,-0.0920146107673645,3.3620269298553467,0.16419388353824615,-3.2902562618255615,-0.7939866826888069,1.3964373291418486,0.6697631823995052
1687102558.9560142,0.0016230803448706865,-0.9990740418434143,-0.04299505427479744,0.35137373208999634,-0.646784782409668,0.23331785202026367,0.010464881546795368,0.09129360318183899,-1.5780563354492188,0.03773247853390799,1.5277588428763027,-0.16060792077673153
1687102559.031224,0.03045479580760002,-0.9988584518432617,-0.036796607077121735,0.3919695317745209,-0.5154998898506165,-0.403328001499176,0.8030109405517578,-0.826792299747467,-0.015314807184040546,0.6913761337950223,1.5230104580383823,-0.8325433662433573
1687102559.080684,0.013374011032283306,-0.9975207448005676,-0.06908731162548065,0.07503542304039001,-0.36644691228866577,0.1609298586845398,-1.5224567651748657,-0.7246344685554504,0.4388001561164856,0.19121617191181126,1.5003654800631399,-0.3763125830359632
1687102559.134955,0.008247430436313152,-0.9968692064285278,-0.07863567769527435,-0.15905004739761353,0.3667881488800049,-0.053169846534729004,0.8252198696136475,-0.1625100076198578,-0.30044999718666077,0.10449948143684158,1.4916455717037806,-0.3067305450196776
1687102559.1740441,0.021067285910248756,-0.9977274537086487,-0.06399980932474136,0.022633910179138184,-0.05119216442108154,-0.030101299285888672,0.059824973344802856,-0.10648303478956223,-0.20947350561618805,0.31800548295522457,1.5033658761206576,-0.5301865005029565
1687102559.219384,0.026965579017996788,-0.9984647035598755,-0.04838256910443306,0.032818347215652466,-0.07810378074645996,-0.01735246181488037,0.1752820611000061,0.05519689619541168,-0.008431334979832172,0.5084616669700968,1.5153767863842558,-0.7198153660378082
1687102559.285849,0.02619212120771408,-0.9983412027359009,-0.05127044767141342,-0.06086006760597229,0.01834559440612793,0.057358622550964355,0.06081673502922058,0.14728432893753052,0.029123298823833466,0.4722993478103094,1.5131899898038563,-0.6785816647682736
1687102559.3267698,0.02601490542292595,-0.9984602332115173,-0.04898958280682564,0.021958764642477036,-0.016279518604278564,-0.03276710957288742,-0.12213630229234695,0.04119224101305008,-0.0006353966891765594,0.488161842627107,1.5152957050366742,-0.6899690084841019
1687102559.370215,0.026423880830407143,-0.9985048770904541,-0.04784782603383064,-0.007426682859659195,0.0623936653137207,-0.0060921236872673035,0.07608570158481598,0.003826470347121358,-0.01628073677420616,0.5045677031747602,1.5161060473763517,-0.7049651249497494
1687102559.4248319,0.02875807136297226,-0.9980812668800354,-0.054831355810165405,-0.031275779008865356,0.0075418949127197266,0.08270901441574097,-0.14176726341247559,0.03100809082388878,-0.06931419670581818,0.483041024816742,1.5088395978678522,-0.6822500259716794
1687102559.478833,0.031448278576135635,-0.9980064630508423,-0.054715562611818314,0.023895349353551865,-0.008234202861785889,-0.04114019498229027,0.01414883229881525,0.006296685431152582,-0.022644491866230965,0.5216533760870168,1.5076428208750756,-0.7201201241079268
1687102559.535301,0.030673349276185036,-0.998406708240509,-0.04736211523413658,0.011486679315567017,-0.004492402076721191,-0.019791901111602783,0.19433484971523285,0.024844715371727943,0.025471903383731842,0.5747106472469665,1.5143385149168846,-0.7727721090234997
1687102559.579647,0.03099787048995495,-0.9985973238945007,-0.04292101413011551,0.004082081839442253,0.013291716575622559,-0.005022164434194565,0.05249409005045891,-0.024266771972179413,-0.036755383014678955,0.6254752208223704,1.5178250291253101,-0.8233094269252429
1687102559.6284552,0.033097539097070694,-0.9986032247543335,-0.04118083417415619,-0.014054566621780396,0.003364086151123047,-0.002138972282409668,0.11040745675563812,-0.08322957903146744,-0.022860541939735413,0.6770003820214093,1.5179362466666741,-0.8778600677692654
1687102559.683104,0.03400515764951706,-0.9985201358795166,-0.04244041070342064,-0.005456000566482544,-0.03282135725021362,0.05324351787567139,-0.05802789330482483,-0.061847347766160965,-0.03292709216475487,0.6754994859398378,1.5163859327717109,-0.8806260785432201
1687102559.741189,0.035387612879276276,-0.9985540509223938,-0.04046591743826866,0.00486508384346962,0.0248907208442688,-0.0319218672811985,0.09337601065635681,-0.03274991735816002,-0.03438463807106018,0.7185490861844424,1.517013658399577,-0.9256073129041628
1687102559.802419,0.0362897627055645,-0.9986444711685181,-0.03730892390012741,0.00426807627081871,-0.03347510099411011,0.0039836205542087555,0.09645462036132812,-0.031224746257066727,0.0034526889212429523,0.7715515141829837,1.5187231659873368,-0.9796767918415208
1687102559.847807,0.034994952380657196,-0.9987877607345581,-0.034616950899362564,0.013329654932022095,-0.02364259958267212,0.005701422691345215,0.07939387857913971,-0.06547575443983078,0.03740586340427399,0.7908281992498226,1.5215517697751253,-1.0016895976606772
1687102559.879478,0.03328009322285652,-0.9988816380500793,-0.03357845917344093,0.0024102255702018738,-0.014072835445404053,0.019753940403461456,-0.0912817195057869,-0.04635822772979736,0.05274839699268341,0.7809355446092486,1.5234977314238394,-0.9947408539966203
1687102559.928845,0.028895674273371696,-0.9988182187080383,-0.039077892899513245,-0.0023148655891418457,-0.01215273141860962,-0.0033873915672302246,-0.030309446156024933,-0.18789006769657135,0.12321910262107849,0.6367070298216587,1.5221752795570236,-0.8554800824035595
1687102560.028932,0.0195764247328043,-0.9992085099220276,-0.03463000804185867,0.046097397804260254,-0.05087089538574219,-0.1565169095993042,0.00800412055104971,-0.41440632939338684,0.23687449097633362,0.5145157000052769,1.5310070101557902,-0.7482403572416235
1687102560.0481849,0.004944272805005312,-0.9978335499763489,-0.06560391932725906,0.10006669163703918,-0.0874478816986084,0.05626540631055832,-1.189344048500061,-0.5902318358421326,0.37231460213661194,0.07522330281367186,1.5049593718297403,-0.33331549769420304
1687102560.086203,-0.03426041081547737,-0.9918041825294495,-0.12308798730373383,0.3818708658218384,-0.012544512748718262,0.07030773162841797,-1.1439299583435059,-0.8129152655601501,1.0011167526245117,-0.2714694953569156,1.442678940141854,-0.02016417844354773
1687102560.130575,-0.12262028455734253,-0.9759617447853088,-0.1801745593547821,0.5870978832244873,-0.07121837139129639,-0.06585824489593506,-0.8459560871124268,-1.2619436979293823,2.2573740482330322,-0.597562111238475,1.3510911882697516,0.25615786506584326
1687102560.175441,-0.28664544224739075,-0.9351782202720642,-0.20802873373031616,0.7423949241638184,-0.19340753555297852,-0.053613871335983276,-1.4476152658462524,-1.5144222974777222,3.9934144020080566,-0.9430062880318222,1.2087619884412357,0.5464613431369734
1687102560.224639,-0.5185971856117249,-0.8283503651618958,-0.21187856793403625,0.9447294473648071,-0.0019870996475219727,0.06583660840988159,-0.13853923976421356,-1.6110268831253052,5.658720970153809,-1.1829316381282928,0.9761565631030437,0.7240600979448611
1687102560.324651,-0.7648622989654541,-0.6214374899864197,-0.16970796883106232,1.0277562141418457,-0.07529395818710327,0.08923299610614777,-0.5690632462501526,-2.182584047317505,6.657100200653076,-1.3524531254676053,0.6705761905021159,0.8248903433065184
1687102560.344699,-0.9450690150260925,-0.3176492154598236,-0.07709427922964096,0.8999793529510498,0.12892857193946838,0.17996889352798462,-0.1818462461233139,-2.20625376701355,7.102752208709717,-1.4894012687433722,0.3232492787264356,0.8759169211334636
1687102560.37508,-0.9988731741905212,0.027377912774682045,0.03876644745469093,0.8510765433311462,0.3990136981010437,0.19560837745666504,-0.804036021232605,-2.7122387886047363,6.748538970947266,-1.6095870399317826,-0.02738133324904402,0.8585991413691662
1687102560.451081,-0.9199694395065308,0.33891233801841736,0.19696399569511414,0.655534565448761,0.27079835534095764,0.045253902673721313,-1.021912693977356,-3.36844539642334,6.227712631225586,-1.781710573381242,-0.3457605716810733,0.7797183623418666
1687102560.4896688,-0.7305549383163452,0.5360598564147949,0.42300042510032654,0.6895393133163452,0.22001314163208008,0.2314184308052063,-3.6680262088775635,-4.534510612487793,5.429178237915039,-2.095640880726981,-0.5657627553285834,0.5152669092481376
1687102560.550959,-0.4544190466403961,0.6418191194534302,0.6177146434783936,0.426175057888031,0.4286764860153198,0.025015830993652344,-1.619870901107788,-4.6222615242004395,4.5493927001953125,-2.5073418578734628,-0.6968680688722657,0.22591656486018863
1687102560.624284,-0.15404833853244781,0.6566005349159241,0.7383390665054321,0.5911668539047241,0.5516971349716187,0.3604309558868408,0.8882662057876587,-4.370577812194824,4.123377323150635,-2.935901710412312,-0.7163027473784555,-0.07937982257285894
1687102560.640359,0.11680891364812851,0.7124541401863098,0.691927969455719,0.3377504050731659,0.48479610681533813,0.6008421778678894,0.852389931678772,-3.6539504528045654,3.363917589187622,2.9743528923945766,-0.7929893490040767,-0.33454763228283774
1687102560.676311,0.3432365357875824,0.7291378378868103,0.5920695066452026,0.28472357988357544,0.4037356376647949,0.35029786825180054,2.4820640087127686,-2.9236178398132324,3.204564332962036,2.6162158796050137,-0.8170612741356079,-0.602814191335403
1687102560.721531,0.5260913968086243,0.6982161998748779,0.48551177978515625,0.28991806507110596,0.35677647590637207,0.36293768882751465,0.510855495929718,-2.589223861694336,2.766993522644043,2.3161018380069773,-0.7729027361291159,-0.8212016209754727
1687102560.794812,0.6567522883415222,0.6542708873748779,0.37497398257255554,0.20884817838668823,0.5606337189674377,0.22402486205101013,1.4825410842895508,-1.8904078006744385,2.0926520824432373,2.0895830515103997,-0.7132181471303789,-0.9960825319606412
1687102560.8386889,0.7438102960586548,0.6107295751571655,0.27157995104789734,0.044382452964782715,0.323886513710022,0.3160969316959381,2.634157657623291,-0.8445331454277039,1.9096286296844482,1.9208769888052668,-0.6569816447076935,-1.1476157718299764
1687102560.876936,0.799792468547821,0.5721098780632019,0.18171918392181396,0.08572065830230713,0.17489928007125854,0.2153143733739853,1.8062866926193237,-0.40708714723587036,1.5690321922302246,1.794211313413577,-0.6090760380710021,-1.3086312486004794
1687102560.9228659,0.8433990478515625,0.524526059627533,0.1164056807756424,0.048217713832855225,0.19190454483032227,0.07797586917877197,1.8398253917694092,-0.12398803979158401,1.4106348752975464,1.7079495058551508,-0.552158382947652,-1.4506108755423495
1687102560.9761739,0.8792346715927124,0.471284955739975,0.06954513490200043,-0.04303795099258423,0.13818153738975525,0.14319276809692383,2.631457805633545,0.412842720746994,1.4615669250488281,1.6497293408573404,-0.490747097257249,-1.5711756860100614
1687102561.026972,0.9057573080062866,0.42193251848220825,0.03970444202423096,0.08862733840942383,0.11200299859046936,-0.05613827705383301,1.6295400857925415,0.33668890595436096,1.1222550868988037,1.6146039096734224,-0.43557582130894684,-1.6961748768564564
1687102561.086629,0.9254552125930786,0.37818416953086853,0.02256934903562069,-0.07451838254928589,0.2740527391433716,-0.04078841209411621,1.319873332977295,0.31653255224227905,0.8403535485267639,1.5951787889253202,-0.3878340010382594,-1.799679800456402
1687102561.129403,0.9381369948387146,0.34553471207618713,0.022462790831923485,-0.03307729959487915,0.2733311951160431,-0.06877326965332031,0.0669792890548706,0.08147532492876053,0.5327452421188354,1.5947357929880495,-0.3528085236024952,-1.8271511995769443
1687102561.2241402,0.9423736929893494,0.3336290717124939,0.02497311308979988,-0.08461606502532959,0.4655347764492035,-0.036218877881765366,0.30654898285865784,0.12905916571617126,-0.014569321647286415,1.5972903495910904,-0.3401505902362408,-1.8356053060443496
1687102561.239428,0.9391552805900574,0.34253546595573425,0.02562403678894043,-0.006095707416534424,0.20470571517944336,-0.04370582103729248,0.07640634477138519,0.11681928485631943,-0.3044772446155548,1.5980736911206053,-0.3496143044901334,-1.847602299350793
1687102561.2761722,0.9335604906082153,0.35723522305488586,0.02911536954343319,0.015826046466827393,-0.03329116106033325,-0.03978133201599121,-0.029231399297714233,0.02085793949663639,-0.2600824236869812,1.6019736684895272,-0.36530611596693763,-1.848200924898725
1687102561.32927,0.9299389123916626,0.36631840467453003,0.03200607746839523,0.013161003589630127,-0.12999030947685242,0.014136433601379395,-0.06717505306005478,0.049531929194927216,-0.13791629672050476,1.6052001444382902,-0.3750493057277939,-1.8436668981825308
1687102561.376639,0.9288050532341003,0.3687790036201477,0.0363694503903389,0.015347540378570557,-0.14712995290756226,0.02059148997068405,-0.0865495502948761,0.058278948068618774,0.02116537280380726,1.6099335818351848,-0.3776950959907045,-1.8378122202136615
1687102561.4262118,0.9297674298286438,0.3658241033554077,0.041290394961833954,-0.002933502197265625,-0.05040973424911499,-0.0018770731985569,-0.004301282111555338,0.06621048599481583,0.07595518231391907,1.6151765440308514,-0.3745181266838876,-1.834367539014684
1687102561.520578,0.9316192269325256,0.360657274723053,0.04485200345516205,0.0015166401863098145,-0.002792924642562866,-0.011893153190612793,-0.11259153485298157,0.03424607217311859,0.06421197950839996,1.6189033159268522,-0.36897251023953376,-1.8317259112708828
1687102561.535398,0.9323124289512634,0.3584342300891876,0.048148926347494125,0.013671398162841797,0.05921405553817749,-0.0475081205368042,-0.26113468408584595,-0.022549254819750786,0.021413778886198997,1.6223951119731044,-0.36659014027446585,-1.8229564885033072
1687102561.5743341,0.9326878190040588,0.3574749827384949,0.04800804704427719,0.001775503158569336,0.04586055874824524,-0.040424592792987823,-0.05682441219687462,-0.07239650934934616,-0.02370649389922619,1.6222237338648664,-0.36556281376782707,-1.8129311125328922
1687102561.633627,0.9316096901893616,0.3612951934337616,0.03960838168859482,-0.013732671737670898,0.07795950770378113,0.016513343900442123,0.46280065178871155,0.0025994409807026386,-0.07161170244216919,1.6132868050587736,-0.3696565364281897,-1.826071342079994
1687102561.676166,0.930340051651001,0.3651547431945801,0.03360602632164955,0.014102637767791748,-0.05233430862426758,0.02622354030609131,-0.3442540764808655,-0.13433381915092468,-0.028095118701457977,1.6069029335592553,-0.3737990050910068,-1.8268188281184596
1687102561.754502,0.9295313954353333,0.3673473000526428,0.032048728317022324,0.006228983402252197,0.008079856634140015,0.0033057890832424164,-0.15658988058567047,-0.09316787868738174,-0.06693612039089203,1.6052610440203547,-0.3761553132754973,-1.817875184114966
1687102561.848973,0.9285019040107727,0.3698069155216217,0.03356878459453583,0.006724417209625244,-0.011683166027069092,-0.022964119911193848,-0.43878883123397827,-0.14026184380054474,-0.05827592313289642,1.606934293561364,-0.3788012055492605,-1.80153707859917
1687102561.865488,0.9273490905761719,0.372750848531723,0.03286934271454811,-0.02412039041519165,0.06644284725189209,-0.03204548358917236,-0.5831508040428162,-0.3164234459400177,-0.14864464104175568,1.6062259086795303,-0.38197175379372034,-1.7720413927470777
1687102561.8795938,0.9228093028068542,0.38463929295539856,0.02180148847401142,-0.11133182048797607,0.26297417283058167,-0.12893354892730713,-1.2778691053390503,-0.8407894968986511,-0.45222002267837524,1.5944170607545725,-0.39481701124507834,-1.7340704029209697
1687102561.942882,0.9116286635398865,0.4102764427661896,0.02461620792746544,-0.08127611875534058,0.3875292241573334,0.035381194204092026,-3.2786879539489746,-1.0492353439331055,-0.8162018656730652,1.5977922189582314,-0.42275718141511337,-1.5886964616536263
1687102561.985821,0.8870787024497986,0.4591524302959442,0.0476442351937294,0.12496024370193481,0.7186733484268188,0.12369655817747116,-1.4599549770355225,-0.2226904034614563,-1.531152606010437,1.6244539132766422,-0.4770408696454324,-1.452818405321518
1687102562.0317302,0.8410593867301941,0.533410370349884,0.08995705842971802,0.11990857124328613,0.5355592966079712,0.12716007232666016,-1.8760203123092651,0.19234609603881836,-2.0909647941589355,1.6773480926194886,-0.5626273099486861,-1.3481781595110593
1687102562.119794,0.7718889117240906,0.6193327903747559,0.14357565343379974,0.2591473460197449,0.4150908589363098,0.012323245406150818,-0.740064799785614,0.562016487121582,-2.48944091796875,1.7547002397269644,-0.6678926405902154,-1.2489347786751857
1687102562.136271,0.6816030740737915,0.7065111994743347,0.1904180943965912,0.3669350743293762,0.219590425491333,-0.041584014892578125,-0.7856021523475647,0.6372954249382019,-2.620262384414673,1.843218894754511,-0.7845562622280545,-1.15967447961827
1687102562.185447,0.5705565810203552,0.788365364074707,0.2300976812839508,0.3978576064109802,0.2542065382003784,-0.06267833709716797,-0.3459579646587372,0.6965131163597107,-2.8883602619171143,1.9541325327530803,-0.9081474503171874,-1.0576691937776506
1687102562.2398171,0.4416924715042114,0.8525729775428772,0.27933192253112793,0.47177478671073914,0.2497369647026062,0.005610406398773193,-1.119948387145996,0.7060443758964539,-3.0124247074127197,2.134708373071077,-1.0208890218064546,-0.878205374715021
1687102562.301053,0.28692692518234253,0.8991960287094116,0.3303321897983551,0.5607292652130127,0.24370253086090088,0.012410670518875122,-0.08677858114242554,1.2665616273880005,-3.416903257369995,2.4263983075792215,-1.117928618629965,-0.5989824656836286
1687102562.343974,0.09186097979545593,0.944373369216919,0.31578508019447327,0.7130706310272217,0.1874319314956665,0.07679295539855957,1.104019045829773,1.515691876411438,-3.888878345489502,2.8585078732206863,-1.2356840429146063,-0.2103953289203689
1687102562.380156,-0.13054752349853516,0.95985347032547,0.24827153980731964,0.7157678604125977,0.0888831615447998,0.09590557217597961,1.7157803773880005,1.6322846412658691,-4.527974605560303,-2.657498697993463,-1.286479325430788,0.5073662077539409
1687102562.452005,-0.3724433183670044,0.9139798879623413,0.16101700067520142,0.9101325273513794,0.08070993423461914,0.12078213691711426,0.19900496304035187,1.340531826019287,-4.775604724884033,-1.9788559161635046,-1.1529866628361192,1.1401639020483847
1687102562.485918,-0.5871797800064087,0.794564962387085,0.15455280244350433,0.7864443063735962,0.11424857378005981,-0.030468448996543884,-0.23838834464550018,1.419935703277588,-4.90445613861084,-1.8281707059441226,-0.918290724772795,1.2391632802656936
1687102562.5285091,-0.7659496068954468,0.6326535940170288,0.1143248900771141,0.8235669732093811,-0.03652334213256836,0.06771229207515717,-0.4623335897922516,1.3393170833587646,-4.580245018005371,-1.7189615193246068,-0.6849749227163578,1.2921515539725001
1687102562.5984159,-0.8940981030464172,0.4438599646091461,0.05980682000517845,0.584070086479187,0.2158384919166565,0.1157912015914917,-0.08735648542642593,1.5993716716766357,-4.439783096313477,-1.6375875008226775,-0.4599016484749416,1.3056384304360158
1687102562.647756,-0.9738594889640808,0.22704893350601196,-0.006808063015341759,0.5630167126655579,0.28036680817604065,0.12976330518722534,-0.36844170093536377,1.513312578201294,-4.728573799133301,-1.563805634324605,-0.22904640259781087,1.2921858899871945
1687102562.724684,-0.9970372319221497,-0.008341462351381779,-0.07646536827087402,0.486844539642334,0.3138071596622467,0.16647690534591675,-1.1063050031661987,1.402116298675537,-4.809322357177734,-1.494253571875889,0.00834155928525724,1.2573721201935397
1687102562.740171,-0.9600028395652771,-0.2329050600528717,-0.15540198981761932,0.4417839050292969,0.2587687373161316,0.10411709547042847,-1.480839490890503,1.428012728691101,-4.763686180114746,-1.4103118376539734,0.23506382671485446,1.1453391119409386
1687102562.7813401,-0.8678205609321594,-0.43916308879852295,-0.2324286848306656,0.3926162123680115,0.18731683492660522,-0.006798684597015381,-0.6696476340293884,1.4463047981262207,-4.614223003387451,-1.3091078240176837,0.45466690313436214,1.0530737791489386
1687102562.829979,-0.7291331887245178,-0.6122777462005615,-0.30574601888656616,0.3869854211807251,0.1072729229927063,-0.07718867063522339,-0.7155727744102478,1.1025605201721191,-4.446290493011475,-1.1737396486198675,0.6589382873800348,0.9199078040776629
1687102562.901826,-0.5624611377716064,-0.7482830286026001,-0.3517239987850189,0.428794264793396,0.21334052085876465,-0.04450097680091858,0.11613458395004272,0.85107421875,-4.245767116546631,-1.0119595130605665,0.845470041820043,0.7577136654161303
1687102562.9397569,-0.38749000430107117,-0.8532096147537231,-0.34911975264549255,0.36376264691352844,0.09423762559890747,-0.09889361262321472,0.6341737508773804,0.617107629776001,-3.808821678161621,-0.8374414601846155,1.0221084727696013,0.5853404797489912
1687102563.03071,-0.21819967031478882,-0.9231235384941101,-0.31659379601478577,0.2756948173046112,0.026440918445587158,0.0650067925453186,1.7056686878204346,0.608299732208252,-3.3111510276794434,-0.6034477207386697,1.176126499804942,0.35394699780550637
1687102563.050425,-0.06825371086597443,-0.9715991616249084,-0.22657528519630432,0.3853313624858856,-0.09918630123138428,0.15438592433929443,0.6177380084991455,0.4441929757595062,-2.668419122695923,-0.2925947172232315,1.3318974910989996,0.058566198890573885
1687102563.092297,0.03454454615712166,-0.9710699915885925,-0.23628313839435577,0.15734997391700745,-0.5060722827911377,0.1021430492401123,-0.5515638589859009,0.5177397727966309,-1.3154264688491821,0.14517131403367267,1.3296714091014594,-0.3701488510050786
1687102563.1497378,0.0758933499455452,-0.9825711250305176,-0.16968847811222076,0.231967955827713,-0.15645158290863037,-0.3818711042404175,3.7864890098571777,-0.08449771255254745,-0.36630186438560486,0.4205655648674163,1.3838218117826682,-0.6407624835612089
1687102563.188662,0.07801683992147446,-0.9916368126869202,-0.10280939191579819,0.12008798122406006,-0.34449899196624756,-0.02002394199371338,-0.9061586856842041,-0.7891315817832947,0.13122250139713287,0.6491406486390446,1.4413754827808716,-0.8902994728049767
1687102563.2385712,0.08066032081842422,-0.9906728267669678,-0.10982266813516617,-0.012590855360031128,0.3398550748825073,-0.0015208125114440918,0.6408601403236389,-0.24228796362876892,-0.2510453164577484,0.6334808720335079,1.4341091519772895,-0.907589436061396
1687102563.3245292,0.08968111127614975,-0.9921194314956665,-0.08750077337026596,0.00747159868478775,0.027397751808166504,0.013602368533611298,0.4640909433364868,-0.01615036651492119,-0.24198344349861145,0.7977031971361027,1.445170547416829,-1.0798725299515939
1687102563.34077,0.0948154628276825,-0.9922653436660767,-0.08011934161186218,0.05682637542486191,-0.08651560544967651,-0.13657081127166748,0.030464421957731247,-0.08480413258075714,-0.09334269165992737,0.8692105275559393,1.4463403971451854,-1.1596154383614896
1687102563.3947458,0.09675595164299011,-0.9920843839645386,-0.0800420269370079,-0.002899169921875,0.002918243408203125,0.020761489868164062,-0.05255429819226265,0.052858393639326096,-0.0688280314207077,0.8796548670391288,1.4448909783810444,-1.1709010552391679
1687102563.4602919,0.0992775559425354,-0.9916256070137024,-0.08259861171245575,0.003551393747329712,-0.021985113620758057,-0.025296390056610107,-0.06872741132974625,0.0860205888748169,-0.0035942355170845985,0.87684732473385,1.4412887981852476,-1.1638684620414674
1687102563.529386,0.09865634888410568,-0.991345226764679,-0.08660969138145447,0.012717567384243011,0.004925727844238281,-0.0011742040514945984,-0.028989849612116814,0.026613187044858932,0.006260260008275509,0.8503303401362712,1.4391356940224789,-1.1342434866303577
1687102563.5389671,0.09849295765161514,-0.9912749528884888,-0.0875968188047409,-0.000592544674873352,0.02522575855255127,0.04104214161634445,-0.09853643923997879,-0.011883916333317757,0.010200539603829384,0.8438845254342902,1.438601278885722,-1.1260555668746162
1687102563.595286,0.09761476516723633,-0.9907525777816772,-0.09423672407865524,0.00481751561164856,0.004516124725341797,0.02720475196838379,-0.035803813487291336,-0.02491707168519497,0.015874670818448067,0.8030039480403018,1.4346957214373526,-1.0863880289266097
1687102563.6386561,0.09693025052547455,-0.9910100698471069,-0.09221542626619339,0.01394014060497284,-0.015474915504455566,-0.007607705891132355,-0.0709008127450943,-0.028872886672616005,0.03757717087864876,0.8103199433541839,1.4366065820820095,-1.0943735505977854
1687102563.69297,0.09541591256856918,-0.9908115267753601,-0.09585535526275635,0.0016147196292877197,0.006863892078399658,0.0009608268737792969,-0.11507653445005417,-0.002230423502624035,0.025934694334864616,0.7831006793916463,1.4351308085908805,-1.067213057729673
1687102563.739956,0.09588976204395294,-0.9907119870185852,-0.09640830010175705,-0.006778493523597717,0.0021715760231018066,0.00036938488483428955,-0.019906340166926384,0.02603800967335701,-0.016343120485544205,0.7827016478481528,1.434396903721367,-1.065908486522095
1687102563.820907,0.09690089523792267,-0.9905981421470642,-0.09656880795955658,0.00016026198863983154,-0.01748901605606079,-0.010242834687232971,-0.01464473269879818,-0.01608412154018879,-0.01922113262116909,0.7871146773148593,1.433562127703617,-1.0700726984149176
1687102563.861971,0.0971577987074852,-0.9901518821716309,-0.10079345107078552,0.0031381696462631226,-0.017492592334747314,0.010964885354042053,-0.05967239663004875,-0.054611582309007645,-0.017589280381798744,0.7670338402669673,1.4303376149563545,-1.0518746645969341
1687102563.9038439,0.09774931520223618,-0.9898186922073364,-0.10346125811338425,0.010191366076469421,0.0018883347511291504,0.0237034410238266,-0.021250970661640167,-0.044536225497722626,-0.02682512253522873,0.7570179013481791,1.4279772644886246,-1.0439979082637008
1687102563.96016,0.09919542819261551,-0.9896315932273865,-0.1038721427321434,-0.012769654393196106,0.00313568115234375,-0.024439111351966858,-0.039706144481897354,-0.12381227314472198,-0.011627128347754478,0.7623718934360914,1.4266689283687068,-1.0532851478571035
1687102564.0066628,0.09861791878938675,-0.9894222021102905,-0.10638602823019028,0.024535775184631348,-0.025775432586669922,0.013734579086303711,-0.055246222764253616,-0.08680136501789093,0.0157554280012846,0.7475237759234823,1.4252181647377191,-1.0436182974028674
1687102564.066623,0.09649550914764404,-0.9893755912780762,-0.10874050855636597,0.009553074836730957,-0.0020335912704467773,-0.02539956569671631,-0.07604524493217468,-0.10185160487890244,0.06350750476121902,0.7258057747280429,1.4248972840887226,-1.0260593195333794
1687102564.132985,0.0923253521323204,-0.9895200133323669,-0.11102303862571716,0.019552081823349,0.01639080047607422,-0.0263824462890625,-0.09817025065422058,-0.08580250293016434,0.10056406259536743,0.69370698019154,1.4258938791891558,-0.9976480618286828
1687102564.1499639,0.08431307226419449,-0.9893986582756042,-0.11824367940425873,0.013144828379154205,-0.008022606372833252,-0.04723800718784332,-0.1387762725353241,-0.24422769248485565,0.20521709322929382,0.6194274833461102,1.4250559089568289,-0.9296529676503774
1687102564.194755,0.07150579988956451,-0.9882590174674988,-0.1350221186876297,0.012188643217086792,-0.04151076078414917,-0.02582085132598877,-0.5614428520202637,-0.36452698707580566,0.25558027625083923,0.48703518659368006,1.4174078171969249,-0.8124633811921051
1687102564.248019,0.05356491357088089,-0.9860357046127319,-0.15768426656723022,0.05921280384063721,-0.008684635162353516,0.06874072551727295,-0.20363542437553406,-0.0743153989315033,0.4217841625213623,0.3274671168000466,1.403482688630038,-0.6631338233696462
1687102564.312976,0.02527816779911518,-0.9818577766418457,-0.1879264861345291,0.19107621908187866,-0.0788416862487793,0.06715306639671326,-1.2129709720611572,-0.12748517096042633,0.7503752708435059,0.13370838250453718,1.3800223890521077,-0.46791145017580715
1687102564.400272,-0.03030925616621971,-0.9660207629203796,-0.25668081641197205,0.3278403878211975,-0.04130333662033081,0.09614300727844238,-1.1571964025497437,-0.5318676233291626,1.557974934577942,-0.11753723404630524,1.3093640951574872,-0.22538601397922323
1687102564.4270592,-0.13892781734466553,-0.9467071294784546,-0.2905935049057007,0.470089316368103,0.05544137954711914,-0.35085558891296387,-0.27217695116996765,-0.9685184359550476,2.749239683151245,-0.44596078865274646,1.2428540896236948,0.07783009159243198
1687102564.4665608,-0.31714195013046265,-0.9039160013198853,-0.286978542804718,0.6375002861022949,-0.2192833423614502,-0.14074063301086426,0.21265633404254913,-1.329837679862976,4.15286922454834,-0.8352862334229595,1.1288385201685613,0.43527383765020683
1687102564.506264,-0.5438061356544495,-0.8009152412414551,-0.25061845779418945,0.7941266298294067,-0.17314469814300537,-0.22924000024795532,-0.4344470798969269,-1.9015047550201416,5.317421913146973,-1.1389480807939871,0.9288221830869459,0.6938567092646631
1687102564.591841,-0.7683045268058777,-0.6057777404785156,-0.20673978328704834,0.909616231918335,0.009800076484680176,0.1573317050933838,-0.8313848376274109,-2.17950439453125,6.018592357635498,-1.3079368374310543,0.6507430425882592,0.785643645367297
1687102564.608235,-0.9352699518203735,-0.337502121925354,-0.10659448057413101,0.9764840006828308,0.2345358431339264,-0.003665626049041748,0.0837516114115715,-2.7711596488952637,6.111335277557373,-1.4573141150560436,0.34426204971809277,0.8367740661190908
1687102564.64951,-0.998562216758728,-0.039169248193502426,0.03659379854798317,0.7966427803039551,0.09214778244495392,0.17231416702270508,-0.18411073088645935,-3.165374994277954,6.082145690917969,-1.607426424278329,0.03917926982523094,0.841844941213352
1687102564.7524838,-0.9453967213630676,0.25755345821380615,0.19972744584083557,0.7664722800254822,0.30987510085105896,-0.07608558237552643,0.7028625011444092,-3.498638868331909,5.8399529457092285,-1.7789979703214647,-0.26048938264091814,0.8270738322721419
1687102564.76864,-0.7833390235900879,0.5039263963699341,0.3639202415943146,0.6722704172134399,0.18604546785354614,0.2006394863128662,-1.1254420280456543,-3.7802388668060303,5.412816524505615,-2.005705049920353,-0.5281385870249662,0.7170875436257079
1687102564.805613,-0.5426969528198242,0.6792580485343933,0.49405255913734436,0.5614348649978638,0.36998194456100464,0.05546194314956665,0.4001109004020691,-3.781848192214966,5.034636497497559,-2.3093087847978566,-0.7467511831295727,0.5316902346038648
1687102564.8491611,-0.25877881050109863,0.7658741474151611,0.5886171460151672,0.5600178241729736,0.2994486689567566,0.23149681091308594,0.2482156604528427,-3.8597447872161865,4.9150543212890625,-2.727388602007712,-0.8723997590657754,0.22886909834996383
1687102564.896538,0.036895520985126495,0.8284733891487122,0.5588111281394958,0.5210573077201843,0.3679070472717285,0.17736411094665527,0.8260723352432251,-3.614213466644287,4.413200378417969,3.07566331591185,-0.9763762415367297,-0.14215244596515272
1687102565.002973,0.3055354654788971,0.8079567551612854,0.5038389563560486,0.5495822429656982,0.4293020963668823,0.24730533361434937,1.4611958265304565,-3.2468738555908203,3.979726791381836,2.596469603630389,-0.9406761921429713,-0.5106677661876465
1687102565.020321,0.5146735906600952,0.7746046781539917,0.3675576150417328,0.5096946954727173,0.4685441255569458,0.21493127942085266,1.4823088645935059,-2.519974946975708,3.3891468048095703,2.190960413462966,-0.8860898185788738,-0.8361029296811135
1687102565.072288,0.6635021567344666,0.698826014995575,0.2672203481197357,0.3327288031578064,0.4100148677825928,0.28034111857414246,0.9051802158355713,-1.5583606958389282,2.8118536472320557,1.953664489458782,-0.773754894133393,-1.0177630536960383
1687102565.108516,0.7557065486907959,0.6252383589744568,0.19489644467830658,0.1455385684967041,0.4034634828567505,0.34344878792762756,1.9501301050186157,-0.2797371745109558,2.213423728942871,1.8231960110326892,-0.6754369014100343,-1.144935758204812
1687102565.1895719,0.8188397884368896,0.5587844252586365,0.13138215243816376,0.17118090391159058,0.18997955322265625,0.13956809043884277,1.6094430685043335,-0.14234472811222076,1.9248199462890625,1.7298895126349545,-0.5929192969836548,-1.2819945924673521
1687102565.206495,0.8648794889450073,0.49458953738212585,0.08581722527742386,0.0073738694190979,0.43103906512260437,0.05004692077636719,1.6425856351852417,0.06736338883638382,1.6016234159469604,1.669697088442451,-0.5173625102320712,-1.3987584803864428
1687102565.249529,0.8956415057182312,0.4410577118396759,0.0573967769742012,-0.0310022234916687,0.453885555267334,0.15433406829833984,1.9177473783493042,0.49410271644592285,1.039279580116272,1.6347933578300222,-0.4567768545583453,-1.5122501108483284
1687102565.301406,0.9144525527954102,0.40209171175956726,0.04581008478999138,-0.03386795520782471,0.39673638343811035,0.03876924514770508,1.6179156303405762,0.5459688305854797,0.8242183923721313,1.6208501230453107,-0.41380022462264565,-1.6005057747602895
1687102565.385216,0.9251837730407715,0.3772643208503723,0.0413099080324173,0.01407092809677124,0.3262116312980652,-0.04996168613433838,1.1187939643859863,0.468591570854187,0.47800886631011963,1.6154171810240854,-0.38684054622812375,-1.6835087796192214
1687102565.401692,0.9311447739601135,0.3624187111854553,0.040271542966365814,-0.05356621742248535,0.2829059660434723,-0.007541541010141373,1.4046478271484375,0.5700197815895081,0.2011457234621048,1.6140188899579255,-0.37086172654234306,-1.7691540678336466
1687102565.498296,0.9337367415428162,0.3550987243652344,0.045174263417720795,-0.04067027568817139,0.035923004150390625,-0.049370523542165756,0.9146692752838135,0.3630243241786957,0.17185400426387787,1.6191387214849091,-0.36301965779621376,-1.8096269967984626
1687102565.518163,0.9342927932739258,0.3535463809967041,0.04584372788667679,-0.011716067790985107,0.020095527172088623,-0.06917452812194824,-0.04094398021697998,0.07899891585111618,0.017502594739198685,1.619824841315174,-0.36135962668972554,-1.8394392149232028
1687102565.567374,0.9341223835945129,0.3533656895160675,0.05047641694545746,-0.02065509557723999,0.04365268349647522,-0.0712437629699707,0.14730368554592133,0.07847050577402115,-0.03859729319810867,1.6247800182256766,-0.3611664697214995,-1.838563628269331
1687102565.6028461,0.9333447217941284,0.35546016693115234,0.05015580356121063,0.006688177585601807,-0.006629049777984619,-0.0576021671295166,-0.07116979360580444,-0.0653049498796463,-0.009261774830520153,1.6244823939720787,-0.363406349466585,-1.8412362209182915
1687102565.650878,0.9332727193832397,0.35626330971717834,0.04559018090367317,0.040543198585510254,-0.0020000040531158447,-0.04388129338622093,-0.13435249030590057,-0.10179667174816132,-0.003599162446334958,1.6196073175420744,-0.36426575054876476,-1.8357191068176382
1687102565.6913772,0.933679461479187,0.35604503750801086,0.038396645337343216,-0.012063980102539062,0.00423017144203186,-0.027791861444711685,-0.029980545863509178,-0.11467339098453522,-0.024528877809643745,1.61189718076681,-0.3640321665692074,-1.8354470371365208
1687102565.74736,0.9332889318466187,0.35763034224510193,0.03274356201291084,-0.021271169185638428,0.004002928733825684,0.014405965805053711,-0.02372664399445057,-0.08668544888496399,-0.05366552621126175,1.6058659986549042,-0.36572918523435466,-1.8328246570342288
1687102565.797497,0.9321094751358032,0.3608730435371399,0.030696656554937363,0.025318384170532227,-0.001711726188659668,0.012378811836242676,-0.27246031165122986,-0.07513751834630966,-0.08870067447423935,1.6037168865826315,-0.36920385575436576,-1.8268529168610603
1687102565.8567271,0.9308829307556152,0.3638574779033661,0.03262439742684364,0.01192694902420044,-0.005352288484573364,0.020994897931814194,-0.03801130875945091,-0.047123443335294724,-0.040536005049943924,1.6058287111098912,-0.3724059172801854,-1.8148043741181972
1687102565.8966641,0.9299792051315308,0.3660946190357208,0.03336632624268532,0.0002117753028869629,-0.020544111728668213,0.00781702995300293,-0.18360339105129242,-0.06730195134878159,-0.06204689294099808,1.6066595170504838,-0.3748088168693709,-1.8068107632108705
1687102565.94893,0.9294025301933289,0.3677327036857605,0.0313594751060009,-0.011479675769805908,0.03792214393615723,-0.007006525993347168,0.22960522770881653,-0.054133281111717224,-0.03285744786262512,1.6045250731855656,-0.37656971794456323,-1.8091116050822695
1687102566.008809,0.9289833903312683,0.36936628818511963,0.023624176159501076,-0.017087817192077637,0.025180131196975708,-0.027133824303746223,-0.19205494225025177,-0.28049832582473755,-0.05652036517858505,1.596220985711568,-0.37832700574304695,-1.8098839288176867
1687102566.1008592,0.9260240793228149,0.37720754742622375,0.01391513366252184,-0.002363920211791992,0.17526736855506897,-0.019072771072387695,-0.4996583163738251,-0.3578856587409973,-0.3363974690437317,1.5858219474383783,-0.38677924856656465,-1.7960317780370625
1687102566.1175141,0.9158267378807068,0.4014028012752533,0.011704464443027973,-0.009515821933746338,0.35883578658103943,-0.05626022815704346,-1.41372549533844,-0.6049528121948242,-0.7103170156478882,1.5835758485134568,-0.4130479536296829,-1.7425319127533256
1687102566.160506,0.8949701189994812,0.4455779194831848,0.022106090560555458,-0.07810616493225098,0.5461059808731079,-0.006404876708984375,-2.364234685897827,-0.6111053228378296,-1.3225610256195068,1.595491673408529,-0.46181969839512066,-1.6382477148057284
1687102566.2167459,0.855797290802002,0.5146601796150208,0.052306365221738815,0.08110767602920532,0.7162052989006042,-0.0518181249499321,-1.4582055807113647,-0.2807132303714752,-1.9858505725860596,1.631840429757578,-0.5406112921213738,-1.5155226095304932
1687102566.267492,0.7907264828681946,0.606845498085022,0.08056112378835678,0.16380226612091064,0.6132777333259583,0.044972896575927734,-1.2600051164627075,0.14983732998371124,-2.6920952796936035,1.6723284047279598,-0.6520857073464078,-1.4381720550234616
1687102566.307862,0.6943676471710205,0.7081249356269836,0.12811094522476196,0.40820181369781494,0.4319353699684143,-0.09011662006378174,-0.5468396544456482,0.3476954996585846,-3.0771782398223877,1.7532447517797771,-0.7868391265311132,-1.3343374185220331
1687102566.345938,0.5622314810752869,0.8109305500984192,0.16213393211364746,0.47443538904190063,0.4359719753265381,0.027929440140724182,-0.3914245069026947,0.6004043221473694,-3.637916088104248,1.85155488243222,-0.9457406418182891,-1.238011893922522
1687102566.393086,0.39597809314727783,0.9027783274650574,0.16790516674518585,0.6493251323699951,0.418586790561676,-0.03284981846809387,0.8345100283622742,0.6967340707778931,-3.868156909942627,1.97184203595939,-1.1261859658390203,-1.1347499433648687
1687102566.458967,0.19679835438728333,0.9706798791885376,0.13802418112754822,0.7861880660057068,0.36676812171936035,0.12688350677490234,0.49665847420692444,0.7431008219718933,-4.250942707061768,2.182426594899892,-1.3280432633748647,-0.9540304370493411
1687102566.521693,-0.033511802554130554,0.9933021664619446,0.11057797074317932,0.9543034434318542,0.2408895492553711,0.049959659576416016,1.037595510482788,0.8689473271369934,-4.814522743225098,-2.8473305301430103,-1.454992217228799,0.2730236158660916
1687102566.567205,-0.30341967940330505,0.952726423740387,0.01576710306107998,1.192320466041565,0.2407853603363037,0.16083800792694092,2.0965051651000977,0.8276910781860352,-5.89503812789917,-1.6227142963465429,-1.2620867009097905,1.467240244788292
1687102566.607249,-0.5520157217979431,0.8332809805870056,-0.03035147115588188,0.8473801612854004,-0.24305593967437744,0.15330666303634644,-0.4914954602718353,0.7143024206161499,-5.4068522453308105,-1.5158686502329044,-0.9850161342480432,1.5470068448884327
1687102566.689127,-0.7701703310012817,0.6353960037231445,-0.05576203018426895,1.2978804111480713,0.4525403380393982,0.08902609348297119,0.494824081659317,0.7366632223129272,-6.392989635467529,-1.498520238406173,-0.6885212183162067,1.5201499535533918
1687102566.7049022,-0.9292973279953003,0.3574122488498688,-0.09307347983121872,1.0754766464233398,0.28893470764160156,0.05849695950746536,0.42943575978279114,0.5399524569511414,-6.244514465332031,-1.4709745233427556,-0.36549566320207477,1.5181570100495592
1687102566.772066,-0.9908783435821533,0.05581527575850487,-0.12265658378601074,0.8997071981430054,0.29007095098495483,0.07845175266265869,-0.326732337474823,0.3819015324115753,-6.195104122161865,-1.4476371158453232,-0.05584429863205645,1.495405183436404
1687102566.79783,-0.961590051651001,-0.23588189482688904,-0.14037108421325684,0.7305110692977905,0.24786005914211273,0.01917046308517456,-1.2912464141845703,0.14037352800369263,-5.898521900177002,-1.4258420946283756,0.23812596523606647,1.408692096833069
1687102566.8475761,-0.8576401472091675,-0.48464614152908325,-0.17196238040924072,0.5518390536308289,-0.06398352980613708,-0.03212401270866394,-1.3119604587554932,0.14332188665866852,-5.365199089050293,-1.3729138408421642,0.5059585647328023,1.2841150268199435
1687102566.9299068,-0.7071670889854431,-0.6747521162033081,-0.21124421060085297,0.5477738976478577,0.028069496154785156,-0.0630326122045517,-1.0431796312332153,0.010923128575086594,-4.87911319732666,-1.2805152147594674,0.7406287781746168,1.1352712080406333
1687102567.03439,-0.5323547124862671,-0.8175037503242493,-0.219740629196167,0.45050662755966187,0.09918111562728882,-0.07557807862758636,0.6257224678993225,0.04403702914714813,-4.478699684143066,-1.179329105815743,0.9570632921299204,1.0025929890409153
1687102567.071725,-0.34685462713241577,-0.9188361763954163,-0.1882334202528,0.536353588104248,-0.03792029619216919,-0.05485445261001587,0.4804938733577728,-0.31152185797691345,-3.932340145111084,-1.0735851937879883,1.1651212610378123,0.8754580341220302
1687102567.0855079,-0.19032396376132965,-0.9710533618927002,-0.1443321704864502,0.29585373401641846,-0.10585075616836548,0.0016776472330093384,0.8071396350860596,-0.21037301421165466,-2.8795204162597656,-0.9219726335365905,1.3296018125589675,0.6967584830819743
1687102567.098096,-0.06593424081802368,-0.9915054440498352,-0.11211322993040085,0.24736124277114868,-0.22469621896743774,0.2086554765701294,1.3628088235855103,0.15159538388252258,-2.1474459171295166,-0.531626540443803,1.44036144355892,0.2951931314144394
1687102567.147284,0.01720704324543476,-0.9993549585342407,-0.03152237460017204,0.20134460926055908,-0.17340505123138428,0.16039800643920898,0.8371444344520569,0.7370476126670837,-1.094968318939209,0.4996650117735171,1.5348769659867987,-0.7097335582144645
1687102567.220302,0.04938967153429985,-0.996178388595581,-0.07203759998083115,0.19668880105018616,-0.5289223194122314,0.2776648998260498,-1.6495693922042847,1.0482044219970703,-0.10690458118915558,0.601002540151568,1.4833429250386136,-0.7664270321112397
1687102567.298582,0.04190799966454506,-0.9932212233543396,-0.10842044651508331,0.19348934292793274,-0.2638891935348511,-0.14992617070674896,1.2992618083953857,0.06629317998886108,0.3874322474002838,0.3688425931863103,1.454293342015541,-0.4965288563150506
1687102567.317768,0.03347814455628395,-0.992287278175354,-0.11935334652662277,0.014815900474786758,-0.065513014793396,-0.1054697185754776,-1.4580867290496826,-0.5566285252571106,0.006454870104789734,0.2734686353159961,1.4465169777639297,-0.4189250191282545
1687102567.380013,0.04464135691523552,-0.9905962944030762,-0.12932908535003662,-0.18502220511436462,0.4163929224014282,0.07276463508605957,0.6075184345245361,0.2294715791940689,-0.3277331590652466,0.33237125280140667,1.4335483525837378,-0.4819005109312822
1687102567.4367762,0.05450165271759033,-0.9896864891052246,-0.13247759640216827,0.10093963891267776,-0.1640610694885254,-0.07038809359073639,-0.5300273895263672,-0.1203795000910759,-0.11581838130950928,0.39029756079843514,1.4270515617628403,-0.5404077154549791
1687102567.4804912,0.055320508778095245,-0.9881913065910339,-0.14289003610610962,-0.015342503786087036,0.012483417987823486,0.01842397451400757,0.06947200745344162,0.020349321886897087,0.008525211364030838,0.3693837994764462,1.4169652708716418,-0.5218165294966219
1687102567.508847,0.05368990823626518,-0.9879913330078125,-0.14488016068935394,0.0030270181596279144,-0.021194279193878174,0.0007302910089492798,-0.1727382242679596,-0.056681904941797256,0.016626812517642975,0.35489130507831596,1.4156655457429983,-0.5083399591127136
1687102567.594853,0.05334705486893654,-0.9864746928215027,-0.15498869121074677,-0.006929852068424225,-0.007314801216125488,0.031071975827217102,-0.05334046483039856,-0.08129672706127167,0.0022440790198743343,0.3314981832389463,1.4061398295610674,-0.48745915844861765
1687102567.617207,0.05404328182339668,-0.9872276186943054,-0.14986923336982727,0.009097576141357422,0.02526789903640747,-0.04306298494338989,0.01014290563762188,-0.10135558992624283,-0.05063597857952118,0.3460891980269656,1.4107984325834106,-0.5057632147437594
1687102567.660392,0.05811617523431778,-0.9875231385231018,-0.14635728299617767,-0.01949620246887207,0.022145390510559082,0.0011240243911743164,0.13050873577594757,-0.06706270575523376,-0.12561175227165222,0.3779903036256463,1.4126639882752745,-0.5426295117625637
1687102567.726336,0.06319185346364975,-0.9872144460678101,-0.14633598923683167,-0.0013937726616859436,-0.01157999038696289,0.016269996762275696,0.06570576876401901,-0.05501896142959595,-0.11725621670484543,0.40763906772479575,1.4107157330306888,-0.5766581400724234
1687102567.7669358,0.06624908745288849,-0.9869111776351929,-0.14702796936035156,0.006153881549835205,-0.028835773468017578,-0.02680027484893799,-0.18171654641628265,-0.09011143445968628,-0.03196609020233154,0.4233430787508023,1.4088243874676332,-0.5955188637114518
1687102567.808219,0.0668196901679039,-0.9862977266311646,-0.15083633363246918,-0.010850466787815094,0.03703337907791138,0.031161561608314514,0.014870548620820045,0.025425106287002563,-0.021547269076108932,0.4170130047782846,1.4050634324639277,-0.5911610689677045
1687102567.897903,0.06712600588798523,-0.9855960011482239,-0.15522374212741852,0.017758630216121674,-0.021728038787841797,-0.015186533331871033,-0.11805713921785355,-0.017423758283257484,0.02047734521329403,0.40816119157627734,1.4008626906513033,-0.581923773594283
1687102567.919434,0.06572765111923218,-0.9860313534736633,-0.15304185450077057,0.009177736937999725,0.03337949514389038,0.016033068299293518,0.06448337435722351,0.017681920900940895,0.03385167568922043,0.40565490373226903,1.4034564540094694,-0.5793023845266636
1687102567.96029,0.0646122395992279,-0.985970139503479,-0.1539093405008316,0.011376559734344482,-0.006263017654418945,-0.004370212554931641,-0.04279913753271103,-0.026538047939538956,0.014012321829795837,0.3974640463272324,1.4030895731167405,-0.571482966344955
1687102568.010775,0.06444231420755386,-0.9859676957130432,-0.15399639308452606,0.011668533086776733,0.01862156391143799,-0.010615527629852295,-0.007743417751044035,0.005101902410387993,-0.015192435123026371,0.3963236227618653,1.4030747482222614,-0.5713692767234834
1687102568.0623121,0.06399756669998169,-0.9860127568244934,-0.15389254689216614,-0.00010905414819717407,-0.013956546783447266,-0.02045445144176483,-0.013347241096198559,0.005796987563371658,0.03374554589390755,0.3941025335516798,1.403345120734468,-0.5691545279739977
1687102568.10883,0.06253732740879059,-0.9856457710266113,-0.15681590139865875,-0.0011206939816474915,0.0010115504264831543,0.010773912072181702,-0.03232812136411667,0.03719437122344971,0.046032972633838654,0.3794667741597137,1.4011573286992864,-0.5533954694494916
1687102568.233233,0.060820985585451126,-0.9857892394065857,-0.15658996999263763,0.009384691715240479,0.005915641784667969,-0.03278696537017822,0.013602884486317635,0.04426133260130882,0.041527438908815384,0.37047455017065706,1.4020091032630704,-0.5420181399794057
1687102568.2514238,0.058434851467609406,-0.9859707355499268,-0.15635521709918976,-0.0032132863998413086,-0.02164328098297119,-0.001512289047241211,-0.08922576159238815,0.029631145298480988,0.07271485030651093,0.35765800947788917,1.403093097954701,-0.5267313679789201
1687102568.2644901,0.054150477051734924,-0.9854461550712585,-0.1611318439245224,0.011553850024938583,-0.005566298961639404,0.011183634400367737,-0.08140991628170013,0.010295222513377666,0.12389135360717773,0.3242053829658066,1.399978864279637,-0.49156921149212346
1687102568.315724,0.04381733760237694,-0.9853944182395935,-0.1645529717206955,0.043188270181417465,-0.018664300441741943,-0.08445529639720917,-0.1485316902399063,-0.19996857643127441,0.22693851590156555,0.2602423303164184,1.3996749278282152,-0.4317353000653396
1687102568.3985062,0.03372818976640701,-0.9845134019851685,-0.17203332483768463,-0.013708654791116714,0.04536563158035278,0.08032788336277008,0.06172753497958183,-0.06803911179304123,0.12959949672222137,0.1936005140174119,1.394576447552724,-0.37326909501864974
1687102568.417345,0.027247630059719086,-0.9868729114532471,-0.15918277204036713,0.06697535514831543,0.0776171088218689,-0.03373418748378754,0.25311294198036194,-0.1536884754896164,0.0810546725988388,0.16952899822718845,1.408587108410794,-0.353089913857649
1687102568.465932,0.019439974799752235,-0.9871007204055786,-0.15891484916210175,0.011443821713328362,-0.03410881757736206,0.04541988670825958,-0.09148145467042923,-0.0914243757724762,0.1621786206960678,0.12172472353241996,1.4100037594788648,-0.31197359969804567
1687102568.527965,0.008059567771852016,-0.9867368936538696,-0.16212673485279083,0.061886727809906006,0.021237194538116455,0.020280972123146057,-0.21113994717597961,-0.04582974314689636,0.314212828874588,0.049670642355461266,1.4077470366462992,-0.24120881595084923
1687102568.565496,-0.02045641653239727,-0.9809834957122803,-0.19300960004329681,0.24915513396263123,-0.20878994464874268,0.022690892219543457,-1.1781643629074097,-0.3833634853363037,0.8418241143226624,-0.10559232424543853,1.3754654048136303,-0.09121422920306735
1687102568.60854,-0.09650087356567383,-0.967918872833252,-0.23199276626110077,0.32838869094848633,-0.16332197189331055,-0.2364368736743927,-0.09473370760679245,-0.8865960836410522,2.3133602142333984,-0.39419312391505484,1.3168115435094916,0.17216159587856764
1687102568.685329,-0.2658257484436035,-0.9413135051727295,-0.20800285041332245,0.5970941185951233,-0.5738687515258789,-0.5588123798370361,-0.25550103187561035,-1.833233118057251,4.076667308807373,-0.9068311041491245,1.2265009490286696,0.635441272385285
1687102568.718106,-0.4976203739643097,-0.839825451374054,-0.21694989502429962,0.8673408031463623,-0.4137451648712158,-0.12667813897132874,-1.4230401515960693,-2.5956742763519287,4.99044942855835,-1.1596668358957245,0.9969616416323485,0.7881860795525604
1687102568.770102,-0.7198275327682495,-0.6687889695167542,-0.18592940270900726,0.8724764585494995,-0.07130807638168335,0.1716165989637375,-1.5398775339126587,-2.823817729949951,5.128174304962158,-1.3180239549096502,0.7325786418187147,0.8124289819138936
1687102568.818717,-0.8872621655464172,-0.4485277533531189,-0.10764962434768677,1.0018253326416016,0.07593873143196106,0.16894406080245972,-1.3702799081802368,-3.1359524726867676,5.094459533691406,-1.4500585934824386,0.46511743000164685,0.7779296255147131
1687102568.859888,-0.9781810641288757,-0.2064262330532074,0.023445334285497665,0.7697767019271851,0.11160814762115479,0.1133648157119751,0.13240782916545868,-2.908020496368408,4.981123447418213,-1.5947600353624403,0.20792110428316313,0.7646543146384276
1687102568.9333282,-0.9846665263175964,0.026060109958052635,0.1724889576435089,0.7727068066596985,0.2098407745361328,0.11507797241210938,-0.13521641492843628,-3.09456205368042,4.531158924102783,-1.744211780365738,-0.026063059650281283,0.7318888774178223
1687102568.978427,-0.9226081967353821,0.23060964047908783,0.30921369791030884,0.5737160444259644,0.404613733291626,0.21959471702575684,0.5285674333572388,-2.633472204208374,3.8025476932525635,-1.8941825213097618,-0.23270415898527488,0.6972903311207308
1687102569.023036,-0.8195456266403198,0.38429737091064453,0.4250412881374359,0.4221611022949219,0.4041242003440857,0.08577701449394226,0.2943359911441803,-2.6684038639068604,3.131704092025757,-2.049236913573844,-0.39444661457104474,0.6322346909958108
1687102569.0690022,-0.6891985535621643,0.5366379022598267,0.4868519902229309,0.21689331531524658,0.20620566606521606,0.06713342666625977,2.1260015964508057,-2.3288140296936035,3.3963894844055176,-2.185806756939916,-0.5664476521465943,0.6058517012630437
1687102569.139361,-0.5125351548194885,0.6719270944595337,0.5346225500106812,0.2589036822319031,-0.04062533378601074,-0.15705925226211548,0.3333371877670288,-3.027960777282715,3.5968356132507324,-2.377284064473543,-0.7368077428350205,0.5123085260853467
1687102569.17459,-0.2904913127422333,0.7614415884017944,0.5795004963874817,0.3076423108577728,0.12123340368270874,-0.007113099098205566,0.525041937828064,-3.3385961055755615,3.5777454376220703,-2.676922523346632,-0.8655340984880727,0.3237097729710062
1687102569.220243,-0.05579015612602234,0.8155994415283203,0.5759206414222717,0.40874120593070984,0.25515544414520264,0.16034621000289917,0.8648554086685181,-2.933469533920288,3.3946502208709717,-3.045022717761274,-0.9537644278364394,0.05981016339436377
1687102569.312119,0.15872915089130402,0.8257943987846375,0.541172981262207,0.3681262731552124,0.24160349369049072,0.23108941316604614,1.0210533142089844,-2.7331786155700684,3.12204909324646,2.856288626187346,-0.9716093788948342,-0.2290930835435842
1687102569.3194509,0.3447663486003876,0.816215991973877,0.46360260248184204,0.30940842628479004,0.24289649724960327,0.25551342964172363,0.6981218457221985,-2.1336419582366943,2.7721760272979736,2.502156457227305,-0.9548307516592734,-0.5081222321480211
1687102569.359528,0.4824351370334625,0.7756004929542542,0.4070623219013214,0.22679325938224792,0.2167242169380188,0.269924134016037,0.8569524884223938,-1.2347320318222046,2.1986613273620605,2.271660026533894,-0.8876658694448871,-0.6906594512112156
1687102569.4250522,0.5744531750679016,0.7428452968597412,0.34377890825271606,0.09415626525878906,0.17335331439971924,0.20205828547477722,1.3051308393478394,-0.5561255216598511,1.8827552795410156,2.1100720204168653,-0.8373105418989513,-0.8470951313556179
1687102569.493047,0.6527242660522461,0.7014067769050598,0.28632014989852905,0.16706925630569458,0.051812708377838135,0.012370556592941284,0.7865041494369507,-0.6625331044197083,1.986817479133606,1.9841749911508224,-0.7773693005665074,-0.9815119132181551
1687102569.534422,0.7270659804344177,0.650342583656311,0.22006657719612122,0.09761041402816772,0.18660187721252441,0.12531600892543793,2.3431785106658936,-0.09366360306739807,1.9667034149169922,1.8647077983099758,-0.7080353400712589,-1.126189009802713
1687102569.582356,0.7861307263374329,0.5961132049560547,0.1632397174835205,0.1560993790626526,0.06665217876434326,0.10903798043727875,1.2103111743927002,0.023582398891448975,1.7756946086883545,1.7755363166855378,-0.638651411919781,-1.2572356481829108
1687102569.6257281,0.8314886689186096,0.5437109470367432,0.11403843760490417,0.08826524019241333,0.23630303144454956,0.2066248655319214,3.4287543296813965,0.8116618990898132,1.6032164096832275,1.7070956917123252,-0.5748524019814495,-1.4286406636459634
1687102569.717651,0.8735964298248291,0.48033270239830017,0.07816540449857712,0.062011539936065674,0.12452572584152222,0.005101688206195831,1.3768314123153687,0.29991990327835083,1.8582905530929565,1.6600341136833825,-0.5010339985136206,-1.5699643943564658
1687102569.735927,0.9109128713607788,0.4083414375782013,0.059116072952747345,0.026876866817474365,0.41395464539527893,-0.06131351366639137,1.4471646547317505,0.36211681365966797,1.4121582508087158,1.6356030604138136,-0.42063638662897584,-1.6571526188233965
1687102569.761106,0.9307860732078552,0.36195147037506104,0.051264841109514236,-0.0029603242874145508,0.6164420247077942,-0.07705236226320267,1.9980955123901367,0.610551655292511,0.777638852596283,1.625817670880484,-0.37036045366697057,-1.7426079333348063
1687102569.835123,0.9363831877708435,0.34779995679855347,0.04713573679327965,-0.02114570140838623,0.45658236742019653,-0.10337971895933151,1.5433995723724365,0.5416298508644104,0.15053361654281616,1.6210919589252208,-0.35522353237649523,-1.8507705094621767
1687102569.8734899,0.9350990056991577,0.3506542444229126,0.051296480000019073,-0.036753177642822266,0.23517641425132751,-0.029079794883728027,0.5115623474121094,0.37794029712677,-0.16824902594089508,1.6255981386107292,-0.3582696216049027,-1.908970397783962
1687102569.912157,0.9294366240501404,0.36381077766418457,0.061556436121463776,-0.08123111724853516,0.09537190198898315,-0.14357256889343262,-0.1084015816450119,0.1474401354789734,-0.3102746605873108,1.6369295817085985,-0.3723557783764083,-1.9160717599351107
1687102570.0178142,0.9234784841537476,0.3774804472923279,0.06852447241544724,0.050367772579193115,-0.02561289072036743,-0.08991742879152298,-0.06755215674638748,0.0111235985532403,-0.24701067805290222,1.64486315180305,-0.3870739394739987,-1.9066742213552008
1687102570.0366058,0.9203145503997803,0.3851097524166107,0.06864024698734283,0.015873074531555176,-0.1173485517501831,-0.06297934055328369,-0.4561614394187927,-0.2100583165884018,-0.14932860434055328,1.645241954436432,-0.39532675430940706,-1.8872528486232316
1687102570.085009,0.9188308119773865,0.3897251784801483,0.062162939459085464,0.00167083740234375,-0.028336048126220703,-0.04513418674468994,0.04052797332406044,-0.17035387456417084,-0.08384013921022415,1.638347781243424,-0.4003331657923475,-1.8798696916220154
1687102570.1245189,0.9175281524658203,0.3939851224422455,0.05401328578591347,-0.007616221904754639,-0.01739826798439026,0.01608550176024437,0.3545069396495819,-0.016585681587457657,-0.07096182554960251,1.629596727059136,-0.40496339089019684,-1.890996240313931
1687102570.161864,0.9161669611930847,0.3982630968093872,0.0449906587600708,-0.04707235097885132,0.02133825421333313,0.06888555735349655,1.2586109638214111,0.2960593104362488,-0.042352817952632904,1.619864397996095,-0.40962250587226334,-1.9278293878336326
1687102570.235904,0.9125863909721375,0.4067155122756958,0.04205157607793808,0.020000159740447998,-0.039665430784225464,0.02890157327055931,0.09905440360307693,0.17884106934070587,-0.16084563732147217,1.6168433112245528,-0.4188558788196718,-1.9724962414737228
1687102570.2753859,0.9092018604278564,0.4130410850048065,0.052431751042604446,0.04100877046585083,0.002760946750640869,0.06123090535402298,-0.14945873618125916,0.20475763082504272,-0.14667895436286926,1.6284004150524771,-0.42579078935227244,-1.967965679940735
1687102570.320663,0.9059615731239319,0.41887232661247253,0.06147969886660576,0.039961278438568115,0.0040097832679748535,0.027631528675556183,0.23862934112548828,0.22889432311058044,-0.1111653670668602,1.6385537060134654,-0.43220310571942355,-1.9674393491164925
1687102570.375349,0.902172327041626,0.4258715808391571,0.06868988275527954,0.024295449256896973,-0.023070096969604492,-0.004053711891174316,-0.07514961808919907,0.20287121832370758,-0.14432471990585327,1.6467880296547237,-0.43992496891871796,-1.980260705773745
1687102570.427844,0.898795485496521,0.4312617778778076,0.07861105352640152,-0.021506786346435547,0.0028812289237976074,-0.0005166605114936829,0.1037045493721962,0.2266959697008133,-0.14205537736415863,1.6580369963239738,-0.44589081025084426,-1.9776649553074837
1687102570.4798179,0.8934982419013977,0.4401901066303253,0.0888463631272316,-0.008885204792022705,0.03498387336730957,-0.028543703258037567,-0.468250572681427,0.11766313761472702,-0.19187086820602417,1.6699070572647505,-0.4558103802765029,-1.9742509877804773
1687102570.526671,0.8901267051696777,0.4444355070590973,0.10075345635414124,-0.01617974042892456,0.042609721422195435,-0.014922864735126495,-0.04523699730634689,0.13557498157024384,-0.10279465466737747,1.6835066256986428,-0.4605440186439907,-1.955047591684148
1687102570.6176062,0.886389970779419,0.44951435923576355,0.11067777872085571,0.036507368087768555,-0.017248094081878662,-0.015798792243003845,-0.5168039798736572,-0.030513260513544083,-0.16603946685791016,1.6950169466906377,-0.466221613960529,-1.929932630429257
1687102570.636632,0.8836140632629395,0.4545789659023285,0.11217864602804184,0.0044321417808532715,0.02883470058441162,-0.005977630615234375,0.6577927470207214,0.23285457491874695,-0.06893043220043182,1.6970751352085938,-0.4718994462142254,-1.9325571125141323
1687102570.6631122,0.8796543478965759,0.462037593126297,0.11282380670309067,0.035140395164489746,-0.05546724796295166,-0.025619879364967346,-0.02981223352253437,0.09553298354148865,-0.12212640792131424,1.698359129110201,-0.4802913485492775,-1.9470021620371802
