Timestamp,gravityX,gravityY,gravityZ,accelerationX,accelerationY,accelerationZ,rotationRateX,rotationRateY,rotationRateZ,attitudeRoll,attitudePitch,attitudeYaw
1687103373.9251351,0.015480983071029186,0.6199125647544861,-0.7845182418823242,0.0035772621631622314,0.0003572702407836914,0.005694389343261719,-0.01479387003928423,-0.0018088007345795631,0.007076200097799301,0.019730548127676644,-0.668631239857736,0.6669354646168233
1687103373.930931,0.015035690739750862,0.6218776702880859,-0.7829700112342834,0.0015963912010192871,-0.009084701538085938,-0.004612386226654053,-0.03425651788711548,-0.008244884200394154,-0.003641225630417466,0.019201044920507643,-0.6711381541929013,0.6667510683489775
1687103374.018784,0.014796141535043716,0.6221829652786255,-0.7827320098876953,-0.004328608512878418,0.007379412651062012,-0.0028667449951171875,-0.03697960078716278,-0.010487310588359833,-0.0044930377043783665,0.01890095067604608,-0.6715280559645416,0.666412802637198
1687103374.0335488,0.014627913944423199,0.6226194500923157,-0.7823880314826965,-0.0017495155334472656,0.013000667095184326,0.0013211369514465332,0.014684926718473434,0.004840557463467121,-0.008411480113863945,0.018694317017389547,-0.6720856916904966,0.6661403367077963
1687103374.044354,0.014229060150682926,0.6231815218925476,-0.7819477915763855,0.005958317779004574,-0.003278017044067383,0.006251990795135498,-0.025219080969691277,-0.0002473004860803485,-0.0003971625119447708,0.018194936145439503,-0.6728041919375414,0.6655550406421051
1687103374.1308799,0.01463653426617384,0.6229736804962158,-0.7821059226989746,0.0019497573375701904,0.00898432731628418,0.01422262191772461,0.034902311861515045,0.003517166245728731,-0.005632404237985611,0.018712076889405516,-0.6725384258567463,0.6656192984854519
1687103374.144059,0.01431232038885355,0.6229276657104492,-0.782148540019989,0.0017246603965759277,-0.007113456726074219,0.004316508769989014,-0.0014168120687827468,0.011077148839831352,-0.006807457655668259,0.018296682218090138,-0.672479658403024,0.6649537424368793
1687103374.255414,0.014495877549052238,0.6224592924118042,-0.7825179696083069,0.0003051459789276123,0.0146409273147583,0.005326807498931885,0.031164035201072693,0.00747631024569273,-0.004988452419638634,0.01852253880904809,-0.6718810320258283,0.6645764829972156
1687103374.26016,0.014485670253634453,0.6220635175704956,-0.7828327417373657,-0.004201233386993408,0.0022650957107543945,-0.013752341270446777,-0.0221649669110775,-0.000445794896222651,0.004311838187277317,0.018502058401201397,-0.6713754769054775,0.6644145606386842
1687103374.373647,0.014544384554028511,0.6232345700263977,-0.7818997502326965,0.004407018423080444,0.01006627082824707,0.0004361271858215332,-0.004577984567731619,0.0055070361122488976,-0.011208131909370422,0.018599197461694063,-0.6728719986776499,0.6644204814843608
1687103374.380275,0.01433507725596428,0.6227112412452698,-0.7823204398155212,0.002068101428449154,-0.009246885776519775,-0.00546032190322876,0.01078046578913927,0.00753689743578434,0.0008943374268710613,0.018321742588631063,-0.6722029735326726,0.6643007698093593
1687103374.4687839,0.014698249287903309,0.6230865120887756,-0.782014787197113,0.016063451766967773,-0.009240686893463135,0.0058460235595703125,-0.028229784220457077,-0.004496351815760136,0.0005089114420115948,0.018793147226452516,-0.6726827423018903,0.6645065116316925
1687103374.483676,0.014162802137434483,0.6231521964073181,-0.781972348690033,-0.005205869674682617,-0.0023025870323181152,-0.001780092716217041,0.007185996975749731,-0.000825961004011333,-0.0006497632712125778,0.018109661269513765,-0.6727666997955218,0.6642755794133934
1687103374.494034,0.014248693361878395,0.6231831908226013,-0.7819461226463318,0.007632404565811157,-0.010161280632019043,0.009042680263519287,-0.014696397818624973,0.0007171854376792908,-0.00318209663964808,0.018220075139527406,-0.6728062832930082,0.6643661430970949
1687103374.5817451,0.01385938934981823,0.6240930557250977,-0.7812270522117615,0.002482771873474121,-0.0027856826782226562,-0.00455474853515625,-0.018513506278395653,-0.00794068444520235,-0.007914867252111435,0.017738677883026466,-0.6739702604666876,0.6640500932558001
1687103374.5946321,0.013674629852175713,0.6236891746520996,-0.7815528512001038,0.0008822381496429443,-0.0016646385192871094,-0.0013756752014160156,-0.01590227708220482,-0.006117906421422958,-0.0063616447150707245,0.01749495857714582,-0.6734534942595314,0.6637646025710096
1687103374.7086148,0.01374773122370243,0.6246383190155029,-0.7807931900024414,0.0022282302379608154,0.0005600452423095703,0.016251564025878906,0.009643295779824257,0.004906892776489258,0.004443665035068989,0.017605573111433438,-0.6746683006445435,0.6640450575931106
1687103374.7137861,0.013873961754143238,0.6228316426277161,-0.7822328805923462,0.006816953420639038,-0.011320352554321289,0.009680390357971191,0.06939157843589783,0.006026574410498142,0.0038199531845748425,0.017734496815375013,-0.6723568545262386,0.6640241216313136
1687103374.828261,0.01401481218636036,0.6229974627494812,-0.7820983529090881,0.00367012619972229,-0.010341823101043701,0.006570398807525635,-0.09150382876396179,0.00642462819814682,-0.0009724055416882038,0.01791758343483192,-0.672568849884511,0.6639558974904382
1687103374.833137,0.014392712153494358,0.6237083077430725,-0.781524658203125,-0.003345341421663761,0.01867145299911499,0.006713926792144775,0.10570644587278366,0.014892859384417534,-0.0003052838146686554,0.018414116039331237,-0.6734779384522749,0.6640232276208834
1687103374.917496,0.014648848213255405,0.6207307577133179,-0.7838869094848633,-0.004913747310638428,-0.013598799705505371,-0.0009336471557617188,-0.03210974484682083,0.0011637751013040543,-0.002837550360709429,0.01868527607704698,-0.6696744541017636,0.6638402183509193
1687103374.93347,0.01447991468012333,0.6216832995414734,-0.783134937286377,0.005966871976852417,0.012548327445983887,0.004234790802001953,0.016609326004981995,0.004498652182519436,-0.0047580222599208355,0.018487574950826573,-0.6708899302430231,0.6632439271452769
1687103374.943194,0.014569601975381374,0.6189592480659485,-0.7852879762649536,-0.0016911625862121582,-0.0018938183784484863,-0.008291125297546387,0.10557222366333008,0.00515221431851387,-0.005669289734214544,0.018551068103784558,-0.6674169456774339,0.6630321229888274
1687103375.034714,0.01472905557602644,0.6196101307868958,-0.7847715616226196,-0.003468066453933716,-0.06251174211502075,0.010830521583557129,-0.06786853820085526,-0.04601574316620827,0.03592735528945923,0.018766386614946482,-0.6682459364146679,0.6647670885078281
1687103375.039736,0.01424260064959526,0.6180158257484436,-0.7860366106033325,-0.0032867789268493652,0.023845136165618896,0.0060073137283325195,0.15570969879627228,0.00019447365775704384,0.01829623058438301,0.018117530243346808,-0.6662163618513873,0.665265026751107
1687103375.154397,0.013201613910496235,0.6130253672599792,-0.7899529337882996,0.011319278739392757,-0.031024694442749023,0.01381462812423706,0.09833481907844543,-0.04651639610528946,-0.028988726437091827,0.0167103441889042,-0.6598841884988883,0.6654877235443604
1687103375.168716,0.01108222920447588,0.6090140342712402,-0.7930819988250732,-0.011585772968828678,0.02923053503036499,-0.0015193819999694824,0.147366002202034,0.002881114836782217,-0.015930581837892532,0.013972713172924131,-0.6548169262964824,0.6631818108356377
1687103375.274261,0.011968125589191914,0.6067237257957458,-0.7948226928710938,4.056096076965332e-05,-0.011951327323913574,-0.00937652587890625,0.04570542648434639,0.009875508025288582,0.011242048814892769,0.01505646661826627,-0.6519325169057909,0.6644746572456436
1687103375.280576,0.011900252662599087,0.6075068712234497,-0.79422527551651,-0.0059645771980285645,-0.019127964973449707,-0.004618048667907715,-0.06501256674528122,0.009671708568930626,-0.012125257402658463,0.014982351067332698,-0.6529180845196696,0.6635046883640844
1687103375.3663568,0.012603908777236938,0.6088234186172485,-0.7932056784629822,-1.5408731997013092e-05,0.0018637776374816895,0.0036854147911071777,0.0052155242301523685,0.029038971289992332,0.011226803995668888,0.015888499556836938,-0.654576626660366,0.6640102084332016
1687103375.382145,0.013558324426412582,0.6086364984512329,-0.7933333516120911,0.004614889621734619,-0.02068483829498291,0.0020583271980285645,-0.04281538352370262,0.0012692587915807962,0.007785599213093519,0.017088660613370315,-0.6543410425234989,0.6643705186407819
1687103375.3927898,0.013700272887945175,0.6086876392364502,-0.7932916879653931,0.0017263591289520264,0.029618024826049805,0.009707093238830566,0.03254328668117523,0.0034586209803819656,-0.006586748640984297,0.01726844144865949,-0.6544054772297553,0.6645580194761417
1687103375.483204,0.013933765701949596,0.6088585257530212,-0.7931564450263977,-0.0037561655044555664,-0.012392401695251465,-0.0051070451736450195,0.010232653468847275,0.009323101490736008,0.003983404021710157,0.017565679850077075,-0.6546208293542829,0.6644593966259135
1687103375.495702,0.014326702803373337,0.6088266372680664,-0.7931739091873169,0.002000182867050171,-0.004456520080566406,-0.0031822919845581055,0.0016599380178377032,0.004229206591844559,-0.004674731753766537,0.018060534941361433,-0.6545806975259361,0.6643350862163891
1687103375.607174,0.013806131668388844,0.6090209484100342,-0.7930339574813843,-0.0021636784076690674,-0.0026366710662841797,-0.007472634315490723,-0.012833517044782639,0.00423499895259738,-0.011881978251039982,0.01740749747723822,-0.654825618496064,0.6636598693688817
1687103375.611959,0.014289225451648235,0.6096346974372864,-0.792553722858429,0.009331375360488892,-0.009186029434204102,0.012661755084991455,-0.06152915209531784,-0.00014798692427575588,0.0014400854706764221,0.01802739353120562,-0.6555996318141449,0.6637165640326937
1687103375.725147,0.014726430177688599,0.6112936735153198,-0.7912668585777283,-0.004686146974563599,0.012745022773742676,0.008994460105895996,-0.023528771474957466,0.025117177516222,0.013847553171217442,0.01860905812352257,-0.6576942319001714,0.6638662128219543
1687103375.7311811,0.015851961448788643,0.6144841313362122,-0.7887699007987976,-0.0007152259349822998,-0.014447450637817383,-0.0002925395965576172,-0.1326557844877243,0.04189429432153702,-0.010313442908227444,0.020094361693656082,-0.6617319138954063,0.663931287171241
1687103375.816225,0.017569847404956818,0.6188855767250061,-0.7852846384048462,-0.00955897569656372,-0.0017133355140686035,-0.007348418235778809,-0.02938186749815941,0.02926376461982727,0.028872709721326828,0.02237012672510563,-0.6673231584291278,0.6645097053121912
1687103375.831304,0.01731645129621029,0.6171882152557373,-0.7866250276565552,0.008776068687438965,0.02456599473953247,0.008213162422180176,0.048937439918518066,-0.01115514151751995,-0.03361736610531807,0.022010047763353944,-0.6651640190094384,0.664034965077524
1687103375.841483,0.0165554266422987,0.6156687140464783,-0.78783118724823,-0.006103157997131348,0.010552048683166504,0.0062149763107299805,0.07167524099349976,-0.011419150978326797,0.012517104856669903,0.021010834129041756,-0.6632342768642894,0.6634271150516311
1687103375.899325,0.01646105758845806,0.6145105361938477,-0.788736879825592,0.004336684942245483,0.0035619735717773438,0.009409487247467041,0.011759710498154163,0.0046256850473582745,-0.014020230621099472,0.020867120605930704,-0.6617653718747567,0.6634701222995188
1687103375.929535,0.016222579404711723,0.6159343123435974,-0.7876304984092712,-0.0011621713638305664,-0.014112353324890137,-0.0032325387001037598,0.010760492645204067,-0.003209157381206751,0.006338304840028286,0.02059377731075919,-0.6635713845983896,0.663442701045029
1687103375.991698,0.016415398567914963,0.6150556206703186,-0.7883128523826599,0.007357805967330933,0.0074419379234313965,0.003980517387390137,-0.01597018912434578,-0.0020626222249120474,-0.015045680105686188,0.020820449161982012,-0.6624564996532101,0.6630890882670811
1687103376.020181,0.01567269116640091,0.6144723892211914,-0.7887826561927795,-0.00828746147453785,0.008116722106933594,-0.0014699697494506836,-0.024261940270662308,-0.008784218691289425,-0.005635267589241266,0.019866851964977054,-0.6617170001424567,0.6620026518062005
1687103376.0831451,0.016359345987439156,0.6178413033485413,-0.7861326336860657,-0.00027656741440296173,0.020037055015563965,-0.0007631182670593262,-0.19012095034122467,0.036138202995061874,-0.01289757527410984,0.020806902435188575,-0.6659943740030942,0.6619785570854545
1687103376.1095319,0.017445700243115425,0.6294092535972595,-0.7768781185150146,-0.01671326346695423,-0.02337592840194702,-0.021919429302215576,-0.29219725728034973,0.029103241860866547,-0.0007630144245922565,0.02245238710345336,-0.6807927387444739,0.661933236779557
1687103376.137389,0.018118565902113914,0.6371712684631348,-0.7705093026161194,0.016534149646759033,-0.015589237213134766,-0.004057347774505615,-0.19545020163059235,-0.011835025623440742,0.014486579224467278,0.02351071865497946,-0.6908224451330393,0.6631051521063721
1687103376.206038,0.017210230231285095,0.64108806848526,-0.7672743797302246,0.005235433578491211,0.01610797643661499,0.00966024398803711,-0.0075442129746079445,-0.011228933930397034,-0.0017875991761684418,0.022426587016085155,-0.695915159040213,0.6628225481585963
1687103376.268136,0.016816049814224243,0.6398816704750061,-0.7682894468307495,0.005278676748275757,0.0044969916343688965,0.011880755424499512,0.02742096222937107,-0.007323030848056078,-0.01096398662775755,0.021884154005280165,-0.6943442919103902,0.6625947416497673
1687103376.327736,0.017024580389261246,0.6387894153594971,-0.7691932320594788,-0.007396310567855835,0.01247096061706543,0.00764232873916626,0.0673966035246849,0.010641477070748806,0.01981489732861519,0.022129422225105395,-0.692923763841778,0.6625251323526051
1687103376.444121,0.017358852550387383,0.6374084949493408,-0.7703304886817932,9.721517562866211e-05,0.0023162364959716797,0.00015842914581298828,0.03573375195264816,-0.005637605208903551,0.0008604489266872406,0.022530478272680576,-0.6911302589500329,0.6629518123579657
1687103376.4498281,0.017048869282007217,0.6367447376251221,-0.7708861827850342,-0.001088172197341919,0.00610804557800293,-0.00566411018371582,0.035981159657239914,0.0023650829680263996,-0.0012283353134989738,0.022112331662109772,-0.6902691465412909,0.6627521164263992
1687103376.5647202,0.01720503717660904,0.6367473006248474,-0.7708805799484253,0.0038826148957014084,-0.017866075038909912,-0.00017648935317993164,0.0044208369217813015,-0.0018413577927276492,-0.008113338612020016,0.022314975985002868,-0.6902724560926538,0.6628668265559847
1687103376.5793939,0.017139557749032974,0.6374832987785339,-0.7702735066413879,-0.006382109597325325,-0.0070664286613464355,0.002771735191345215,-0.06019756942987442,0.002244441770017147,0.0066769919358193874,0.0222475907367094,-0.6912273318001696,0.6625460922072192
1687103376.680314,0.0173051580786705,0.6384434700012207,-0.76947420835495,0.0007764995098114014,0.013473033905029297,0.005527675151824951,0.04607667028903961,0.0022482811473309994,-0.00021440349519252777,0.022485799033194937,-0.6924742070646073,0.6629914548457319
1687103376.694495,0.016791118308901787,0.6388596892356873,-0.7691400051116943,-0.0010593235492706299,-0.013432443141937256,-0.011514902114868164,-0.03365570679306984,-0.006016750354319811,0.0045989942736923695,0.02182756193551459,-0.6930151460743864,0.6627929437026906
1687103376.809212,0.01699567213654518,0.6392927169799805,-0.7687757015228271,-0.002087831497192383,0.007756233215332031,0.0009686946868896484,-0.014337137341499329,-0.007698114961385727,-0.0049863215535879135,0.02210385213424,-0.6935781208615158,0.6630743533798422
1687103376.814014,0.01669338345527649,0.6390320062637329,-0.7689989805221558,-0.0025942623615264893,0.01022946834564209,-0.0037366151809692383,0.007982549257576466,0.0015945860650390387,-0.004121460020542145,0.02170453045726133,-0.6932390992307077,0.66302176581562
1687103376.8288898,0.016874000430107117,0.6400126218795776,-0.7681791186332703,0.004976600408554077,-0.0032175779342651367,-0.0020387768745422363,-0.00043596987961791456,0.00793222151696682,0.005996487569063902,0.02196270051723279,-0.6945146568191685,0.6632945612023653
1687103376.929574,0.01720958575606346,0.6392061114311218,-0.7688429355621338,0.0010094046592712402,-0.0013276934623718262,0.003263711929321289,0.01952282525599003,0.0007645452860742807,-0.00020108744502067566,0.022380010655699015,-0.6934655314510477,0.6636406400068983
1687103376.9349508,0.016981353983283043,0.6393871307373047,-0.7686975002288818,-0.003095865249633789,-0.0010967254638671875,-0.00017762184143066406,-0.0015390511834993958,0.01135469414293766,0.003951313439756632,0.02208748390543005,-0.6937008949974176,0.6633505777040403
1687103376.980551,0.017057256773114204,0.6388700008392334,-0.7691255211830139,0.001146465539932251,0.008651971817016602,0.0007692575454711914,0.016423171386122704,-0.0027294554747641087,-0.0038944256957620382,0.02217383189022377,-0.6930285463070369,0.663206513461779
1687103377.044145,0.01713884063065052,0.6393776535987854,-0.7687018513679504,-0.002414137125015259,0.0023612380027770996,-0.001806020736694336,-0.00476493826135993,0.00419138977304101,0.0019133957102894783,0.022292131753709678,-0.6936885813284164,0.6633914001426987
1687103377.049251,0.01707916334271431,0.6394432187080383,-0.7686485648155212,0.001002490520477295,-0.0021598339080810547,-0.0026984214782714844,-0.0507982112467289,-0.012037070468068123,0.0008245627395808697,0.02221607408582621,-0.6937738538251622,0.6635083159023999
1687103377.100803,0.01725824549794197,0.6392098665237427,-0.7688387036323547,-0.0012823045253753662,0.015727877616882324,0.006128132343292236,0.032851945608854294,0.00769413448870182,0.008153649047017097,0.022443391833051322,-0.6934704078070564,0.6637592062939172
1687103377.16202,0.017297882586717606,0.638721227645874,-0.7692437767982483,0.0026453733444213867,-0.009021520614624023,0.005358278751373291,-0.0054264673963189125,-0.004293374717235565,0.006698230747133493,0.022483076746549566,-0.6928351937393951,0.6640031807835097
1687103377.224268,0.017113380134105682,0.6393582224845886,-0.7687186002731323,0.004279464483261108,0.0016940832138061523,0.006877779960632324,-0.0017108250176534057,-0.012706722132861614,0.000672629103064537,0.02225854153096493,-0.6936632857241356,0.6640758013170287
1687103377.282782,0.01707622967660427,0.6391918659210205,-0.7688577175140381,-0.0016190707683563232,0.0008685588836669922,-0.002275705337524414,-0.001571808010339737,0.007207575254142284,0.009780840948224068,0.022206218562247457,-0.6934469883252753,0.6641173715019902
1687103377.347108,0.019876908510923386,0.6368499398231506,-0.770731508731842,-0.021128147840499878,0.01314389705657959,-0.004674434661865234,0.21428538858890533,0.03163262456655502,0.0025494256988167763,0.025783950758360104,-0.6904056279551359,0.6650666533459505
1687103377.361576,0.016450101509690285,0.627605140209198,-0.778357982635498,0.019652187824249268,-0.0692097544670105,0.005576610565185547,0.3739227056503296,-0.1242462545633316,-0.05946354568004608,0.021131217989971245,-0.6784732877450154,0.6660919016311458
1687103377.399821,0.012148880399763584,0.6209313273429871,-0.7837707996368408,-0.0046720802783966064,-0.08464592695236206,-0.03809809684753418,0.05092762038111687,-0.01867302507162094,0.019198309630155563,0.015499310730560408,-0.6699302427329554,0.6624045693391244
1687103377.4298692,0.01120893657207489,0.6151559352874756,-0.7883257865905762,0.010016024112701416,0.016130685806274414,0.007747173309326172,0.18060225248336792,-0.02597101777791977,-0.011023375205695629,0.014217702274525458,-0.6625837573391337,0.6638751765988041
1687103377.489789,0.010545163415372372,0.6120776534080505,-0.7907273769378662,-0.0016340315341949463,-0.03187739849090576,0.00024580955505371094,-0.03299950435757637,-0.0061881691217422485,0.015858838334679604,0.013335239734661898,-0.6586851850325786,0.6628914998298314
1687103377.520021,0.010969364084303379,0.6116210222244263,-0.791074812412262,-0.004865854978561401,0.026699960231781006,0.007337689399719238,0.10209253430366516,0.016248296946287155,-0.0021237567998468876,0.013865516980825979,-0.6581078892046736,0.6636283041584657
1687103377.581425,0.010933583602309227,0.6091359257698059,-0.7929904460906982,0.002372085116803646,-0.011174559593200684,-0.0038692355155944824,-0.03985421359539032,-0.0016965706599876285,0.012055045925080776,0.013786913712808472,-0.6549706226524488,0.6633589405971904
1687103377.610771,0.011645637452602386,0.6109733581542969,-0.791565477848053,-0.0038636624813079834,0.001407623291015625,-0.0032648444175720215,0.007866967469453812,0.013001060113310814,0.003274870105087757,0.014711098286411683,-0.6572895473383619,0.66399487683777
1687103377.67456,0.011880519799888134,0.6099322438240051,-0.7923644781112671,0.0029662838205695152,-0.005638420581817627,-0.006249964237213135,-0.02933153323829174,-0.016452213749289513,-0.010484750382602215,0.014992632743031198,-0.6559750554503105,0.6638942730650199
1687103377.795364,0.012199735268950462,0.6102828979492188,-0.792089581489563,-0.005058647133409977,0.008918702602386475,0.011556804180145264,0.01522927638143301,0.023913338780403137,0.022512149065732956,0.015400745574432639,-0.6564176625070663,0.664014139974683
1687103377.81762,0.012845352292060852,0.6091464161872864,-0.7929537892341614,0.010836273431777954,-0.010772943496704102,0.006759941577911377,0.021424055099487305,0.004400492645800114,-0.015148278325796127,0.016197954209544875,-0.654983797375796,0.6641098292452616
1687103377.91503,0.012554376386106014,0.6092461943626404,-0.7928817868232727,-0.002376765012741089,-0.002098977565765381,0.002735912799835205,-0.014023417606949806,0.015334809198975563,0.006171656772494316,0.01583253421064985,-0.6551096246019678,0.66310111694334
1687103377.9301949,0.013469262979924679,0.6082221865653992,-0.7936525344848633,-0.0030017495155334473,0.01368027925491333,-0.0021543502807617188,0.05358758568763733,0.0046577537432312965,-0.0002827798016369343,0.016969604851127827,-0.6538189544325104,0.6635954530186909
1687103377.970191,0.01330999843776226,0.6082183122634888,-0.7936581969261169,-0.0017591118812561035,-0.01680290699005127,-0.008175909519195557,-0.04544365778565407,-0.007675722241401672,-0.007554341573268175,0.016768869271569325,-0.6538140825535752,0.6632855449588488
1687103378.029587,0.013271354138851166,0.6089286208152771,-0.7931140065193176,-0.0017814934253692627,0.009021878242492676,0.010551810264587402,0.025925064459443092,0.0071287015452980995,-0.003795289434492588,0.01673166203931626,-0.6547092221618208,0.6632247700304355
1687103378.0934958,0.013473577797412872,0.610251247882843,-0.7920933961868286,0.0019988417625427246,-0.017126858234405518,-0.005269885063171387,-0.10109920054674149,0.006942613050341606,0.00021536415442824364,0.017008447779201883,-0.6563777248859398,0.6631992719960828
1687103378.158385,0.014507033862173557,0.6115859746932983,-0.7910449504852295,-0.0032002925872802734,0.01606905460357666,0.019285917282104492,0.016083085909485817,0.011225774884223938,0.014324258081614971,0.018337020045880368,-0.6580636260622744,0.66388913804445
1687103378.1633348,0.015163700096309185,0.6144652366638184,-0.7887981534004211,-0.00030162930488586426,-0.02452993392944336,-0.018727481365203857,-0.159330815076828,0.038185443729162216,-0.004831725265830755,0.01922143496401987,-0.6617079766803118,0.6639845632856326
1687103378.21153,0.016275135800242424,0.6160048842430115,-0.7875741720199585,0.0042937081307172775,0.02465057373046875,0.015189588069915771,-0.0026455947663635015,-0.006914590951055288,-0.0038573413621634245,0.020661952969553275,-0.6636609787730636,0.6640975009634885
1687103378.241325,0.01606520637869835,0.6166322827339172,-0.7870874404907227,0.0074028074741363525,-0.020776569843292236,-0.016928672790527344,-0.024798832833766937,-0.0003540267935022712,0.0018906923942267895,0.020408120912385717,-0.6644576810033865,0.6640842635639183
1687103378.3036919,0.01607392728328705,0.615472674369812,-0.7879943251609802,0.003365755081176758,-0.0038241147994995117,0.00286865234375,0.0697937160730362,-0.006106743589043617,-0.010575631633400917,0.020395703047093768,-0.6629855356923368,0.6641042446579283
1687103378.330199,0.016233954578638077,0.6151813864707947,-0.7882184386253357,0.004090756177902222,-0.019676625728607178,0.007838189601898193,-0.04511156305670738,0.007187201641499996,0.00790024921298027,0.02059284332688463,-0.6626160259699239,0.6643629121049075
1687103378.393703,0.016819056123495102,0.6162947416305542,-0.787335991859436,-0.0010262131690979004,0.0112992525100708,0.008084893226623535,-0.01621440052986145,0.006560849025845528,0.007136520929634571,0.02135873227744585,-0.6640289793988366,0.6647869038290369
1687103378.4202309,0.017603835090994835,0.6187493801116943,-0.7853912115097046,-0.002161949872970581,-0.009908437728881836,-0.00933229923248291,-0.10512775927782059,0.015282213687896729,0.009224571287631989,0.02241034544975696,-0.6671497709672853,0.6653089547778037
1687103378.450103,0.018056288361549377,0.6227779984474182,-0.782190203666687,5.587749183177948e-05,0.009088456630706787,-0.003667891025543213,-0.11474496871232986,0.030458636581897736,0.00457349419593811,0.023080170235128844,-0.6722883030409577,0.6652623554835427
1687103378.546799,0.019053731113672256,0.6260008811950684,-0.7795895338058472,0.002644270658493042,-0.00023794174194335938,-0.007489323616027832,-0.09201488643884659,0.013998502865433693,0.00755110802128911,0.02443585794191492,-0.6764143612952326,0.6663220395906635
1687103378.664136,0.020444437861442566,0.6304075717926025,-0.7759950757026672,-0.009198697283864021,-0.0054228901863098145,-0.004354655742645264,-0.05197213217616081,0.021119019016623497,-0.039391033351421356,0.026339999767616903,-0.682078134493678,0.6661381747117419
1687103378.67769,0.021870320662856102,0.6326006054878235,-0.774169385433197,-0.0018813014030456543,0.012495219707489014,0.015334546566009521,-0.05459614470601082,-0.015715893357992172,0.02347574569284916,0.028242535196355067,-0.6849065068105364,0.6660576716217024
1687103378.780521,0.020243307575583458,0.636488139629364,-0.771020770072937,0.016652433201670647,0.0014055371284484863,0.014169633388519287,-0.1575038880109787,0.007855012081563473,-0.0358281247317791,0.026249174019368725,-0.6899363756008908,0.6642841970049104
1687103378.786464,0.01984708569943905,0.6422597765922546,-0.766230046749115,0.001026928424835205,0.020734548568725586,0.00943988561630249,-0.05548510700464249,-0.004554630722850561,0.006796767469495535,0.025896463576745837,-0.6974428952365277,0.6638884913801362
1687103378.8779979,0.020127257332205772,0.6474044322967529,-0.7618808150291443,-0.0035409629344940186,-0.00554347038269043,-0.007574141025543213,-0.33018672466278076,0.009547561407089233,0.001734764315187931,0.026411713581202652,-0.7041738815552221,0.6647914469996418
1687103378.8841329,0.018629424273967743,0.6561198830604553,-0.7544267177581787,0.00532686710357666,0.023659229278564453,-0.004621744155883789,0.08389595150947571,0.0009093547705560923,-0.05115128308534622,0.024688466832494156,-0.7156656121466134,0.6642359319221289
1687103378.9000401,0.01740896888077259,0.6544440388679504,-0.7559100389480591,-0.0019670724868774414,-0.04081183671951294,-0.016749262809753418,-0.052289046347141266,-0.0392705537378788,-0.00842699222266674,0.02302640579742988,-0.7134470896743434,0.663331656397172
1687103378.958198,0.016526557505130768,0.6559782028198242,-0.7545989155769348,2.9206275939941406e-05,0.010998725891113281,0.0032561421394348145,-0.02199212834239006,-0.002004853915423155,0.0012730387970805168,0.02189761435637667,-0.7154778881966485,0.6632200781072057
1687103378.9916248,0.016582194715738297,0.6558268070220947,-0.7547292709350586,0.002018272876739502,0.008479833602905273,0.008605003356933594,0.02958557941019535,-0.004487363621592522,0.010140299797058105,0.021967515596282836,-0.7152773651611551,0.6635932736181072
1687103379.051875,0.01668834686279297,0.6558282971382141,-0.7547256350517273,-0.0026960372924804688,-0.0013330578804016113,0.003108203411102295,-0.0012021613074466586,0.006961432285606861,0.003332860767841339,0.022108205173115302,-0.7152793358968319,0.6638330905983547
1687103379.080939,0.016812467947602272,0.6558278203010559,-0.7547232508659363,-0.003140600398182869,0.013270080089569092,0.00492173433303833,-0.0008269218960776925,-0.005478037521243095,0.0057131280191242695,0.022272650495122507,-0.7152786731966625,0.6637900910694597
1687103379.1438131,0.016597745940089226,0.6554584503173828,-0.7550488710403442,-0.000255584716796875,0.013105392456054688,0.004362225532531738,0.024149002507328987,-0.0015159640461206436,-0.009084993042051792,0.02197880643264385,-0.7147895104681642,0.6637547811598438
1687103379.169894,0.016612432897090912,0.655357301235199,-0.7551363110542297,-0.003901869058609009,-0.0012740492820739746,-0.00017368793487548828,-0.009372739121317863,0.005491722375154495,-0.005918694660067558,0.021995703356174703,-0.7146556003966423,0.6635102165872024
1687103379.199726,0.016767527908086777,0.655039370059967,-0.7554087042808533,0.0033740680664777756,0.001378476619720459,0.0017619132995605469,0.010366876609623432,-0.00805839616805315,0.0010378817096352577,0.0221929872389384,-0.714234704531107,0.6637507531854543
1687103379.267315,0.016644272953271866,0.6555783152580261,-0.7549437284469604,0.0010406672954559326,-0.004195868968963623,0.007034182548522949,0.015899594873189926,0.001042091054841876,0.001761262770742178,0.022043466435723393,-0.7149482520462128,0.6637994385352668
1687103379.3289819,0.01661697030067444,0.6555377244949341,-0.7549795508384705,0.0031584203243255615,-0.004567265510559082,0.001973569393157959,-0.004247219767421484,0.001071807462722063,-0.0008870512247085571,0.022006274980197874,-0.7148944674238116,0.6636966020193459
1687103379.387024,0.01641710288822651,0.6563029885292053,-0.7543188333511353,0.001878201961517334,0.0014423727989196777,-0.0006250143051147461,-0.01698911376297474,0.005068013444542885,0.005421045236289501,0.021760708284813943,-0.7159083102366477,0.6635652447694643
1687103379.503209,0.01643063873052597,0.6556558609008789,-0.7548810243606567,0.0005829036235809326,0.013564109802246094,0.0006543397903442383,0.005751884542405605,-0.002315245335921645,-0.009329937398433685,0.02176242874180262,-0.7150509437731339,0.6634544122287711
1687103379.517441,0.01641008071601391,0.6562181115150452,-0.7543928027153015,-0.003012867644429207,0.001206815242767334,5.936622619628906e-05,0.006546838209033012,-0.0035837311297655106,0.0005599106661975384,0.02174927121877885,-0.7157957927768428,0.6633167576117753
1687103379.623272,0.016482502222061157,0.6556832790374756,-0.7548561692237854,-0.0008117258548736572,-0.012143850326538086,0.0012245774269104004,0.021586507558822632,0.012142056599259377,0.00046563521027565,0.0218318191480226,-0.7150872127190776,0.6631464455204984
1687103379.629452,0.01636173203587532,0.6555442810058594,-0.7549794316291809,0.009654520079493523,-0.01299673318862915,0.006612181663513184,0.002449032384902239,-0.0034879459999501705,-0.012096229940652847,0.02166836675865142,-0.7149031655130105,0.662921097038208
1687103379.748009,0.016441959887742996,0.6558628082275391,-0.7547010779380798,0.003974288702011108,0.0056972503662109375,0.007646024227142334,-0.007132754661142826,0.0069056167267262936,-0.003638962283730507,0.02178261130832102,-0.7153250060299796,0.6624195678143785
1687103379.760398,0.016528520733118057,0.6559568643569946,-0.7546173930168152,-0.005374342203140259,0.008777022361755371,-0.0017912983894348145,-0.011837494559586048,0.008804206736385822,-0.0009472384117543697,0.021899678752166828,-0.7154496072414422,0.6622949361307632
1687103379.838087,0.01694243960082531,0.6559372544288635,-0.7546252608299255,0.000696718692779541,0.01937103271484375,-0.0011119842529296875,0.07738825678825378,0.049652859568595886,0.009719055145978928,0.022447688060069484,-0.7154236461391448,0.6621306390667265
1687103379.851767,0.01746317930519581,0.6489080786705017,-0.7606663703918457,0.011406449601054192,0.01668030023574829,0.0062718987464904785,0.20572279393672943,-0.039198119193315506,0.008077681995928288,0.022953706195319914,-0.7061484392248036,0.6621257879615736
1687103379.861577,0.015630831941962242,0.644282877445221,-0.7646275162696838,-0.003927350044250488,0.028171956539154053,0.013300001621246338,0.1690385490655899,-0.014395632781088352,-0.022440213710069656,0.020439566395541665,-0.7000852374857864,0.6608701539776609
1687103379.955519,0.014901256188750267,0.6380336284637451,-0.7698643207550049,-0.0007410943508148193,0.027463197708129883,0.012250185012817383,0.3327038884162903,-0.04891778901219368,-0.0018546441569924355,0.019353274425289876,-0.6919418508808963,0.6602656536915902
1687103379.968703,0.012392258271574974,0.6257479190826416,-0.7799268960952759,0.007901936769485474,0.0294492244720459,0.014851212501525879,0.20845013856887817,-0.03818249702453613,-0.04212110489606857,0.01588766318890163,-0.6760899966099844,0.6582225383329919
1687103380.077208,0.010975010693073273,0.6214229464530945,-0.7833983898162842,0.0009268224239349365,-0.010781466960906982,0.00439143180847168,0.21183261275291443,0.0018476084806025028,-0.018863322213292122,0.014008571734590266,-0.6705576201979652,0.6569289818422124
1687103380.082203,0.010856415145099163,0.6127454042434692,-0.7902057766914368,0.00046560168266296387,-0.006498456001281738,-0.005356967449188232,0.11653885245323181,-0.00788842048496008,-0.012448431923985481,0.013737854301646008,-0.6595299179311032,0.656348939740983
1687103380.1918879,0.010717527940869331,0.6110859513282776,-0.791491687297821,-0.004339367151260376,-0.020906507968902588,-0.005810558795928955,-0.0031172404997050762,-0.009776623919606209,-0.002749799285084009,0.01354009546029363,-0.6574317724355642,0.6558526444426256
1687103380.197445,0.010649919509887695,0.6092169284820557,-0.7929321527481079,-0.0017235279083251953,-0.004892587661743164,0.0015808343887329102,0.013418060727417469,0.009118858724832535,-0.0031229080632328987,0.01343025303814621,-0.6550727284511592,0.6555532125834397
1687103380.285949,0.010375060141086578,0.6097952723503113,-0.79249107837677,0.009308785200119019,-0.01099461317062378,0.00954735279083252,-0.02379162609577179,-0.0183511134237051,-0.008081980049610138,0.013090958033938272,-0.6558022510601972,0.655580050126924
1687103380.299727,0.009946869686245918,0.6090478301048279,-0.7930711507797241,-0.002744734287261963,0.0054694414138793945,-0.003681778907775879,0.03835643455386162,0.010845275595784187,0.0069448393769562244,0.012541558147869421,-0.6548595106832066,0.655023086535767
1687103380.309986,0.01010537426918745,0.6089229583740234,-0.7931650280952454,0.0021169185638427734,-0.0015163421630859375,0.005613148212432861,-0.025822818279266357,0.0018728640861809254,0.003174735698848963,0.012739880316347508,-0.6547021058432557,0.6553131391481938
1687103380.370316,0.009852644056081772,0.6090246438980103,-0.7930901646614075,-0.004420519806444645,0.011931777000427246,-0.00814884901046753,0.012340545654296875,0.002857212908565998,-0.006567507050931454,0.012422468181267297,-0.6548302709338464,0.6547100427024262
1687103380.400686,0.01030794344842434,0.6086310744285583,-0.7933863997459412,-0.0032278606668114662,-0.010456085205078125,-0.008325636386871338,0.004135612398386002,-0.0105630774050951,-0.0011122878640890121,0.012991606264700112,-0.6543341826091846,0.655143152745669
1687103380.464096,0.010305648669600487,0.6088154315948486,-0.7932449579238892,-0.004858255386352539,0.0004832744598388672,-0.00402677059173584,-0.0529274083673954,0.011843361891806126,0.00942058116197586,0.012991030405653222,-0.6545665678221413,0.6549886686575231
1687103380.5246282,0.010576366446912289,0.6096675992012024,-0.792586624622345,0.005597949028015137,0.007184207439422607,0.003341078758239746,0.034854110330343246,0.013022343628108501,-0.011869527399539948,0.013343321826093364,-0.6556411751510023,0.6550695256633613
1687103380.584902,0.010401765815913677,0.6089587807655334,-0.7931336760520935,0.002308814786374569,-0.014201700687408447,0.0007753372192382812,-0.03167298436164856,0.006303942762315273,-0.003772586351260543,0.013114018259563882,-0.6547472258757274,0.6540213713033267
1687103380.677434,0.01086718775331974,0.6094491481781006,-0.7927506566047668,-0.002932637929916382,0.007250070571899414,-0.0006452798843383789,0.00945048313587904,0.005258341319859028,0.004682018421590328,0.013707344790280789,-0.6553656042385195,0.6542838070514708
1687103380.6828141,0.010913265869021416,0.6093827486038208,-0.7928010821342468,0.0018430640920996666,-0.015205562114715576,-0.006988346576690674,-0.05075453221797943,-0.0003508531954139471,-0.001680939458310604,0.013764583644119593,-0.6552818785335064,0.6543318361458639
1687103380.7946591,0.010857782326638699,0.610331118106842,-0.7920719981193542,-0.0003597140312194824,-0.002634584903717041,-0.004787743091583252,-0.010907252319157124,-0.005154396872967482,-0.007962804287672043,0.013707216116202682,-0.6564785285838274,0.6540100056680319
1687103380.8006349,0.010968896560370922,0.6112059950828552,-0.7913955450057983,-0.0014779279008507729,-0.010848939418792725,-0.005845606327056885,-0.03883129358291626,0.002008374547585845,-0.000937584787607193,0.013859307302125595,-0.6575834021378575,0.6542136827745944
1687103380.888667,0.010973336175084114,0.6111285090446472,-0.7914553284645081,0.003110527992248535,0.0015729069709777832,0.008923590183258057,0.015536604449152946,0.001973354024812579,-0.006817444693297148,0.013863868851958182,-0.6574855562740243,0.6539719681213569
1687103380.9023361,0.010634462349116802,0.6118608713150024,-0.7908939719200134,-0.0007925629615783691,-0.010908722877502441,0.0018771886825561523,-0.04624393954873085,0.0018116557039320469,-0.0050255367532372475,0.013445319530341292,-0.6584111161099888,0.6533212592173397
1687103380.911782,0.01072159968316555,0.616016149520874,-0.7876605987548828,-0.0022529661655426025,-0.0050694942474365234,-0.0029125213623046875,-0.1661439836025238,0.0042319586500525475,0.004625292494893074,0.01361111358115682,-0.6636752652689694,0.6533692503872097
1687103380.9707341,0.011739121749997139,0.6255210041999817,-0.7801190614700317,-0.007100433111190796,-0.02119666337966919,-0.006914019584655762,-0.34888556599617004,0.029805604368448257,0.006279714871197939,0.015046724367529827,-0.6757991258218655,0.6541632311649687
1687103381.032485,0.013997887261211872,0.6367199420928955,-0.7709680795669556,-0.007284015417098999,0.009642362594604492,-0.004636168479919434,-0.34327268600463867,0.0748225674033165,0.0266511682420969,0.018154252244845313,-0.6902370044046591,0.6551315393322146
1687103381.05828,0.01748272404074669,0.6501713991165161,-0.7595863938331604,-0.004985779523849487,-0.009149670600891113,-0.0033225417137145996,-0.32420551776885986,0.046330321580171585,0.013068578206002712,0.02301204568760424,-0.7078100082536198,0.6567371214395379
1687103381.125328,0.01826031692326069,0.6591270565986633,-0.7518098950386047,0.0027662795037031174,0.025458455085754395,0.0025575757026672363,-0.11170097440481186,0.0010834366548806429,-0.002299591666087508,0.024283703261300707,-0.7196573817382128,0.6577310780008344
1687103381.149382,0.0184183306992054,0.6631340980529785,-0.748274028301239,0.004469841718673706,-0.017229557037353516,0.004881083965301514,-0.05316495895385742,0.0011775570455938578,0.018542906269431114,0.024609449582708175,-0.7249982263516627,0.6586589228052966
1687103381.213902,0.018708039075136185,0.6661224365234375,-0.7456077337265015,-0.00749284029006958,0.0200347900390625,0.00039899349212646484,-0.007398804649710655,0.010803420096635818,0.009613992646336555,0.025085730908838852,-0.7289977177986321,0.6592817530576023
1687103381.2408772,0.01921386644244194,0.6669580340385437,-0.7448474764823914,0.002270519733428955,-0.004436671733856201,-0.006724119186401367,-0.06598168611526489,0.0029023310635238886,0.009364121593534946,0.025789985353513286,-0.7301186713919796,0.6599194492250001
1687103381.3037891,0.01935475319623947,0.6685070395469666,-0.743453860282898,0.0025568585842847824,0.022594034671783447,-0.0035706162452697754,-0.05057823285460472,-0.00890605803579092,-0.01198730617761612,0.02602768438204871,-0.7321995213170476,0.6601551073017891
1687103381.330735,0.019012976437807083,0.6696292161941528,-0.7424521446228027,0.0012354254722595215,-0.007718205451965332,-0.0016427040100097656,-0.03951972350478172,-0.01100212149322033,0.0032633524388074875,0.025602756447104535,-0.733709446704752,0.6601796569310504
1687103381.393748,0.018593143671751022,0.669390857219696,-0.7426777482032776,0.006843268871307373,0.012570202350616455,0.0064411163330078125,0.03693483769893646,-0.011578695848584175,-0.004956494085490704,0.025030050716723883,-0.7333885672920081,0.660115376091771
