Timestamp,gravityX,gravityY,gravityZ,accelerationX,accelerationY,accelerationZ,rotationRateX,rotationRateY,rotationRateZ,attitudeRoll,attitudePitch,attitudeYaw
1687094688.174228,0.9566109776496887,0.2525720000267029,0.14526782929897308,0.005013167858123779,-0.02146250009536743,-0.018406644463539124,-0.007842710241675377,-0.015245948918163776,-0.023548342287540436,1.7215016626369375,-0.25533750683328393,-1.9883628224285577
1687094688.2645578,0.9565111994743347,0.2536969482898712,0.14395996928215027,0.00911092758178711,-0.003956347703933716,0.0008608251810073853,0.2007317990064621,-0.004742286168038845,0.0007092603482306004,1.7201803880237398,-0.2565003281540056,-1.991073595779781
1687094688.283185,0.9567661285400391,0.25371986627578735,0.1422145962715149,0.014150738716125488,-0.03364241123199463,-0.0072662681341171265,-0.10250237584114075,-0.013594212010502815,0.0031446549110114574,1.7183568350030918,-0.25652402862807444,-1.9954038212352847
1687094688.345667,0.9567822217941284,0.2538778781890869,0.1418224424123764,-0.012324273586273193,0.013806968927383423,-0.009544387459754944,0.024845728650689125,-0.022572392597794533,-0.022232474759221077,1.7179533525899682,-0.25668738603967706,-1.993388844609685
1687094688.386695,0.9570205211639404,0.2543017864227295,0.13943606615066528,0.003566145896911621,0.00904962420463562,-0.007066473364830017,0.01597686856985092,-0.026172589510679245,-0.027593282982707024,1.7154763991416317,-0.25712567728342073,-1.996866233048363
1687094688.4265862,0.9570540189743042,0.2553756833076477,0.13722598552703857,0.011772394180297852,-0.0058029890060424805,-0.023563608527183533,0.008423876948654652,-0.07725860923528671,-0.010148313827812672,1.7132094063155419,-0.2582362366190252,-1.9957967819921842
1687094688.489036,0.9574546217918396,0.2558971345424652,0.133406400680542,-0.008861422538757324,0.013069480657577515,0.0007637739181518555,0.027480926364660263,-0.04579462483525276,-0.02014375664293766,1.7092394372364312,-0.2587756096067086,-1.9968564976277419
1687094688.565363,0.9571214318275452,0.2568822205066681,0.13390374183654785,-0.01418924331665039,-0.011505722999572754,0.029075026512145996,-0.05496494844555855,0.03559459373354912,-0.04549571871757507,1.7097967020160676,-0.2597947795637107,-1.9953773766482201
1687094688.5822139,0.9552552103996277,0.260685533285141,0.1397520750761032,-0.00899660587310791,0.03342750668525696,0.014696955680847168,0.4476161599159241,0.3682881295681,-0.053616493940353394,1.7160639434269374,-0.26373221883534914,-1.9989937529135295
1687094688.631343,0.9466469883918762,0.2728272080421448,0.17153684794902802,-0.055564045906066895,-0.0037690401077270508,0.21492208540439606,0.5913587212562561,1.36128830909729,-0.22260744869709015,1.750055884913559,-0.2763305050328532,-2.0312927751794394
1687094688.6810122,0.9236766695976257,0.29522380232810974,0.24426347017288208,0.007414877414703369,0.029483169317245483,0.2912738621234894,0.9148765802383423,1.9963932037353516,-0.32677027583122253,1.8293252157458373,-0.29968975473437387,-2.063311458518707
1687094688.737983,0.8881821632385254,0.3305225968360901,0.3191980719566345,0.07293868064880371,0.07235509157180786,0.11322048306465149,1.609536051750183,2.196071147918701,-0.3403531014919281,1.9158060883608534,-0.3368572436457918,-2.123264665872019
1687094688.779238,0.8392234444618225,0.3812190890312195,0.3877837061882019,0.08371996879577637,0.05908840894699097,0.215273916721344,2.0291616916656494,2.6423654556274414,-0.6458406448364258,2.003645881204592,-0.3911145935741495,-2.2128552964949053
1687094688.8642712,0.7615541815757751,0.46306300163269043,0.4534398019313812,0.1967131495475769,0.19489577412605286,0.1907707154750824,2.3450353145599365,2.9916982650756836,-1.0756793022155762,2.107836729529271,-0.4814479263299084,-2.296888644402084
1687094688.8822,0.6539095044136047,0.5693696737289429,0.4982168674468994,0.28413987159729004,0.19208937883377075,0.32059991359710693,2.8328678607940674,3.084963798522949,-1.5223236083984375,2.2218731307234103,-0.605738905866704,-2.3745904426131696
1687094688.946103,0.5204793214797974,0.6924689412117004,0.4995875358581543,0.28858768939971924,0.07813012599945068,0.327804833650589,2.3824496269226074,2.987649440765381,-2.0263612270355225,2.3357165667740496,-0.7649056678133905,-2.4375164518899997
1687094688.9925032,0.363659530878067,0.7847152948379517,0.5019696950912476,0.34639328718185425,-0.027421772480010986,0.1598343849182129,1.1985766887664795,2.685399055480957,-2.4559879302978516,2.5146351275032184,-0.902236723029092,-2.3893756900993854
1687094689.025628,0.19320671260356903,0.8476086854934692,0.49419716000556946,0.3506169021129608,-0.03063786029815674,0.1616256833076477,1.0631285905838013,2.7831947803497314,-2.5025386810302734,2.768911689332187,-1.0114623323986982,-2.2480426696903044
1687094689.095261,0.009366743266582489,0.8798695206642151,0.4751231074333191,0.45797979831695557,0.019788742065429688,0.2395833134651184,0.5032594799995422,2.85197377204895,-2.7444915771484375,3.121880857338448,-1.075587591017035,-2.003185221346026
1687094689.166717,-0.18025784194469452,0.881056547164917,0.4373173117637634,0.40697330236434937,0.026017427444458008,0.06359827518463135,1.2996882200241089,2.7589898109436035,-2.6925415992736816,-2.7506219871565314,-1.0780912717183688,-1.7007499606873546
1687094689.184473,-0.3469681441783905,0.8770655393600464,0.33221837878227234,0.47958260774612427,-0.12453263998031616,0.0034751594066619873,1.247920036315918,2.34127140045166,-2.549805164337158,-2.334481098552328,-1.0697189116670056,-1.373042409431947
1687094689.2481089,-0.4750461280345917,0.839194655418396,0.264732301235199,0.3943885862827301,-0.44095557928085327,-0.15712720155715942,0.09210678935050964,1.923710584640503,-1.8750081062316895,-2.0792093125906272,-0.9958006272401783,-1.2018025010965496
1687094689.303652,-0.5554223656654358,0.8046756982803345,0.20976857841014862,0.37803930044174194,-0.2065158486366272,-0.288671612739563,0.387069970369339,0.9435051679611206,-1.2147486209869385,-1.9319092498936135,-0.935128993814288,-1.1103539860115632
1687094689.3426352,-0.601524829864502,0.7780333757400513,0.18119534850120544,0.16294175386428833,-0.091586172580719,-0.13683785498142242,0.09000422060489655,0.867124080657959,-0.7751445174217224,-1.8633781795355242,-0.891529235813487,-1.0706229377272631
1687094689.380105,-0.6337630748748779,0.7594635486602783,0.1468309760093689,0.016911625862121582,-0.09210503101348877,0.10846398770809174,0.701134204864502,1.0289146900177002,-0.5223934650421143,-1.7984608218176605,-0.8624880658955392,-1.0475798403912213
1687094689.465127,-0.6570898294448853,0.7510054111480713,0.06499192118644714,0.028397440910339355,-0.011045455932617188,-0.12854456901550293,1.4791498184204102,0.3547341227531433,-0.29026904702186584,-1.6693843946588722,-0.8495834729516805,-0.9309851953785567
1687094689.498858,-0.6791372895240784,0.7336580753326416,0.022763460874557495,0.29618775844573975,-0.29617321491241455,-0.19024372100830078,0.2909727394580841,0.2049214243888855,-0.35999631881713867,-1.6043019847823405,-0.8236897393582764,-0.8733017503517804
1687094689.5970778,-0.6897197365760803,0.7240414619445801,0.007119924761354923,-0.012871026992797852,0.007678687572479248,0.07279050350189209,-0.12836140394210815,0.581204354763031,-0.2599039673805237,-1.5811188849831346,-0.8096437194789299,-0.8655791314285609
1687094689.6141639,-0.7006176114082336,0.7135345935821533,-0.0018258612835779786,-0.09657758474349976,-0.083499014377594,-0.06458020210266113,-0.34531369805336,0.522688090801239,-0.4155178964138031,-1.5681902587947563,-0.7945303234728609,-0.8876847808321405
1687094689.646194,-0.7204884886741638,0.6933042407035828,-0.015020851977169514,-0.17872697114944458,-0.08460044860839844,-0.09699374437332153,0.26944294571876526,0.4675646424293518,-0.7584155201911926,-1.5499511971674842,-0.7660640964081851,-0.8978403546359883
1687094689.6858702,-0.7532410025596619,0.6543601751327515,-0.06663710623979568,-0.16922879219055176,0.22749119997024536,-0.000699751079082489,1.132104516029358,0.5460054874420166,-1.2294570207595825,-1.4825588618936234,-0.7133361774532351,-0.8350124136996988
1687094689.77933,-0.7899638414382935,0.6025809049606323,-0.11337298899888992,-0.23499947786331177,-0.17454111576080322,-0.08135952055454254,0.4952968657016754,-0.10736744850873947,-1.387224555015564,-1.4282529870937724,-0.6467311705843496,-0.7962222802385593
1687094689.796602,-0.8178009986877441,0.5559935569763184,-0.14856983721256256,-0.14463186264038086,-0.013650119304656982,-0.06886769831180573,1.0950671434402466,0.2336183339357376,-0.8775187730789185,-1.3910863419364214,-0.5895578667592798,-0.7561398717948867
1687094689.8303208,-0.8303748965263367,0.5219164490699768,-0.19514265656471252,-0.2534414529800415,-0.2687881588935852,0.02544987201690674,1.314563512802124,0.4135410785675049,-0.15441136062145233,-1.339979169183608,-0.5490961420229921,-0.6992831878940323
1687094689.877018,-0.8109498620033264,0.5229490399360657,-0.2624584436416626,-0.06250876188278198,-0.23512232303619385,-0.035286158323287964,2.0948033332824707,0.6080037355422974,1.2187120914459229,-1.2577920446720925,-0.5503071467549114,-0.5839110550847472
1687094689.946869,-0.753524661064148,0.5749624371528625,-0.31877729296684265,-0.043685853481292725,-0.47199583053588867,0.1604369878768921,-0.09175998717546463,0.8857011198997498,2.096487045288086,-1.1705799690146865,-0.612558201606461,-0.49295218786549944
1687094690.007374,-0.6663718819618225,0.663690447807312,-0.3397989571094513,0.08048039674758911,0.022116005420684814,0.13293573260307312,-0.5082098841667175,0.6777193546295166,2.498974084854126,-1.0992411397916093,-0.7257417495262729,-0.43442366822657386
1687094690.048799,-0.5637900233268738,0.7447512745857239,-0.3570520579814911,0.16005802154541016,0.19430524110794067,0.001232534646987915,1.6602290868759155,0.1642068326473236,2.7295234203338623,-1.0062458670634384,-0.8401620871254444,-0.3390046916279195
1687094690.094036,-0.44815513491630554,0.7835409641265869,-0.4303724467754364,0.28871631622314453,0.08971971273422241,0.019041448831558228,0.14206555485725403,0.19502875208854675,2.9316773414611816,-0.8056368632748137,-0.9003444265091306,-0.07933576402839311
1687094690.146871,-0.3451187312602997,0.8526893258094788,-0.392191082239151,0.36490970849990845,0.05389648675918579,0.08658823370933533,0.505229651927948,-0.7791500091552734,2.301344871520996,-0.7216413051240459,-1.021111666761523,0.034104901209995146
1687094690.186301,-0.2589735686779022,0.8836125731468201,-0.3900786340236664,0.255937397480011,-0.1999424695968628,-0.11614680290222168,-1.4942327737808228,-0.5888930559158325,2.2477352619171143,-0.5860853983997627,-1.0835225092573837,0.23113681410291426
1687094690.258925,-0.15813131630420685,0.9306968450546265,-0.3298453986644745,0.1876116245985031,-0.11422938108444214,0.018673032522201538,-0.1055719330906868,-0.8450363874435425,2.918311595916748,-0.44704067822090154,-1.196313229112879,0.4257342316668839
1687094690.2964458,-0.051791712641716,0.9426660537719727,-0.3296944200992584,0.3571661710739136,-0.01036924123764038,0.060910940170288086,0.23186095058918,-0.6334419846534729,0.981667160987854,-0.15581666712188452,-1.2305306355501189,0.780395334549152
1687094690.363044,-0.07194295525550842,0.934978723526001,-0.34733086824417114,-0.1456928253173828,0.18541306257247925,-0.01758292317390442,-0.626973032951355,-0.0879768580198288,-0.35027605295181274,-0.20424268831766526,-1.2081991518681385,0.7178561229862715
1687094690.380904,-0.0654415488243103,0.9390274286270142,-0.3375570774078369,0.029888898134231567,0.09036099910736084,-0.12173235416412354,-0.25819024443626404,0.0352916345000267,-0.4514700472354889,-0.19149260619527403,-1.2197907407462227,0.7314770204230088
1687094690.4520822,-0.07057502120733261,0.9440715909004211,-0.32209911942481995,0.07788432389497757,-0.003428339958190918,-0.048948734998703,0.17799372971057892,0.009200272150337696,-0.052436716854572296,-0.21570089458853847,-1.2347676374516912,0.6981674323944704
1687094690.505194,-0.07248952239751816,0.9435254335403442,-0.32327213883399963,0.008769161999225616,-0.009733319282531738,-0.024841755628585815,0.12591055035591125,0.15625593066215515,-0.17414776980876923,-0.2205879322275008,-1.2331152357948971,0.6920260302826843
1687094690.541465,-0.07260755449533463,0.9443739056587219,-0.32075855135917664,0.02927294373512268,-0.11576056480407715,-0.008556485176086426,-0.09233469516038895,-0.040211353451013565,0.04364627227187157,-0.22261045151983888,-1.2356855492110892,0.6889853299972483
1687094690.584178,-0.07397989183664322,0.9471371173858643,-0.3121829628944397,0.016714006662368774,-0.03376126289367676,0.05434006452560425,-0.35272473096847534,0.16385416686534882,-0.2340921312570572,-0.23268378047698,-1.2441917095248645,0.6728911323904335
1687094690.6680431,-0.09451249986886978,0.9549619555473328,-0.28127384185791016,0.045043833553791046,0.026193439960479736,0.0944453775882721,-1.2959436178207397,0.6816604733467102,-0.9312430024147034,-0.3241629716451082,-1.2695315769835036,0.556503783768504
1687094690.6850839,-0.1621968299150467,0.9632636904716492,-0.21404479444026947,0.32546618580818176,0.1374443769454956,0.09203565120697021,-1.4996856451034546,0.9793726205825806,-2.3188371658325195,-0.6484557203470289,-1.2989011852957566,0.17775677736767173
1687094690.755365,-0.292275071144104,0.9402598738670349,-0.1746046394109726,0.5747002363204956,0.3502371311187744,0.11799471080303192,-0.7892740368843079,1.7775331735610962,-3.641677141189575,-1.0322920066854517,-1.2233928550959272,-0.2965399709149337
1687094690.795313,-0.46834346652030945,0.8721614480018616,-0.14138181507587433,0.9923763275146484,0.2728429436683655,0.19480299949645996,-1.8039898872375488,0.8547840714454651,-4.589258670806885,-1.2776190168843276,-1.0596032116425644,-0.6500403938031237
1687094690.836553,-0.6416739225387573,0.7597302794456482,-0.10518854856491089,0.37429434061050415,0.2788900136947632,0.032511159777641296,-1.0885220766067505,0.8781877756118774,-4.159225940704346,-1.4083131405881135,-0.8628981721408137,-0.8643278956826018
1687094690.903811,-0.7686180472373962,0.6336265802383423,-0.08799830824136734,0.21089422702789307,-0.10565704107284546,-0.10520827770233154,-1.3122352361679077,0.6125358939170837,-3.182406187057495,-1.4568036669066802,-0.6862319176346102,-0.9755169527167211
1687094690.962538,-0.8413328528404236,0.5346357822418213,-0.07952067255973816,-0.06439816951751709,-0.21847349405288696,-0.23517632484436035,-0.39346790313720703,0.6774563193321228,-1.8549469709396362,-1.4765587922900578,-0.564076719255406,-1.0496608703925248
1687094691.0426068,-0.8782481551170349,0.4729214310646057,-0.07089027017354965,-0.17375361919403076,-0.4328974485397339,-0.15074336528778076,-1.2396188974380493,0.2973758280277252,-0.9920448660850525,-1.4902531370261913,-0.4926034870897438,-1.0995433578139069
1687094691.0634608,-0.8949512839317322,0.4405151605606079,-0.07077153027057648,-0.24278974533081055,0.048697054386138916,-0.14600980281829834,-0.19511380791664124,0.5218830108642578,-0.7289812564849854,-1.4918819068903977,-0.45617241859319807,-1.160392399902393
1687094691.0955539,-0.9065337181091309,0.41242989897727966,-0.08999089896678925,-0.16383981704711914,-0.20075976848602295,-0.10214752703905106,-0.36324796080589294,0.5890946984291077,-0.5574355125427246,-1.4718512652656663,-0.4251197651638905,-1.1685380213932823
1687094691.13559,-0.9132252931594849,0.3935643136501312,-0.1054837554693222,-0.09119975566864014,-0.19103416800498962,-0.1444702297449112,-0.736661434173584,0.4702450633049011,-0.35500842332839966,-1.455799120379701,-0.4045056023396447,-1.1940636963393672
1687094691.209584,-0.9157994985580444,0.38531169295310974,-0.11334092915058136,-0.04892212152481079,-0.21490132808685303,-0.13464462757110596,-0.23317064344882965,0.3300310969352722,-0.17903007566928864,-1.4476607353733832,-0.39554557897048065,-1.229881943133326
1687094691.262635,-0.917041540145874,0.38022923469543457,-0.12025129795074463,-0.016323208808898926,-0.17193135619163513,-0.13391399383544922,0.2994610369205475,-0.028586987406015396,-0.07587020099163055,-1.4404106495763085,-0.39004414037003476,-1.2278902303147063
1687094691.301443,-0.9187480211257935,0.3751780092716217,-0.12305852770805359,-0.07736086845397949,-0.11202481389045715,2.718716859817505e-05,-0.04805697500705719,0.0938500240445137,-0.13793236017227173,-1.4376472585008173,-0.384588804005158,-1.2212322150772674
1687094691.342372,-0.9207900762557983,0.3676184415817261,-0.13039255142211914,-0.020448267459869385,0.08724620938301086,0.022375941276550293,-0.2302965521812439,0.22273141145706177,-0.17964807152748108,-1.4301222450709241,-0.37644685634566727,-1.2237138144374784
1687094691.4048991,-0.923260509967804,0.3600424826145172,-0.13401208817958832,0.02236652374267578,0.05218908190727234,-0.05216012895107269,-0.14481894671916962,0.07466240972280502,-0.18000465631484985,-1.426652130362299,-0.3683134241976286,-1.2358428947082913
1687094691.445733,-0.925670862197876,0.35361790657043457,-0.13449060916900635,0.04128682613372803,0.012059122323989868,-0.0040894001722335815,-0.03137573227286339,0.022698236629366875,-0.07651009410619736,-1.4265160087691704,-0.36143610957334027,-1.238813313029777
1687094691.507333,-0.9253557324409485,0.35410845279693604,-0.13536570966243744,0.03381526470184326,-0.05787414312362671,0.023961544036865234,0.12493105232715607,-0.011441423557698727,0.02744007296860218,-1.4255415450654554,-0.36196058372493667,-1.2399853197382147
1687094691.56108,-0.9254305958747864,0.35285237431526184,-0.1381070762872696,-0.005263984203338623,0.028464913368225098,0.012405455112457275,0.03449276462197304,-0.01785016618669033,0.009029841050505638,-1.4226541593768451,-0.3606178174499672,-1.2312312873390547
1687094691.5875459,-0.925413191318512,0.3533923625946045,-0.13683684170246124,-0.004182696342468262,0.038072049617767334,-0.027484774589538574,0.16022086143493652,-0.04923633858561516,0.01843898743391037,-1.4239943929073418,-0.3611949921312252,-1.2290101436853236
1687094691.6371589,-0.9252787232398987,0.35308435559272766,-0.13853025436401367,-0.007796168327331543,-0.006358742713928223,-0.0055887699127197266,0.1935977190732956,-0.05308564752340317,0.05989009514451027,-1.4221828525564453,-0.36086574919546516,-1.216810133157393
1687094691.695353,-0.9230480790138245,0.36053532361984253,-0.13415148854255676,0.02664005756378174,-0.1263890266418457,-0.024768471717834473,-0.033041540533304214,-0.18529024720191956,0.2732754647731781,-1.4264715023231638,-0.368841762764793,-1.2167657424216123
1687094691.736065,-0.9207916259765625,0.3679566979408264,-0.12942451238632202,0.029022216796875,0.2084747552871704,-0.00022912025451660156,0.6699003577232361,-0.23451560735702515,0.16309669613838196,-1.431153271824362,-0.37681058674495965,-1.1957508291256598
1687094691.808078,-0.9173674583435059,0.3785931169986725,-0.12289877980947495,0.00235903263092041,-0.18666788935661316,-0.007624626159667969,-0.3091333210468292,-0.24367089569568634,0.4160401523113251,-1.4376203074168334,-0.38827580367242487,-1.1861604049190122
1687094691.8510609,-0.9080391526222229,0.4070780277252197,-0.09875364601612091,0.08446139097213745,-0.1372566819190979,-0.1650857925415039,0.3783363997936249,-0.7002557516098022,0.7912831902503967,-1.4624672471895788,-0.41925273409156555,-1.1849565695487945
1687094691.893807,-0.8902432322502136,0.4494471848011017,-0.07392110675573349,0.0447690486907959,-0.2391960620880127,-0.033530957996845245,0.37317439913749695,-0.6989465951919556,1.1435245275497437,-1.487951651813857,-0.4661463849263713,-1.1598072738485066
1687094691.946128,-0.8680921196937561,0.4912315011024475,-0.07146787643432617,0.01265406608581543,0.3528543710708618,0.09469199180603027,1.7115545272827148,-0.5267120003700256,0.9210560321807861,-1.4886540481452217,-0.5135030480499472,-1.091390594164222
1687094691.98841,-0.8429188132286072,0.5328218936920166,-0.07475807517766953,-0.02948707342147827,-0.3222962021827698,0.08934569358825684,-0.27119019627571106,-0.32582560181617737,1.2356921434402466,-1.4823382415478212,-0.5619317804438032,-1.0450379174648936
1687094692.058481,-0.8088765144348145,0.58652263879776,-0.041349951177835464,0.09877842664718628,-0.01567596197128296,-0.12274283170700073,-0.17281542718410492,-0.7511871457099915,1.2674449682235718,-1.5197205579032165,-0.6267587679811144,-1.0602922518501658
1687094692.0956712,-0.7685038447380066,0.6398283243179321,-0.004628556780517101,-0.0011644363403320312,-0.18839693069458008,-0.08787000179290771,-0.05631410703063011,-0.8015466332435608,1.3855305910110474,-1.5647735844233983,-0.694274886977512,-1.0713375188059358
1687094692.16753,-0.725504457950592,0.6881237030029297,0.011363187804818153,0.003229856491088867,0.18890589475631714,0.02127552032470703,0.5249525308609009,-0.6909265518188477,1.184505581855774,-1.5864575109819155,-0.7589000324181593,-1.0458691831945983
1687094692.1886868,-0.6806372404098511,0.7323012948036194,0.0216218288987875,-0.01580411195755005,-0.1479811668395996,0.03352367877960205,0.15465351939201355,-0.4855416417121887,1.2021093368530273,-1.6025526852056187,-0.8216952241794876,-1.0285348207147307
1687094692.29929,-0.646888017654419,0.7621416449546814,0.02599688619375229,-0.026192128658294678,0.34027546644210815,0.16605043411254883,-0.21028263866901398,-0.18022793531417847,0.5614904761314392,-1.6109623256068075,-0.8666146995849281,-1.0171503389919292
1687094692.316663,-0.6296802163124084,0.7751562595367432,0.05133860930800438,-0.07568758726119995,0.04717051982879639,0.05573248863220215,-0.7396716475486755,-0.031398531049489975,0.4461779296398163,-1.6521476318040107,-0.8869623649477186,-1.0683252800607448
1687094692.350882,-0.6081279516220093,0.7917304039001465,0.05782218277454376,0.019352614879608154,0.037218689918518066,-0.14406466484069824,0.7060056328773499,-0.28966665267944336,0.6237998604774475,-1.665593596123679,-0.9136365476084201,-1.0731814588811435
1687094692.395488,-0.5744569897651672,0.8178538680076599,0.03338040038943291,0.0023136138916015625,-0.21600127220153809,-0.05487990006804466,0.8114843964576721,-0.4393893778324127,1.0670958757400513,-1.6288388002048273,-0.9576714770465081,-1.0053903498868795
1687094692.4683928,-0.5244373083114624,0.8511250615119934,0.023482531309127808,0.03894871473312378,-0.1546376347541809,0.023301120847463608,0.21200628578662872,-0.4927692711353302,1.2496429681777954,-1.6155430620741278,-1.0181247009363,-0.9619642493847084
1687094692.504856,-0.46515363454818726,0.8843993544578552,0.038334500044584274,0.02774551510810852,-0.12918084859848022,0.013560768216848373,-0.08868563175201416,-0.44890788197517395,1.4841599464416504,-1.6530230635331153,-1.0852055439109596,-0.9787235376376947
1687094692.551856,-0.396278440952301,0.9173651933670044,0.03747820854187012,0.03725463151931763,0.04921823740005493,0.016675475984811783,0.49095162749290466,-0.32612067461013794,1.4367728233337402,-1.6650912985942061,-1.1614098552898322,-0.9686035391467643
1687094692.591908,-0.32097747921943665,0.946890115737915,0.019297299906611443,-0.010458379983901978,-0.16724234819412231,-0.007578374817967415,0.6222825050354004,-0.31814685463905334,1.8159936666488647,-1.6308444674325635,-1.2434226326656206,-0.9156624977510056
1687094692.667217,-0.2265949249267578,0.9739692211151123,0.006200476549565792,0.10515056550502777,-0.21138077974319458,-0.012898921966552734,-0.310723215341568,-0.35687294602394104,2.1282002925872803,-1.598153204443209,-1.3421285595746832,-0.860910484247532
1687094692.704664,-0.10536112636327744,0.9936425685882568,0.03966451808810234,0.0853419154882431,-0.3477381467819214,-0.07924556732177734,-0.461387574672699,-0.500659167766571,2.8490171432495117,-1.930848624299684,-1.4579765145748032,-1.1745070020597796
1687094692.7547522,0.0671297088265419,0.9972078800201416,0.03271004185080528,0.12610790133476257,-0.4346011281013489,-0.12937426567077637,0.7390991449356079,-0.7942069172859192,4.011558532714844,2.0242051139218136,-1.4960510720634421,2.8101315707332377
1687094692.808063,0.28518012166023254,0.9584737420082092,-0.0006950767710804939,0.2665475010871887,-0.3102957010269165,0.056023597717285156,-0.38191911578178406,-0.25445568561553955,4.6456522941589355,1.5683590061028525,-1.281601369415879,2.379637960380012
1687094692.842029,0.4938291311264038,0.8665924072265625,0.07176521420478821,0.4678410589694977,-0.2342379093170166,0.07369697093963623,-2.0460493564605713,-0.39576300978660583,4.651518821716309,1.7151100394640224,-1.0483327178133504,2.552509459979339
1687094692.8891659,0.6765685677528381,0.7313042879104614,0.08630885183811188,0.5835025310516357,0.33629196882247925,-0.010625116527080536,-0.12471313774585724,-0.7755301594734192,4.318696022033691,1.6976795216392921,-0.8202322625395506,2.5768208045359247
1687094692.940518,0.8159405589103699,0.5760725140571594,0.04880151152610779,0.4750295877456665,0.277427613735199,0.008083470165729523,1.4460219144821167,-0.6425838470458984,3.772592306137085,1.6305352883145598,-0.6139156694083243,2.5154815822250383
1687094693.003922,0.8967592120170593,0.44219541549682617,-0.016909901052713394,0.27464282512664795,0.3250313997268677,0.039462506771087646,0.7888986468315125,-0.25198033452033997,2.483769178390503,1.5519418813113437,-0.45804494498516324,2.4205580217702973
1687094693.061754,0.9340620636940002,0.3554001450538635,-0.03491244465112686,0.2769061326980591,0.0890423059463501,0.2495121955871582,-1.420172095298767,-1.2181406021118164,1.4857401847839355,1.5334367130730897,-0.3633421246299285,2.441624393918633
1687094693.112706,0.959388017654419,0.27964460849761963,-0.03706090897321701,-0.00754469633102417,0.1761656105518341,0.13036853075027466,-2.791064500808716,-0.3731473684310913,1.1552608013153076,1.532185783739913,-0.28342392544072736,2.5587414638562374
1687094693.1558208,0.9728373289108276,0.23085667192935944,-0.017116885632276535,0.13672089576721191,0.1791466623544693,0.3119167685508728,-4.902197360992432,-0.775465190410614,1.0070843696594238,1.553203335141276,-0.2329580412027584,2.76577293013671
1687094693.222104,0.9802425503730774,0.19773153960704803,0.005153223406523466,-0.011507868766784668,0.40604308247566223,0.15041005611419678,-5.211372375488281,-0.6022967100143433,0.4541553556919098,1.5760533682438287,-0.19904323394275047,3.035092234441344
1687094693.259331,0.9830513596534729,0.18269720673561096,0.015221857465803623,0.0463675856590271,0.2685048580169678,0.006735324859619141,-4.266040802001953,-0.7818824648857117,0.12639302015304565,1.5862793838507945,-0.18372913162972895,-2.9979111743535483
1687094693.29488,0.98325514793396,0.1819940209388733,0.009355831891298294,0.012792885303497314,0.08793364465236664,0.07896184921264648,-3.714482069015503,-0.863684892654419,-0.1661614179611206,1.580311201893571,-0.18301395658201114,-2.805824249674448
1687094693.3870249,0.982198178768158,0.18784689903259277,-0.0004426483646966517,0.009928286075592041,0.05266185104846954,0.10867297649383545,-2.8749706745147705,-0.6826573014259338,-0.10409437865018845,1.5703456556735815,-0.18896955442581712,-2.631651533345523
1687094693.4115272,0.9802021384239197,0.19790983200073242,-0.005960341077297926,-0.0027698874473571777,-0.038608282804489136,0.12241512537002563,-1.91306734085083,-0.5290235280990601,-0.22048704326152802,1.5647156754593987,-0.19922510896506698,-2.5072270859605923
1687094693.440411,0.9787777066230774,0.20420855283737183,-0.017109984531998634,0.06252771615982056,-0.036087483167648315,0.04251551628112793,-1.0361789464950562,-0.47191140055656433,-0.057081468403339386,1.553317135909986,-0.20565516173393414,-2.433781658924996
1687094693.533622,0.9778316617012024,0.20792889595031738,-0.024708570912480354,-0.028170526027679443,-0.06850960850715637,0.18240785598754883,-1.1778143644332886,-0.30660387873649597,-0.02422112226486206,1.545532966058819,-0.2094571042476073,-2.376676434548759
1687094693.56128,0.9772196412086487,0.21064147353172302,-0.02592611499130726,0.0028524398803710938,0.008947551250457764,0.15269577503204346,-0.49546006321907043,-0.12001708149909973,-0.029526805505156517,1.5442720590280585,-0.2122311135452509,-2.3282445750671186
1687094693.592303,0.976736843585968,0.21292394399642944,-0.025467516854405403,-0.009894132614135742,0.03971567749977112,0.1223299503326416,-0.15634936094284058,0.01322748139500618,-0.05268898233771324,1.5447281514134499,-0.2145665501775818,-2.318608156346083
1687094693.660328,0.9767327904701233,0.21359948813915253,-0.019192766398191452,-0.042009830474853516,-0.02483314275741577,0.11840510368347168,-0.3561825752258301,0.09256549179553986,0.010823013260960579,1.5511488900195762,-0.21525800385504998,-2.3014198758991444
1687094693.704948,0.9767786264419556,0.21385368704795837,-0.013035118579864502,-0.017031371593475342,0.047956451773643494,0.038303256034851074,0.08056198060512543,0.13211548328399658,-0.0002027391456067562,1.5574521109657542,-0.21551821520967604,-2.2976106445149953
1687094693.744745,0.9771603941917419,0.21241286396980286,-0.006192300468683243,5.829334259033203e-05,-0.011653125286102295,-0.002002001740038395,0.1125369593501091,0.08931010961532593,0.040594689548015594,1.564459375540094,-0.21404351355717877,-2.30069580993313
1687094693.8103929,0.9775521159172058,0.21066315472126007,-0.003569986904039979,-0.002225637435913086,0.009963452816009521,-0.031739234924316406,0.1259385198354721,0.06317420303821564,0.04196329042315483,1.5671443771722668,-0.21225329558554387,-2.3068969793058605
1687094693.849004,0.9780458807945251,0.2083609253168106,-0.003444598987698555,0.002926349639892578,-0.009325459599494934,-0.018467366695404053,0.11934293806552887,0.009277991950511932,0.029521135613322258,1.5672744218052306,-0.2098988026643124,-2.311035255906321
1687094693.9056668,0.9781867265701294,0.20760951936244965,-0.006977670360356569,0.0037314891815185547,0.031037747859954834,-0.016338109970092773,0.1496609002351761,0.025908101350069046,0.03402427211403847,1.5636631776258911,-0.20913059281177215,-2.324441946581694
1687094693.97029,0.9784740209579468,0.20618440210819244,-0.008762147277593613,0.0021626949310302734,-0.008674770593643188,0.038272321224212646,0.07560663670301437,0.0021533695980906487,0.02402317151427269,1.5618416561947759,-0.20767396297295768,-2.327283105011661
1687094694.014876,0.9784417748451233,0.20627033710479736,-0.010209180414676666,0.000943601131439209,0.017347052693367004,0.01110911462455988,0.22831043601036072,0.045338526368141174,0.012999681755900383,1.5603625837508273,-0.20776178037792298,-2.3375518089940153
1687094694.054419,0.9785076379776001,0.20601172745227814,-0.00904126651585102,-0.014274299144744873,0.02579955756664276,0.0206071138381958,0.09993621706962585,0.059711117297410965,-0.013560955412685871,1.5615567373260888,-0.20749750014752658,-2.3504051268833472
1687094694.1147141,0.9781010746955872,0.208091601729393,-0.004024856723845005,0.002764463424682617,0.014945894479751587,0.024654388427734375,0.17280322313308716,0.14149224758148193,-0.02729148045182228,1.5666813796680914,-0.2096234424150122,-2.3526715524873594
1687094694.1667461,0.977500855922699,0.21092726290225983,0.0013123615644872189,-0.009727418422698975,0.03930138051509857,0.022552013397216797,0.379331111907959,0.18996202945709229,-0.05630582198500633,1.5721388942272747,-0.21252346420997925,-2.373480406942595
1687094694.20533,0.9764279723167419,0.21572378277778625,0.007201852276921272,-0.016970396041870117,0.02597525715827942,0.0684814453125,0.07153306901454926,0.16946211457252502,-0.09805373102426529,1.578171906162705,-0.21743300411124591,-2.380850733433391
1687094694.2608,0.97417151927948,0.22515830397605896,0.017132552340626717,-0.01634681224822998,0.08442702889442444,0.11558806896209717,0.8038967847824097,0.4227621853351593,-0.2653820812702179,1.5883813070069195,-0.22710550645160074,-2.395147132901397
1687094694.319339,0.9699690341949463,0.24144984781742096,0.029361190274357796,0.036638081073760986,0.004506319761276245,0.05952095985412598,0.8544774055480957,0.5306167602539062,-0.35577282309532166,1.6010573209447971,-0.2438596322289743,-2.45034692287476
1687094694.357593,0.9649723172187805,0.25680673122406006,0.053652215749025345,0.012765109539031982,-0.011689811944961548,0.10058331489562988,-0.023303158581256866,0.6213199496269226,-0.21469220519065857,1.6263388890014536,-0.25971665681009687,-2.4598351056019863
1687094694.4149709,0.9598115682601929,0.26694464683532715,0.08661523461341858,0.012310624122619629,-0.06996920704841614,-0.06824398785829544,0.11785555630922318,0.6356457471847534,-0.2595050036907196,1.6607944708526017,-0.2702212408718388,-2.4661721672611017
1687094694.453185,0.9542626142501831,0.2802692651748657,0.10407704859972,0.06661152839660645,-0.02813321352005005,-0.11054705083370209,-0.040383607149124146,0.3211665451526642,-0.11462778598070145,1.679432346976425,-0.28407459807412394,-2.481031614158593
1687094694.532961,0.9513546824455261,0.2837511897087097,0.12003935128450394,0.022476553916931152,-0.10699361562728882,-0.229780912399292,-0.2526620626449585,0.07388878613710403,-0.19158826768398285,1.6963103238489543,-0.2877038353618088,-2.462417163469532
1687094694.565699,0.9498918056488037,0.2866838276386261,0.12457074970006943,0.034605324268341064,-0.1060657799243927,-0.2322371006011963,-0.5324401259422302,-0.16825133562088013,-0.04479144513607025,1.701194234633843,-0.2907635602002004,-2.4364113375626304
1687094694.5998158,0.95151686668396,0.2863711714744568,0.11228235810995102,0.040670692920684814,-0.03598988056182861,-0.2975853681564331,-0.3793829679489136,-0.5289043188095093,-0.03626134246587753,1.6882566691449397,-0.2904372286770109,-2.4205953796664845
1687094694.667297,0.9569546580314636,0.2740069329738617,0.09569702297449112,0.06237828731536865,-0.12154132127761841,-0.16703224182128906,-1.0529184341430664,-0.7340778708457947,0.32787609100341797,1.6704665920447737,-0.2775569597985553,-2.3821774007129104
1687094694.729704,0.9626487493515015,0.26216578483581543,0.06765136122703552,-0.03192347288131714,0.08578023314476013,0.009191520512104034,0.2843649089336395,-0.7232602834701538,0.1759621798992157,1.6409572418732534,-0.26526580930920596,-2.3552229695615803
1687094694.770001,0.965783417224884,0.25650033354759216,0.03833663463592529,0.02835714817047119,-0.05430638790130615,0.12860941886901855,-0.2626720666885376,-0.5849612355232239,0.04559830576181412,1.6104703559191185,-0.25939966206919635,-2.3468780660688267
1687094694.867804,0.9668635725975037,0.25457024574279785,0.0192043986171484,-0.022542893886566162,0.07056385278701782,0.2907775640487671,-0.21353702247142792,-0.2574218511581421,-0.016023647040128708,1.5906562891084346,-0.2574032845138987,-2.340345459547902
1687094694.9383101,0.9661839604377747,0.25748950242996216,0.013698100112378597,-0.04415637254714966,0.08134695887565613,0.22278225421905518,0.06511964648962021,0.014927399344742298,-0.10867335647344589,1.5849729049240773,-0.26042318422153526,-2.337004261452624
1687094694.955158,0.9639673829078674,0.2650507092475891,0.022694243118166924,-0.025032997131347656,0.022989273071289062,0.24108409881591797,-0.19304239749908447,0.3287586271762848,-0.22441087663173676,1.5943345206349058,-0.26825651591722843,-2.332568071998472
1687094694.976881,0.9604249596595764,0.27507486939430237,0.04379064217209816,-0.005270540714263916,0.00593075156211853,0.10951399803161621,-0.055490389466285706,0.483032763004303,-0.20674946904182434,1.616359839208574,-0.2786675597113291,-2.3265163622368936
1687094695.0041242,0.9537618160247803,0.29053857922554016,0.07697970420122147,-0.015681862831115723,0.05696490406990051,0.13725340366363525,0.31849199533462524,1.2099956274032593,-0.4134212136268616,1.6513334077609,-0.2947896535480396,-2.3341327940458463
1687094695.050205,0.9324570298194885,0.3256329298019409,0.15648409724235535,0.0427323579788208,0.14621442556381226,0.26146912574768066,1.157226324081421,2.570854902267456,-1.018742322921753,1.7370660725555265,-0.3316810804712189,-2.366418709772367
1687094695.110791,0.877402663230896,0.39740845561027527,0.2687581479549408,0.24678874015808105,0.09075048565864563,0.3062841594219208,1.270251989364624,3.1388614177703857,-1.5140576362609863,1.86803300940131,-0.40869097044877106,-2.4129403264074814
1687094695.1604218,0.7931003570556641,0.47797125577926636,0.3775387108325958,0.24715256690979004,0.015574097633361816,0.19233107566833496,0.38690486550331116,3.0747509002685547,-1.616496205329895,2.0150838242784856,-0.49834359020122365,-2.4318006312362206
1687094695.22318,0.6789451837539673,0.544277548789978,0.4927422106266022,0.3149513602256775,0.030566513538360596,-0.025716781616210938,0.6463820338249207,3.2563273906707764,-1.8414686918258667,2.1985937469980925,-0.575527695336681,-2.384920244130151
1687094695.260942,0.5317030549049377,0.6557164192199707,0.5360295176506042,0.36783331632614136,0.2939293384552002,0.21053701639175415,2.6145269870758057,3.367982864379883,-2.065716505050659,2.360246503857874,-0.7151310908065704,-2.395355640942452
1687094695.323444,0.36726489663124084,0.7697691917419434,0.5220838189125061,0.3993522524833679,-0.011422872543334961,0.2096816897392273,2.384866237640381,3.190237522125244,-2.13495135307312,2.5285485578259523,-0.8784795307334068,-2.3910401393224214
1687094695.367161,0.19566978514194489,0.8536968231201172,0.4826129674911499,0.29450395703315735,-0.07197380065917969,0.06067627668380737,1.7651256322860718,2.775416135787964,-2.4353272914886475,2.756406885002348,-1.0230432830505045,-2.296897094598989
1687094695.417472,0.029191123321652412,0.894726037979126,0.44565972685813904,0.2403252124786377,-0.30285316705703735,-0.002224177122116089,0.2685084640979767,2.2561755180358887,-2.4003288745880127,3.076185168464175,-1.1078174629140585,-2.0728815956684157
1687094695.4640942,-0.11849506199359894,0.8923898935317993,0.4354298412799835,0.1778520941734314,-0.08079016208648682,0.13006091117858887,0.3018954396247864,2.377756118774414,-1.9661563634872437,-2.8758933261943516,-1.1026137133652898,-1.832853719407476
1687094695.502582,-0.24917329847812653,0.8922569155693054,0.3765508532524109,0.3120551109313965,-0.00950533151626587,-0.1510409712791443,1.1922311782836914,1.9572944641113281,-2.031975030899048,-2.557018689566308,-1.1023191336142608,-1.5983471470586812
1687094695.5788012,-0.3582012355327606,0.8785879015922546,0.3158724904060364,0.3415847420692444,-0.1569690704345703,0.09783914685249329,0.06679104268550873,2.7264275550842285,-1.6509485244750977,-2.2934814109294157,-1.0728973334282714,-1.4090234835615898
1687094695.605585,-0.47076165676116943,0.8371703624725342,0.2784406840801239,0.4330422580242157,0.1861756443977356,-0.06744194030761719,0.35541510581970215,1.6126363277435303,-2.0702431201934814,-2.1049190415470598,-0.9920889692626881,-1.306015399464966
1687094695.690346,-0.5697917342185974,0.7917526960372925,0.22014756500720978,0.1782209873199463,-0.1096084713935852,0.07312655448913574,0.004916760604828596,1.6103672981262207,-1.8129141330718994,-1.9394933795720342,-0.9136730465562091,-1.2076812379207298
1687094695.7165,-0.6430437564849854,0.7476165890693665,0.1660245656967163,0.21706438064575195,-0.048260390758514404,-0.1486293077468872,0.7256488800048828,1.3806710243225098,-1.244432806968689,-1.82346401195221,-0.8444660117588587,-1.1458026713380787
1687094695.79242,-0.6969273686408997,0.7090525031089783,0.10740846395492554,0.25718462467193604,0.13196629285812378,0.0663282722234726,-0.9883946180343628,1.4258366823196411,-1.3447345495224,-1.723710387084168,-0.7881536532509474,-1.1099998631394687
1687094695.8137379,-0.7681849598884583,0.6317982077598572,0.10355156660079956,0.16289949417114258,0.5544812679290771,0.33935022354125977,-1.6102502346038818,2.0118792057037354,-2.2126870155334473,-1.7047889211829845,-0.6838708569709002,-1.219161011267773
1687094695.878327,-0.8451277017593384,0.5309706330299377,0.06188046932220459,0.2650802731513977,0.19034290313720703,0.2183016538619995,-2.1510307788848877,2.372206449508667,-2.454213857650757,-1.6438861569444168,-0.559745625625894,-1.305482389617243
1687094695.920469,-0.9048277735710144,0.4257732629776001,0.0019075744785368443,0.30970466136932373,-0.026099741458892822,0.0355987548828125,-1.2785073518753052,2.089090347290039,-2.1687235832214355,-1.5729045420236225,-0.43981631980002545,-1.4063330795127154
1687094695.955392,-0.9366424679756165,0.3431001603603363,-0.07058973610401154,0.3268709182739258,-0.13446664810180664,-0.19294452667236328,-0.23947380483150482,1.2453423738479614,-1.5178838968276978,-1.4955738723948304,-0.3502154092610343,-1.4465156607481109
1687094696.080017,-0.9474947452545166,0.29172927141189575,-0.13094906508922577,0.12055999040603638,-0.3433191478252411,-0.22523653507232666,-0.7386569380760193,0.9948368668556213,-0.7665514945983887,-1.4334607426810415,-0.29603426513682407,-1.4677670192531012
1687094696.097375,-0.9498382806777954,0.28323274850845337,-0.1326136291027069,0.2472015619277954,-0.2835683524608612,-0.7188264727592468,1.0578083992004395,-0.6025314927101135,-0.02081134542822838,-1.43207597887669,-0.28716320645760646,-1.4765746600453027
1687094696.13606,-0.9530057311058044,0.26913508772850037,-0.1390906721353531,-0.143429696559906,0.10452225804328918,0.37253522872924805,0.23462052643299103,0.18771670758724213,-0.11204158514738083,-1.425870119698635,-0.2724948596733618,-1.41262187719497
1687094696.200088,-0.9533407688140869,0.27076396346092224,-0.13352179527282715,0.08165204524993896,-0.11535310745239258,-0.12268821895122528,-0.37809187173843384,-0.2051507830619812,-0.03990727663040161,-1.4316447367700198,-0.27418654662817715,-1.445741258856061
1687094696.228074,-0.9547686576843262,0.2698156535625458,-0.1249641701579094,-0.063251793384552,0.046407550573349,0.012202046811580658,0.1932307481765747,0.01350840087980032,-0.028730520978569984,-1.4406518752233703,-0.2732015947064421,-1.444941100790035
1687094696.258646,-0.9545079469680786,0.2654939889907837,-0.1357477754354477,-0.03204900026321411,-0.009207278490066528,0.06509990990161896,0.47460728883743286,0.09566137194633484,0.046091921627521515,-1.4295261376248531,-0.26871625346283845,-1.4214723881488922
1687094696.318676,-0.9523241519927979,0.26863396167755127,-0.14461807906627655,0.019142448902130127,-0.033862143754959106,0.017268553376197815,0.5767869353294373,0.054856374859809875,0.09950973838567734,-1.4200897131984582,-0.27197459314970185,-1.3958994196533123
1687094696.407763,-0.9506048560142517,0.2699492275714874,-0.1532244086265564,-0.08964776992797852,-0.13513773679733276,-0.017307505011558533,-0.07857333868741989,0.14186826348304749,0.23017379641532898,-1.4109846550304768,-0.27334030716474705,-1.3821885133620695
1687094696.487354,-0.9450065493583679,0.2907615900039673,-0.1497335284948349,-0.23350590467453003,-0.40823888778686523,-0.6074835062026978,1.9572404623031616,-0.6370489597320557,0.9954386353492737,-1.4136555864125986,-0.2950227184285531,-1.3453406897005271
1687094696.5651999,-0.9216941595077515,0.34780851006507874,-0.17178195714950562,-0.397916316986084,-0.8652796745300293,-0.6666271686553955,4.764800071716309,-0.9257813096046448,2.5301668643951416,-1.3865341238126063,-0.3552326579026752,-1.148331361473415
1687094696.583257,-0.8699902296066284,0.4269160032272339,-0.24669772386550903,-0.28868579864501953,-0.3690086007118225,-0.09380191564559937,6.67254638671875,-0.23393568396568298,3.571310043334961,-1.2944859944328222,-0.4410796134208503,-0.7985165653677545
1687094696.6173801,-0.7687347531318665,0.49161607027053833,-0.40909695625305176,0.29147058725357056,-0.13958030939102173,0.2962278723716736,5.162452220916748,1.0547806024551392,3.924903631210327,-1.08174576473732,-0.5139446012219735,-0.40658057973529965
1687094696.6296859,-0.6311376094818115,0.47317686676979065,-0.6146292090415955,0.18523019552230835,0.4779037535190582,-0.021341800689697266,7.244477272033691,2.917757511138916,3.5764267444610596,-0.7986489911129291,-0.49289342315306295,-0.00706655192445375
1687094696.753655,-0.41830265522003174,0.32907259464263916,-0.8466014862060547,0.23818817734718323,-0.09245425462722778,0.5239543914794922,4.363008975982666,4.550097465515137,3.7870638370513916,-0.45891348884343786,-0.3353212958853214,0.37418675409173346
1687094696.830051,-0.18189826607704163,0.2467031478881836,-0.951866865158081,0.9899125099182129,0.181565523147583,-0.25870436429977417,4.083307266235352,3.210361957550049,3.5298023223876953,-0.18881986328695013,-0.24927677512607016,0.6117980009482357
1687094696.8350391,-0.03222821652889252,0.0859348252415657,-0.9957793951034546,0.9479847550392151,-0.15258502960205078,-0.3568664789199829,3.074640989303589,0.8630973100662231,1.8264539241790771,-0.03235352140729085,-0.08604095046887275,0.7912953114410488
1687094696.8497581,-0.018247557803988457,-0.031440481543540955,-0.9993390440940857,-0.022859303280711174,0.16263574361801147,0.1034650206565857,-0.30391618609428406,0.01058282982558012,-0.15252703428268433,-0.018257597865218113,0.03144566542893062,0.8060928381152636
1687094697.0175328,-0.027365952730178833,0.03080330789089203,-0.9991507530212402,0.109931580722332,0.026890357956290245,0.1761069893836975,0.14169883728027344,-0.09875122457742691,-0.07407143712043762,-0.0273823664016182,-0.030808181802791098,0.8131113015851466
1687094697.034585,-0.0172394011169672,-0.009490287862718105,-0.9998063445091248,0.04766574501991272,-0.1058507114648819,0.17212384939193726,0.3010637164115906,0.2577836811542511,0.1888577938079834,-0.017241031080293585,0.00949043053372679,0.8141412293673612
1687094697.1375341,-0.007847201079130173,-0.035794150084257126,-0.9993283748626709,-0.0014908593147993088,0.18528470396995544,-0.0546724796295166,0.6704514026641846,0.06583137065172195,-0.2457144409418106,-0.00785231401834311,0.03580179945854847,0.8142339723304453
1687094697.15558,-0.01615261286497116,-0.020798878744244576,-0.999653160572052,0.10822445899248123,0.030290044844150543,0.013370871543884277,-1.1499265432357788,-0.438570111989975,-0.8951060771942139,-0.016156810553034088,0.02080037919034642,0.7853654946286737
1687094697.228862,-0.05706382542848587,0.02417742647230625,-0.9980777502059937,0.12411125004291534,0.2319720834493637,-0.13175928592681885,-0.6969712972640991,-1.065467119216919,-1.2036027908325195,-0.05711155291829718,-0.024179783359761866,0.7258742977725465
1687094697.233805,-0.1374819576740265,0.1053442433476448,-0.9848864674568176,0.41827449202537537,-0.0428287610411644,-0.03641480207443237,-3.0929219722747803,-1.778123378753662,-1.605032205581665,-0.13869544702880945,-0.1055400639907945,0.6450285079039424
1687094697.254418,-0.26776033639907837,0.3409002721309662,-0.9011611342430115,0.7053064107894897,-0.18977698683738708,0.06925201416015625,-7.344807147979736,-2.540677785873413,-2.6157569885253906,-0.288819984946183,-0.3478743782713212,0.4798958342706956
1687094697.344314,-0.43190741539001465,0.617953896522522,-0.656954288482666,0.5660324096679688,-0.03877580165863037,0.0009638071060180664,-9.682799339294434,-1.9784444570541382,-3.504077434539795,-0.5815870535269845,-0.6661375646492239,0.1157084126834501
1687094697.4360142,-0.5973653793334961,0.7614359259605408,-0.2517335116863251,0.29429560899734497,-0.04869776964187622,0.12163731455802917,-10.12232494354248,-0.3478459417819977,-2.941676378250122,-1.1719735247122054,-0.8655253418735623,-0.6013341148548319
1687094697.496468,-0.7140125036239624,0.6985148787498474,0.04757065698504448,0.3001638650894165,0.6092244982719421,-0.012261629104614258,-5.9374213218688965,0.43852418661117554,-3.022862672805786,-1.6373224130250297,-0.7733199878936278,-1.252997884115722
1687094697.501421,-0.8024870157241821,0.5709542036056519,0.17328064143657684,0.20069563388824463,0.30708247423171997,-0.15586994588375092,-2.8880422115325928,0.7916966080665588,-2.144469738006592,-1.7834607816531336,-0.6076676321229854,-1.5204103212865623
1687094697.5896978,-0.8469914793968201,0.48791414499282837,0.21105723083019257,-0.4875878095626831,-0.011931449174880981,-0.10128521919250488,-1.6252554655075073,0.4895733892917633,-0.8175708055496216,-1.8150073996052751,-0.5096985630163592,-1.594139830736012
1687094697.6073542,-0.8731487989425659,0.4487502872943878,0.19035311043262482,-0.9014787673950195,-0.41438746452331543,-0.48886048793792725,0.08837543427944183,1.145175814628601,-0.06883706152439117,-1.7854454602890015,-0.4653664085734288,-1.6431489846972658
1687094697.6107302,-0.868279755115509,0.4704799950122833,0.15728552639484406,-0.22638559341430664,-0.5699062347412109,-1.2338080406188965,1.1526931524276733,-0.5562964677810669,0.19609446823596954,-1.7499992193849903,-0.4898346558361714,-1.5983722801190978
1687094697.709866,-0.8723439574241638,0.4646061360836029,0.15217478573322296,-0.26878446340560913,-0.03818395733833313,0.4002547264099121,-0.372734397649765,0.5981307029724121,-0.6626908183097839,-1.7435020371606855,-0.4831897754548254,-1.5750955188146085
1687094697.714635,-0.8876346349716187,0.43902453780174255,0.13914704322814941,-0.011077284812927246,-0.14826831221580505,-0.1531849056482315,-0.4909798204898834,0.40084463357925415,-0.10496357083320618,-1.7262924630980547,-0.4545127128959591,-1.612130631793305
1687094697.83293,-0.887243926525116,0.443638414144516,0.12642446160316467,0.07407265901565552,0.2984270453453064,-0.10588574409484863,0.4983259439468384,0.07050024718046188,0.13774293661117554,-1.7123347458084521,-0.4596544111009148,-1.5995698832100271
1687094697.8505878,-0.8828794360160828,0.45047053694725037,0.13266552984714508,0.10225522518157959,-0.2035527527332306,-0.010823726654052734,-0.563303530216217,-0.32771608233451843,0.23031847178936005,-1.719945042515154,-0.46729232208133403,-1.6060666247655626
1687094697.982353,-0.8663668036460876,0.46548399329185486,0.1809224933385849,0.13174790143966675,-0.28752073645591736,-0.39562860131263733,-0.4129619896411896,-1.3786778450012207,0.6710953712463379,-1.7766667073832145,-0.48418137236485914,-1.639447935216235
1687094698.000591,-0.8188128471374512,0.5050489902496338,0.2728936970233917,0.1915547251701355,-0.4332411289215088,-0.4406485855579376,-0.6318503618240356,-2.3863162994384766,1.5225859880447388,-1.8924985978884676,-0.5294387014863834,-1.68191043942506
1687094698.014073,-0.7142370939254761,0.5737119913101196,0.4008987247943878,0.4325143098831177,-0.3037993311882019,-0.5988354682922363,0.4769971966743469,-3.991511344909668,2.3023486137390137,-2.082271038799965,-0.6110307283575884,-1.7434994516378075
1687094698.060447,-0.510502278804779,0.6838645339012146,0.5212642550468445,0.5874221920967102,-0.45606619119644165,-0.7534723877906799,1.0218943357467651,-5.088585376739502,3.65767240524292,-2.366624720468444,-0.7530462981856687,-1.8244945676479158
1687094698.092523,-0.2055007368326187,0.8023703098297119,0.5603313446044922,0.7556872367858887,-0.20495831966400146,-0.17899876832962036,1.6865978240966797,-6.030664443969727,4.541718006134033,-2.7900756334492884,-0.9312562168437385,-2.0168363058396315
1687094698.1507049,0.1452183574438095,0.8393172025680542,0.5238878130912781,0.6147154569625854,-0.29494476318359375,-0.14388275146484375,0.09990878403186798,-4.3414764404296875,5.5378499031066895,2.871188195719882,-0.9960260346873026,-2.457948535768102
1687094698.180414,0.4872041940689087,0.729314386844635,0.4803464114665985,1.51029372215271,0.06417292356491089,0.3491823673248291,-2.636399030685425,-6.070741653442383,5.295712947845459,2.349106836077817,-0.8173193565177055,-2.7895006064563175
1687094698.216312,0.7633004784584045,0.5201370120048523,0.3831838369369507,1.1140495538711548,0.4435010552406311,0.32569360733032227,-3.1272809505462646,-5.666187763214111,4.247385025024414,2.0360499628555466,-0.5470113310719159,-2.8179182666054654
1687094698.2736092,0.9138309955596924,0.33254751563072205,0.23307673633098602,1.1803615093231201,0.6961844563484192,0.5505534410476685,-2.8407814502716064,-4.175358772277832,2.0416603088378906,1.8205264998946045,-0.3390035502176598,-2.72473684545456
1687094698.303438,0.954326331615448,0.27028024196624756,0.1273181289434433,0.12514150142669678,0.5205367803573608,0.4286355972290039,-1.83432936668396,-2.29827618598938,0.21982969343662262,1.7034246717481514,-0.27368409076567585,-2.6055094767996487
1687094698.361351,0.9645215272903442,0.25970718264579773,0.04743632674217224,0.15242183208465576,0.0707368552684784,0.3922452926635742,-2.63205623626709,-2.1138551235198975,-0.1106700599193573,1.6199379305801214,-0.26271897049712784,-2.50263549287637
1687094698.391505,0.963686466217041,0.26682913303375244,-0.010509624145925045,0.08151000738143921,-0.020628809928894043,0.5520131587982178,-1.7066179513931274,-1.3524973392486572,-0.24725520610809326,1.5598911120834136,-0.27010138271812745,-2.387162577222087
1687094698.450613,0.9596798419952393,0.27825647592544556,-0.039846599102020264,-0.05907565355300903,-0.11042526364326477,0.5242518186569214,-1.1485438346862793,-0.7480347156524658,-0.17765375971794128,1.529299441152336,-0.28197842238768256,-2.3159531371149136
1687094698.4802,0.9569679498672485,0.2856868505477905,-0.0509425587952137,-0.022596120834350586,-0.025097429752349854,0.40256571769714355,-0.8223174810409546,-0.34967711567878723,-0.09355965256690979,1.5176132296343041,-0.28972307179444184,-2.2655795049569156
1687094698.57729,0.9555945992469788,0.28990161418914795,-0.05287560820579529,-0.050916314125061035,-0.0011749863624572754,0.26407212018966675,-0.13428081572055817,-0.06286997348070145,-0.0060176849365234375,1.5155200171449972,-0.29412402160907203,-2.2371443598580063
1687094698.6991758,0.9565044045448303,0.28752386569976807,-0.049285728484392166,-0.005454719066619873,-0.03135949373245239,0.2131342887878418,-0.0989377349615097,0.2067406326532364,0.05480911582708359,1.5193149326337074,-0.29164052664975026,-2.2391572161036937
1687094698.7189112,0.9578074812889099,0.28475308418273926,-0.038996048271656036,-0.018659472465515137,0.006018221378326416,0.012369096279144287,0.10931266844272614,0.19846469163894653,0.08331511914730072,1.530104931349153,-0.28874883006483154,-2.237080146078246
1687094698.784744,0.9588242769241333,0.2821725308895111,-0.032163940370082855,-0.005150020122528076,0.006187856197357178,-0.006029125303030014,0.03480115532875061,0.13945509493350983,0.06894104927778244,1.537263712985717,-0.28605792563832777,-2.242775193990871
1687094698.799104,0.9603529572486877,0.27708786725997925,-0.030732357874512672,0.024998605251312256,0.008648037910461426,-0.09113991260528564,0.18764716386795044,0.02629505842924118,0.11704406142234802,1.5388061363152654,-0.28076198301029825,-2.250420603382117
1687094698.812607,0.9621724486351013,0.2704790532588959,-0.03263472020626068,0.005722999572753906,-0.011201918125152588,-0.011448260396718979,0.34613507986068726,0.028065860271453857,0.12369124591350555,1.5368915799679799,-0.27389059541177424,-2.2613846119284595
1687094698.86812,0.9639222025871277,0.2638355791568756,-0.03528013452887535,0.005621194839477539,-0.021175265312194824,0.05000448599457741,0.19982099533081055,0.025667905807495117,0.1364212930202484,1.5342120525022733,-0.26699653533892564,-2.2706421423986325
1687094698.9009461,0.9654974937438965,0.2579430937767029,-0.03577268868684769,-0.008817315101623535,0.036368221044540405,0.041234973818063736,0.23144418001174927,0.09845507144927979,0.09147151559591293,1.5337622248358076,-0.26089263409700036,-2.2836763949089716
1687094698.9600239,0.9666299223899841,0.2541366517543793,-0.03226429224014282,-0.02179056406021118,0.0572950541973114,0.06645888090133667,0.18458852171897888,0.11569397896528244,0.04020806774497032,1.5374305917325728,-0.2569549415587484,-2.2959048786898606
1687094698.9902658,0.9666604995727539,0.25497156381607056,-0.023600619286298752,-0.031281471252441406,0.0779750645160675,0.06481420993804932,0.10217086970806122,0.20307539403438568,-0.04073125869035721,1.546386586555407,-0.2578182807989734,-2.299876467507429
1687094699.051546,0.964493453502655,0.26409482955932617,-0.002474198816344142,-0.010498762130737305,0.042942315340042114,0.1387042999267578,0.06791596114635468,0.6612995266914368,-0.23381710052490234,1.5682310491478086,-0.26726532001000297,-2.3017998691261456
1687094699.080251,0.9543310403823853,0.29112979769706726,0.06705012172460556,-0.06251579523086548,0.06255349516868591,0.5693325996398926,0.12174803763628006,2.382312297821045,-0.8621451258659363,1.6409398327662408,-0.2954075892260777,-2.301630131092354
1687094699.113792,0.9172514081001282,0.3422655463218689,0.20372505486011505,0.21559160947799683,0.152637779712677,0.5587716102600098,1.1305105686187744,3.7060303688049316,-0.9409985542297363,1.7893524560257195,-0.3493270209683719,-2.329197125861764
1687094699.176435,0.8708867430686951,0.39102858304977417,0.2977462112903595,0.07167935371398926,-0.04764503240585327,0.03220951557159424,-0.15372881293296814,2.058866500854492,-0.47659337520599365,1.9002267167920157,-0.40174890114628253,-2.3890054041192568
1687094699.238789,0.8308811187744141,0.38504916429519653,0.4017132818698883,0.07723063230514526,-0.06275323033332825,-0.22783973813056946,-0.21600763499736786,1.3003708124160767,-0.404664009809494,2.0211397078279925,-0.3952610965120461,-2.3163701682075764
1687094699.3569021,0.8094319701194763,0.3919951021671295,0.4372177720069885,0.004761815071105957,-0.050641000270843506,-0.14070934057235718,-0.6284511089324951,0.5685497522354126,0.08051814138889313,2.0660486959736217,-0.40279924653531457,-2.308245644964637
1687094699.4490151,0.8057742118835449,0.38914355635643005,0.44642481207847595,0.1935393214225769,0.18808096647262573,0.11879098415374756,1.0951688289642334,0.08804946392774582,0.31801724433898926,2.0767299727146806,-0.399701683681228,-2.3218486220004126
1687094699.46833,0.8017612099647522,0.39753955602645874,0.4462517499923706,0.1616939902305603,0.08282211422920227,0.3552767038345337,-0.6300801634788513,0.5178959965705872,-0.13456155359745026,2.0786844559075015,-0.40883386463487104,-2.3435871783881974
1687094699.481966,0.7670490145683289,0.4125526249408722,0.4913615882396698,0.24242699146270752,0.013182759284973145,0.3954179883003235,0.635158896446228,2.085019826889038,-0.5151430368423462,2.1405257756182894,-0.42525448690354567,-2.326533720835664
1687094699.5623178,0.6612601280212402,0.46497857570648193,0.5886677503585815,0.1497752070426941,-0.05094680190086365,0.4258125424385071,1.0915424823760986,4.397356986999512,-1.2229208946228027,2.298182401553551,-0.4836103970344596,-2.346239306416987
1687094699.566084,0.44023624062538147,0.5141685009002686,0.7360857129096985,0.569941520690918,-0.04917246103286743,0.7801797986030579,-0.7898367643356323,6.515525817871094,-1.8653836250305176,2.602587993076356,-0.5400379294626697,-2.2863364875515937
1687094699.6890059,0.09805729985237122,0.5031828880310059,0.8585985898971558,1.4982413053512573,0.2660125494003296,0.9340801239013672,-0.1008853018283844,7.491090774536133,-1.954192042350769,3.0278791143103176,-0.5272779633486319,-2.1646353953535926
1687094699.706501,-0.2803500294685364,0.5484133362770081,0.7878113985061646,1.2133947610855103,0.38394445180892944,0.507736325263977,2.437680721282959,6.983789443969727,-2.359100818634033,-2.7997074964117545,-0.5804655833414036,-2.006410338717648
1687094699.806058,-0.5850220918655396,0.5587923526763916,0.5877924561500549,1.2434697151184082,-0.34431493282318115,0.5171881914138794,-2.0893216133117676,7.010763168334961,-2.1867637634277344,-2.358556626463285,-0.5929288466491838,-1.8580418823051201
1687094699.826441,-0.8083056211471558,0.42077115178108215,0.41181761026382446,1.5333271026611328,1.1419882774353027,0.2602560520172119,3.899729013442993,6.035741329193115,-1.641150951385498,-2.042001167819469,-0.4342952219665471,-1.8427332776087106
1687094699.894651,-0.9261261820793152,0.3654956817626953,0.09329010546207428,1.2806031703948975,-0.8983478546142578,0.592195987701416,-3.1296751499176025,4.688968658447266,-2.6654186248779297,-1.6711892145166238,-0.3741652742570991,-1.7314011816125405
1687094699.898862,-0.9518976211547852,0.2963399887084961,-0.07793432474136353,0.8681267499923706,-0.16734212636947632,-1.514487862586975,1.4374463558197021,1.740929365158081,-0.37362340092658997,-1.4891059430636946,-0.3008582226227592,-1.734362227413889
1687094699.921493,-0.9533999562263489,0.28537875413894653,-0.09791474789381027,0.3324741721153259,-0.33442050218582153,-0.5333868265151978,-0.09359969198703766,0.051425714045763016,-0.10647531598806381,-1.4684545350403353,-0.28940160664545683,-1.7313937107045898
1687094700.016715,-0.9530740976333618,0.28818264603614807,-0.09273822605609894,0.03153485059738159,-0.15105193853378296,-0.21081972122192383,0.28592658042907715,-0.017496652901172638,0.24347463250160217,-1.4737973726163112,-0.29232842385471675,-1.7370748543565824
1687094700.034087,-0.94801926612854,0.3130658268928528,-0.05700041726231575,-0.09739077091217041,-0.15181097388267517,-0.3051971197128296,0.27646490931510925,-0.706095278263092,0.5436540842056274,-1.5107428234911808,-0.31841941043520927,-1.7352285893747932
1687094700.138876,-0.9409680366516113,0.33659064769744873,-0.03585489094257355,-0.17507487535476685,0.023608297109603882,-0.024249128997325897,0.3516044020652771,-1.250482439994812,-0.00955476239323616,-1.5327104927375952,-0.343293924022595,-1.71698556995059
1687094700.1571012,-0.9347260594367981,0.35430464148521423,-0.027481039986014366,0.037295758724212646,0.07713761925697327,-0.10980194807052612,0.11381181329488754,-0.7387666702270508,0.6086342334747314,-1.5414046934007217,-0.36217038098861254,-1.7068899622558873
1687094700.253434,-0.9233384728431702,0.38385045528411865,-0.01023735012859106,0.017225921154022217,-0.09603914618492126,-0.2379770278930664,1.0061864852905273,-0.7758458852767944,1.0083892345428467,-1.5597094599583334,-0.39396257782444516,-1.6657387136808282
1687094700.272948,-0.902008056640625,0.430716335773468,0.029410768300294876,0.23822027444839478,-0.22312048077583313,0.018441081047058105,0.011412209831178188,-1.173154592514038,0.946122407913208,-1.6033906615935873,-0.4452863779308932,-1.6474144245911893
1687094700.346781,-0.8768513798713684,0.4731930196285248,0.08496911078691483,0.18716961145401,0.023068547248840332,-0.07721734791994095,1.031754732131958,-1.7889753580093384,0.9654651284217834,-1.6673972405742037,-0.49291175298599976,-1.627230522871481
1687094700.351291,-0.8378840684890747,0.5306118726730347,0.12806721031665802,0.026620209217071533,-0.15118682384490967,-0.08909596502780914,0.8376643657684326,-1.6884875297546387,1.525930643081665,-1.7224684559499976,-0.5593222911158143,-1.5643377888064391
1687094700.373067,-0.7753817439079285,0.6033690571784973,0.18635663390159607,-0.13596445322036743,-0.14578849077224731,-0.2386176735162735,1.1275677680969238,-2.0538341999053955,1.9424279928207397,-1.8066644542063302,-0.6477191252302406,-1.538849390656744
1687094700.431179,-0.6733639240264893,0.7082364559173584,0.2120903879404068,-0.2696595788002014,-0.13786280155181885,-0.39406630396842957,4.237129211425781,-3.284337282180786,2.872445821762085,-1.8759311386686648,-0.7869970823638986,-1.4419183794469912
1687094700.46381,-0.4885355234146118,0.870255708694458,0.06315289437770844,0.031061947345733643,-0.3567361831665039,0.3148380517959595,4.700770854949951,-1.1351045370101929,4.891564846038818,-1.699353204972774,-1.0557211683401304,-1.0656985683578606
1687094700.52301,-0.24682781100273132,0.9690218567848206,0.008520177565515041,0.5493946671485901,0.12195104360580444,0.06727039813995361,1.416477918624878,-0.5463109612464905,5.068639278411865,-1.6053013374455225,-1.3212390953564779,-0.9105631730575122
1687094700.551817,-0.06198904663324356,0.9959868788719177,-0.06455446034669876,0.8654256463050842,0.1273956298828125,0.27698755264282227,0.5795102715492249,-0.9650630354881287,3.2277188301086426,-0.7651279514666922,-1.4811771417287598,-0.034899902462838965
1687094700.610887,0.04430101439356804,0.9951708912849426,-0.08759131282567978,0.27598127722740173,0.3925853967666626,0.11122740060091019,0.25158700346946716,-0.7163111567497253,1.1567553281784058,0.468252536375209,-1.472480211493755,1.2443708688329345
1687094700.6410298,0.08635279536247253,0.9921825528144836,-0.09009456634521484,-0.09543147683143616,0.21306341886520386,0.04521864652633667,-0.010488827712833881,0.04066867008805275,0.41983774304389954,0.7641951956533528,-1.4456750590200809,1.560781750221841
1687094700.701202,0.08403478562831879,0.9941729307174683,-0.06751607358455658,0.4638933837413788,0.16378605365753174,0.0240592360496521,-0.9475728869438171,0.4093165993690491,-0.48799970746040344,0.8939673790731717,-1.4627893877101226,1.69235681330535
1687094700.828798,0.07627248018980026,0.9960241317749023,-0.04602816700935364,0.028586216270923615,0.31064707040786743,0.03194450959563255,0.10146992653608322,0.3317914605140686,-0.4781792163848877,1.0278291448639245,-1.4815942155527175,1.8191028099260493
1687094700.834426,0.01906517893075943,0.999464213848114,-0.026606304571032524,0.20436957478523254,0.23358333110809326,0.12195861339569092,-0.8397178053855896,0.508557915687561,-1.7988276481628418,0.6217579166447874,-1.5380596365933608,1.3857240168459288
1687094700.9476829,-0.08907673507928848,0.9958762526512146,0.01720317453145981,0.23768240213394165,0.2544289827346802,0.11713540554046631,-0.9893949031829834,0.856740415096283,-2.6889290809631348,-1.7615751371295845,-1.4799495484272005,-1.0339875300289778
1687094700.966402,-0.23516729474067688,0.969461977481842,0.06956783682107925,0.5019370317459106,0.18211877346038818,0.08991718292236328,-1.6526516675949097,0.9959250092506409,-3.126230478286743,-1.858416380881225,-1.3230274636491681,-1.1809515947211175
1687094701.064218,-0.40035486221313477,0.9022238850593567,0.16033808887004852,0.49811816215515137,0.24439799785614014,0.0941329151391983,-2.3247504234313965,1.1444092988967896,-3.6155073642730713,-1.9517250043664571,-1.1248985994710738,-1.333419100753947
1687094701.0836701,-0.5674687623977661,0.792962908744812,0.2217864692211151,0.4608405828475952,0.2849486470222473,-0.07756015658378601,-2.566840171813965,1.1132559776306152,-3.4456801414489746,-1.9433766582861505,-0.9156567837857359,-1.39647123082474
1687094701.157949,-0.7069814205169678,0.6585541367530823,0.25784432888031006,0.16334152221679688,0.275634765625,-0.2103433609008789,-1.8976523876190186,2.0869698524475098,-2.7260212898254395,-1.9205166514247416,-0.7188957980499848,-1.4895196270648556
1687094701.1627312,-0.8060337901115417,0.5525692701339722,0.21207676827907562,0.04732125997543335,0.04377472400665283,0.10478755831718445,-1.5319535732269287,2.338822841644287,-2.1478357315063477,-1.8280766668000166,-0.5854437379726789,-1.509128621449153
1687094701.182081,-0.8840951323509216,0.4466817080974579,0.1372995674610138,-0.07067769765853882,-0.09518018364906311,0.2946922779083252,-1.1995055675506592,2.8830230236053467,-1.870265245437622,-1.7248651367978218,-0.46305303596855335,-1.585422890644072
1687094701.2763162,-0.9266754388809204,0.37558087706565857,0.014536896720528603,-0.05376255512237549,-0.33142194151878357,-0.49318957328796387,0.9576285481452942,2.26401948928833,-0.9563490748405457,-1.5864821902214445,-0.38502344399505817,-1.582392725299965
1687094701.281395,-0.9257617592811584,0.3752763569355011,-0.04618242383003235,0.23720896244049072,-1.0182054042816162,-1.0471705198287964,0.20633429288864136,0.21209530532360077,0.4613698124885559,-1.5209517818116673,-0.3846949156567023,-1.5621922015058736
1687094701.396797,-0.9202820062637329,0.3872678577899933,-0.05571974068880081,-0.048086464405059814,0.2499087154865265,0.03315234184265137,1.4915024042129517,-0.2098543345928192,0.043747808784246445,-1.5103237719635265,-0.39766635694612873,-1.5116175396502127
1687094701.402529,-0.9173065423965454,0.39510032534599304,-0.04944387078285217,0.09441518783569336,-0.2953076958656311,-0.07378578931093216,-0.31030189990997314,-0.7271797060966492,0.6562012434005737,-1.5169472911937414,-0.40617705855785585,-1.4781432842208544
1687094701.516474,-0.8881892561912537,0.45844438672065735,0.030796118080615997,0.3691616654396057,-0.5756776332855225,-0.728961706161499,-0.3266949951648712,-2.515697717666626,2.0979604721069336,-1.605455367065361,-0.4762440069999101,-1.5101809981205103
1687094701.532414,-0.7962285280227661,0.5821565985679626,0.16466325521469116,0.7708837389945984,-0.4196351170539856,-0.7741752862930298,2.044046640396118,-4.516313076019287,3.5620081424713135,-1.77472556118023,-0.6213785936683923,-1.4852245409904508
1687094701.6079102,-0.5987086296081543,0.7668926119804382,0.23113535344600677,0.8406217098236084,-0.29873764514923096,-0.5075938701629639,4.1202392578125,-5.24675178527832,4.955758571624756,-1.9392249749599382,-0.87398521146918,-1.356392665806882
1687094701.6126509,-0.29703420400619507,0.9383687973022461,0.17673371732234955,0.609900712966919,-0.3534840941429138,-0.15271615982055664,2.463947296142578,-3.737326145172119,6.86915922164917,-2.107527192280139,-1.2178802557423474,-1.259025513755357
1687094701.631915,0.061835259199142456,0.9938095211982727,0.0922989547252655,0.9714750051498413,-0.22124183177947998,-0.5232833623886108,2.4875035285949707,-2.915375232696533,7.272043228149414,2.551323600308642,-1.459469292823978,-2.7202476164436606
1687094701.7259622,0.398681640625,0.916972815990448,0.014622659422457218,1.103119134902954,-0.16459262371063232,0.7039899826049805,-0.5622185468673706,-1.4849873781204224,7.251144886016846,1.6074574262837145,-1.1604251447195195,2.709733322833002
1687094701.7307029,0.6733657717704773,0.738382875919342,0.03699978068470955,1.3615922927856445,0.05998712778091431,0.5225704908370972,-2.9618306159973145,-1.904826283454895,5.697635650634766,1.6256886496189216,-0.8306692548365336,2.8376543724202836
1687094701.8462439,0.830792248249054,0.551565408706665,0.0745646134018898,0.8896058797836304,0.5364164710044861,0.37053418159484863,-3.5629374980926514,-1.8745696544647217,3.525073289871216,1.660307709348336,-0.5842397588923607,3.0371742867907154
1687094701.851027,0.9028068780899048,0.42376944422721863,0.07320531457662582,0.31276935338974,0.5624972581863403,0.17804574966430664,-2.603394031524658,-1.6415599584579468,2.058689832687378,1.6517056580731073,-0.4376028845733277,-3.0807044752746755
1687094701.967019,0.9417322874069214,0.3341297209262848,0.0386979915201664,0.3433172106742859,0.37775346636772156,0.1796550750732422,-2.6309292316436768,-1.938346266746521,1.4640271663665771,1.611865569563349,-0.34068173990758904,-2.95370406705009
1687094701.9876142,0.9609478712081909,0.27652227878570557,-0.010686783120036125,0.032246530055999756,0.3991212844848633,0.42770928144454956,-1.9951616525650024,-1.6029599905014038,0.8244720697402954,1.559675699829665,-0.2801733870725636,-2.8219251956426543
1687094702.119506,0.9663166403770447,0.2515336275100708,-0.054430533200502396,-0.02872520685195923,0.29047349095344543,0.3264334201812744,-1.218124270439148,-1.0663529634475708,0.34862881898880005,1.5145279420694602,-0.2542645012906321,-2.7418970467860158
1687094702.138657,0.9667083024978638,0.24224014580249786,-0.08243051916360855,0.019711434841156006,0.16214799880981445,0.44861066341400146,-1.190321922302246,-0.7401511669158936,0.25724196434020996,1.4857328097172275,-0.244674100367836,-2.6763787394588037
1687094702.153461,0.966410756111145,0.23831532895565033,-0.09620655328035355,-0.04558873176574707,0.10435101389884949,0.38497889041900635,-0.8385513424873352,-0.3296861946582794,0.0750918760895729,1.4715728719720302,-0.24063083233745236,-2.626481553766994
1687094702.298626,0.9657266139984131,0.24129407107830048,-0.09565125405788422,-0.07203465700149536,0.08710534870624542,0.32570767402648926,-0.5644076466560364,0.003623346332460642,0.043485552072525024,1.4720724241438987,-0.24369910572174278,-2.586731986964502
1687094702.318523,0.9656162858009338,0.24603880941867828,-0.08396454900503159,-0.023920118808746338,0.04195527732372284,0.1637219786643982,-0.7237949371337891,0.16522830724716187,-0.07902305573225021,1.4840601269524591,-0.248591299755308,-2.5556745213537173
1687094702.3329082,0.9645753502845764,0.25473153591156006,-0.06860262155532837,0.013803064823150635,0.07427826523780823,0.035383932292461395,-0.6513188481330872,0.13540738821029663,-0.17162489891052246,1.499793785831845,-0.25757005935386046,-2.5234419261946694
1687094702.444802,0.96309894323349,0.2637006342411041,-0.05387318134307861,0.022161006927490234,0.010484308004379272,-0.04077737778425217,-0.5029184818267822,0.08378056436777115,-0.1237218827009201,1.5149172317987594,-0.2668566194609221,-2.488131307383466
1687094702.4495358,0.9613305926322937,0.2719794809818268,-0.04324764013290405,0.015201270580291748,-0.0064615607261657715,-0.017360560595989227,-0.6296519041061401,0.05740111321210861,-0.1709827333688736,1.525839366912117,-0.27544944717184894,-2.4630541913340642
1687094702.468396,0.959220290184021,0.28092366456985474,-0.03127675876021385,0.009316086769104004,-0.024637281894683838,-0.009373009204864502,-0.6001763343811035,0.023242654278874397,-0.13336704671382904,1.5382014356227418,-0.28475640217639697,-2.4266219176677755
1687094702.5306458,0.9577091932296753,0.28669801354408264,-0.024442851543426514,-0.008368253707885742,-0.020920604467391968,0.017286118119955063,-0.30709919333457947,0.016095971688628197,-0.0926089659333229,1.5452796604445476,-0.2907783906985494,-2.4058099631383674
1687094702.598644,0.9566367268562317,0.2905293107032776,-0.02094987966120243,0.0043160319328308105,-0.027376413345336914,0.012618303298950195,-0.02789018675684929,0.028114862740039825,-0.049201708287000656,1.548900313316785,-0.29477995581253125,-2.3966359278546325
1687094702.615391,0.9564065933227539,0.2913258671760559,-0.020389290526509285,-0.00010770559310913086,-0.04929119348526001,0.04428422451019287,0.09425435960292816,0.06716856360435486,0.003526885062456131,1.549480911866931,-0.2956125334059818,-2.4008771465190444
1687094702.650785,0.9578853845596313,0.2865973114967346,-0.01780988834798336,0.004318416118621826,-0.05051359534263611,0.01019543781876564,0.1268485188484192,0.07178209722042084,0.037816815078258514,1.5522055475938341,-0.29067325396688615,-2.405579468034016
1687094702.68136,0.9596221446990967,0.2810004651546478,-0.012796415016055107,0.00018608570098876953,-0.03743991255760193,0.025354089215397835,0.07063265144824982,0.05569107457995415,0.05818859487771988,1.55746226961334,-0.284836413863722,-2.40769039791016
1687094702.740896,0.961204469203949,0.2756491005420685,-0.010158663615584373,0.0110243558883667,0.0036169886589050293,-0.008060691878199577,0.23026706278324127,0.07213291525840759,0.05727546662092209,1.560228038892353,-0.2792648992502292,-2.413411960990345
1687094702.770937,0.9620876312255859,0.2725323438644409,-0.010645195841789246,-0.008031904697418213,0.03537449240684509,0.006799639202654362,0.2551034390926361,0.034669436514377594,0.04482971504330635,1.5597320943167632,-0.27602403957490707,-2.4272596448587014
1687094702.802692,0.9624493718147278,0.2711898386478424,-0.012129215523600578,-0.005204498767852783,0.02418956160545349,0.026411116123199463,0.29464659094810486,0.06290342658758163,0.03404457867145538,1.558194549061942,-0.2746289677468446,-2.4411865755317774
1687094702.860167,0.962486982345581,0.2709603011608124,-0.014120776206254959,-0.0028311610221862793,0.01453140377998352,0.03510129451751709,0.40756621956825256,0.08400777727365494,0.030308565124869347,1.5561262445602528,-0.2743905021393111,-2.4600201207497987
1687094702.8878741,0.9629799723625183,0.2691635191440582,-0.014841053634881973,-0.008374989032745361,-0.012022644281387329,0.04494631290435791,0.3623659610748291,0.09199097752571106,0.02489975094795227,1.5553859556238108,-0.2725243764129385,-2.4815879876215927
1687094702.986899,0.9637577533721924,0.2664121985435486,-0.013971886597573757,-0.004071593284606934,-0.05460521578788757,0.041788339614868164,0.28007030487060547,0.11002453416585922,0.035729363560676575,1.5563000411556305,-0.2696687624102918,-2.4953204648113783
1687094703.003007,0.9645861387252808,0.2634667158126831,-0.012587779201567173,0.03220933675765991,-0.011376529932022095,-0.0014964323490858078,0.32251229882240295,0.12664245069026947,0.05978323146700859,1.557747139980949,-0.26661412063198464,-2.5124218020791553
1687094703.110647,0.9654015898704529,0.26056599617004395,-0.010262100026011467,0.00540846586227417,-0.022895336151123047,0.005485772155225277,0.176790252327919,0.0913889929652214,0.06557227671146393,1.5601668502408588,-0.26360839212974047,-2.524822466803671
1687094703.1156402,0.9662278294563293,0.2575318217277527,-0.009007011540234089,0.0015150904655456543,0.034322768449783325,-0.03516745567321777,0.42330390214920044,0.11602966487407684,0.019479751586914062,1.5614747663180684,-0.2604670075294151,-2.539107548061602
1687094703.226645,0.9664926528930664,0.25654348731040955,-0.008785483427345753,0.007307946681976318,0.012468695640563965,-0.009449063800275326,0.4805602431297302,0.10136815160512924,0.008259788155555725,1.5617065097294296,-0.2594442825328937,-2.5624062203525706
1687094703.23157,0.9666100144386292,0.2560846209526062,-0.009271533228456974,0.005283474922180176,-0.008617788553237915,-0.011679054237902164,0.38664042949676514,0.0960758700966835,-0.009677533991634846,1.5612048175649358,-0.2589695631686955,-2.5851256196284913
