Timestamp,gravityX,gravityY,gravityZ,accelerationX,accelerationY,accelerationZ,rotationRateX,rotationRateY,rotationRateZ,attitudeRoll,attitudePitch,attitudeYaw
1687102444.651839,0.8704695701599121,0.4527227282524109,0.19319672882556915,0.042555391788482666,-0.014932781457901001,-0.04323336482048035,0.13499082624912262,0.06464355438947678,-0.036085933446884155,1.7892014859144925,-0.4698165442478721,-1.4108689806573655
1687102444.723602,0.870812177658081,0.45251116156578064,0.19214461743831635,0.0040961503982543945,-0.042126089334487915,-0.013891473412513733,-0.08229861408472061,-0.008816775865852833,0.012933941558003426,1.787966440989597,-0.46957930922527186,-1.4117694806271064
1687102444.7648768,0.8723394870758057,0.449561208486557,0.19214248657226562,-0.01780146360397339,-0.01634889841079712,0.005321413278579712,-0.1511296033859253,0.053075242787599564,0.03126893937587738,1.7875956948271523,-0.466274052419121,-1.4067109905431747
1687102444.80926,0.8733726739883423,0.4450293183326721,0.19791096448898315,0.004297435283660889,-0.021170765161514282,-0.026707425713539124,-0.26153284311294556,0.042571645230054855,0.04863647744059563,1.7936382809565843,-0.46120701597400343,-1.3973511024901972
1687102444.8993201,0.8759710788726807,0.43801411986351013,0.20203536748886108,0.02220708131790161,-0.021021902561187744,-0.04755553603172302,-0.15156769752502441,-0.10746771842241287,0.14474523067474365,1.797473991694767,-0.4533884174589493,-1.3851243425249964
1687102444.91403,0.8818892240524292,0.42851319909095764,0.19659096002578735,0.020714104175567627,-0.010040879249572754,-0.0366789847612381,-0.3280612528324127,-0.2377082258462906,0.17784126102924347,1.7901303459919542,-0.442846608262399,-1.3768242562333493
1687102444.985354,0.8874863386154175,0.4194687306880951,0.19082431495189667,0.0027724504470825195,0.052058398723602295,0.001466900110244751,0.04498424381017685,-0.13871727883815765,0.15269257128238678,1.7825883671674152,-0.4328599799869143,-1.3716354909028186
1687102445.0131679,0.8905345797538757,0.4148353040218353,0.18670734763145447,-0.021638214588165283,0.035161614418029785,0.030760765075683594,-0.006702388171106577,-0.02611052431166172,0.051236122846603394,1.7774605640954484,-0.4277617992331002,-1.3725629558083559
1687102445.083952,0.8895801901817322,0.41563811898231506,0.18945087492465973,-0.019554734230041504,0.05956625938415527,0.034319132566452026,-0.0707535445690155,0.11637118458747864,-0.04879533499479294,1.780628124287876,-0.4286442788199885,-1.3722181182729933
1687102445.120263,0.8871372938156128,0.41784754395484924,0.19593478739261627,-0.02443605661392212,0.05621245503425598,3.3721327781677246e-05,-0.0019134916365146637,0.07357519119977951,-0.07007818669080734,1.7881685374890817,-0.43107483895061455,-1.3655941326190284
1687102445.185268,0.883483350276947,0.4237876534461975,0.199651837348938,0.004867911338806152,0.037012457847595215,-0.012792855501174927,-0.1115475744009018,0.043734826147556305,-0.12144310772418976,1.793045792919792,-0.43762296677852114,-1.3665242596005767
1687102445.224015,0.8803635239601135,0.42822638154029846,0.20391571521759033,0.011344552040100098,0.03780743479728699,-0.0022557228803634644,-0.011121637187898159,0.026283111423254013,-0.12042798101902008,1.798409161614965,-0.4425291725516014,-1.3577345838093358
1687102445.2727652,0.8776683807373047,0.4335631728172302,0.20425723493099213,0.012178301811218262,-0.01068115234375,-0.010714903473854065,-0.19517828524112701,-0.05867616459727287,-0.10893777012825012,1.7994532706745792,-0.4484431754265466,-1.3524006305132228
1687102445.3332539,0.8766161799430847,0.4359804093837738,0.2036294937133789,-0.003264188766479492,-0.02847921848297119,-0.014802098274230957,-0.10390324145555496,-0.09958227723836899,-0.05641504004597664,1.799038909185314,-0.4511273875870972,-1.343839804399416
1687102445.373914,0.8774913549423218,0.4346059560775757,0.2027967870235443,-0.0008892416954040527,-0.08836877346038818,8.392333984375e-05,-0.3646450936794281,-0.11322305351495743,0.009433016180992126,1.7979184386498432,-0.44960069520730905,-1.3320995044428043
1687102445.414493,0.8794894218444824,0.42962467670440674,0.20474594831466675,0.015957295894622803,-0.046110302209854126,-0.016528964042663574,-0.19372420012950897,-0.07394988089799881,0.06967978179454803,1.799523278724924,-0.44407710524473243,-1.3161595156053467
1687102445.48996,0.8823038935661316,0.4242217540740967,0.20390045642852783,0.008793950080871582,-0.018689006567001343,0.01045486330986023,0.05154653638601303,-0.06216275691986084,0.09693264216184616,1.7979092309032307,-0.43810230365446295,-1.313009542653923
1687102445.530978,0.8854411244392395,0.41945064067840576,0.20013689994812012,-0.013935565948486328,8.96751880645752e-05,0.036099523305892944,0.023224351927638054,-0.05304744467139244,0.1029791459441185,1.7930916167034174,-0.432840069215981,-1.31723418176461
1687102445.5830889,0.8878827095031738,0.41506654024124146,0.198454350233078,-0.011677265167236328,0.03219914436340332,0.025453001260757446,-0.01639549434185028,-0.007494893856346607,0.07065815478563309,1.7906960668907719,-0.42801593476561467,-1.317544455403156
1687102445.63884,0.887962281703949,0.4134571850299835,0.2014344185590744,-0.0097123384475708,0.04516094923019409,0.012020692229270935,0.04702209308743477,0.052104055881500244,0.010372379794716835,1.793871108587415,-0.4262477206590126,-1.3165817662367136
1687102445.687978,0.8864365816116333,0.4146979749202728,0.20556199550628662,0.0036238431930541992,0.034032464027404785,0.014301776885986328,-0.05285203829407692,0.07053932547569275,-0.015602562576532364,1.7986656712583224,-0.4276108593682015,-1.3171180640617535
1687102445.793814,0.8847187757492065,0.41627058386802673,0.20973998308181763,0.01039201021194458,0.037205278873443604,0.0015787631273269653,0.05613063648343086,0.0783902108669281,-0.02790110744535923,1.8035687274037147,-0.429339770800453,-1.3165956642147745
1687102445.805939,0.8830966949462891,0.4174855649471283,0.21411660313606262,0.006795823574066162,0.005121827125549316,-0.002645254135131836,-0.029010355472564697,0.08020632714033127,-0.036603450775146484,1.8086670728612186,-0.4306764254067992,-1.3128320339412565
1687102445.8239942,0.8811801671981812,0.42057183384895325,0.2159646600484848,-0.0015415549278259277,0.017279058694839478,-0.020545482635498047,0.16137290000915527,0.09530700743198395,-0.04536518454551697,1.8111444470669018,-0.43407552071293537,-1.3171305066399603
1687102445.865432,0.8791214823722839,0.42444029450416565,0.21678413450717926,-0.0015887618064880371,-0.011125564575195312,-0.010653406381607056,0.09241247922182083,0.07603923976421356,-0.05171835422515869,1.8125646935457391,-0.4383436490939749,-1.323318400929459
1687102445.962154,0.8776764273643494,0.42790037393569946,0.2158360630273819,0.01239919662475586,-0.00933656096458435,-0.011276841163635254,0.044224973767995834,0.02957770600914955,-0.03925003483891487,1.8119290435628037,-0.4421684683572613,-1.327969290326571
1687102445.9748201,0.8770321011543274,0.42955172061920166,0.2151745706796646,0.012112855911254883,-0.0071426331996917725,-0.02176949381828308,0.04372803121805191,0.012714903801679611,-0.025365710258483887,1.8113881103645384,-0.4439963039869612,-1.3294304482572687
1687102446.0176969,0.8767838478088379,0.430498868227005,0.21429048478603363,-0.006666839122772217,-0.012637019157409668,-0.005641967058181763,-0.030385347083210945,0.0036728724371641874,-0.015934592112898827,1.8105023529891942,-0.4450454181021069,-1.3314154861865433
1687102446.092805,0.8770402073860168,0.430257648229599,0.21372546255588531,0.0006452202796936035,-0.013540178537368774,-0.0032458454370498657,-0.020916210487484932,-0.005671693943440914,-0.003958822228014469,1.8098268988605672,-0.44477818739534386,-1.3297563301841941
1687102446.124023,0.877379298210144,0.42986488342285156,0.21312373876571655,0.011719882488250732,-0.007211655378341675,-0.013584703207015991,0.005283967591822147,-0.006053013727068901,0.009648466482758522,1.8090905035221863,-0.4443431363758053,-1.330357354108247
1687102446.167059,0.8782739639282227,0.4286142885684967,0.21195344626903534,0.009253323078155518,-0.007181882858276367,-0.0038236677646636963,-0.013775210827589035,-0.035283781588077545,0.020334133878350258,1.8075980542275645,-0.4429584979088176,-1.3295902582786758
1687102446.223734,0.879128634929657,0.42772746086120605,0.2101953625679016,0.0008456707000732422,-0.0008170902729034424,-0.003911852836608887,0.0010926845716312528,-0.025211283937096596,0.025935757905244827,1.805485524337554,-0.4419771388077686,-1.3310513648771076
1687102446.2694101,0.8802391886711121,0.42628368735313416,0.2084731161594391,-0.004247426986694336,0.007004857063293457,0.00768280029296875,0.0022181363310664892,-0.04649478197097778,0.0234567578881979,1.8033483258969472,-0.44038049500034776,-1.331033814630158
1687102446.336441,0.8811135292053223,0.4252295196056366,0.20692677795886993,0.005834043025970459,0.005571842193603516,0.0032019615173339844,-0.021492252126336098,-0.03196210786700249,0.016884008422493935,1.801463188655272,-0.4392154658833472,-1.3303895937449037
1687102446.4108481,0.8813585042953491,0.42523518204689026,0.2058691829442978,-0.0031084418296813965,0.018597185611724854,0.004595160484313965,0.010500035248696804,-0.021945470944046974,0.002944091334939003,1.8002637633517626,-0.43922170057026827,-1.3320034593531989
1687102446.422865,0.881507396697998,0.42524075508117676,0.20521876215934753,0.0019153356552124023,0.0059420764446258545,-0.0009037256240844727,0.010965555906295776,-0.045668065547943115,-0.0006374605000019073,1.7995265388775523,-0.43922788088488035,-1.3308970177377828
1687102446.4815922,0.8815163969993591,0.42610132694244385,0.203387051820755,0.006895959377288818,0.006958335638046265,0.010708913207054138,0.08924517780542374,-0.012778738513588905,-0.0037733332719653845,1.7975522930375403,-0.44017889335261867,-1.3326644439179707
1687102446.524394,0.8815521001815796,0.4269797205924988,0.20138011872768402,0.004128932952880859,-0.013039350509643555,0.0015768855810165405,-0.014165629632771015,-0.032635800540447235,-0.002975716255605221,1.7953808174597559,-0.4411500764683223,-1.33535944347555
1687102446.604815,0.881375253200531,0.4279160797595978,0.20016369223594666,-0.0055359601974487305,0.00808858871459961,0.002350836992263794,0.0770750641822815,-0.0059408280067145824,-0.011241436004638672,1.7941123227960123,-0.4421858241698219,-1.3377969083341812
1687102446.640356,0.881215512752533,0.42870983481407166,0.19916528463363647,-0.0013939142227172852,-0.00985613465309143,0.009010300040245056,0.0773102268576622,-0.00035216263495385647,-0.013133012689650059,1.7930737914136172,-0.4430642341040187,-1.3409234502126588
1687102446.6923041,0.8811563849449158,0.4294643998146057,0.19779656827449799,0.010124623775482178,-0.004247725009918213,-0.0053986310958862305,0.003699652850627899,-0.024397311732172966,0.0030835079960525036,1.7916099111595416,-0.4438996031663079,-1.3434012627049978
1687102446.7341452,0.8813639283180237,0.42951104044914246,0.19676844775676727,-0.0009775757789611816,0.00017648935317993164,-0.0031954944133758545,0.08067725598812103,0.0001436069142073393,-0.004323342349380255,1.7904487487922984,-0.4439512565400682,-1.3446539158497386
1687102446.787266,0.881271481513977,0.43004587292671204,0.1960127353668213,-0.0008088946342468262,-0.009773045778274536,0.00029146671295166016,0.002179254312068224,-0.004603366367518902,0.0006632269360125065,1.789654102500362,-0.4445435762125251,-1.3468616052748636
1687102446.821389,0.8813434839248657,0.43006786704063416,0.19564060866832733,0.006260216236114502,-0.006468653678894043,0.005409121513366699,-0.028199689462780952,-0.007849471643567085,-0.005223091226071119,1.7892344192110365,-0.4445679614786072,-1.347230740881217
1687102446.874123,0.8817814588546753,0.42900848388671875,0.19599227607250214,0.005501806735992432,-0.011726409196853638,-0.006539344787597656,-0.07441485673189163,-0.015976350754499435,0.018644489347934723,1.7895094205175361,-0.4433948226244551,-1.3450760623253744
1687102446.921082,0.8825127482414246,0.4270695745944977,0.19693350791931152,0.003641366958618164,-0.008459985256195068,-0.012683749198913574,-0.06641605496406555,-0.025469722226262093,0.027853436768054962,1.7903500714177925,-0.4412494509464707,-1.3399934967820628
1687102446.988524,0.8839690089225769,0.42364129424095154,0.19780440628528595,0.019427478313446045,-0.03507623076438904,-0.007161259651184082,-0.1769217848777771,-0.04061594232916832,0.05896201729774475,1.7909382785249957,-0.4374613906337016,-1.3340419717727374
1687102447.031506,0.8860152363777161,0.41913896799087524,0.19824005663394928,-0.003981113433837891,-0.012889057397842407,-0.005063921213150024,-0.010102178901433945,-0.0519208125770092,0.07603707164525986,1.7909143935757348,-0.43249676020756317,-1.327254858573026
1687102447.10397,0.8879205584526062,0.41646772623062134,0.19532465934753418,-0.010311245918273926,0.00319477915763855,0.013384968042373657,0.037368401885032654,-0.013530083000659943,0.06996194273233414,1.7873274529950447,-0.42955660409542895,-1.3321751042189898
1687102447.144697,0.8894951343536377,0.4135282635688782,0.1944037824869156,-0.00315779447555542,0.010803431272506714,0.020256787538528442,-0.08031881600618362,-0.04864519461989403,0.05030062049627304,1.7859681126469389,-0.42632579384772445,-1.3307401272792105
1687102447.179902,0.8902969360351562,0.4119070768356323,0.1941746324300766,-0.0028153657913208008,0.03960046172142029,0.006127357482910156,-0.04637816175818443,-0.013381189666688442,0.013764514587819576,1.7855345633169704,-0.42454593602528545,-1.3285469569082677
1687102447.222194,0.8903284072875977,0.41125959157943726,0.19539891183376312,0.018027305603027344,0.03574666380882263,-0.01249191164970398,-0.06574040651321411,-0.018427303060889244,0.007353353314101696,1.7868394606237525,-0.4238355011304464,-1.3260333971030014
1687102447.2962499,0.8906515836715698,0.41098904609680176,0.19449295103549957,-0.012294769287109375,0.009497374296188354,-0.02263331413269043,0.024816123768687248,-0.08450201898813248,0.012272212654352188,1.7857928083287093,-0.42353870274887256,-1.3236434995868072
1687102447.338571,0.8927029967308044,0.4086649715900421,0.18993206322193146,0.030575811862945557,-0.06987401843070984,-0.0415404736995697,0.03958601504564285,-0.15835188329219818,0.08568184822797775,1.7804310765249605,-0.42099081693762913,-1.3219862122079402
1687102447.405117,0.8968843817710876,0.4043016731739044,0.1792713701725006,-0.018100380897521973,-0.042180150747299194,-0.03673912584781647,-0.11050122231245041,-0.30350446701049805,0.10631109774112701,1.7680787674096945,-0.41621518483176434,-1.324675611031315
1687102447.45242,0.9004731178283691,0.40173962712287903,0.16659358143806458,-0.037130892276763916,0.24801009893417358,0.04202437400817871,-0.43040013313293457,-0.4526123106479645,-0.20315760374069214,1.753734588212101,-0.4134157193607277,-1.3075790056062997
1687102447.492219,0.8919801115989685,0.42127281427383423,0.16401350498199463,-0.08511072397232056,0.7485269904136658,0.4227325916290283,-0.5640879273414612,0.04544513300061226,-0.8907250761985779,1.7526408144078442,-0.4348482807090084,-1.2757842180033745
1687102447.540596,0.8558330535888672,0.4806676506996155,0.19107095897197723,-0.014799237251281738,1.1668084859848022,0.4837183952331543,-0.27029675245285034,0.799085795879364,-2.012892484664917,1.790451393901691,-0.5014159368747151,-1.236882388715826
1687102447.598382,0.773493230342865,0.5938250422477722,0.22153978049755096,0.28535985946655273,1.050004243850708,0.4741387367248535,1.7485333681106567,1.4547536373138428,-3.227724313735962,1.8497433554255933,-0.6358045420459897,-1.2328591952983234
1687102447.625784,0.6304737329483032,0.7548128962516785,0.1809968799352646,0.766330897808075,0.7615138292312622,0.29481780529022217,3.9202513694763184,1.5209455490112305,-4.1412153244018555,1.8503588563151399,-0.8553688056122108,-1.3455365620493802
1687102447.6971211,0.43967166543006897,0.8968636393547058,0.048212818801403046,0.9973553419113159,0.46267926692962646,0.2577410936355591,2.6793673038482666,0.7625722289085388,-4.531721591949463,1.6800163641792025,-1.1126267855510155,-1.6270380557784592
1687102447.733371,0.21965911984443665,0.9752585887908936,-0.024910353124141693,1.1938388347625732,0.40862202644348145,-0.04479188099503517,2.4009318351745605,0.06107451394200325,-4.780247688293457,1.457874173067276,-1.3478878024284953,-1.8754620088790692
1687102447.781158,-0.0245592650026083,0.9607847332954407,-0.27620503306388855,1.2632219791412354,0.4198302626609802,0.039998918771743774,7.363491058349609,-0.437943696975708,-5.0311079025268555,-0.08868356389246969,-1.2898184989417154,2.8352638827012524
1687102447.826802,-0.24527059495449066,0.8083691000938416,-0.5351464152336121,1.2040108442306519,-0.3281903862953186,0.3254295587539673,3.285242795944214,-2.368504762649536,-3.7602219581604004,-0.4297547967969466,-0.941376416077221,2.5353021513090006
1687102447.911968,-0.45064646005630493,0.6841583251953125,-0.5734500885009766,1.1438227891921997,-0.01333630084991455,0.1602572798728943,1.5662884712219238,-2.6491150856018066,-3.3167412281036377,-0.6660539104088669,-0.7534490490200321,2.3933641250680178
1687102447.977639,-0.6276326179504395,0.5412613153457642,-0.5595653653144836,0.9180532097816467,0.18614035844802856,0.05527758598327637,2.8671302795410156,-2.3433022499084473,-2.8950858116149902,-0.8426698698942068,-0.5719364148643521,2.3419722063100856
1687102447.989053,-0.7631568312644958,0.38476499915122986,-0.5191797018051147,0.9861335754394531,0.14456233382225037,0.1799004077911377,0.9041774868965149,-2.8439290523529053,-2.6257753372192383,-0.9734108827701008,-0.3949532007860113,2.340191179745615
1687102448.0469441,-0.8714544773101807,0.28223738074302673,-0.40113475918769836,0.8018745183944702,0.11215651035308838,0.18879342079162598,-0.7136390209197998,-2.7659692764282227,-2.5427918434143066,-1.1394059629588817,-0.2861255062384771,2.2727604883752575
1687102448.07892,-0.9475240111351013,0.17662924528121948,-0.266458660364151,0.7196798920631409,0.08965180814266205,0.20284470915794373,-1.3989014625549316,-2.350548028945923,-2.912226676940918,-1.2966606227360131,-0.17756079858298746,2.1626233022980927
1687102448.195117,-0.9853848814964294,0.04550525173544884,-0.16415174305438995,0.5914793014526367,0.014309197664260864,0.17484807968139648,-0.22318728268146515,-1.7858158349990845,-2.931891679763794,-1.4057257143096398,-0.04552097052775759,2.0906445914114924
1687102448.20618,-0.9908730983734131,-0.10286354273557663,-0.08711714297533035,0.5047892332077026,-0.12078452110290527,0.2986648678779602,-0.1746242791414261,-1.4016252756118774,-2.9251842498779297,-1.483102244411001,0.10304580655293732,2.055668192471846
1687102448.230048,-0.9709101319313049,-0.23827363550662994,-0.023644577711820602,0.4923030734062195,-0.17676541209220886,0.23159122467041016,0.30136141180992126,-1.0463980436325073,-2.5022974014282227,-1.546448136191808,0.2405879070175771,2.0551499388761867
1687102448.294688,-0.9396079182624817,-0.34163138270378113,0.020610807463526726,0.33693164587020874,-0.527493953704834,0.23146426677703857,-0.7267476320266724,-0.921278178691864,-1.7103850841522217,-1.5927283506474164,0.34865218084759075,2.0393668205485342
1687102448.345333,-0.9109722971916199,-0.4108741283416748,0.036219965666532516,0.2645489573478699,-0.4045403301715851,0.19446229934692383,-1.6798993349075317,-0.7924274802207947,-1.3749743700027466,-1.610535075837629,0.42341263930005785,1.9738448970907225
1687102448.388097,-0.8880470991134644,-0.4586032032966614,0.0324883796274662,0.05880826711654663,-0.38220182061195374,0.19947552680969238,-0.535858154296875,-0.21100780367851257,-0.6651349067687988,-1.6073640906271014,0.47642272967154,1.9082893249471446
1687102448.43542,-0.8762089610099792,-0.4813152253627777,0.024354994297027588,0.16144168376922607,-0.32607302069664,0.13329863548278809,-1.0028470754623413,-0.025913869962096214,-0.16674993932247162,-1.598585047613924,0.502154557972526,1.8728412556581435
1687102448.4777389,-0.8804205060005188,-0.47416409850120544,0.005264819134026766,0.1234474778175354,-0.21312221884727478,0.035201311111450195,-0.3342254161834717,0.10688414424657822,0.29622071981430054,-1.5767761467274333,0.494014354756333,1.8342022094677606
1687102448.5345259,-0.8875729441642761,-0.4606334865093231,-0.005557793192565441,0.08065778017044067,-0.08708071708679199,-0.10558736324310303,-0.11461739987134933,0.006957104429602623,0.2549276053905487,-1.5645346213802898,0.47870878448478243,1.8056435535455482
1687102448.583025,-0.8989133238792419,-0.43812650442123413,-0.0002063448919216171,-0.022320806980133057,-0.19113075733184814,-0.05887579917907715,0.25973382592201233,-0.020773570984601974,0.6438500881195068,-1.5705667775487266,0.4535134187956191,1.82126685096661
1687102448.636785,-0.9141495823860168,-0.405276358127594,0.009013105183839798,0.024318218231201172,0.05281367897987366,-0.08961009979248047,0.30563151836395264,-0.03576193004846573,0.7187153100967407,-1.5806555592058247,0.41728111917239163,1.844368029721705
1687102448.6803231,-0.9278352856636047,-0.3726634085178375,0.015599636361002922,-0.07100486755371094,0.06937974691390991,-0.012898923829197884,0.5345925688743591,0.0800955668091774,0.6691641211509705,-1.5876076801673835,0.38187752575494105,1.859309383624492
1687102448.7370129,-0.9380174279212952,-0.34586048126220703,0.02244434505701065,0.04890316724777222,0.15776541829109192,-0.05906558036804199,0.1661098748445511,-0.041828788816928864,0.39285942912101746,-1.5947191913185668,0.3531557044851664,1.8812505821291579
1687102448.782566,-0.9424213767051697,-0.33325880765914917,0.027937646955251694,-0.0010600686073303223,0.10866469144821167,0.06384384632110596,0.47292304039001465,-0.05363420397043228,0.24034187197685242,-1.6004321854740104,0.33975785659391716,1.8918244341790316
1687102448.8325,-0.9461893439292908,-0.3218311369419098,0.033913083374500275,-0.0413287878036499,-0.12300828099250793,0.09885358810424805,-0.02384568750858307,-0.029796293005347252,0.2766094505786896,-1.60662274303755,0.32766289881013916,1.90849467851677
1687102448.939358,-0.9562585353851318,-0.29076507687568665,0.032018110156059265,0.1960047483444214,-0.7512423396110535,0.26084375381469727,-0.15817765891551971,0.2048610895872116,1.2196993827819824,-1.6042665134677752,0.29502637129863385,1.9004369573275521
1687102448.952625,-0.9793143272399902,-0.20219898223876953,0.00768259447067976,0.499639093875885,-0.980677604675293,0.3055802583694458,-2.013218402862549,0.3974584639072418,2.4077024459838867,-1.5786410369018449,0.20360276428547108,1.8574880754747283
1687102448.990627,-0.997961163520813,-0.05932538956403732,-0.023535357788205147,0.6826688647270203,-0.7660225033760071,0.29073184728622437,-3.5874552726745605,0.020184248685836792,3.157081127166748,-1.5472172573215772,0.05936024273310751,1.7097542371126122
1687102449.034175,-0.9931934475898743,0.11621374636888504,0.007813097909092903,0.8150472044944763,-0.46586889028549194,0.1434471607208252,-4.349459648132324,-1.0636154413223267,3.623739719390869,-1.5786628067659483,-0.11647694113333298,1.4953929800236712
1687102449.081773,-0.951974093914032,0.292486310005188,0.09053679555654526,0.6963284611701965,-0.11542335152626038,0.10115920752286911,-2.338371992111206,-0.9339466691017151,3.7715654373168945,-1.6656154068204803,-0.296825813169145,1.328703564220794
1687102449.176971,-0.8736740350723267,0.4532601535320282,0.17677384614944458,0.6496139168739319,0.05020362138748169,0.19573892652988434,-2.2552719116210938,-0.8237945437431335,3.791602373123169,-1.7704349857670505,-0.4704193950841024,1.178436814517706
1687102449.1877332,-0.7611057758331299,0.5581323504447937,0.3304630517959595,0.7381262183189392,-0.18394118547439575,-0.07120111584663391,-3.523960828781128,-2.15690279006958,3.706077814102173,-1.9804235387221347,-0.592133234481311,0.9099450463138126
1687102449.2361789,-0.6070399284362793,0.6263256669044495,0.48909997940063477,0.6096491813659668,0.09477430582046509,0.06975317001342773,-3.5068442821502686,-2.261322259902954,3.5825536251068115,-2.249011119248412,-0.6768309385086098,0.6341283236573476
1687102449.2800798,-0.40544483065605164,0.644292950630188,0.6484607458114624,0.8184086084365845,0.44233137369155884,-0.24968749284744263,-1.9226092100143433,-2.742666721343994,3.227693796157837,-2.58281940396696,-0.7000983892881804,0.3460606874069725
1687102449.356017,-0.193661168217659,0.6023921966552734,0.774350643157959,0.8530086874961853,-0.10153764486312866,-0.20251238346099854,-0.7826657891273499,-3.943350315093994,2.6275978088378906,-2.8965246614647717,-0.6464946987343052,0.10195435990457155
1687102449.395152,0.01281818188726902,0.6197346448898315,0.7847064137458801,0.5492392778396606,0.1542062759399414,0.21773475408554077,-1.3978489637374878,-3.174227237701416,2.64547061920166,3.125259102568787,-0.6684045622896201,-0.053537038480366055
1687102449.43684,0.23029781877994537,0.5569774508476257,0.7979592084884644,0.7924835681915283,0.34120070934295654,0.0732564926147461,0.3270723819732666,-3.4505224227905273,2.1383018493652344,2.860619261427057,-0.5907420179181222,-0.19147927607013177
1687102449.482899,0.42175328731536865,0.5356693267822266,0.7315612435340881,0.7956080436706543,0.1670282483100891,0.07724583148956299,0.724159300327301,-3.607898235321045,2.169651985168457,2.6186233603052385,-0.5653002217935434,-0.31996621563369965
1687102449.538549,0.5838980078697205,0.5322118401527405,0.6130364537239075,0.48850494623184204,0.3790125846862793,0.426605761051178,1.2564046382904053,-2.8717117309570312,2.106475830078125,2.38053392704774,-0.5612110074620552,-0.4723642781793647
1687102449.58183,0.7208494544029236,0.4830258786678314,0.497053325176239,0.5933137536048889,0.28352993726730347,0.43431252241134644,0.6402241587638855,-2.8569891452789307,2.0724527835845947,2.1744664738548103,-0.5041071972283463,-0.5817734831961682
1687102449.648344,0.8183876872062683,0.4382960796356201,0.37166911363601685,0.3967764377593994,0.468060702085495,0.46860170364379883,2.1698262691497803,-1.908364176750183,2.043254852294922,1.9970943740147216,-0.45370207113951416,-0.7179055764354019
1687102449.695024,0.8849236369132996,0.39079540967941284,0.2533554136753082,0.2310125231742859,0.38299304246902466,0.5244002342224121,3.071793794631958,-1.1626166105270386,1.9986371994018555,1.8496392531427575,-0.40149556090862326,-0.8792103842242355
1687102449.739129,0.9290775656700134,0.3376132547855377,0.1511027216911316,0.1719050407409668,0.6012600660324097,0.43680310249328613,2.276473045349121,-0.9891969561576843,1.594154953956604,1.7320220536135047,-0.34438010499716215,-1.0531475290466812
1687102449.788717,0.9515722393989563,0.2920939326286316,0.09587057679891586,-0.11838144063949585,1.0201313495635986,0.7431490421295166,0.8385337591171265,-0.2264266461133957,0.5896573066711426,1.6712071621814666,-0.2964155137163943,-1.143036349055688
1687102449.840643,0.9509600400924683,0.2931230366230011,0.09876209497451782,-0.16055476665496826,0.9193861484527588,0.4915546178817749,0.4944877326488495,0.5140820741653442,-0.505586564540863,1.6742804855994664,-0.2974917170235807,-1.1717404775385538
1687102449.927443,0.9356779456138611,0.3292505443096161,0.12688718736171722,-0.12511605024337769,0.24345755577087402,0.24007128179073334,-0.21491257846355438,0.7748879194259644,-0.7483826279640198,1.705583972403368,-0.3355097390334985,-1.1777863258784276
1687102449.938177,0.919792652130127,0.3567836284637451,0.1633610725402832,0.03917640447616577,-0.2538783848285675,-0.16137754917144775,-0.34747275710105896,0.5315023064613342,-0.45145976543426514,1.7465698370892322,-0.3648226669093152,-1.1599237209251354
1687102450.007098,0.9132818579673767,0.3630214035511017,0.18474708497524261,0.21269458532333374,-0.4226375222206116,-0.28920888900756836,-0.012064662761986256,0.13491389155387878,-0.07884643971920013,1.7703921027606195,-0.3715084688586292,-1.137718101321854
1687102450.046002,0.9155269861221313,0.3577684164047241,0.18388015031814575,-0.0303800106048584,-0.276057630777359,-0.17112398147583008,-0.45994099974632263,-0.18654397130012512,0.20461690425872803,1.7690054399350992,-0.36587703591114623,-1.1289692928480817
1687102450.08814,0.9192318320274353,0.34998172521591187,0.1803472936153412,0.0753052830696106,0.14457085728645325,-0.11673356592655182,-0.07190562784671783,-0.14627283811569214,0.06160927191376686,1.7645291096789917,-0.3575515934870478,-1.1236029731009256
1687102450.139502,0.9195744395256042,0.3512115478515625,0.17616252601146698,-0.05258536338806152,0.319000244140625,0.085418701171875,-0.2660359740257263,-0.12422390282154083,-0.2686583697795868,1.7600727659627446,-0.3588647840019411,-1.110927805438388
1687102450.1946,0.9127582311630249,0.3657783269882202,0.18187464773654938,-0.04024553298950195,0.3187461793422699,0.12441492080688477,-0.6088961362838745,0.019738303497433662,-0.5268756151199341,1.7674786020303754,-0.37446896070543123,-1.0866128438823677
1687102450.237947,0.8991355299949646,0.38764628767967224,0.20318786799907684,0.045993685722351074,0.277545303106308,0.220090851187706,-1.216617465019226,0.1946270614862442,-0.8114249110221863,1.793044640242865,-0.39807684853465913,-1.030026548365942
1687102450.305712,0.878095805644989,0.4114563763141632,0.24423588812351227,-0.009962379932403564,0.20090928673744202,0.17393110692501068,-1.765279769897461,0.3135389983654022,-0.926435112953186,1.8420818819699856,-0.4240513852815023,-0.9402257751927094
1687102450.347526,0.8499619960784912,0.4340066909790039,0.29866817593574524,0.1772748827934265,0.3105001151561737,0.28194379806518555,-1.5212020874023438,0.777215301990509,-1.1332578659057617,1.9087089708139675,-0.4489354324935254,-0.8415370635563922
1687102450.390965,0.8053181767463684,0.45600566267967224,0.37884247303009033,-0.012517213821411133,0.2972140312194824,0.3744076192378998,-1.2608873844146729,1.4166377782821655,-1.1795798540115356,2.0105059228813946,-0.4735018756240978,-0.7337621782434252
1687102450.479517,0.7371797561645508,0.49500831961631775,0.4599265158176422,0.3232753872871399,0.37530717253685,0.26712414622306824,-0.6199583411216736,1.9182065725326538,-1.4939502477645874,2.1286042912325134,-0.5178444154413008,-0.6672286767449125
1687102450.491943,0.6473700404167175,0.5314732789993286,0.5463042855262756,0.3405603766441345,0.21465110778808594,0.2459625005722046,0.1255674958229065,2.1692535877227783,-1.5448057651519775,2.271728132406844,-0.5603388815994046,-0.5850868034402397
1687102450.535526,0.5222846269607544,0.6281315684318542,0.5767750144004822,0.33196336030960083,0.5234492421150208,0.24574995040893555,1.4985299110412598,2.5105783939361572,-2.22900390625,2.4057329852947844,-0.6791496332010681,-0.5660844395603909
1687102450.589751,0.3649453818798065,0.7251960039138794,0.5838708281517029,0.5405721664428711,0.44109416007995605,0.16440469026565552,2.412322759628296,2.4257559776306152,-2.839944839477539,2.582961200579729,-0.8113190136504028,-0.4819333858905972
1687102450.6614199,0.1696172058582306,0.8374257683753967,0.5195652842521667,0.810088574886322,0.11185407638549805,-0.03285568952560425,1.1804078817367554,1.8699864149093628,-3.287703514099121,2.8260409239134696,-0.9925561124019262,-0.3303847684189351
1687102450.692865,-0.020889515057206154,0.8951979279518127,0.445178747177124,0.7968142032623291,0.14004981517791748,-0.011646270751953125,4.70353889465332,1.7332372665405273,-3.717921495437622,-3.0947031644642204,-1.108875183264475,-0.009998117517757706
1687102450.750824,-0.22078390419483185,0.9528577327728271,0.20812633633613586,0.8049361705780029,-0.49378180503845215,0.1436801254749298,2.4748542308807373,0.3862083852291107,-3.3771932125091553,-2.326692067257682,-1.2625192104920562,0.73066636602929
1687102450.790144,-0.3737449049949646,0.923259973526001,0.08891460299491882,0.5663566589355469,0.08853507041931152,0.07501042634248734,3.6248972415924072,0.21969451010227203,-3.117952346801758,-1.8043564815241766,-1.1764813720131413,1.275816917523545
1687102450.845895,-0.5184165835380554,0.8479844927787781,-0.11030057817697525,0.58937007188797,0.0447613000869751,0.1629738211631775,3.2397549152374268,-0.14768925309181213,-3.316716194152832,-1.3611580041550424,-1.0121710077852089,1.7563758027176768
1687102450.890761,-0.6357552409172058,0.7607322335243225,-0.13077358901500702,0.5344064235687256,-0.18951952457427979,0.10564225912094116,1.1577411890029907,-0.7570264339447021,-2.5869925022125244,-1.3679279632436476,-0.8644405173303689,1.792752208015626
1687102450.9520001,-0.7318415641784668,0.6539779901504517,-0.1916264295578003,0.4245753884315491,0.028120338916778564,0.08371615409851074,2.169705390930176,-0.6501731872558594,-2.4719271659851074,-1.314704218629164,-0.7128308672150148,1.908030406866311
1687102450.997149,-0.8109117746353149,0.5463314056396484,-0.20962826907634735,0.3594195246696472,0.09995454549789429,0.002444326877593994,1.0895063877105713,-0.9314784407615662,-2.2813403606414795,-1.3178250580941726,-0.5779778765170529,1.9651891823270544
1687102451.039875,-0.8777152299880981,0.44223952293395996,-0.18449945747852325,0.3689567446708679,0.058523356914520264,0.050466179847717285,0.2130880355834961,-1.013724446296692,-2.314303398132324,-1.3636085381532483,-0.4580941198445284,1.9700782018748506
1687102451.0921822,-0.9303240180015564,0.34221208095550537,-0.13186345994472504,0.32668644189834595,-0.016452252864837646,0.07920528948307037,-0.2735210359096527,-0.9416632652282715,-2.164353132247925,-1.4299949428988317,-0.34927009989603097,1.9340490825141547
1687102451.1666179,-0.9659042954444885,0.24277959764003754,-0.0899265855550766,0.3051835298538208,0.011447042226791382,0.04640841484069824,-0.2904004156589508,-0.8244239091873169,-2.113830804824829,-1.4779630003917832,-0.24523015701103892,1.9138989877162746
1687102451.206851,-0.9888691306114197,0.1382690668106079,-0.054949335753917694,0.3149647116661072,0.062490805983543396,0.11487048119306564,0.05996479094028473,-0.5752891898155212,-2.1806600093841553,-1.5152855607090132,-0.1387134732353469,1.9022941176659764
1687102451.246714,-0.9990952610969543,0.030797410756349564,-0.02932582050561905,0.3021807074546814,0.05381256341934204,0.12179398536682129,-0.4589678645133972,-0.481210321187973,-2.2162201404571533,-1.5414523758008642,-0.03080228069307748,1.8871059839241102
1687102451.346994,-0.9967118501663208,-0.08055490255355835,-0.008741086348891258,0.20114916563034058,-0.09290701150894165,0.03359752893447876,-0.2878725528717041,-0.36415162682533264,-2.1823999881744385,-1.562026628154374,0.08064227858787103,1.862266353658197
1687102451.36066,-0.9827138781547546,-0.18506090342998505,0.005088304169476032,0.22278046607971191,-0.07162243127822876,0.1197894811630249,-0.3573344647884369,-0.26450732350349426,-2.0943052768707275,-1.5759740890831986,0.18613383506849762,1.846894460841672
1687102451.409447,-0.9597588777542114,-0.28062936663627625,0.010466229170560837,0.17298543453216553,-0.2519022822380066,0.02816891483962536,-0.4827384352684021,-0.17833523452281952,-1.7841382026672363,-1.5817009554667236,0.2844497722450596,1.8291001259742339
1687102451.453131,-0.9353767037391663,-0.35351112484931946,0.009992782026529312,0.18986302614212036,-0.33298173546791077,0.05728304386138916,-0.3802946209907532,-0.14712797105312347,-1.31978440284729,-1.5814790835393913,0.36132195411779866,1.8052169670825284
1687102451.514303,-0.9149828553199768,-0.40333831310272217,0.011148161254823208,0.10838818550109863,-0.38239768147468567,0.03447556495666504,0.06946241855621338,-0.013833194971084595,-0.7997182011604309,-1.5829797348639831,0.4151621520289421,1.795189889752797
1687102451.55704,-0.9056693315505981,-0.42384204268455505,0.010984876193106174,0.18046504259109497,-0.30558905005455017,0.02491891384124756,0.2026393860578537,0.24816441535949707,-0.2845821678638458,-1.5829247464616458,0.4376830397076859,1.811483890170219
1687102451.593435,-0.9028493762016296,-0.4299566447734833,-9.18668883969076e-05,0.08363562822341919,-0.20970696210861206,0.060241878032684326,-0.11380567401647568,0.20586371421813965,-0.0860249325633049,-1.5706945746164547,0.44444476346435297,1.7994435022709125
1687102451.668103,-0.9047650694847107,-0.42583367228507996,-0.008105228655040264,0.04162120819091797,-0.19826602935791016,-0.05715668201446533,-0.25347384810447693,0.06570490449666977,0.2326967865228653,-1.5618381874583669,0.4398830798910841,1.7949506575104925
1687102451.758305,-0.9118471741676331,-0.4102260172367096,-0.015782594680786133,0.004575014114379883,-0.12831765413284302,-0.04134643077850342,-0.08855437487363815,0.040666863322257996,0.43396392464637756,-1.5534896783550847,0.4227018635056829,1.7746808580963738
1687102451.773775,-0.9206072092056274,-0.3901568651199341,-0.016113324090838432,0.013853847980499268,-0.008601009845733643,-0.050277769565582275,-0.12625594437122345,-0.037017207592725754,0.38051527738571167,-1.5532951837425517,0.4008019420969843,1.7775576855387085
1687102451.805886,-0.9268468618392944,-0.3750305771827698,-0.017516542226076126,-0.025881290435791016,0.07749947905540466,-0.017822861671447754,-0.1527072638273239,-0.05973963439464569,0.27989792823791504,-1.5518995079829017,0.3844297659089906,1.769268484433824
1687102451.855023,-0.9305951595306396,-0.36566582322120667,-0.016756031662225723,0.00492095947265625,0.04713869094848633,-0.04391300678253174,-0.5479645729064941,-0.19035398960113525,0.11027567088603973,-1.5527925578162554,0.37434808337447556,1.753285901910117
1687102451.938163,-0.9343087673187256,-0.3561471104621887,-0.015042522922158241,0.08646947145462036,-0.2941519320011139,-0.022280573844909668,0.03633775934576988,-0.2028675228357315,0.4297717809677124,-1.554697555178675,0.36414139476588553,1.7319108710946582
1687102451.948214,-0.9501380324363708,-0.3118076026439667,-0.003679862944409251,0.1920357346534729,-0.7011165618896484,-0.037915706634521484,0.01658642292022705,-0.1506998986005783,1.472527265548706,-1.5669233688739037,0.31709489944204394,1.7475515156173318
1687102452.020834,-0.9748627543449402,-0.2227657437324524,-0.004241316579282284,0.40459609031677246,-0.8020603060722351,0.08152693510055542,-2.5434420108795166,-0.6173473596572876,2.194756031036377,-1.566445673584452,0.22465058999020074,1.6760220320119155
1687102452.064235,-0.9949520230293274,-0.0998305156826973,0.010209537111222744,0.48462194204330444,-0.5010606050491333,0.05726468563079834,-2.8651509284973145,-0.8291969895362854,2.698829412460327,-1.5810573028790227,0.09999708149117022,1.5445345766335856
1687102452.0968208,-0.9975415468215942,0.03703491762280464,0.05948786810040474,0.49610745906829834,-0.39286988973617554,0.09631942957639694,-2.8793673515319824,-1.160096526145935,3.0055174827575684,-1.6303602604788636,-0.03704338771247525,1.3794990238557847
1687102452.172398,-0.9731483459472656,0.18082350492477417,0.1424238681793213,0.5961344838142395,-0.25214314460754395,0.03364714980125427,-2.8479199409484863,-1.6886800527572632,3.271488904953003,-1.716118323944811,-0.1818236984917689,1.2210674825022654
1687102452.243952,-0.9130302667617798,0.3118337392807007,0.2629353404045105,0.5970972180366516,-0.12341827154159546,0.029758542776107788,-3.0400617122650146,-1.923880934715271,3.263995409011841,-1.8511903460897143,-0.31712239605118087,1.047436188911631
1687102452.257963,-0.8202677369117737,0.39740797877311707,0.4113730788230896,0.5765237808227539,-0.06353038549423218,-0.08579641580581665,-2.0303940773010254,-2.3465967178344727,3.0385079383850098,-2.0356517768581686,-0.4086904502309399,0.8395661977575142
1687102452.30378,-0.6957100629806519,0.4767681658267975,0.5372892022132874,0.6303719282150269,-0.0850750207901001,-0.034084975719451904,-1.1595168113708496,-2.43265962600708,3.0617177486419678,-2.228410405883462,-0.4969744354548426,0.6707532533998274
1687102452.352481,-0.5475745797157288,0.5539029240608215,0.627178966999054,0.6232277154922485,-0.02120339870452881,-0.05190753936767578,-0.5354560017585754,-2.4813311100006104,3.126173257827759,-2.4238536804861277,-0.5870447048218729,0.5186033155009482
1687102452.420733,-0.38018274307250977,0.617882251739502,0.6882456541061401,0.5908914804458618,0.17926734685897827,0.07217580080032349,-0.41498976945877075,-2.236785888671875,2.9285736083984375,-2.6369133186937033,-0.6660464274496428,0.36016946087969504
1687102452.456794,-0.2008088380098343,0.6364654302597046,0.7447060346603394,0.6357606649398804,0.08623647689819336,0.03813064098358154,-0.15983787178993225,-2.5242371559143066,2.8394956588745117,-2.8782084971078796,-0.6899069349960785,0.17107959492516026
1687102452.539832,-0.0198538675904274,0.6500523686408997,0.7596297860145569,0.4462149441242218,0.22654974460601807,0.2835524082183838,-0.4345458745956421,-2.318119525909424,2.6922521591186523,-3.1154623589304027,-0.7076533473638131,-0.004065860143279358
1687102452.5480552,0.15087451040744781,0.6264306306838989,0.7647361159324646,0.4537702202796936,0.3425329327583313,0.12392032146453857,-0.1540665477514267,-2.4200620651245117,2.314073324203491,2.9468045647452192,-0.6769655842283869,-0.16651299815095
1687102452.622326,0.3063020706176758,0.6143029928207397,0.7271937727928162,0.3011503219604492,0.40695255994796753,0.3075656294822693,0.44551780819892883,-1.9887949228286743,2.2468619346618652,2.742935646941819,-0.6615023144739893,-0.3146351985320647
1687102452.668126,0.44924768805503845,0.5586612820625305,0.6971901059150696,0.48875588178634644,0.09293484687805176,0.09805208444595337,-0.510161280632019,-2.5381460189819336,1.9867026805877686,2.5691861735921067,-0.5927708571748818,-0.4169951670579441
1687102452.699839,0.5880193710327148,0.5042870044708252,0.6323980093002319,0.30875474214553833,0.18962156772613525,0.18362659215927124,0.11392895877361298,-2.5229859352111816,2.0345044136047363,2.3925419216826707,-0.5285561155099874,-0.5064782344376333
1687102452.777319,0.7063286304473877,0.45477795600891113,0.5424723029136658,0.2724767327308655,0.32059726119041443,0.17131829261779785,0.7233797907829285,-2.2639639377593994,1.7418466806411743,2.2257288883471698,-0.47212287519311463,-0.5942632527462929
1687102452.841686,0.7908544540405273,0.42041128873825073,0.44475093483924866,0.2883080840110779,0.399672269821167,0.23582148551940918,1.4626193046569824,-1.7553105354309082,1.516702651977539,2.0830852268166242,-0.4338985762184479,-0.6970197378265942
1687102452.858842,0.8522456288337708,0.3941825330257416,0.3439439833164215,0.21727335453033447,0.3466469347476959,0.35060548782348633,2.622709274291992,-1.1558905839920044,1.5537018775939941,1.9543797315068425,-0.40517819978432223,-0.8365179732842215
1687102452.904012,0.8977795243263245,0.36178910732269287,0.2511979937553406,0.10783565044403076,0.33655989170074463,0.3603130578994751,1.782967448234558,-1.0829861164093018,1.4108359813690186,1.8436188348546771,-0.3701862961056427,-0.9738512158464852
1687102452.986573,0.9274042844772339,0.3261267840862274,0.18320104479789734,-0.06651866436004639,0.6295921802520752,0.4242054224014282,1.045502781867981,-0.6880772113800049,0.8976379632949829,1.7658270554311042,-0.332203435029146,-1.0742897155128157
1687102453.016176,0.9390334486961365,0.30628156661987305,0.15622970461845398,-0.11397552490234375,0.702080249786377,0.5089465379714966,0.6465057730674744,0.012093454599380493,0.1398010104894638,1.735659157894461,-0.311284411897439,-1.1181524702471939
1687102453.057442,0.935053825378418,0.31647491455078125,0.15974204242229462,-0.15142369270324707,0.46128079295158386,0.3465597629547119,0.2519528567790985,0.4241209328174591,-0.3286897838115692,1.7400001151409128,-0.32201108423315417,-1.14221019945116
1687102453.14906,0.9236836433410645,0.3356296122074127,0.18482768535614014,-0.04871422052383423,0.023913204669952393,0.11566352844238281,-0.23930500447750092,0.5516137480735779,-0.4178754389286041,1.7682865725878842,-0.34227353337022626,-1.1345785525604462
1687102453.163842,0.9136912226676941,0.34630829095840454,0.21269437670707703,0.10902905464172363,-0.24596649408340454,-0.11339032649993896,-0.22177022695541382,0.4064682424068451,-0.20961597561836243,1.79950898157391,-0.3536329999487,-1.1144902575369948
1687102453.1985521,0.9099072813987732,0.3476546108722687,0.22628584504127502,0.07350647449493408,-0.2429792881011963,-0.1927013099193573,-0.12189449369907379,0.10295093059539795,0.08269857615232468,1.8145427084521204,-0.3550685037384342,-1.10757870909571
1687102453.274756,0.9124117493629456,0.33929041028022766,0.22888068854808807,0.020601987838745117,-0.12337860465049744,-0.14131072163581848,-0.13810275495052338,-0.034846335649490356,0.2260637879371643,1.8165771120809755,-0.3461624611677635,-1.104776338863004
1687102453.349115,0.9172454476356506,0.3272915184497833,0.22702647745609283,0.00429379940032959,0.002984941005706787,-0.08476889133453369,0.08811839669942856,-0.10686278343200684,0.23182806372642517,1.813429121803595,-0.3334357949094134,-1.1058577648328058
1687102453.363717,0.9223506450653076,0.31624019145965576,0.22194921970367432,-0.012453794479370117,0.057996898889541626,0.02071121335029602,-0.07353414595127106,-0.09926614165306091,0.2374752312898636,1.806940988558398,-0.3217636549449391,-1.109407405355317
1687102453.439546,0.9252440929412842,0.3099830448627472,0.21870897710323334,-0.02152717113494873,0.1501457393169403,0.059290751814842224,0.06790580600500107,-0.021614640951156616,0.07432126998901367,1.802915444293268,-0.3151751869296507,-1.113319703602377
1687102453.4572558,0.924472451210022,0.3116719126701355,0.21957051753997803,-0.04300278425216675,0.12915447354316711,0.07400844991207123,0.16872163116931915,0.1390896737575531,-0.07232003659009933,1.8039846416798238,-0.3169520800413988,-1.1189366023536398
1687102453.521352,0.9206019043922424,0.3190223276615143,0.2252032607793808,0.0002505779266357422,0.05042344331741333,0.03657636046409607,-0.05185175687074661,0.10412555932998657,-0.13098999857902527,1.8107108542385493,-0.32469772919906137,-1.1218940664976615
1687102453.567954,0.9171572923660278,0.3254030644893646,0.2300768792629242,0.011462152004241943,-0.005960285663604736,-0.028935641050338745,-0.08861137181520462,0.05473892018198967,-0.0911179631948471,1.8165830098303994,-0.33143795383570274,-1.1177329491475607
1687102453.6022801,0.9154911637306213,0.3283386826515198,0.23252852261066437,0.0012568235397338867,-0.059906065464019775,-0.0371856689453125,0.13654771447181702,0.031901225447654724,-0.015863750129938126,1.8195297517501312,-0.3345442147952051,-1.1168072043351096
1687102453.672068,0.9159048795700073,0.3281901180744171,0.23110546171665192,0.02248018980026245,-0.09895732998847961,-0.030574530363082886,0.005902619566768408,-0.02791483700275421,0.03774767741560936,1.817961780166661,-0.3343869393165092,-1.119870277531595
1687102453.7481499,0.9182211756706238,0.32541510462760925,0.22577504813671112,-0.0067375898361206055,0.007302731275558472,-0.019690051674842834,0.03740781545639038,-0.060140594840049744,0.05503079295158386,1.811896505152167,-0.3314506991387892,-1.125686620708432
1687102453.763006,0.9204053282737732,0.3234041631221771,0.21969012916088104,-0.0033063888549804688,0.047826915979385376,0.0012111663818359375,0.2915290296077728,-0.039076562970876694,0.019108014181256294,1.805100837378081,-0.3293247602128199,-1.1336210376350557
1687102453.830234,0.9210551977157593,0.32410719990730286,0.2158973515033722,-0.008244037628173828,0.033360451459884644,0.011351704597473145,-0.059075579047203064,-0.05395422503352165,-0.022839702665805817,1.801041677197132,-0.3300678293217117,-1.1375605026109832
1687102453.87356,0.9202303886413574,0.32758909463882446,0.21415291726589203,-0.0035127997398376465,0.03718751668930054,0.014347344636917114,0.04876699671149254,-0.020064570009708405,-0.04857556149363518,1.7994433265256509,-0.3337507504488079,-1.1386763095704397
1687102453.914733,0.9189239740371704,0.3312341272830963,0.21415524184703827,0.003484964370727539,-0.014095455408096313,0.004503011703491211,-0.024430785328149796,-0.038368720561265945,-0.042008135467767715,1.7997595512865543,-0.3376112312510625,-1.1381350857559485
1687102453.9594731,0.9180406332015991,0.3349286615848541,0.21218861639499664,-0.0019488334655761719,-0.005842357873916626,0.0083160400390625,0.3784972131252289,0.0456617996096611,0.0011328752152621746,1.797939613722348,-0.3415295130890386,-1.146868617131412
1687102454.049358,0.9182673692703247,0.3352591097354889,0.2106797844171524,0.022452056407928467,-0.08162757754325867,0.011198148131370544,0.1497521996498108,-0.004504186101257801,0.04344191402196884,1.7963250408585585,-0.34188025450189946,-1.1549240772660638
1687102454.065191,0.9190390706062317,0.33698660135269165,0.20446768403053284,-0.03045886754989624,0.02600473165512085,-0.00372314453125,0.3118843734264374,0.005107428412884474,0.06456078588962555,1.7897107692879224,-0.3437144377829921,-1.178340776061997
1687102454.108388,0.9199874997138977,0.3386836349964142,0.19727236032485962,-9.614229202270508e-05,0.0564579963684082,-0.0007698237895965576,0.5747631192207336,-0.01849452592432499,0.04551665112376213,1.7820270286862858,-0.3455174888693712,-1.2014275350643704
1687102454.18083,0.9207970499992371,0.34067460894584656,0.189930260181427,-0.03688591718673706,0.05320051312446594,0.02955201268196106,0.12355522066354752,-0.13282835483551025,-0.04684942960739136,1.7742107421664397,-0.347634335835195,-1.2139810593066438
1687102454.217536,0.9178180694580078,0.35259076952934265,0.18245486915111542,-0.04142951965332031,0.28603532910346985,0.12195779383182526,-0.1395544409751892,-0.14458195865154266,-0.44128888845443726,1.7670300563456949,-0.36033824167194023,-1.2152851454653324
1687102454.28861,0.9045976400375366,0.3844943642616272,0.18402977287769318,-0.006892681121826172,0.585750937461853,0.33237338066101074,-0.5424041748046875,0.17606250941753387,-1.0102187395095825,1.7714957115689218,-0.3946600280390542,-1.2036475372560707
1687102454.346695,0.872096836566925,0.4361906051635742,0.22177602350711823,0.0262184739112854,0.7600526213645935,0.40268969535827637,-0.26732707023620605,0.7861645221710205,-1.6755937337875366,1.8198198749942112,-0.4513609730568212,-1.1441314017837567
1687102454.3609881,0.8069990277290344,0.5360984802246094,0.2476917803287506,0.11823302507400513,0.9082375168800354,0.3774455189704895,0.294018030166626,1.1518634557724,-2.6546287536621094,1.8685982557635725,-0.565808482179247,-1.1518208676407615
1687102454.404993,0.7025769352912903,0.6419062614440918,0.307150661945343,0.49449020624160767,0.6652530431747437,0.30672547221183777,0.05204294994473457,1.4949369430541992,-3.177203416824341,1.9829358597127416,-0.6969817597022365,-1.0663425339187782
1687102454.479769,0.5484294891357422,0.7773377895355225,0.30817312002182007,0.7279070615768433,0.6560268998146057,0.24224182963371277,2.606323480606079,1.889400601387024,-3.93229079246521,2.0827445550133543,-0.8904227849322848,-1.0482269435284475
1687102454.5332751,0.3455013632774353,0.9108819961547852,0.22566018998622894,0.9692416191101074,0.4328678846359253,0.10588262975215912,3.265512466430664,1.4520838260650635,-4.467936992645264,2.1493746293426232,-1.1454163438092053,-1.069805223032945
1687102454.596467,0.11778359115123749,0.9916650652885437,0.05222209542989731,1.1582478284835815,0.261569619178772,0.07912540435791016,4.314179420471191,0.6811915040016174,-4.594540119171143,1.9881258018382544,-1.441594747630618,-1.2927532601720209
1687102454.6121411,-0.1194537952542305,0.9843421578407288,-0.12961965799331665,1.506996512413025,0.06765973567962646,0.09095382690429688,2.567058563232422,-0.5169509053230286,-3.9233784675598145,-0.7446061008526016,-1.3936023375116844,2.248360489757314
1687102454.6515431,-0.3169001638889313,0.9222883582115173,-0.22126568853855133,0.7888849973678589,-0.04115438461303711,0.05721837282180786,3.464722156524658,-0.7571950554847717,-3.9148941040039062,-0.9612667142795533,-1.1739599057235433,2.0750357221362346
1687102454.727382,-0.49659591913223267,0.8071214556694031,-0.31929194927215576,1.006224274635315,0.06995368003845215,0.08853322267532349,1.2978415489196777,-1.4618178606033325,-3.8556647300720215,-0.9993851805609589,-0.9392599926589653,2.0836849114636005
1687102454.7661328,-0.658353328704834,0.6864984035491943,-0.3086916208267212,0.9068886041641235,-0.04114329814910889,0.1262727677822113,1.1865954399108887,-1.5434794425964355,-3.456869602203369,-1.1323495524177387,-0.7566623928385534,2.0136711240323417
1687102454.805738,-0.7823271155357361,0.5481553673744202,-0.29578664898872375,0.6831603646278381,0.06108218431472778,0.1570994257926941,0.4037666320800781,-1.3977646827697754,-3.1452746391296387,-1.2093231861796363,-0.58015714090753,2.003285264732863
1687102454.905669,-0.8766476511955261,0.4339396357536316,-0.20781056582927704,0.6851651668548584,-0.09601852297782898,0.16325479745864868,-1.448781132698059,-1.4975990056991577,-2.946612596511841,-1.3380412063887335,-0.4488609799712341,1.894864041171565
1687102454.915076,-0.9406614303588867,0.3086965084075928,-0.14093437790870667,0.4911222457885742,-0.05570578575134277,0.10423688590526581,-0.6710638999938965,-0.9296833276748657,-2.867551565170288,-1.4220777666653257,-0.3138223023348955,1.8253449487177442
1687102454.958613,-0.9798133969306946,0.17956918478012085,-0.08786746114492416,0.4855201840400696,-0.19731517136096954,0.1410290002822876,-1.495649814605713,-0.6017168760299683,-2.6868247985839844,-1.4813578223868042,-0.18054849852965985,1.7456666352711718
1687102455.018035,-0.9969064593315125,0.04946891590952873,-0.061074595898389816,0.4399150013923645,-0.05860893428325653,0.11173367500305176,-1.390879511833191,-0.14504003524780273,-2.762728214263916,-1.5096086861023312,-0.04948911419034895,1.6626161140305415
1687102455.0864658,-0.9956978559494019,-0.07328467071056366,-0.056702375411987305,0.33293241262435913,-0.18948692083358765,0.031067490577697754,-1.1045337915420532,-0.016379931941628456,-2.3114960193634033,-1.5139103972290997,0.07335043030775594,1.589548394893515
1687102455.112628,-0.9827657341957092,-0.1726541668176651,-0.06604665517807007,0.23305559158325195,-0.4007406234741211,-0.02951926738023758,-0.8238251805305481,0.029524533078074455,-1.8142870664596558,-1.5036923480361264,0.1735236645587033,1.5417024029650594
1687102455.192258,-0.9644765853881836,-0.25208187103271484,-0.07899096608161926,0.19708162546157837,-0.20772647857666016,0.021999239921569824,-0.927229106426239,0.10234567523002625,-1.6689088344573975,-1.489078364932132,0.2548309888735861,1.4841851557021204
1687102455.22756,-0.9429295063018799,-0.3190843164920807,-0.09523246437311172,0.09382367134094238,-0.2762831151485443,-0.014417305588722229,-0.12208783626556396,0.3702993094921112,-1.237928867340088,-1.4701412610006601,0.32476314473339407,1.4537793573398268
1687102455.268704,-0.9252955317497253,-0.36426714062690735,-0.10553445667028427,0.1326320767402649,-0.33112162351608276,-0.010096721351146698,0.5717598795890808,0.30053889751434326,-0.6625199913978577,-1.457232200240753,0.37284574714342933,1.4610453131967214
1687102455.3094711,-0.9150495529174805,-0.38765832781791687,-0.111378513276577,0.09774309396743774,-0.31545135378837585,0.01070094108581543,-0.09943738579750061,0.1523866206407547,-0.28625422716140747,-1.4496735842484507,0.39808992354702283,1.471855069785046
1687102455.366724,-0.9123537540435791,-0.3916071057319641,-0.11939163506031036,0.05763280391693115,-0.2047063112258911,-0.0051506683230400085,-0.35986658930778503,0.02068505622446537,0.07601583749055862,-1.4406746078151864,0.40237754667175135,1.4662509192351885
1687102455.408761,-0.9150756001472473,-0.38404926657676697,-0.12305521219968796,0.036367833614349365,-0.14315712451934814,-0.0947030782699585,-0.029560033231973648,-0.06935533881187439,0.21160967648029327,-1.4371227941171798,0.3941778933284921,1.453542122793934
1687102455.5029159,-0.920245349407196,-0.3734981119632721,-0.11682277172803879,0.022265732288360596,-0.03722268342971802,-0.051786959171295166,0.21896988153457642,-0.08285447955131531,0.30676037073135376,-1.44452433719881,0.38277719922527315,1.4658257651470799
1687102455.5193639,-0.926434338092804,-0.3598446846008301,-0.11059460043907166,-0.0021239519119262695,-0.09895658493041992,-0.03584408760070801,0.10918772965669632,-0.08758178353309631,0.40134114027023315,-1.4519819729810832,0.36810140868116814,1.472707063644417
1687102455.568342,-0.9378318786621094,-0.33311185240745544,-0.09750707447528839,0.09615719318389893,-0.30542266368865967,-0.12562227249145508,0.6182610988616943,-0.23879604041576385,0.8817741274833679,-1.467197816653792,0.33960200502441384,1.4987593735881954
1687102455.635854,-0.9585649967193604,-0.27613365650177,-0.07002461701631546,0.20841234922409058,-0.4992722272872925,-0.1450175642967224,0.3495619595050812,-0.5730224847793579,1.576733946800232,-1.497874350772749,0.27976902373732243,1.531943906615941
1687102455.666328,-0.9817368388175964,-0.186783105134964,-0.03611975908279419,0.2918108105659485,-0.5108944773674011,-0.04826145991683006,0.24696184694766998,-0.6457405686378479,2.1032745838165283,-1.534021220657433,0.18788659201026395,1.5457993282377047
1687102455.7136312,-0.9975014328956604,-0.07029206305742264,-0.007040675263851881,0.3551981449127197,-0.36844387650489807,0.056036531925201416,0.13098543882369995,-0.46470141410827637,2.508388042449951,-1.563738133239813,0.07035007955990975,1.5670672242151757
1687102455.8009582,-0.9981651902198792,0.05889880657196045,0.014038831926882267,0.3737451434135437,-0.26841723918914795,0.08444130420684814,0.11934582144021988,-0.32461071014404297,2.6453983783721924,-1.5848600371991974,-0.05893291319338953,1.5653101957003899
1687102455.8177261,-0.9805746078491211,0.19435402750968933,0.02645028941333294,0.3371879458427429,-0.2589292526245117,0.17134928703308105,-0.7039011716842651,-0.18019545078277588,2.8297643661499023,-1.5977640628222831,-0.1955988763241537,1.5556506775081342
1687102455.862225,-0.9411764740943909,0.3347276747226715,0.04630739614367485,0.4722890853881836,-0.222316175699234,0.07791423797607422,-0.22523312270641327,-0.21332648396492004,2.985445499420166,-1.6199582931305605,-0.34131622362089903,1.515804512260681
1687102455.9112558,-0.8782340288162231,0.47285911440849304,0.07147539407014847,0.46359193325042725,-0.17009440064430237,0.048840031027793884,-1.5427132844924927,-0.5340316295623779,3.1187596321105957,-1.652002710726203,-0.49253277684823304,1.4716673244435041
1687102455.9937382,-0.7896026968955994,0.5968571901321411,0.14243756234645844,0.41437405347824097,-0.0037787556648254395,0.021426409482955933,-1.4913173913955688,-0.6728000044822693,3.256317615509033,-1.749268393885599,-0.6395783798422171,1.3534099683174798
1687102456.0123482,-0.6804177165031433,0.7097927927970886,0.18227866291999817,0.38006383180618286,0.08238238096237183,0.09520219266414642,0.687414288520813,-0.15869104862213135,3.11049747467041,-1.8325426284523327,-0.7892039815459843,1.2621260175774387
1687102456.091819,-0.5615559220314026,0.8117199540138245,0.16051644086837769,0.37788593769073486,0.03366267681121826,0.06748020648956299,0.22242826223373413,-0.021537408232688904,3.0689854621887207,-1.8492143497185287,-0.9470910320739274,1.2427180578944392
1687102456.1131558,-0.42747941613197327,0.8928208947181702,0.1418873518705368,0.37540122866630554,0.08992135524749756,-0.05417990684509277,0.46955975890159607,0.06959431618452072,3.112017869949341,-1.8912709370509948,-1.1035697646040434,1.1952978670404562
1687102456.187551,-0.2742902934551239,0.9487022161483765,0.1572527438402176,0.43481284379959106,-0.10438787937164307,0.015384986996650696,-0.016079910099506378,-0.33451196551322937,3.4517388343811035,-2.0913578545710636,-1.249105513679484,0.9918402416007417
1687102456.225512,-0.11432987451553345,0.9861685633659363,0.11999968439340591,0.30576664209365845,0.1550360918045044,-0.027913108468055725,0.440237820148468,-0.013062698766589165,3.1444244384765625,-2.3803856332727342,-1.404282358608544,0.6973018287504771
1687102456.266896,0.04914146289229393,0.9887609481811523,0.14119714498519897,0.4536661207675934,0.0847252607345581,-0.01345062255859375,-0.1320275515317917,-0.3919457495212555,3.2443416118621826,2.80667001277527,-1.4207284347018232,-0.39363728211287935
1687102456.31558,0.20144537091255188,0.9651259779930115,0.16718724370002747,0.4059002101421356,-0.06449127197265625,0.06798100471496582,-1.566847324371338,-0.7231377363204956,3.237745761871338,2.2635276637247075,-1.3059241143956943,-0.9305418804904787
1687102456.391321,0.35760489106178284,0.918226420879364,0.1702321171760559,0.24433907866477966,0.46719539165496826,-0.04814670979976654,0.10253249108791351,-0.43042755126953125,2.902216911315918,2.015088059802223,-1.1635788038596118,-1.1586971854603705
1687102456.4267569,0.4931507706642151,0.8410477042198181,0.22235268354415894,0.46023350954055786,0.07301461696624756,-0.0171983540058136,-2.544243335723877,-1.2643619775772095,3.0189239978790283,1.9943832769544387,-0.9992170329778087,-1.1403558841220924
1687102456.473682,0.615813672542572,0.7507081627845764,0.23918689787387848,0.028946340084075928,0.6643612384796143,0.18917295336723328,0.6113222241401672,-0.4259917736053467,2.383099317550659,1.9412697323573962,-0.8491333791595296,-1.1418614729227716
1687102456.518198,0.6984079480171204,0.6996976733207703,0.15049751102924347,0.27998560667037964,0.5234468579292297,0.07920815050601959,2.7240772247314453,-0.043092213571071625,2.1158862113952637,1.7830374891599106,-0.7749742674407477,-1.3421612809972334
1687102456.584618,0.7677348852157593,0.6327641010284424,0.10095790028572083,0.14084959030151367,0.23182934522628784,0.16964125633239746,1.2574224472045898,0.19913069903850555,1.997665286064148,1.701547089004547,-0.6851176667817709,-1.4700381942199292
1687102456.624191,0.8217790126800537,0.5659016370773315,0.06659208983182907,0.11825388669967651,0.2983866333961487,-0.007906913757324219,0.47657692432403564,0.037476908415555954,1.7854034900665283,1.6516537171672387,-0.6015264607916802,-1.5650421059307795
1687102456.6943731,0.8669215440750122,0.49536773562431335,0.055298347026109695,0.04254812002182007,0.30678683519363403,0.030089743435382843,1.2091057300567627,0.20393551886081696,1.5157458782196045,1.6344970527452232,-0.5182581226582309,-1.614477387025973
1687102456.738487,0.9003071188926697,0.4323834180831909,0.0499136857688427,0.023261427879333496,0.2781878113746643,0.09251164644956589,0.1097312793135643,0.17476095259189606,1.3848717212677002,1.6261803620600968,-0.44713437635029835,-1.6482429428737644
1687102456.7812672,0.9223968386650085,0.3834063708782196,0.04672665894031525,-0.02926957607269287,0.5372173190116882,-0.04697096720337868,0.8936236500740051,0.241459921002388,0.8648709654808044,1.6214109305823226,-0.39348171987624514,-1.6912001700569923
1687102456.85994,0.9331188201904297,0.3570401668548584,0.042559992522001266,-0.06129276752471924,0.5356600284576416,-0.04938077926635742,0.7638280987739563,0.24673300981521606,0.32512927055358887,1.6163752121592578,-0.365097277569068,-1.7376213782957306
1687102456.8785892,0.9334651231765747,0.3556533455848694,0.046406928449869156,-0.02651315927505493,0.3424362540245056,-0.024373408406972885,-0.054029155522584915,0.10451006889343262,-0.12304247170686722,1.6204701184716865,-0.36361303265218836,-1.748197398941964
1687102456.9401488,0.9278572201728821,0.3702954351902008,0.04429244250059128,-0.07672220468521118,0.18074512481689453,-0.011043675243854523,0.718193531036377,0.17063552141189575,-0.38072875142097473,1.6184963833904429,-0.37932704334369827,-1.7715766495326395
1687102456.9790301,0.9211745262145996,0.38692784309387207,0.04152626171708107,0.012495577335357666,-0.10532686114311218,0.0161670483648777,0.18484041094779968,0.09179458767175674,-0.25927048921585083,1.6158455182287381,-0.3972975819299952,-1.795866979616149
1687102457.021184,0.9171290397644043,0.39623069763183594,0.04330772906541824,0.020798206329345703,-0.14867210388183594,0.028255823999643326,-0.08012361079454422,0.01139419712126255,-0.13436131179332733,1.6179822544184237,-0.4074078708355656,-1.7956831389222958
1687102457.068609,0.9150554537773132,0.40070340037345886,0.0459345281124115,0.02308523654937744,-0.06903845071792603,0.008401867002248764,-0.044817015528678894,0.05087323114275932,-0.07357524335384369,1.620952856365724,-0.41228444366492356,-1.7918027105328356
1687102457.127017,0.9146559834480286,0.40107911825180054,0.050396572798490524,0.028169214725494385,-0.06840705871582031,-0.007763627916574478,-0.05558684095740318,0.06841285526752472,-4.2310915887355804e-05,1.6258396070372874,-0.4126945486936962,-1.7879175150623163
1687102457.17486,0.9152818918228149,0.3992443382740021,0.05350692570209503,0.002930939197540283,-0.008237898349761963,-0.023538708686828613,-0.052162013947963715,0.04894214868545532,0.013518571853637695,1.629189371907861,-0.4106925157606629,-1.7831843843874033
1687102457.225946,0.9159033894538879,0.39775851368904114,0.0539354607462883,0.022344231605529785,0.015144288539886475,-0.06170225143432617,-0.194860577583313,-0.05170369893312454,0.02522922307252884,1.6296161187244667,-0.40907249548688873,-1.7799377985254283
1687102457.294203,0.91657954454422,0.3964940011501312,0.05171583220362663,-0.014739274978637695,0.030645310878753662,-0.03200160712003708,0.099124975502491,-0.04857388883829117,0.002488957718014717,1.6271592030348618,-0.40769466056260184,-1.7756612797240743
1687102457.339939,0.917176365852356,0.396185964345932,0.04271029680967331,-0.009019076824188232,0.0017937421798706055,0.002547144889831543,-0.09980330616235733,-0.09928642213344574,0.004962501116096973,1.6173298692581912,-0.4073591676958087,-1.7798949186043664
1687102457.367488,0.9169273972511292,0.39725059270858765,0.03789549320936203,-0.0028039216995239258,0.027355700731277466,0.021064400672912598,-0.024952763691544533,-0.0651824027299881,-0.031018070876598358,1.6121016019138168,-0.40851894398772276,-1.7791882108685255
1687102457.4238281,0.9164968132972717,0.39827075600624084,0.03760160505771637,0.0012277960777282715,-0.001008152961730957,0.04049277678132057,0.010488050989806652,-0.007338433060795069,-0.005538209807127714,1.6118008636600176,-0.40963086581753244,-1.7754221155854735
1687102457.4689012,0.9157773852348328,0.3997260630130768,0.039632175117731094,0.002740621566772461,-0.00377577543258667,0.025354862213134766,-0.025277670472860336,0.007413970306515694,-0.003340303199365735,1.614046423270852,-0.4112179712823255,-1.7752528549066993
1687102457.538004,0.9155149459838867,0.3999490439891815,0.04327702149748802,-0.0056029558181762695,0.006758689880371094,0.01890242099761963,0.1166408509016037,0.06033932417631149,-0.009219231083989143,1.6180318518798937,-0.41146124984770654,-1.7775288885695826
1687102457.587486,0.9151883125305176,0.400309294462204,0.04671746864914894,-0.001232743263244629,-0.0037487149238586426,0.008015748113393784,0.020226698368787766,0.05939425900578499,-0.0006060358136892319,1.6217988946958273,-0.41185435281575916,-1.7802553139923285
1687102457.645112,0.9148409962654114,0.40079954266548157,0.04924971982836723,0.004226326942443848,0.010729968547821045,-0.030924081802368164,0.04707935079932213,0.019349992275238037,-0.0011703595519065857,1.6245785964024313,-0.41238937197008163,-1.7816243221075363
1687102457.6841068,0.9147917032241821,0.4008796811103821,0.049510128796100616,-0.002804577350616455,0.008315175771713257,-0.013392694294452667,0.12105770409107208,0.018812809139490128,-0.00834657996892929,1.624865326833815,-0.4124768614724372,-1.7833650678448056
1687102457.724341,0.9145408272743225,0.4017317295074463,0.04718823358416557,0.00506061315536499,-0.011305063962936401,-0.012917153537273407,-0.03192571923136711,-0.014288017526268959,-0.011402957141399384,1.6223483427005285,-0.4134071016909608,-1.7876510723550778
