Timestamp,gravityX,gravityY,gravityZ,accelerationX,accelerationY,accelerationZ,rotationRateX,rotationRateY,rotationRateZ,attitudeRoll,attitudePitch,attitudeYaw
1687100328.99752,-0.07113629579544067,0.4714641571044922,-0.8790115118026733,-0.005935847759246826,0.003801405429840088,-0.00316011905670166,0.01167741883546114,0.0028779853601008654,-0.003466564929112792,-0.08075162461273623,-0.49095031033882913,1.4173326832291953
1687100329.0103412,-0.07128102332353592,0.4711795747280121,-0.8791523575782776,0.013358667492866516,-0.0005069375038146973,0.008256971836090088,-0.01848927140235901,-0.003152698278427124,2.4706125259399414e-05,-0.08090229196981813,-0.49062763779190616,1.417210615214316
1687100329.05097,-0.07145869731903076,0.4704928696155548,-0.8795056343078613,0.0006731599569320679,0.00019505620002746582,0.007694721221923828,0.012169570662081242,-0.015552287921309471,0.0012273900210857391,-0.0810706299622646,-0.48984923190414253,1.4172224302780427
1687100329.145549,-0.0713399350643158,0.46946462988853455,-0.8800645470619202,-0.005930587649345398,-0.00881698727607727,0.004118561744689941,0.012959464453160763,-0.006389970425516367,0.0013468987308442593,-0.08088530067836232,-0.4886843251631774,1.4172263048071554
1687100329.1585221,-0.07156170904636383,0.4697096049785614,-0.8799157738685608,-0.01100359857082367,-0.005720317363739014,-0.009946227073669434,0.016241544857621193,0.0010309058707207441,-0.0031797424890100956,-0.08114930492523077,-0.48896180844086834,1.417103025546323
1687100329.20049,-0.07169145345687866,0.469548761844635,-0.8799911141395569,0.0020808428525924683,0.005960941314697266,-0.0012955069541931152,0.010946380905807018,0.007483944296836853,-0.01024450920522213,-0.0812888591493573,-0.48877961880228493,1.4166661550877755
1687100329.295816,-0.07193724811077118,0.4697268009185791,-0.8798760175704956,0.002555541694164276,-0.0012209117412567139,-0.004721701145172119,-0.028739245608448982,0.005335838999599218,0.0003167884424328804,-0.08157694503981708,-0.48898127607109076,1.4165124261932025
1687100329.3077989,-0.07223320007324219,0.4694257378578186,-0.8800124526023865,0.0058727264404296875,0.009181499481201172,0.008140504360198975,-0.037053368985652924,-0.012299280613660812,0.0008400329388678074,-0.08189842090135031,-0.4886402988558731,1.4166388394283007
1687100329.318994,-0.07209663093090057,0.46975812315940857,-0.8798462152481079,-0.0036479830741882324,0.009245842695236206,0.0042969584465026855,-0.00514017790555954,0.0003152035642415285,0.00245117861777544,-0.08175964457872262,-0.4890167557225127,1.416799461667182
1687100329.415008,-0.07204252481460571,0.4700566828250885,-0.8796912431716919,0.003973051905632019,-0.007257521152496338,0.0029364824295043945,3.9670674595981836e-05,-0.005536005832254887,0.00799967534840107,-0.08171288911476796,-0.4893549809498668,1.4168888540943072
1687100329.427139,-0.07213511317968369,0.4694504141807556,-0.8800073266029358,-0.012764811515808105,0.0012985467910766602,-0.007657468318939209,0.023636609315872192,-0.0034335285890847445,0.0008355053141713142,-0.08178817733255125,-0.48866824957648747,1.4170310843830407
1687100329.4403849,-0.07205568999052048,0.4690280556678772,-0.8802390098571777,-0.009594112634658813,0.003658771514892578,-0.007105350494384766,0.0001238265831489116,0.007458179257810116,-0.0011056726798415184,-0.08167712143611716,-0.48818994302346974,1.4171228151707256
1687100329.534822,-0.07197961211204529,0.46890532970428467,-0.880310595035553,-0.012599848210811615,0.01470676064491272,-0.002959609031677246,0.021384108811616898,0.007316876202821732,-0.0045757051557302475,-0.08158465943018452,-0.48805101435499043,1.4170862859055229
1687100329.5404239,-0.07178569585084915,0.4684722125530243,-0.8805570006370544,0.0012290626764297485,-0.0021788179874420166,0.0015134215354919434,-0.00902519654482603,0.002629002323374152,0.0014704694040119648,-0.08134317416836086,-0.4875606957128374,1.4171716616522265
1687100329.686244,-0.07161624729633331,0.4680626392364502,-0.8807885646820068,0.0008917525410652161,-0.005004137754440308,0.0014551281929016113,0.023053910583257675,-0.0031374963000416756,0.0006026783958077431,-0.08113076762945486,-0.48709717702964217,1.4173026931239125
1687100329.69119,-0.07165031880140305,0.4672556221485138,-0.8812142014503479,0.004908382892608643,-0.0040750205516815186,0.0028420090675354004,0.01593075320124626,-0.0018390496261417866,0.011956999078392982,-0.08113015547483163,-0.4861841583034656,1.4174310973395188
1687100329.7762918,-0.07171929627656937,0.4665657579898834,-0.8815740346908569,-0.01408088207244873,0.0013755857944488525,-0.010531067848205566,0.03155898302793503,-0.0013750826474279165,0.004277907777577639,-0.0811749185727926,-0.4854040319794512,1.417714916945382
1687100329.790228,-0.07165955752134323,0.465895414352417,-0.881933331489563,-0.010997295379638672,0.008988678455352783,-0.010858416557312012,0.04685218259692192,-0.0024608089588582516,-0.00433595385402441,-0.08107469773968712,-0.4846462875125513,1.417890820588118
1687100329.8017259,-0.07199700176715851,0.46521443128585815,-0.8822652697563171,-0.0024353712797164917,0.001536726951599121,-0.00045567750930786133,0.0022090815473347902,0.0057621668092906475,0.0002748435363173485,-0.08142428635635876,-0.48387684209126114,1.4178464229588832
1687100329.8959432,-0.07191935181617737,0.46495893597602844,-0.8824062347412109,-0.005580030381679535,0.004386156797409058,0.0007534623146057129,-0.0017824640963226557,0.0022670342586934566,0.002003235276788473,-0.08132392058915854,-0.4835882308509164,1.4179199325238807
1687100329.907615,-0.07184787839651108,0.4650106132030487,-0.8823848962783813,0.0007571578025817871,-0.0038899779319763184,0.005599617958068848,-0.023974584415555,-0.0028131897561252117,0.0023652254603803158,-0.0812454150425753,-0.48364661082511745,1.417929451650288
1687100330.017349,-0.07192474603652954,0.46515756845474243,-0.8823011517524719,-0.003423169255256653,-0.005089759826660156,0.003394901752471924,0.01498399954289198,-0.0032915377523750067,-0.0026331287808716297,-0.08133964161630643,-0.48381260051364033,1.4176670417513395
1687100330.022085,-0.071799136698246,0.4647400677204132,-0.8825313448905945,-0.003960758447647095,-0.0012238025665283203,-0.004065275192260742,0.012340279296040535,-0.00031620985828340054,-0.00146120460703969,-0.08117712164872593,-0.48334103497190234,1.4175566819499978
1687100330.135761,-0.07203012704849243,0.4646400511264801,-0.8825652003288269,-0.004996240139007568,-0.010019630193710327,-0.008197128772735596,0.00471431715413928,-0.0037583010271191597,-0.0011337688192725182,-0.08143402141639652,-0.48322807965440884,1.4174477073571858
1687100330.14219,-0.07190938293933868,0.4642775058746338,-0.8827657699584961,-0.00571209192276001,0.004335224628448486,-0.002640664577484131,0.010106420144438744,0.003967529162764549,-0.003838741686195135,-0.08127971997436066,-0.4828186997710712,1.4174396314202198
1687100330.1604261,-0.07193969190120697,0.4644860625267029,-0.8826536536216736,0.0026037395000457764,-0.0052880048751831055,0.003426969051361084,-0.0287802591919899,0.002165856072679162,0.0031524556688964367,-0.08132411750764998,-0.48305416833017095,1.4173232570226368
1687100330.257945,-0.07195676863193512,0.46466362476348877,-0.8825587630271912,0.0016595274209976196,-7.921457290649414e-05,0.008275926113128662,-0.001628533354960382,-0.004064875654876232,0.0008983560837805271,-0.08135204018397799,-0.48325468354993706,1.4172793076448649
1687100330.2644138,-0.07196652144193649,0.4649420380592346,-0.8824113607406616,0.000341758131980896,-0.015326499938964844,0.0002244710922241211,-0.011382892727851868,-0.007784179411828518,-0.0030522437300533056,-0.08137655207962731,-0.48356913975224375,1.4171816577836716
1687100330.3725882,-0.072079598903656,0.4647623300552368,-0.8824967741966248,-0.005328238010406494,0.000768125057220459,-0.005274832248687744,0.01652117632329464,0.0006635228637605906,0.003087341319769621,-0.08149600024350769,-0.4833661870343721,1.4171227784250917
1687100330.378499,-0.07226952165365219,0.465067595243454,-0.8823204040527344,-0.005046755075454712,-0.0008799135684967041,-0.003681182861328125,0.0054376316256821156,-0.0031099324114620686,-0.0034734224900603294,-0.08172604218712112,-0.48371096495331417,1.4170787157635738
1687100330.4671412,-0.07222884148359299,0.46517324447631836,-0.8822680115699768,-0.010839998722076416,-0.002877652645111084,-0.001078486442565918,-0.002375816460698843,0.005172320641577244,0.0036209719255566597,-0.08168506874995059,-0.4838303152615892,1.4171036521685794
1687100330.479629,-0.07207940518856049,0.4652179181575775,-0.8822566866874695,-0.002078309655189514,0.003089606761932373,0.004678010940551758,-0.024546898901462555,2.7826055884361267e-05,-0.00013401824980974197,-0.08151785354229639,-0.48388078923234007,1.4171143834180562
1687100330.4920878,-0.07205274701118469,0.46582692861557007,-0.8819374442100525,0.010453000664710999,-0.004980921745300293,0.007425785064697266,-0.019778775051236153,-0.004958765581250191,0.007329490967094898,-0.08151720610476841,-0.4845688792617792,1.4172807202856572
1687100330.552249,-0.07204165309667587,0.4657880663871765,-0.8819589018821716,-0.004938960075378418,-0.015119671821594238,0.004303872585296631,-0.014912380836904049,-0.010070969350636005,0.00614891154691577,-0.08150273342560259,-0.4845249777335004,1.417351301182591
1687100330.584206,-0.07195154577493668,0.46679580211639404,-0.8814333081245422,0.005041755735874176,-0.006880611181259155,-0.0015927553176879883,-0.01705729030072689,0.0011233841069042683,-0.0008996101096272469,-0.08144957172403137,-0.4856641213522894,1.4175251251274903
1687100330.643621,-0.07211972773075104,0.4664505124092102,-0.8816023468971252,-0.014351829886436462,0.01012730598449707,-0.0054672956466674805,0.0247652567923069,0.0028196843340992928,0.0012275893241167068,-0.0816235234944067,-0.4852737553063482,1.417323070223638
1687100330.6702008,-0.07178931683301926,0.4676470160484314,-0.8809952139854431,-0.0018648728728294373,-0.0057939887046813965,-0.00966024398803711,-0.037067215889692307,0.006769862957298756,0.002891533076763153,-0.08130696938509137,-0.4866269118434562,1.4176525720049022
1687100330.736408,-0.07174842804670334,0.4688238501548767,-0.8803728818893433,-0.006361320614814758,0.006334900856018066,0.0027331113815307617,-0.02348216623067856,0.00866310391575098,0.0007170615717768669,-0.08131805091979084,-0.48795875437859904,1.4175275941916403
1687100330.76033,-0.07165447622537613,0.4701569676399231,-0.8796693086624146,0.01095501333475113,-0.004687577486038208,0.008011043071746826,-0.03584269434213638,0.0015605196822434664,-0.008643750101327896,-0.0812767081284675,-0.4894686206526591,1.4173227587170394
1687100330.824836,-0.0715271383523941,0.46969273686408997,-0.8799276351928711,0.00356447696685791,-0.009182453155517578,0.009688377380371094,-0.0062057082541286945,-0.0059755160473287106,-0.005007203668355942,-0.08110919457907985,-0.48894271471425416,1.41692992289864
1687100330.946465,-0.07169909030199051,0.4705383777618408,-0.8794617056846619,0.004194185137748718,-0.010424792766571045,0.0016846656799316406,-0.0019430527463555336,-0.004406447988003492,-0.002855568891391158,-0.08134620265626047,-0.4899008282508829,1.416662251606192
1687100330.9578109,-0.07175431400537491,0.4705827236175537,-0.8794335126876831,0.0030744969844818115,-0.0007492899894714355,-0.011542439460754395,0.02067038044333458,0.008383981883525848,-0.0009030061773955822,-0.08141117943189957,-0.4899510867225593,1.4164461815158325
1687100331.039682,-0.07178197801113129,0.4707702100276947,-0.8793308734893799,-0.008525058627128601,0.0015809237957000732,-0.002993345260620117,-0.008922132663428783,0.007174419239163399,-0.003148716641589999,-0.08145188900909096,-0.4901635679566763,1.416443719463061
1687100331.056931,-0.07165059447288513,0.4707403779029846,-0.8793575763702393,0.000773504376411438,0.009896278381347656,0.010216951370239258,0.00024207090609706938,0.005931743420660496,0.0015729349106550217,-0.08130100517287556,-0.49012975494852284,1.4164534097618415
1687100331.156822,-0.07180232554674149,0.47124040126800537,-0.8790773153305054,0.007394962012767792,-0.009707778692245483,0.008120954036712646,-0.025335993617773056,-0.011228423565626144,-0.006379263941198587,-0.08149827593927646,-0.49069659293947987,1.4163987413088905
1687100331.162566,-0.07195791602134705,0.47063806653022766,-0.8793872594833374,0.010434478521347046,-0.008739203214645386,0.006523489952087402,-0.021587060764431953,-0.01745465025305748,0.0032293545082211494,-0.08164543921604657,-0.49001381435680086,1.4162915413132309
1687100331.276442,-0.07206626236438751,0.47067368030548096,-0.8793593049049377,-0.00024515390396118164,0.0027455687522888184,-0.002980172634124756,0.01486655417829752,0.003236935008317232,0.003113440703600645,-0.081770411059037,-0.49005415179251155,1.4162532253829951
1687100331.2894,-0.07208745181560516,0.470110684633255,-0.8796586990356445,-0.011118724942207336,0.0021946728229522705,-0.008067131042480469,0.015837809070944786,0.003171976190060377,0.0010133381001651287,-0.0817666297475505,-0.4894161889204754,1.4163652295990206
1687100331.368106,-0.0721052885055542,0.47032833099365234,-0.8795408606529236,-0.005317807197570801,0.005181372165679932,-0.005346834659576416,0.003041852032765746,0.0028894590213894844,-0.0034531825222074986,-0.081797679359446,-0.48966279486054526,1.4164110813248065
1687100331.374331,-0.0720733180642128,0.46938565373420715,-0.8800469040870667,-0.009194999933242798,0.010411769151687622,-0.0024756193161010742,-0.005833931267261505,-0.002825617790222168,-0.0004601222462952137,-0.08171476706163311,-0.48859488396834644,1.416392173009357
1687100331.3902059,-0.07217522710561752,0.4697345495223999,-0.8798524141311646,0.00285455584526062,0.008826911449432373,0.007217526435852051,0.0048328279517591,0.0012962897308170795,-0.0013343049213290215,-0.08184780757859186,-0.4889900588836093,1.4163117864051222
1687100331.450175,-0.07215353101491928,0.4693848192691803,-0.8800407648086548,-0.003316439688205719,-0.00277101993560791,0.0050103068351745605,-0.014691337943077087,-0.002483179559931159,0.0030612428672611713,-0.08180587208780678,-0.48859396483699075,1.4163971092073824
1687100331.481711,-0.07211416214704514,0.46943533420562744,-0.8800170421600342,-0.0038898736238479614,-0.006743013858795166,-0.003085315227508545,0.014488917775452137,-0.0016291483771055937,-0.0010886280797421932,-0.0817636315045569,-0.48865117292426485,1.4162105654896187
1687100331.5462542,-0.07229162007570267,0.4696495831012726,-0.8798881769180298,-0.005360357463359833,0.0034949779510498047,-0.0073645710945129395,0.021203279495239258,0.0016672236379235983,-0.005157139617949724,-0.08197588072818081,-0.48889381997592385,1.4161172540363756
1687100331.570401,-0.07221043854951859,0.46927976608276367,-0.8800921440124512,-0.008371233940124512,-0.0031237006187438965,-0.007923603057861328,-0.0013864520005881786,0.009502331726253033,-0.0016212607733905315,-0.08186534502163637,-0.48847499562225827,1.4159615607185498
1687100331.63555,-0.07210037112236023,0.4695702791213989,-0.8799461722373962,-0.0044987499713897705,0.00894540548324585,0.004473209381103516,0.0015997503651306033,0.0007524278480559587,-0.002932600677013397,-0.08175462027401002,-0.48880400416464564,1.4160481434629466
1687100331.6600509,-0.07194079458713531,0.46931466460227966,-0.8800956010818481,0.006038092076778412,-0.008117735385894775,0.00779646635055542,-0.04748976603150368,-0.0036303363740444183,0.003363377880305052,-0.08156068693473845,-0.4885144992907545,1.4160321855389821
1687100331.691417,-0.07188977301120758,0.4697236716747284,-0.8798815608024597,-0.0029698535799980164,0.002368062734603882,0.006254911422729492,0.00021490667131729424,0.0012869243510067463,-0.00025878753513097763,-0.0815228416938898,-0.4889777355099767,1.4158980034493833
1687100331.757849,-0.07192938029766083,0.4696401357650757,-0.8799229264259338,0.005294248461723328,-0.007756531238555908,-0.005773484706878662,0.014515017159283161,-3.156240563839674e-05,0.0013751951046288013,-0.08156373582141907,-0.4888831223497629,1.4157299995956818
1687100331.81902,-0.07206212729215622,0.4704584777355194,-0.8794748187065125,-0.008534803986549377,-0.0017389357089996338,-0.007091343402862549,0.009310933761298656,0.014499843120574951,0.005307485349476337,-0.0817550469921561,-0.48981026889033463,1.415613608331423
1687100331.878049,-0.07184848934412003,0.47019267082214355,-0.8796343803405762,-0.009297750890254974,0.012076646089553833,-0.008518636226654053,0.011761308647692204,0.0013339733704924583,-0.0034050457179546356,-0.08149902498450765,-0.4895090895053023,1.4155137829523274
1687100331.996934,-0.07175923883914948,0.47064709663391113,-0.8793986439704895,-0.006670936942100525,0.006373226642608643,-0.003001868724822998,-0.01142417173832655,0.011922790668904781,0.0013119447976350784,-0.08141995327932403,-0.49002402073053236,1.4156352876388598
1687100332.008422,-0.07174721360206604,0.470792680978775,-0.8793216347694397,-0.002807244658470154,0.007723003625869751,0.0034061670303344727,-0.011067308485507965,-0.001558086252771318,-0.008514720015227795,-0.08141347090562136,-0.4901890575801935,1.4154473100979463
1687100332.113615,-0.07175137847661972,0.470878928899765,-0.8792751431465149,0.0069778114557266235,-0.0011828243732452393,0.004641413688659668,-0.023878177627921104,-0.007024290971457958,-0.002916422439739108,-0.0814224595678251,-0.4902868159688019,1.4154760953717984
1687100332.124902,-0.07189595699310303,0.47131824493408203,-0.8790279626846313,0.0037196874618530273,-0.013127267360687256,0.009353280067443848,-0.014749394729733467,-0.010391836054623127,0.0014080852270126343,-0.08160864430083824,-0.4907848640508623,1.4153644135792565
1687100332.234839,-0.07174692302942276,0.4710748493671417,-0.8791705965995789,0.0007325112819671631,-0.011296957731246948,-0.0031383633613586426,-0.0010644758585840464,0.00031238491646945477,-0.0012875660322606564,-0.08142706871130324,-0.490508906934822,1.4153103280650943
1687100332.2477798,-0.0719650611281395,0.4712500274181366,-0.879058837890625,-0.00635828822851181,-0.003125607967376709,-0.0011443495750427246,0.008923443965613842,0.0017482724506407976,-0.00487617589533329,-0.08168387531350524,-0.4907075066169794,1.4151544390290458
1687100332.326899,-0.0718344897031784,0.47094452381134033,-0.8792332410812378,-0.0009346753358840942,0.004778802394866943,-0.003152012825012207,-0.001156088663265109,0.0048357415944337845,-0.0037643727846443653,-0.08152022445069027,-0.49036117920041195,1.4150878600587333
1687100332.339672,-0.07186201959848404,0.47131356596946716,-0.8790332078933716,0.0011680498719215393,-0.002868741750717163,0.005574405193328857,-0.023098671808838844,0.00024019088596105576,-0.0010245130397379398,-0.0815698050223322,-0.4907795539287795,1.4149506527720346
1687100332.352157,-0.07175389677286148,0.47159790992736816,-0.8788895606994629,0.010596662759780884,-0.0013067126274108887,0.01060342788696289,0.0033087008632719517,-0.008271582424640656,0.001234247349202633,-0.08146086997570287,-0.491101985813728,1.4149800993680381
1687100332.445852,-0.07179535180330276,0.4718436598777771,-0.8787542581558228,-0.005322590470314026,-0.014964967966079712,0.001877427101135254,-0.008309072814881802,-0.0022377250716090202,0.006980616133660078,-0.08152021873491633,-0.4913806963996374,1.415031196003274
1687100332.457642,-0.0717126652598381,0.47225138545036316,-0.8785419464111328,0.0032464787364006042,-0.0063394904136657715,-0.0017070174217224121,-0.0008788536069914699,0.004034152254462242,0.0032193013466894627,-0.08144634046392177,-0.49184318175045016,1.4150252110959978
1687100332.566263,-0.07188186794519424,0.47230997681617737,-0.8784966468811035,-0.01794661581516266,0.012004077434539795,-0.014997005462646484,0.02042696811258793,0.005053566303104162,-0.0004405481740832329,-0.08164184637698023,-0.4919096444645804,1.4150209654509383
1687100332.5788012,-0.07169649749994278,0.47252094745635986,-0.8783982992172241,0.0014145299792289734,0.0031718313694000244,0.0007128119468688965,-0.005004090256989002,0.0006444368045777082,0.0011237924918532372,-0.08144131741554146,-0.49214900046989407,1.4151246797492227
1687100332.686798,-0.07176807522773743,0.4723588824272156,-0.8784796595573425,-0.005120992660522461,0.003959536552429199,0.004105269908905029,-0.0006524848868139088,0.00013901316560804844,0.00389494514092803,-0.08151474804996492,-0.4919651203532633,1.41511388618767
1687100332.69167,-0.071573406457901,0.4722074866294861,-0.878576934337616,0.007105022668838501,-0.005395293235778809,0.013586699962615967,-0.014515303075313568,-0.006921381689608097,-0.004888958763331175,-0.08128565681387799,-0.49179338538329,1.4152315451085722
1687100332.8059912,-0.07184544950723648,0.47255048155784607,-0.8783702254295349,-0.0009694844484329224,-0.008988410234451294,-0.0001239776611328125,0.013994901441037655,-0.00210192590020597,0.004003402777016163,-0.08161236112655541,-0.4921825152698039,1.4151857947302904
1687100332.811822,-0.07178998738527298,0.47233304381370544,-0.8784916996955872,-0.005617864429950714,-0.009564489126205444,-0.007815003395080566,0.009886176325380802,0.008308259770274162,0.006694992538541555,-0.08153841092175179,-0.4919358364824733,1.4153169851647966
1687100332.826963,-0.0716356486082077,0.4721079468727112,-0.8786252737045288,-0.012135118246078491,0.010054588317871094,-0.008093416690826416,0.013334170915186405,0.006364796310663223,0.002876618877053261,-0.08135156972426245,-0.491680469880163,1.4154275965077956
1687100332.928399,-0.07149937748908997,0.47234252095222473,-0.8785103559494019,-0.005053967237472534,0.005227118730545044,-0.0010520219802856445,0.008865919895470142,0.005303237587213516,-0.0037208967842161655,-0.08120808098606473,-0.4919465749321993,1.4155907508653465
1687100332.9402251,-0.07154614478349686,0.47157022356987,-0.8789213299751282,0.0037818700075149536,0.008684933185577393,0.0017393231391906738,0.013312599621713161,0.003940697759389877,-0.0036989920772612095,-0.0812231333761137,-0.4910705798908506,1.4155496066927664
1687100332.951283,-0.07148335874080658,0.4714483618736267,-0.8789918422698975,-0.0032694637775421143,-0.0030797719955444336,0.009317159652709961,-0.011628969572484493,-0.01408444158732891,0.0013592159375548363,-0.08114568592258431,-0.49093239326692656,1.4157350306647216
1687100333.0120049,-0.07147366553544998,0.47152602672576904,-0.8789509534835815,0.00023037195205688477,-0.0033710598945617676,0.004423975944519043,0.007188127376139164,-0.003016522154211998,-0.004008384887129068,-0.08113848385152196,-0.49102044365023184,1.4158243903712848
1687100333.0396938,-0.07158271968364716,0.47125059366226196,-0.8790897727012634,-0.007824033498764038,-0.0069103240966796875,-0.009795725345611572,0.019274085760116577,0.0030689563136547804,0.00629904679954052,-0.08124896338696999,-0.49070815983997274,1.4157057865543121
1687100333.0706959,-0.07163984328508377,0.4715035855770111,-0.8789494633674622,-0.010589785873889923,-0.005393296480178833,-0.011934876441955566,-0.004917270969599485,0.002755990717560053,-0.005322055425494909,-0.08132644541558463,-0.4909949982699692,1.4155556926887718
1687100333.1354709,-0.07181460410356522,0.47193628549575806,-0.8787029385566711,-0.008538171648979187,0.014086723327636719,-0.0022785067558288574,-0.001414681551977992,0.0048260875046253204,-0.007015493232756853,-0.08154672190367207,-0.4914857324731248,1.4152845297797287
1687100333.254606,-0.071803018450737,0.4724796712398529,-0.8784118294715881,0.006724268198013306,-0.0003421604633331299,0.008447229862213135,-0.03046444244682789,-0.004206910729408264,0.0029236902482807636,-0.08156053215244795,-0.49210218260399036,1.4152695731458695
1687100333.2603111,-0.07188212126493454,0.473262220621109,-0.8779839873313904,-0.0033589601516723633,0.0015150606632232666,0.006218850612640381,-0.0036663843784481287,0.0055652703158557415,-0.0012900298461318016,-0.08168959377346889,-0.49299029201033606,1.4151870464224883
1687100333.37498,-0.0715358629822731,0.47283145785331726,-0.8782442808151245,0.010638043284416199,-0.008536994457244873,0.010736405849456787,-0.01778353378176689,-0.009167781099677086,3.036530688405037e-05,-0.0812738347311977,-0.4925013803098239,1.415139362373616
1687100333.380525,-0.07188112288713455,0.472466379404068,-0.8784126043319702,-0.002917468547821045,0.0032722055912017822,0.0017799139022827148,0.07027575373649597,-0.029747867956757545,-0.004613588564097881,-0.08164878777686177,-0.49208709282811147,1.4149322115653185
1687100333.496588,-0.07247740775346756,0.4687456488609314,-0.8803548216819763,-0.004472658038139343,-0.017787307500839233,-0.005066931247711182,0.10449869930744171,-0.016703970730304718,-0.0061366502195596695,-0.08214224851258642,-0.4878702066863335,1.4147407904950298
1687100333.508566,-0.07360037416219711,0.4642205834388733,-0.8826563954353333,-0.007393285632133484,0.0008673667907714844,-0.026096045970916748,0.10450349748134613,-0.013249718584120274,-0.018878411501646042,-0.0831926240733497,-0.48275441825707416,1.4141147098531222
1687100333.588737,-0.07439637929201126,0.4630540907382965,-0.8832021951675415,0.006204843521118164,0.015232712030410767,0.004189133644104004,0.00314917741343379,-0.001686273142695427,-0.0038011909928172827,-0.08403643470373436,-0.4814378759577488,1.413990581541116
1687100333.594925,-0.07487017661333084,0.46289297938346863,-0.8832466006278992,0.00045306235551834106,0.0016456544399261475,0.007956743240356445,0.007445388939231634,-0.014159432612359524,-0.007303181104362011,-0.08456485355558822,-0.48125610847583844,1.4137243241986774
1687100333.611769,-0.07519415020942688,0.4626104533672333,-0.883367121219635,0.005202077329158783,0.001470416784286499,0.013265252113342285,-0.02584945037961006,-0.01749863661825657,0.006010093726217747,-0.0849174999420841,-0.4809374045656813,1.4136096826596536
1687100333.704739,-0.07517135888338089,0.4603137969970703,-0.8845679759979248,-0.005807057023048401,-0.0002307295799255371,0.008698225021362305,0.032076168805360794,0.011145169846713543,-0.004028425086289644,-0.08477718814329643,-0.4783486448956012,1.4135464985625146
1687100333.7110682,-0.07502954453229904,0.4580495357513428,-0.8857545852661133,-0.008390255272388458,-0.0020711123943328857,-0.004366815090179443,0.11097151786088943,0.017215779051184654,-0.008118441328406334,-0.08450518711965713,-0.4757997650496652,1.4136098265102042
1687100333.827682,-0.07401465624570847,0.44294050335884094,-0.8934906721115112,-0.0010738670825958252,0.06209495663642883,0.01723945140838623,0.5314143300056458,0.06393925100564957,-0.012592285871505737,-0.08264893411672997,-0.4588758303621183,1.414549435487416
1687100333.8387098,-0.07252536714076996,0.4222547113895416,-0.9035712480545044,-0.0036922842264175415,0.0023211240768432617,0.00144118070602417,0.4485979974269867,0.013720624148845673,0.004205269739031792,-0.08009353450157604,-0.4359312197678314,1.416017454719836
1687100333.94613,-0.07116348296403885,0.4020954370498657,-0.9128280282020569,0.004146896302700043,0.006184011697769165,0.00908052921295166,0.49460092186927795,0.05025806277990341,0.0043193199671804905,-0.07780199120297578,-0.4138042949338111,1.418030286845699
1687100333.957274,-0.07507243007421494,0.38383960723876953,-0.9203430414199829,0.01872171461582184,0.024287283420562744,-0.02022397518157959,0.32562708854675293,-0.20460517704486847,-0.018919888883829117,-0.08138986062006613,-0.3939508354795949,1.4208075070875652
1687100334.038902,-0.08312525600194931,0.3700615465641022,-0.9252808690071106,-0.014210566878318787,-0.005101799964904785,0.026767075061798096,0.3632042706012726,-0.10193087160587311,-0.12113481014966965,-0.08959733696532678,-0.3790752629200198,1.4198912902392575
1687100334.044512,-0.08837997913360596,0.34090182185173035,-0.9359353184700012,0.006531819701194763,0.01568084955215454,-0.009377121925354004,0.6847959160804749,-0.09327618032693863,-0.13103631138801575,-0.09415039356171348,-0.3478760038498273,1.4169797188748186
1687100334.060349,-0.09523443132638931,0.3106699287891388,-0.945734977722168,0.005131281912326813,-0.038071632385253906,0.004038810729980469,0.541039228439331,-0.15878620743751526,-0.091856949031353,-0.10036054388739855,-0.3158977552080181,1.4147624492059825
1687100334.156404,-0.1042911559343338,0.28545042872428894,-0.9527021646499634,0.013135135173797607,0.03962284326553345,-0.008738875389099121,0.4141593277454376,-0.16466403007507324,-0.14291627705097198,-0.109034641626376,-0.2894763696463978,1.4114659232114721
1687100334.1622539,-0.11137737333774567,0.2763870060443878,-0.9545707702636719,-0.018780112266540527,-0.00980067253112793,0.022274017333984375,0.23893214762210846,-0.14284099638462067,-0.0247565396130085,-0.11615277523643676,-0.2800326295826744,1.407165630346004
1687100334.275382,-0.11779115349054337,0.2696921229362488,-0.9557151198387146,0.008370354771614075,0.02339872717857361,-0.0023689866065979004,0.10063658654689789,-0.07816418260335922,-0.05106564238667488,-0.12263078821106295,-0.2730732967558723,1.4062745621070765
1687100334.281478,-0.1230611726641655,0.2696949243545532,-0.9550500512123108,0.020964615046977997,0.001377493143081665,-0.049283385276794434,0.008838488720357418,-0.1184702143073082,-0.05710748955607414,-0.1281470110827084,-0.2730761904561465,1.4026428681092291
1687100334.3973951,-0.1275947391986847,0.2633049786090851,-0.9562374949455261,-0.004027575254440308,-0.0003502368927001953,0.018356025218963623,0.165799081325531,-0.0776740312576294,-0.013279780745506287,-0.1326505922823728,-0.2664464725765979,1.4027787045736693
1687100334.401857,-0.13013829290866852,0.257739782333374,-0.9574101567268372,-0.005466565489768982,-0.004443854093551636,0.021649718284606934,0.005108731333166361,-0.07074501365423203,0.013063943013548851,-0.1350994270791783,-0.26068221556494997,1.4039851180010623
1687100334.4885979,-0.13209542632102966,0.25302669405937195,-0.9583988189697266,-0.023544222116470337,0.04349738359451294,0.0019779205322265625,0.27427732944488525,-0.022697459906339645,-0.06397078931331635,-0.13696633275303965,-0.25580747727016423,1.4021932293015238
1687100334.494114,-0.13462822139263153,0.23881115019321442,-0.9616883397102356,0.004669114947319031,0.028889060020446777,0.01881730556488037,0.3250233232975006,-0.05333590880036354,-0.07544029504060745,-0.13908762942902672,-0.2411413955684292,1.4002258674379338
1687100334.510476,-0.13882358372211456,0.22258292138576508,-0.9649792313575745,-0.01821988821029663,-0.016268804669380188,0.03596311807632446,0.32959651947021484,-0.08822870999574661,-0.07146678864955902,-0.14288141591459633,-0.22446305709148476,1.3965493619861558
1687100334.572235,-0.14170296490192413,0.21152086555957794,-0.9670466184616089,0.01307135820388794,-0.04259079694747925,0.005727648735046387,0.10750114917755127,0.007647618651390076,-0.08112221211194992,-0.1454962378258523,-0.21313076754609345,1.3916208238344319
1687100334.603282,-0.1415836662054062,0.21096552908420563,-0.9671854376792908,-0.0327938050031662,-0.025678038597106934,-0.0038228631019592285,-0.023876581341028214,-0.030406977981328964,0.025541719049215317,-0.14535488580826245,-0.21256261375963087,1.3930000675792502
1687100334.696626,-0.14376908540725708,0.21174874901771545,-0.9666917324066162,0.02114945650100708,-0.01471199095249176,0.017366230487823486,-0.01188037171959877,-0.029390450567007065,0.029929274693131447,-0.14764060509104274,-0.21336393494709185,1.392746396483666
1687100334.785969,-0.14533323049545288,0.21047145128250122,-0.9667367935180664,-0.024146169424057007,0.07134315371513367,-0.020964622497558594,0.08271138370037079,0.017014354467391968,-0.07994815707206726,-0.14921639417044555,-0.21205719328519015,1.3920007123993794
1687100334.791712,-0.1448938548564911,0.2040894627571106,-0.9681700468063354,0.010067164897918701,0.026959151029586792,-0.01638805866241455,0.1497601866722107,0.057486459612846375,-0.08522694557905197,-0.14855491132206583,-0.20553349731312368,1.3881089950164731
1687100334.807795,-0.14338549971580505,0.19772766530513763,-0.969713568687439,-0.0007948130369186401,0.013469263911247253,-0.00030291080474853516,0.1108199805021286,0.0415213406085968,-0.07501291483640671,-0.1468000749163078,-0.19903927002081567,1.3851913277921026
1687100334.9063768,-0.14350950717926025,0.19789822399616241,-0.9696604013442993,0.004334092140197754,-0.021048858761787415,0.024485290050506592,-0.050293538719415665,0.008297895081341267,0.0010302495211362839,-0.14693314505701185,-0.19921327512817238,1.3832715432942992
1687100334.91179,-0.1436077356338501,0.20128150284290314,-0.9689491987228394,0.003684625029563904,-0.0066556185483932495,-0.037779927253723145,-0.07772888988256454,-0.028252460062503815,0.01236046850681305,-0.14713864580410063,-0.20266602116836524,1.3840622367278625
1687100335.0254312,-0.14366281032562256,0.20200562477111816,-0.9687903523445129,0.013398513197898865,0.0002801567316055298,0.01366645097732544,-0.08645793795585632,-0.0032037203200161457,0.000988570973277092,-0.14721805465353152,-0.20340533976787642,1.3829691349530908
1687100335.0315351,-0.14412613213062286,0.20477765798568726,-0.9681393504142761,-0.01110154390335083,-0.016545221209526062,-0.011581718921661377,-0.032959289848804474,-0.029088757932186127,0.025546377524733543,-0.14778385658311138,-0.20623655247238448,1.3840261244800711
1687100335.143112,-0.1456608772277832,0.20447085797786713,-0.9679744839668274,0.0584263801574707,0.0003631412982940674,-0.010342776775360107,-0.08334017544984818,0.07534903287887573,0.05872663855552673,-0.14935943702754556,-0.2059231090730961,1.3832761452113511
1687100335.1554332,-0.14260412752628326,0.2111608386039734,-0.9669928550720215,-0.02379298210144043,-0.0245915949344635,-0.061480045318603516,-0.3450641930103302,0.06506477296352386,0.14333759248256683,-0.1464164170838324,-0.21276241857952508,1.390093811469073
1687100335.237648,-0.14405560493469238,0.2283928543329239,-0.9628523588180542,0.08118936419487,0.0697791576385498,-0.0870286226272583,-0.26993322372436523,-0.12504296004772186,-0.03965146839618683,-0.1485118201221995,-0.2304265796316058,1.3898890447342034
1687100335.2432718,-0.14086571335792542,0.23583576083183289,-0.9615291953086853,-0.07167395949363708,0.006672203540802002,0.1130794882774353,0.09905866533517838,0.11486081779003143,0.05635448917746544,-0.1454669466315383,-0.23807850289832114,1.3906238577825316
1687100335.258771,-0.13461680710315704,0.2317884862422943,-0.9634066820144653,0.03839486837387085,0.002601802349090576,-0.06846892833709717,-0.021951114758849144,0.17155221104621887,-0.07013720273971558,-0.1388311190831983,-0.2339158336913087,1.3873848685440469
1687100335.324147,-0.1234695315361023,0.23923401534557343,-0.9630796313285828,-0.0398605540394783,-0.10741332173347473,0.06421488523483276,-0.3032749593257904,0.18281716108322144,0.28763750195503235,-0.12750729674401662,-0.24157688529225274,1.3941509091046502
1687100335.355534,-0.12207187712192535,0.27460697293281555,-0.9537764191627502,0.09845124930143356,-0.06574463844299316,-0.11899274587631226,-0.9310299754142761,-0.04049112647771835,-0.0055578784085810184,-0.12729587235366926,-0.2781809302628894,1.3983105416227444
1687100335.415114,-0.11991079151630402,0.29184049367904663,-0.948920726776123,0.017951540648937225,0.09655675292015076,0.027198314666748047,-0.012454548850655556,0.045244619250297546,0.18106625974178314,-0.12569920476330415,-0.29615053480398207,1.4047036435534954
1687100335.440061,-0.11639048904180527,0.3002471625804901,-0.946733832359314,0.05302073061466217,0.034622251987457275,-0.11883318424224854,-0.31007853150367737,0.24783988296985626,-0.16362427175045013,-0.12232516929276067,-0.30495175790009404,1.40387554201374
1687100335.504859,-0.10491309314966202,0.29588183760643005,-0.9494457244873047,0.03269323706626892,0.018647611141204834,-0.019639968872070312,0.10412346571683884,0.20109562575817108,0.014711840078234673,-0.11005283143050874,-0.3003785663496915,1.4019815266464897
1687100335.532892,-0.09419523924589157,0.30203357338905334,-0.9486321806907654,0.010592326521873474,-0.015168309211730957,-0.08327394723892212,-0.3961644172668457,0.14096678793430328,0.07286815345287323,-0.09897142844578752,-0.3068251439071653,1.4045141578730964
1687100335.593606,-0.08887583017349243,0.32448604702949524,-0.9417058229446411,-0.011221833527088165,0.009727239608764648,0.008112072944641113,-0.2752678096294403,0.1185208261013031,0.06890763342380524,-0.09409876729546343,-0.33046832426757977,1.4065155616627605
1687100335.7159948,-0.08116434514522552,0.33270463347435,-0.9395318031311035,-0.01745322346687317,0.013166368007659912,0.032015323638916016,-0.1998385637998581,0.22457817196846008,0.006958711892366409,-0.08617413593320244,-0.33917014667628115,1.406440372701878
1687100335.728373,-0.07702799141407013,0.3460882306098938,-0.9350345730781555,0.019700706005096436,-0.0044286251068115234,0.006872951984405518,-0.33913734555244446,-0.012270030565559864,0.034723300486803055,-0.08219423644233996,-0.35339844570631623,1.4069465890637929
1687100335.8375912,-0.07297613471746445,0.3652534782886505,-0.9280433058738708,-0.029654480516910553,0.024044007062911987,0.020679473876953125,-0.1677650362253189,0.055974069982767105,0.02206309512257576,-0.0784729302011123,-0.37390508870362144,1.4070591667696544
1687100335.843402,-0.07065434753894806,0.3739381432533264,-0.9247584939002991,-0.008081004023551941,-0.04131174087524414,-0.029877126216888428,-0.4316236078739166,0.009963680990040302,0.04194911941885948,-0.07625487877373283,-0.3832515834862521,1.4087633891185416
1687100335.9862618,-0.0711890459060669,0.3900977671146393,-0.9180173873901367,-0.004036799073219299,0.048531413078308105,0.006457328796386719,-0.1602240353822708,-0.005952079780399799,0.008352544158697128,-0.07739163273922446,-0.40073775872124473,1.4086056171693153
1687100335.9921799,-0.07199406623840332,0.3970452845096588,-0.9149709939956665,0.021060213446617126,-0.037624478340148926,-0.035849928855895996,-0.23148196935653687,-0.04278981313109398,0.014946265146136284,-0.07852274593925486,-0.40829525249858767,1.4084919689513364
1687100336.076844,-0.07227794826030731,0.40533357858657837,-0.9113070964813232,-0.001376226544380188,-0.006285667419433594,0.029608488082885742,-0.01849033683538437,-0.046007443219423294,0.017944717779755592,-0.07914671996180261,-0.41734369371558916,1.4094339399745353
1687100336.0983648,-0.07302821427583694,0.4097534418106079,-0.9092683792114258,-0.006958357989788055,-0.03595885634422302,0.009671270847320557,-0.17042741179466248,0.003866772633045912,0.03582398593425751,-0.0801433278383244,-0.4221837605423959,1.409866088030784
1687100336.1644158,-0.07143308222293854,0.4122450351715088,-0.9082683324813843,-0.0003442689776420593,0.0391710102558136,0.011936604976654053,0.062173083424568176,0.020477131009101868,0.0004940880462527275,-0.07848599466773443,-0.4249168659541258,1.410678634855708
1687100336.2249231,-0.0711204931139946,0.41224950551986694,-0.9082908034324646,-0.009476438164710999,-0.018587946891784668,-0.001911163330078125,-0.019550275057554245,0.012635940685868263,0.012954885140061378,-0.07814201170735385,-0.424921774918783,1.4113137256048505
1687100336.2307901,-0.0700855702161789,0.4068344831466675,-0.9108093976974487,-0.0044994056224823,0.03469386696815491,0.01725471019744873,0.35655489563941956,0.048796139657497406,0.002725883387029171,-0.07679733331523916,-0.4189861360514688,1.4121125077946792
1687100336.24983,-0.0678522065281868,0.3818140923976898,-0.9217451214790344,-0.002612888813018799,0.03847402334213257,0.012351810932159424,0.608126163482666,0.012779529206454754,0.008549352176487446,-0.07348023102591428,-0.39175830059666206,1.4161169817226957
1687100336.314213,-0.07264923304319382,0.3523780107498169,-0.9330336451530457,0.01635955274105072,-0.027304738759994507,0.0009658336639404297,0.6836552619934082,-0.2784762680530548,0.019336551427841187,-0.07770667591561502,-0.3601108968429996,1.4190774142795346
1687100336.342774,-0.08531961590051651,0.3404959440231323,-0.9363669753074646,0.04769143462181091,-0.10847076773643494,-0.0090675950050354,0.0473342165350914,-0.29996663331985474,0.048326991498470306,-0.09086679688477461,-0.3474443178236455,1.4238360361357874
1687100336.404492,-0.10127793997526169,0.326252818107605,-0.9398414492607117,0.0029197782278060913,0.1077529788017273,-0.01291733980178833,0.34877127408981323,-0.3099980354309082,-0.06986409425735474,-0.10734643443217222,-0.33233675139358243,1.4235647490769157
1687100336.434606,-0.11403355002403259,0.31743481755256653,-0.9413986802101135,0.005223110318183899,-0.04112863540649414,-0.031837403774261475,-0.044158682227134705,-0.2016758769750595,-0.028194282203912735,-0.12054475480459842,-0.32302315977322643,1.4232328014066948
1687100336.494279,-0.12181137502193451,0.3204152286052704,-0.9394125938415527,-0.010467074811458588,0.0426371693611145,0.01422649621963501,0.15840934216976166,-0.0952649787068367,-0.0521719865500927,-0.12894811302958717,-0.3261678072898181,1.4207052999602903
1687100336.5230799,-0.12665437161922455,0.30401870608329773,-0.9442093372344971,-0.0062191784381866455,0.029813110828399658,0.0030167102813720703,0.4534936845302582,-0.07484211027622223,-0.114383764564991,-0.13334207285989105,-0.30890821500923815,1.4183121849744766
1687100336.617486,-0.13009607791900635,0.27960801124572754,-0.9512593746185303,0.005813226103782654,0.03322771191596985,-0.03158974647521973,0.4147460460662842,-0.04503614455461502,-0.1428469568490982,-0.13591873119373754,-0.2833858139626523,1.4148792959329966
1687100336.6230621,-0.13399891555309296,0.26617324352264404,-0.9545659422874451,-0.010379761457443237,-0.015791743993759155,0.03613942861557007,0.21861621737480164,-0.06668835133314133,-0.08024562895298004,-0.1394654891240917,-0.2694208713764848,1.4105685156674348
1687100336.737101,-0.13909302651882172,0.25271865725517273,-0.9574896693229675,-0.0020813047885894775,0.007214844226837158,0.0010077357292175293,0.3612745404243469,-0.09847167134284973,-0.16512776911258698,-0.14425931718825968,-0.2554890997094761,1.4059395638110326
1687100336.742351,-0.14363722503185272,0.23247188329696655,-0.9619382619857788,0.006018191576004028,0.006358712911605835,0.05623757839202881,0.459707111120224,-0.007540855556726456,-0.134303480386734,-0.1482254573815771,-0.23461842815275205,1.400749917687043
1687100336.856827,-0.14385294914245605,0.214609295129776,-0.9660482406616211,-0.009955674409866333,-0.020212292671203613,0.0036306381225585938,0.24377164244651794,0.017833631485700607,-0.0958980917930603,-0.14782244541289138,-0.21629178463007068,1.3967508111418736
1687100336.862626,-0.14306171238422394,0.20109246671199799,-0.969069242477417,0.015162527561187744,0.028384476900100708,-0.003709077835083008,0.2926262617111206,0.08830373734235764,-0.15427131950855255,-0.14656930213416253,-0.2024730441922325,1.3927118935028873
1687100336.945421,-0.14019347727298737,0.18891336023807526,-0.9719349145889282,-0.008945927023887634,-0.06608010828495026,0.018855750560760498,0.11940041929483414,0.06242666766047478,-0.008077695034444332,-0.14325358759303974,-0.19005547076588364,1.390181339032789
1687100336.95773,-0.1380060315132141,0.1880887746810913,-0.9724078178405762,0.0027063190937042236,-0.02370584011077881,-0.004551410675048828,-0.008539170026779175,0.004197293426841497,0.033791523426771164,-0.14098045785056962,-0.18921583190993446,1.3914429617009818
1687100336.96917,-0.13862308859825134,0.1884882152080536,-0.9722427129745483,0.017407238483428955,0.012561619281768799,0.00881803035736084,0.013106470927596092,-0.002858951687812805,-0.008364250883460045,-0.1416261753597569,-0.18962254525545996,1.3918983796881097
1687100337.0645099,-0.13843338191509247,0.18665815889835358,-0.9726226925849915,-0.0014286935329437256,-0.008908510208129883,-0.008517444133758545,0.0809267982840538,0.029179807752370834,0.027660993859171867,-0.141380412711239,-0.187759416349586,1.3930067179544918
1687100337.1231709,-0.13467495143413544,0.1815878450870514,-0.9741091132164001,-0.016753286123275757,0.0034707635641098022,0.014056622982025146,0.06148359179496765,0.08659385144710541,-0.010769684799015522,-0.1373835731205637,-0.1826009075725882,1.3930404519884416
1687100337.186778,-0.13367100059986115,0.1811903715133667,-0.9743213653564453,0.009617030620574951,0.009666591882705688,-0.025388717651367188,0.008797742426395416,0.02264527790248394,-0.028046809136867523,-0.136342782854621,-0.1821967244020869,1.3933369252622272
1687100337.192717,-0.13442391157150269,0.18134218454360962,-0.9741895198822021,0.0056397318840026855,-0.02858641743659973,0.0008161067962646484,-0.06446582078933716,-0.030920635908842087,0.0462527871131897,-0.13711951087495958,-0.18235108848396894,1.3927879463972321
1687100337.242429,-0.13518105447292328,0.18576818704605103,-0.9732503890991211,-0.001644521951675415,0.0072402507066726685,0.0013723373413085938,-0.03157897666096687,-0.010063955560326576,0.03119114600121975,-0.13801347399572794,-0.18685360353648342,1.394575699925624
1687100337.2708569,-0.13552236557006836,0.18607831001281738,-0.9731436371803284,0.0048765987157821655,-0.001157030463218689,0.004714071750640869,-0.04303562641143799,-0.01690796948969364,0.03045518510043621,-0.13837249730986753,-0.18716922933419072,1.3959470873472446
1687100337.3349838,-0.13640542328357697,0.18838578462600708,-0.9725761413574219,-0.0014882683753967285,-0.0011451691389083862,-0.011707305908203125,-0.04559146240353584,-0.09791260957717896,0.013042970560491085,-0.1393427561933671,-0.1895182402500993,1.3967986647884614
1687100337.361438,-0.13772845268249512,0.1927153468132019,-0.9715408682823181,-0.03672528266906738,-0.03059069812297821,0.07345438003540039,-0.11137047410011292,0.03874361887574196,0.060282185673713684,-0.1408245279867277,-0.19392861319852112,1.3978650265387151
1687100337.4250522,-0.13525265455245972,0.20488977432250977,-0.969395101070404,-0.015473663806915283,-0.05272911489009857,0.014500081539154053,-0.34191954135894775,-0.02678452432155609,-0.03474632278084755,-0.13862782206432334,-0.20635109726009887,1.3978733026549857
1687100337.4526281,-0.13529962301254272,0.21933254599571228,-0.9662231802940369,-0.03782661259174347,-0.026598766446113586,0.08904117345809937,-0.25341418385505676,0.11060138791799545,0.06737525016069412,-0.13912475096753207,-0.22113031238007227,1.3941100824546049
1687100337.5155082,-0.12799696624279022,0.2354753166437149,-0.9634148478507996,0.02832654118537903,-0.013871908187866211,-0.07444220781326294,-0.517031729221344,-0.1325022131204605,0.1287093162536621,-0.1320840571165823,-0.23770761279782202,1.3960814588896722
1687100337.541609,-0.12474579364061356,0.2736700177192688,-0.9536997675895691,-0.11278779059648514,-0.04922845959663391,0.1711832880973816,-0.31742432713508606,0.25357306003570557,0.3164515197277069,-0.13006354919336643,-0.27720665727853566,1.4003626164629321
1687100337.604733,-0.11611150205135345,0.2958013713359833,-0.9481664896011353,0.07639285922050476,-0.03899592161178589,-0.15284669399261475,-0.6168012022972107,-0.06858215481042862,0.07098882645368576,-0.12185228778470078,-0.3002943168817941,1.4076561096928675
1687100337.725904,-0.1085294559597969,0.3100661039352417,-0.9445000886917114,-0.1342073678970337,0.05869308114051819,0.20711910724639893,0.3888776898384094,0.2677060663700104,0.09893964231014252,-0.11440501553045185,-0.31526257119335904,1.4053722858605302
1687100337.7393188,-0.09882847219705582,0.30126965045928955,-0.9484037160873413,-0.023852206766605377,-0.03335580229759216,-0.0012575387954711914,-0.07216794788837433,0.19017115235328674,-0.04419675096869469,-0.10383032923189829,-0.30602389209370656,1.407432896006171
1687100337.846081,-0.09034522622823715,0.305294007062912,-0.9479627013206482,-0.013414539396762848,-0.0208854079246521,0.029673516750335693,0.006619010120630264,0.20410452783107758,0.054034411907196045,-0.09501763551263022,-0.3102471569187649,1.4059200689761897
1687100337.857063,-0.08057638257741928,0.31743431091308594,-0.944850742816925,0.001001790165901184,-0.10545915365219116,-0.02112215757369995,-0.5580270886421204,0.160628542304039,0.10790037363767624,-0.08507364499904249,-0.3230226381849166,1.4101037376428736
1687100337.96767,-0.07112608104944229,0.33987584710121155,-0.9377768635749817,-0.0029858648777008057,0.00729215145111084,-0.007352471351623535,-0.3651324510574341,0.2404339760541916,0.04775527864694595,-0.07570048231331428,-0.34678489380746524,1.411945394921616
1687100337.972717,-0.061712298542261124,0.3550766706466675,-0.9327980279922485,0.0004482567310333252,-0.001408398151397705,-0.006288886070251465,-0.38421931862831116,0.09933503717184067,0.01325016375631094,-0.06606199396330344,-0.3629960763592693,1.4132846657198244
1687100338.056058,-0.060821160674095154,0.37228184938430786,-0.9261247515678406,0.00961264967918396,0.017900675535202026,0.004417598247528076,-0.3618975281715393,-0.012080524116754532,0.055304672569036484,-0.06557858068618198,-0.3814663917151818,1.4147794852544613
1687100338.062093,-0.060158032923936844,0.38880661129951477,-0.9193533062934875,0.016166940331459045,0.006808072328567505,0.009456455707550049,-0.3118939995765686,-0.04590762034058571,0.004097477998584509,-0.06534201107291678,-0.39933591838888144,1.4161504940273464
1687100338.082551,-0.06183413788676262,0.40638792514801025,-0.911605954170227,-0.014368250966072083,-0.02658134698867798,0.02513134479522705,-0.3214116096496582,0.004070482216775417,0.05900300294160843,-0.06772615744947709,-0.4184973175326571,1.4166515230495837
1687100338.174979,-0.05987533926963806,0.41532522439956665,-0.9077003598213196,0.0039213597774505615,0.022434234619140625,-0.01565474271774292,-0.19145706295967102,-0.005716012790799141,0.00022171391174197197,-0.06586834721208676,-0.42830028227991906,1.417326155670696
1687100338.181027,-0.06106705963611603,0.42073383927345276,-0.9051264524459839,-0.0015092343091964722,0.0016295015811920166,0.019689440727233887,0.04710625112056732,0.007248853798955679,0.006108831148594618,-0.06736589538691304,-0.43425408758384454,1.417637701619032
1687100338.295504,-0.06235799938440323,0.4208762049674988,-0.90497225522995,0.015666097402572632,-0.020622849464416504,-0.012203037738800049,-0.062404531985521317,-0.07225444167852402,-0.005986048374325037,-0.06879723570205301,-0.4344110259174695,1.4168255792831421
1687100338.3085709,-0.06358878314495087,0.42207029461860657,-0.9043302536010742,-0.023187965154647827,0.024493485689163208,0.01591777801513672,0.06638513505458832,0.04340248554944992,0.007854199968278408,-0.07020034063238606,-0.4357277941705505,1.4167659245872488
1687100338.414892,-0.06387991458177567,0.4200206995010376,-0.9052634835243225,0.01709645986557007,-0.012305796146392822,-0.02681964635848999,0.0006005323957651854,-0.04220385104417801,-0.0025212091859430075,-0.070448219563191,-0.4334681326255392,1.4169263300388177
1687100338.4273381,-0.06418225169181824,0.4194375276565552,-0.9055124521255493,-0.0012169107794761658,0.003475099802017212,0.017725646495819092,0.07136711478233337,0.04565787315368652,-0.00571713550016284,-0.07076114040255901,-0.43282560973313083,1.4166620652683226
1687100338.50835,-0.060996074229478836,0.40555205941200256,-0.9120345711708069,-0.015236839652061462,0.031993746757507324,0.032563745975494385,0.5153400301933289,0.07191956788301468,0.026785414665937424,-0.0667796794367827,-0.41758270068751346,1.4186989094448124
1687100338.514425,-0.06051326543092728,0.3838793635368347,-0.9213982820510864,0.02129817008972168,-0.014784455299377441,-0.004047274589538574,0.5318806171417236,-0.10488961637020111,0.027743952348828316,-0.06558128757214407,-0.3939939010894405,1.4214669739325323
1687100338.531568,-0.06990703195333481,0.3647100627422333,-0.9284932017326355,0.04660685360431671,-0.007028758525848389,-0.013187706470489502,0.3063966631889343,-0.34119680523872375,0.03891045227646828,-0.07514905585077673,-0.37332140137039366,1.4251702800235457
1687100338.626258,-0.08497688174247742,0.363037109375,-0.927891731262207,0.016144484281539917,-0.030441224575042725,-0.02218151092529297,-0.0037129896227270365,-0.3256704807281494,0.0008593406528234482,-0.09132585284814297,-0.371525328025951,1.4271320059974417
1687100338.640002,-0.09662950038909912,0.35675525665283203,-0.929186999797821,-0.008869767189025879,0.046046316623687744,0.005221545696258545,0.20771802961826324,-0.2344578355550766,-0.010125665925443172,-0.10362113115796173,-0.3647922938908084,1.426996493061722
1687100338.745287,-0.10990869253873825,0.3451838791370392,-0.9320773482322693,0.014098748564720154,0.027328968048095703,-0.015752851963043213,0.23140178620815277,-0.28518423438072205,-0.04862891882658005,-0.11737597464707732,-0.3524346979586545,1.4271405684990321
1687100338.757479,-0.12347288429737091,0.3373509347438812,-0.933246374130249,0.023405738174915314,-0.003503859043121338,0.0047032833099365234,0.21913181245326996,-0.17751319706439972,-0.2229318767786026,-0.13154073211909684,-0.34410143448932273,1.4213804500989442
1687100338.866994,-0.1327539086341858,0.31615832448005676,-0.9393723011016846,-0.018948987126350403,0.029972046613693237,-0.0027205348014831543,0.469526469707489,-0.11224496364593506,-0.3258744478225708,-0.14039222683404137,-0.32167735247178486,1.4115013186547183
1687100338.879809,-0.14194130897521973,0.28413844108581543,-0.9482183456420898,0.0007364749908447266,0.08047035336494446,-0.003838479518890381,0.710727334022522,-0.062483157962560654,-0.39526623487472534,-0.14858933768884658,-0.28810769771861217,1.3951996976095566
1687100338.955655,-0.14515265822410583,0.2540082335472107,-0.9562481641769409,-0.015522420406341553,-0.026987940073013306,0.05628478527069092,0.6006642580032349,0.03968358039855957,-0.15544891357421875,-0.1506439293881297,-0.25682218201909374,1.3869598053136902
1687100338.961487,-0.1487255096435547,0.2310652881860733,-0.961503803730011,0.0025920569896698,-0.02584981918334961,-0.058515727519989014,0.4686841070652008,-0.07587523758411407,-0.11296696215867996,-0.15346389154358148,-0.23317246700108282,1.3841524061358628
1687100338.978651,-0.1530289351940155,0.20672520995140076,-0.9663575291633606,0.04585118591785431,0.01376432180404663,-0.0011259913444519043,0.4193895161151886,-0.0035784044302999973,-0.09552698582410812,-0.15705231298649405,-0.2082266763949196,1.383042424119967
1687100339.075625,-0.15376266837120056,0.1925152689218521,-0.9691722989082336,-0.007263347506523132,0.004811421036720276,0.012385189533233643,0.18962398171424866,-0.015731140971183777,-0.058080073446035385,-0.15734218959949162,-0.1937247147558041,1.381509112517051
1687100339.081476,-0.1549476534128189,0.18183395266532898,-0.9710446000099182,0.013819113373756409,-0.01171371340751648,0.010778546333312988,0.11479555070400238,0.021966835483908653,0.009989122860133648,-0.15823401935220358,-0.1828511744644141,1.3813691378145128
1687100339.197375,-0.1523991823196411,0.18131688237190247,-0.9715445041656494,-0.025625139474868774,0.006854504346847534,-0.019208669662475586,-0.012497692368924618,0.026541991159319878,0.029539452865719795,-0.15559487307868458,-0.18232537078175146,1.3829536915240348
1687100339.210326,-0.15162156522274017,0.1806519329547882,-0.9717900156974792,0.0049540698528289795,-0.025470048189163208,0.017902076244354248,-0.013750176876783371,0.018481623381376266,0.06331858783960342,-0.15477512156535048,-0.1816492565543485,1.3852485918090105
1687100339.316749,-0.15036745369434357,0.18061211705207825,-0.9719922542572021,0.005317389965057373,0.03458261489868164,-0.0045397281646728516,0.02080114185810089,0.0315290242433548,-0.01718544028699398,-0.15348358251593547,-0.18160876461390893,1.3856201355932616
1687100339.32828,-0.15005706250667572,0.17788788676261902,-0.972542405128479,0.01411651074886322,0.0071401894092559814,-0.02295619249343872,0.049893248826265335,0.003472380805760622,-0.05885478854179382,-0.15308638952186832,-0.17883968612297008,1.3852208917148878
1687100339.407346,-0.1489950269460678,0.17881609499454498,-0.9725354909896851,-0.010810285806655884,-0.010938882827758789,0.02319467067718506,0.033763278275728226,0.026672374457120895,-0.016695750877261162,-0.15202065251041808,-0.17978301657242882,1.382864956005454
1687100339.41382,-0.14792031049728394,0.17989660799503326,-0.9725002646446228,-0.005491569638252258,-0.03080296516418457,0.005978047847747803,-0.04324255511164665,-0.006826040334999561,-0.00063376035541296,-0.15094613729591966,-0.18088134598147607,1.3830950272743008
1687100339.429922,-0.14914682507514954,0.1817958801984787,-0.9719595909118652,0.004112020134925842,-0.0290096253156662,0.01582866907119751,-0.04845063388347626,-0.01806742139160633,0.015560656785964966,-0.15226193022203907,-0.1828124586917757,1.3822806159525456
1687100339.4946098,-0.14911913871765137,0.18196867406368256,-0.971931517124176,0.0011546313762664795,0.0023880302906036377,-0.005256593227386475,-0.041574351489543915,-0.004888236057013273,-0.0038625765591859818,-0.1522384319612299,-0.1829881806521898,1.3819984613412555
1687100339.5226722,-0.1493089646100998,0.18370801210403442,-0.971575140953064,0.0034196674823760986,0.01119251549243927,-0.008359551429748535,-0.010228944942355156,-0.05729558318853378,-0.017395364120602608,-0.15248430075546013,-0.18475734293676985,1.3818170193038093
1687100339.585747,-0.1496822088956833,0.18438303470611572,-0.9713897705078125,-0.026297420263290405,-0.044307321310043335,0.059143126010894775,-0.036277856677770615,0.05362369865179062,0.04990071803331375,-0.15288828159817971,-0.1854440934897412,1.381515444731368
1687100339.609354,-0.1484651416540146,0.1871524602174759,-0.9710468649864197,0.022717446088790894,-0.016757547855377197,-0.05207014083862305,-0.16521905362606049,0.0320594385266304,0.07770965248346329,-0.15171694187512183,-0.1882625874737911,1.3851058566217123
1687100339.678025,-0.1352487951517105,0.19114314019680023,-0.9721996188163757,-0.07915246486663818,0.024066835641860962,0.13932913541793823,0.1523117572069168,0.2927561402320862,0.18491366505622864,-0.13822911259172824,-0.19232662339348228,1.3902820867659322
1687100339.73495,-0.12266410142183304,0.19011875987052917,-0.9740679860115051,0.0055833905935287476,-0.06321138143539429,-0.010062873363494873,-0.1935279369354248,0.16817474365234375,0.07399660348892212,-0.12527030475466872,-0.19128311393573916,1.3979391747093175
1687100339.7604818,-0.11218822002410889,0.2024868130683899,-0.9728375673294067,0.025655612349510193,-0.013949185609817505,0.0016919374465942383,-0.27257776260375977,0.36051538586616516,0.03960387408733368,-0.11481343872113765,-0.20389667211665333,1.3988121365484345
1687100339.824473,-0.10364782065153122,0.21611563861370087,-0.9708507657051086,0.08153782039880753,-0.06514514982700348,-0.17140692472457886,-0.665198564529419,-0.05741633474826813,0.1914166361093521,-0.10635693400425238,-0.21783432426542867,1.405539135834899
1687100339.850249,-0.10181736201047897,0.24833248555660248,-0.9633089900016785,-0.02129056304693222,0.054035693407058716,0.020590484142303467,-0.47886142134666443,0.16321565210819244,0.005902502220124006,-0.10530445806195099,-0.25095843946934093,1.4060867446684218
1687100339.912987,-0.0953841358423233,0.2598387897014618,-0.9609295725822449,0.0289473757147789,0.031039506196975708,-0.07085442543029785,-0.24446435272693634,0.06471742689609528,0.042552728205919266,-0.09893826301309216,-0.2628552695380462,1.4078722899415101
1687100340.036372,-0.09132574498653412,0.27808257937431335,-0.9562059044837952,-0.0038128048181533813,-0.05173367261886597,0.005430757999420166,-0.4646824896335602,0.3349110782146454,-0.0742780864238739,-0.09521962732081565,-0.28179737011036743,1.405530799746816
1687100340.0419688,-0.07805629819631577,0.2853480279445648,-0.9552401304244995,0.028877221047878265,0.04218187928199768,-0.06989103555679321,-0.1867310106754303,0.12236776202917099,0.03673691302537918,-0.08153264626677421,-0.2893695373242076,1.404548577208853
1687100340.1535668,-0.07491999119520187,0.30986306071281433,-0.9478248357772827,0.002425476908683777,-0.07826513051986694,-0.0007072687149047852,-0.7675811052322388,0.031025556847453117,0.026009300723671913,-0.07888012777057203,-0.3150490140098135,1.4050370980578133
1687100340.158369,-0.06593190878629684,0.33466067910194397,-0.9400293827056885,-0.07489144802093506,0.07860839366912842,0.026790857315063477,-0.33021414279937744,0.25116321444511414,0.0385742262005806,-0.07002346585588806,-0.34124513058307654,1.403388767505494
1687100340.272733,-0.06285274773836136,0.3520316481590271,-0.9338753819465637,0.05456721782684326,-0.07702243328094482,-0.008720993995666504,-0.3459196090698242,-0.08003527671098709,0.0656118392944336,-0.06720179154610609,-0.35974080646214096,1.4041563251665445
1687100340.278801,-0.06388503313064575,0.36680081486701965,-0.9281033873558044,-0.002902679145336151,0.026189327239990234,0.010638236999511719,-0.2467951476573944,-0.017575401812791824,-0.0034358054399490356,-0.06872555722408595,-0.3755677936804702,1.4041341005219852
1687100340.3653421,-0.0666881799697876,0.3757106363773346,-0.9243344664573669,0.0151897594332695,0.002234339714050293,-0.02013874053955078,-0.12580960988998413,-0.045114196836948395,-0.010493515059351921,-0.07202244847197811,-0.3851634596110894,1.4030968877270134
1687100340.378664,-0.06749463826417923,0.3792932629585266,-0.9228115081787109,0.0012562423944473267,0.009058237075805664,0.015432417392730713,-0.07513017952442169,-0.03208597004413605,-0.0015488890931010246,-0.07301021798579828,-0.38903235013451565,1.403182848647717
1687100340.389684,-0.06740734726190567,0.38376855850219727,-0.9209657907485962,-0.014623910188674927,-0.012827366590499878,0.010489106178283691,-0.06247616931796074,0.016690358519554138,0.03243011608719826,-0.07306173946650821,-0.3938739137665784,1.4037416167386565
1687100340.487987,-0.0676853209733963,0.3860052227973938,-0.9200101494789124,0.011883914470672607,0.016903162002563477,-0.037829816341400146,-0.07700957357883453,-0.020754994824528694,-0.00932312197983265,-0.07343788524358554,-0.39629725967389445,1.4038141941006075
1687100340.493216,-0.06826461106538773,0.38770556449890137,-0.9192520380020142,-0.005450598895549774,0.0014088153839111328,0.0059525370597839355,-0.030495600774884224,0.018251771107316017,0.022253379225730896,-0.07412497533211201,-0.3981411749695575,1.4043209534107155
1687100340.605874,-0.06899651139974594,0.38944390416145325,-0.9184622764587402,0.021877363324165344,-0.02370595932006836,-0.014719486236572266,-0.09912046790122986,-0.031479835510253906,0.003353990614414215,-0.07498093459992805,-0.40002776067731366,1.4042634522526278
1687100340.610962,-0.07064583897590637,0.3911524713039398,-0.9176104664802551,-0.004168018698692322,0.011145561933517456,0.014717400074005127,0.022330861538648605,-0.003628671634942293,0.00251083355396986,-0.07683734876371436,-0.401883491444518,1.4045405900529562
1687100340.7560081,-0.07098934799432755,0.39094528555870056,-0.9176722168922424,0.009725302457809448,-0.010284215211868286,-0.009451806545257568,-0.0720939114689827,-0.04034809395670891,-0.00812323484569788,-0.07720430761992186,-0.40165839138217163,1.4048570140127492
1687100340.761962,-0.07158255577087402,0.39399927854537964,-0.9163190126419067,-0.010998010635375977,0.007062792778015137,0.009168744087219238,-0.008126646280288696,0.0037037653382867575,0.011500201188027859,-0.07796135924173107,-0.40497880219247256,1.4049168113641117
1687100340.848067,-0.07161200791597366,0.3950757682323456,-0.9158530831336975,0.0017267540097236633,0.005528479814529419,-0.014185309410095215,-0.0215737447142601,-0.01105569489300251,0.017957966774702072,-0.07803281961398513,-0.406150312237568,1.4050649909706014
1687100340.861743,-0.07164337486028671,0.39715999364852905,-0.9149487018585205,0.00014068931341171265,-0.0009502768516540527,-0.002882659435272217,-0.07738561183214188,-0.0034575192257761955,0.0006519472226500511,-0.07814371035600089,-0.40842023262952626,1.4051147891334541
1687100340.872692,-0.07125209271907806,0.39983421564102173,-0.9138138294219971,0.007241465151309967,-0.003471881151199341,0.0026047825813293457,-0.12045824527740479,0.003374997992068529,-0.0032144300639629364,-0.0778147788596764,-0.4113359738660978,1.4055311957303025
1687100340.969145,-0.07117124646902084,0.4042874276638031,-0.9118587374687195,-0.0011401623487472534,0.010644853115081787,0.009804904460906982,-0.03367195278406143,0.019480375573039055,0.008340759202837944,-0.07789281795988244,-0.4161996069979224,1.405569225806065
1687100340.987848,-0.07026610523462296,0.40720486640930176,-0.91062992811203,0.008086539804935455,-0.00783655047416687,0.008972883224487305,-0.035555608570575714,-0.005221175495535135,0.011985762044787407,-0.07700948648299218,-0.41939160617343824,1.4060619700997519
1687100341.057059,-0.07062184065580368,0.40902870893478394,-0.9097846746444702,-0.0026661306619644165,5.945563316345215e-05,0.004022955894470215,-0.06724509596824646,-0.0032995494548231363,0.01385177206248045,-0.07746943667599765,-0.4213894165063272,1.4060980615255978
1687100341.146368,-0.07045266777276993,0.4113529324531555,-0.9087492823600769,-0.008252173662185669,0.003487825393676758,-0.005465805530548096,-0.016051415354013443,-0.005937188398092985,0.011973844841122627,-0.07737230298296215,-0.42393788315862274,1.4068208949202021
1687100341.1600652,-0.07112911343574524,0.4106280505657196,-0.9090243577957153,0.004631310701370239,0.021210968494415283,-0.006457209587097168,0.025829989463090897,-0.021175485104322433,-0.017479784786701202,-0.07808863885932081,-0.4231427489019266,1.406471937203317
1687100341.19985,-0.07198718190193176,0.4114537239074707,-0.9085833430290222,0.0008506923913955688,-0.011383473873138428,0.006102323532104492,-0.051621925085783005,-0.017245125025510788,-0.0016995575278997421,-0.07906496939442566,-0.4240484688995406,1.406036526218055
1687100341.267581,-0.07278181612491608,0.41130706667900085,-0.9085864424705505,-0.0005061626434326172,0.01580175757408142,0.0012530684471130371,0.02656768448650837,-0.02341689169406891,-0.01508693490177393,-0.07993377196793601,-0.4238875758452097,1.4059194300488562
1687100341.280676,-0.07440537959337234,0.409954309463501,-0.9090661406517029,0.014529883861541748,-0.00033205747604370117,0.010384559631347656,0.04161827266216278,-0.026667609810829163,-0.011330746114253998,-0.08166610662213065,-0.4224039747449725,1.4055510013938637
1687100341.320047,-0.07573522627353668,0.4070298671722412,-0.9102696776390076,0.0009519010782241821,0.009428322315216064,0.0032262206077575684,0.10900716483592987,-0.02611265331506729,0.006308568175882101,-0.08300967802954265,-0.4192000150730201,1.4056733977086056
1687100341.414185,-0.07515476644039154,0.4065419137477875,-0.9105358123779297,-0.017862826585769653,-0.0200672447681427,0.0053691864013671875,-0.050300996750593185,0.005826015956699848,0.03182937204837799,-0.0823523760195137,-0.41866585834157166,1.4069493962367907
1687100341.4271998,-0.07403258979320526,0.4076753854751587,-0.9101208448410034,-0.009783938527107239,0.020409971475601196,-0.002171635627746582,0.02399613708257675,-0.0029990337789058685,-0.0031748153269290924,-0.08116498419846381,-0.4199068487540006,1.4077879733011076
1687100341.4375901,-0.07466024160385132,0.4033639430999756,-0.9119887351989746,-0.023575857281684875,-0.0064064860343933105,-0.0036149024963378906,0.03738278150558472,0.006092598661780357,-0.021113470196723938,-0.08168315959562114,-0.41519016125383984,1.4069621810242687
