Timestamp,gravityX,gravityY,gravityZ,accelerationX,accelerationY,accelerationZ,rotationRateX,rotationRateY,rotationRateZ,attitudeRoll,attitudePitch,attitudeYaw
1687017445.010964,0.829474687576294,0.26101261377334595,-0.49380603432655334,0.00162583589553833,0.011417895555496216,0.014725863933563232,0.07418989390134811,0.003709839889779687,-0.21448633074760437,1.0338222968663775,-0.2640710277240713,3.0708120261236824
1687017445.017644,0.8272508382797241,0.2658069431781769,-0.4949774742126465,0.011143326759338379,-0.017988920211791992,0.021802514791488647,0.0928628221154213,0.004773329012095928,-0.15145957469940186,1.0315981315845595,-0.2690408917666724,3.0613382424593154
1687017445.095298,0.8264151811599731,0.2708655297756195,-0.4936293363571167,0.00016874074935913086,-0.031134605407714844,0.010505616664886475,-0.10685890167951584,0.03963526338338852,-0.06526701897382736,1.0323542028704311,-0.2742920448721185,3.059225509860144
1687017445.1897569,0.827824056148529,0.27333909273147583,-0.4898909628391266,0.007793068885803223,-0.025292158126831055,-0.0027847886085510254,-0.09453378617763519,0.04889826849102974,0.030405573546886444,1.0364417642156338,-0.27686263001595063,3.0636892411814456
1687017445.1975842,0.8299975991249084,0.2714392840862274,-0.4872627854347229,-0.005717635154724121,-0.0013585984706878662,-0.0242576003074646,0.03411952033638954,0.03467938303947449,0.059500209987163544,1.0399419130920877,-0.274888131567142,3.067041555621097
1687017445.28226,0.831222653388977,0.2663050889968872,-0.48800671100616455,0.0015410780906677246,-0.015358954668045044,-0.021652042865753174,0.1030663251876831,0.007120639085769653,0.049867622554302216,1.0399197960096627,-0.2695576428170337,3.0644749437968946
1687017445.2987719,0.8314763307571411,0.2626688778400421,-0.48954299092292786,0.003560960292816162,-0.00033968687057495117,-0.026448190212249756,0.06273554265499115,-0.010616280138492584,0.018592990934848785,1.0386798588405983,-0.2657871567735413,3.0619391534532725
1687017445.3701901,0.8306729197502136,0.2613024413585663,-0.4916335642337799,0.007049858570098877,-0.012965589761734009,-0.021214276552200317,-0.012781893834471703,-0.04221823811531067,-0.0016180709935724735,1.0363912027276276,-0.2643712805164667,3.0603078384158096
1687017445.3836021,0.8295336961746216,0.2622411251068115,-0.49305543303489685,-0.00038629770278930664,0.0015986859798431396,-0.005861163139343262,-0.07676265388727188,-0.04742853343486786,-0.0048825740814208984,1.0345219264814391,-0.26534386462647463,3.062702884983347
1687017445.488634,0.8280313611030579,0.26303282380104065,-0.49515441060066223,0.011537790298461914,0.000532299280166626,-0.01044553518295288,-0.018986128270626068,-0.06789617240428925,0.011962918564677238,1.0318561458144753,-0.2661643902710453,3.064591291285284
1687017445.503944,0.8265500068664551,0.2637738287448883,-0.4972309470176697,0.005267679691314697,-0.006663143634796143,0.004951953887939453,-0.0963209941983223,-0.07128024846315384,0.023465044796466827,1.029220334373407,-0.26693251168959403,3.0673683076289886
1687017445.578897,0.8252637386322021,0.265954852104187,-0.4982045888900757,0.0056841373443603516,0.011999279260635376,0.0038808882236480713,-0.1512291133403778,-0.06605059653520584,0.007954329252243042,1.0276670295686825,-0.26919432442380736,3.0736010896489785
1687017445.593291,0.8240846395492554,0.2691534161567688,-0.4984385073184967,0.0007444620132446289,0.008663415908813477,0.0035197436809539795,-0.12218259274959564,-0.04749244824051857,-0.0009931604145094752,1.0268263384167118,-0.27251389162314044,3.07984314004646
1687017445.6689448,0.8230141997337341,0.2728683054447174,-0.49818745255470276,0.0050956010818481445,0.0013322234153747559,0.0009798407554626465,-0.1789245754480362,-0.04899127781391144,0.001010002801194787,1.0264737822181191,-0.2763732248852589,3.086121866729521
1687017445.684046,0.8220462203025818,0.2769913077354431,-0.4975098967552185,-0.009683370590209961,-0.011839210987091064,-0.018679678440093994,-0.33598077297210693,-0.08657540380954742,0.09253273159265518,1.0265553565149328,-0.28066148193949675,3.097604310911928
1687017445.7566872,0.8213071823120117,0.2830100655555725,-0.49533820152282715,0.009060859680175781,0.027811557054519653,-0.020668208599090576,-0.4975287616252899,-0.0949140265583992,0.08744455873966217,1.0280935441195003,-0.2869310445672175,3.119779856827536
1687017445.7723908,0.819727897644043,0.2900440990924835,-0.49388325214385986,0.006032049655914307,0.03484612703323364,-0.013105213642120361,-0.22197431325912476,-0.10871053487062454,-0.004729774780571461,1.0285431542479275,-0.2942729207973759,3.137798489456816
1687017445.814345,0.8160250186920166,0.29433467984199524,-0.49746400117874146,0.0007017254829406738,0.009391605854034424,0.01475226879119873,0.03572820499539375,-0.0955614447593689,-0.11467897891998291,1.023334350456022,-0.2987592764226244,3.1386005440499183
1687017445.9108582,0.8117684125900269,0.29814812541007996,-0.5021352171897888,0.008254170417785645,0.0035487115383148193,0.01626497507095337,0.15193617343902588,-0.08521905541419983,-0.1903357207775116,1.0168345248489863,-0.302751954017491,3.1297940272931237
1687017445.917983,0.8076953887939453,0.30527767539024353,-0.504414439201355,0.010664165019989014,-0.02257797122001648,0.02039039134979248,-0.14297083020210266,-0.032126277685165405,-0.15816020965576172,1.012548921468674,-0.31023000445924404,3.1239133156274557
1687017445.971354,0.8056275248527527,0.3155127465724945,-0.5014141201972961,0.00789487361907959,-0.013480186462402344,0.015421748161315918,-0.2870998680591583,-0.01983862929046154,-0.08599147200584412,1.014076443322463,-0.3209969445016406,3.13106905266494
1687017446.056902,0.8047367930412292,0.32354775071144104,-0.4977104961872101,0.004635214805603027,-0.010559380054473877,0.006179153919219971,-0.23544394969940186,-0.01847633346915245,-0.023153923451900482,1.0169020967921125,-0.32947651878139245,-3.1414393356384775
1687017446.073594,0.80445796251297,0.33127114176750183,-0.4930587112903595,0.005615890026092529,-0.033572107553482056,-0.0059951841831207275,-0.4228132665157318,-0.008957307785749435,0.007277552969753742,1.0209396611401196,-0.3376504598617595,-3.1278933774045727
1687017446.113858,0.8041644096374512,0.3421682119369507,-0.4860459566116333,0.0037580132484436035,-0.01018264889717102,0.00014513731002807617,-0.47731006145477295,-0.006083224434405565,-0.017515012994408607,1.0271396290565455,-0.3492234166351411,-3.1072034915591242
1687017446.1810179,0.8034915328025818,0.35145607590675354,-0.48049992322921753,-0.004098773002624512,-0.00029021501541137695,0.0012671947479248047,-0.19080454111099243,-0.021769508719444275,-0.03490651771426201,1.0318377255300233,-0.35912595347457593,-3.0922667522877516
1687017446.566123,0.8028985261917114,0.3537880778312683,-0.47977930307388306,0.0019568800926208496,-0.00047072768211364746,-0.001833796501159668,0.07236167788505554,-0.008256985805928707,-0.017570938915014267,1.032173557413357,-0.36161802216786804,-3.0903888874748557
1687017446.581464,0.8026227951049805,0.3523438572883606,-0.4813009202480316,0.005116522312164307,-0.015460222959518433,0.001946091651916504,0.008939557708799839,-0.0024371794424951077,0.01259002648293972,1.0306267334231842,-0.3600743970594024,-3.092855153582275
1687017446.585763,0.8029232621192932,0.35146763920783997,-0.48144057393074036,0.0014592409133911133,-0.0023463964462280273,-0.01910877227783203,0.0491192452609539,0.006400875747203827,0.028553880751132965,1.0306638419265362,-0.3591382847302052,-3.0929781069684927
1687017446.589356,0.8033886551856995,0.3461432158946991,-0.4845118820667267,-0.0053539276123046875,0.033968567848205566,-0.04534947872161865,0.29469284415245056,-0.047491028904914856,0.011300523765385151,1.0281112940003274,-0.3534570707666349,-3.0997324005073685
1687017446.599859,0.8009047508239746,0.3399927616119385,-0.4929061532020569,0.005369663238525391,0.009219944477081299,-0.030607551336288452,0.21515287458896637,-0.09941282123327255,-0.041116680949926376,1.0191035889318947,-0.346909197999389,-3.1129332322535617
1687017446.6025429,0.7969314455986023,0.3405757546424866,-0.49890729784965515,-0.0005599856376647949,-0.0005335807800292969,-0.018365591764450073,-0.012232128530740738,-0.10700877755880356,-0.10135837644338608,1.011452789871198,-0.3475291814564257,-3.119800020356647
1687017446.605169,0.7923344373703003,0.34693557024002075,-0.5018385648727417,-0.0023716092109680176,0.002139836549758911,-0.007377684116363525,-0.09143147617578506,-0.10652487725019455,-0.11061333119869232,1.0062028305432584,-0.35430176116185685,-3.1191668768212724
1687017446.6076531,0.7879497408866882,0.35049983859062195,-0.5062461495399475,0.007384121417999268,-0.011281609535217285,0.007115960121154785,0.023221692070364952,-0.11412882804870605,-0.06280959397554398,0.9997220093129717,-0.35810473855543573,-3.1213035849235116
1687017446.6101298,0.7842229604721069,0.35178154706954956,-0.5111204981803894,0.002428710460662842,-0.0071769654750823975,0.01125788688659668,0.027164502069354057,-0.10395261645317078,-0.04916781187057495,0.9931890209451115,-0.35947362869526106,-3.1240355527020864
1687017446.8077679,0.7815481424331665,0.35346996784210205,-0.5140441656112671,0.01033717393875122,-0.016159117221832275,0.02104806900024414,-0.06540045142173767,-0.07422535121440887,-0.033864423632621765,0.9890093173792044,-0.36127793828949006,-3.124295868392785
1687017446.825041,0.7797950506210327,0.35650038719177246,-0.5146136283874512,0.012014031410217285,-0.017205893993377686,0.019527018070220947,-0.08238015323877335,-0.04644973576068878,-0.021985260769724846,0.9874689866393547,-0.3645194637393025,-3.1219142608820016
1687017446.8290172,0.7794950604438782,0.35864362120628357,-0.5135780572891235,0.014160394668579102,-0.016404151916503906,0.014737725257873535,-0.11612439155578613,-0.017174137756228447,0.03347979485988617,0.9882178797656676,-0.3668144572388565,-3.116798187442602
1687017446.832655,0.7801887392997742,0.3583773970603943,-0.5127096772193909,0.01000291109085083,-0.007364124059677124,0.0065451860427856445,-0.022759027779102325,-0.027467787265777588,0.0598490834236145,0.9894034124161669,-0.36652927838824695,-3.112277363680862
1687017446.842414,0.7813105583190918,0.35655200481414795,-0.5122739672660828,0.0037847161293029785,-0.011169224977493286,0.012869119644165039,-0.10866621136665344,-0.019691888242959976,0.09291169792413712,0.9904525728198506,-0.3645747208202443,-3.107353276697412
1687017446.872356,0.7827569246292114,0.35652241110801697,-0.5100817680358887,-0.0021324753761291504,0.0038292407989501953,0.007091104984283447,-0.17119266092777252,-0.010337446816265583,0.09841465204954147,0.9932636410847985,-0.3645430480697858,-3.0979942812119394
1687017446.9458408,0.7845690846443176,0.35655131936073303,-0.5072697997093201,0.0026013851165771484,0.00857633352279663,0.012488365173339844,-0.11879301816225052,0.011136330664157867,0.08304581791162491,0.9968442719940278,-0.3645740037794375,-3.088706392070838
1687017446.95786,0.7861422896385193,0.3571094572544098,-0.5044336915016174,-0.0004061460494995117,0.019889533519744873,0.001031041145324707,-0.10281550884246826,0.017551619559526443,0.04568426311016083,1.0003085240516691,-0.3651714734368072,-3.0809846289238894
1687017447.002635,0.7873411178588867,0.35739243030548096,-0.50235915184021,-0.007540643215179443,0.020003288984298706,-0.0027219653129577637,-0.05262589082121849,0.028777820989489555,0.025619275867938995,1.0028711938011672,-0.3654744333907715,-3.0768842168239905
1687017447.055587,0.787914514541626,0.35825371742248535,-0.5008445382118225,-0.0011101961135864258,0.0023573637008666992,0.00549846887588501,-0.0651092380285263,0.02809516340494156,-0.01251272950321436,1.004569198530939,-0.3663967991880986,-3.075232369384377
1687017447.237143,0.7884398698806763,0.3622935116291046,-0.4970976710319519,-0.003344595432281494,0.014568150043487549,-0.00908207893371582,-0.11815323680639267,0.046522196382284164,-0.028439830988645554,1.00826411024105,-0.370727387007689,-3.0701439181235233
1687017447.254549,0.7887380719184875,0.36418768763542175,-0.4952370524406433,0.00046181678771972656,-0.00827634334564209,-0.009844064712524414,-0.010010519996285439,0.021195799112319946,-0.03471463918685913,1.0101248760209658,-0.3727604574179005,-3.0697833300699737
1687017447.258587,0.7885035276412964,0.3661820590496063,-0.4941386580467224,2.4974346160888672e-05,2.899765968322754e-05,-0.024065017700195312,0.02581951580941677,0.010100007057189941,-0.02707849070429802,1.0109904794932811,-0.37490276084447144,-3.069973506601552
1687017447.282969,0.7876040935516357,0.36518388986587524,-0.49630698561668396,0.012200653553009033,-0.00045296549797058105,-0.031067252159118652,0.16271544992923737,-0.03131987154483795,-0.03220074996352196,1.0085037891322168,-0.37383031721932986,-3.0756325194738423
1687017447.311384,0.7858306169509888,0.3614168167114258,-0.5018448233604431,-0.003726065158843994,0.015627950429916382,-0.02420186996459961,0.3015620708465576,-0.04668249189853668,-0.051930710673332214,1.0024648530704372,-0.3697869828939344,-3.08600497735539
1687017447.376245,0.7829679250717163,0.3503773510456085,-0.5140010714530945,-0.006982147693634033,0.04191094636917114,-0.031073331832885742,0.859991729259491,-0.07714435458183289,-0.12266992777585983,0.9898807381007396,-0.3579739765702697,-3.1137491798875576
1687017447.441177,0.7798544764518738,0.3111111521720886,-0.5431731343269348,-0.007851243019104004,0.27941933274269104,-0.11707460880279541,3.294417142868042,-0.0012089298106729984,-0.41159361600875854,0.9624193264717953,-0.3163619849975734,3.0844545093089244
1687017447.500046,0.7649608850479126,0.20232485234737396,-0.6114732623100281,0.07708019018173218,0.1884070336818695,0.039070308208465576,5.756845951080322,-0.2766580879688263,-1.001172661781311,0.896450460063086,-0.20373129256567477,2.8672234754892854
1687017447.559562,0.751181960105896,0.039307449012994766,-0.6589238047599792,0.06183689832687378,0.20826643705368042,0.17857718467712402,7.480574131011963,-0.10175133496522903,-1.4535757303237915,0.8507314387197746,-0.03931757668903414,2.575312009221987
1687017447.715156,0.7565591931343079,-0.15375444293022156,-0.6355924010276794,0.07802027463912964,-0.0032432079315185547,0.3497343063354492,7.611856460571289,0.19931413233280182,-1.6237125396728516,0.8720724191450849,0.1543667862304296,2.2316791722750104
1687017447.7295299,0.791038453578949,-0.29369139671325684,-0.536659836769104,0.1024247407913208,-0.025949746370315552,0.318367600440979,6.476023197174072,0.8070322275161743,-1.7188293933868408,0.9746978231527915,0.29808626132845484,1.8960320177729173
1687017447.766531,0.8426519632339478,-0.361941933631897,-0.39866748452186584,0.07643067836761475,0.009921610355377197,0.23201102018356323,5.3199238777160645,1.07698392868042,-1.8625839948654175,1.1288907897902039,0.3703502266841473,1.5777283293033229
1687017447.778678,0.8969376087188721,-0.3530917465686798,-0.26613762974739075,0.09947657585144043,0.07973051071166992,0.15430602431297302,3.879976749420166,1.1615920066833496,-2.1860949993133545,1.2823531566538406,0.36087366190505765,1.311720894934168
1687017447.781798,0.943867564201355,-0.28810760378837585,-0.16158072650432587,0.11480259895324707,0.05747094750404358,0.10292601585388184,3.668565273284912,0.8636030554771423,-2.217188596725464,1.4012497787142462,0.29225005077147537,1.0966937288645517
1687017447.823049,0.9774104952812195,-0.19814492762088776,-0.07353422790765762,0.16982150077819824,0.23569676280021667,0.08056861907243729,3.4727818965911865,0.834024965763092,-2.588010311126709,1.4957040697007633,0.19946495505444617,0.9078804930577512
1687017447.8860269,0.9971333146095276,-0.07156307250261307,-0.024577368050813675,0.1842937469482422,0.02262808382511139,0.015345873311161995,2.97039794921875,0.1878475397825241,-2.9473705291748047,1.546153291272004,0.0716242936372546,0.7185879232290595
1687017447.947587,0.9970756769180298,0.07403057813644409,-0.01897096075117588,0.11673974990844727,-0.03469347953796387,-0.02137315273284912,0.15501496195793152,-0.006743067409843206,-2.9898037910461426,1.5517720221473,-0.07409836612284525,0.6446212818224968
1687017448.010021,0.9741564989089966,0.2246384173631668,-0.02359987422823906,0.16726207733154297,0.0404525101184845,-0.06717461347579956,-0.3745630085468292,-0.328474223613739,-3.0602333545684814,1.5465751073658038,-0.22657195056090865,0.6526689950157183
1687017448.1021872,0.9278825521469116,0.371221661567688,-0.03505340591073036,0.13318324089050293,-0.030447185039520264,-0.08578085899353027,-0.9317117929458618,-0.5622568726539612,-3.033721685409546,1.533036435338463,-0.3803243638070299,0.6816785930757594
1687017448.118116,0.8646983504295349,0.5004400014877319,-0.043090131133794785,0.09604084491729736,-0.2106298804283142,-0.05403202399611473,-1.423096776008606,-0.7672823071479797,-2.7073709964752197,1.521004956779568,-0.5241069370804453,0.7341134409088304
1687017448.254991,0.7908638715744019,0.6109907031059265,-0.03499913588166237,0.1157829761505127,-0.1715986132621765,-0.14215528964996338,-1.253124475479126,-0.9310271143913269,-2.4249589443206787,1.526570870460939,-0.6573114708902843,0.8193834626523531
1687017448.27207,0.7178017497062683,0.6957022547721863,-0.027558689936995506,0.07150501012802124,-0.27414757013320923,-0.06396347284317017,-1.2930785417556763,-0.7540778517723083,-2.064709424972534,1.5324219984498522,-0.7693970404456617,0.8951317773285107
1687017448.276232,0.6503785252571106,0.7594246864318848,-0.01679614931344986,0.06564021110534668,-0.17818683385849,-0.06760013103485107,-0.7513753771781921,-0.6854533553123474,-1.6462000608444214,1.54497687542171,-0.8624283704130967,0.9618919620875781
1687017448.334137,0.5950404405593872,0.8036434650421143,-0.009174000471830368,0.06462758779525757,-0.23188138008117676,-0.006099998019635677,-0.7762899398803711,-0.43477246165275574,-1.2072727680206299,1.5553801075615559,-0.9333924461189633,1.0103609435626577
1687017448.345481,0.5497475266456604,0.8349152207374573,0.02635042741894722,0.0908469557762146,-0.026199400424957275,-0.09452664852142334,-1.042460322380066,-0.3236753046512604,-1.0285415649414062,1.6186915392160994,-0.9879787104406633,1.1069861729272605
1687017448.3948221,0.5148928165435791,0.8562960624694824,0.0405336394906044,0.07688897848129272,-0.18315434455871582,-0.09808969497680664,-0.34529685974121094,-0.4112732410430908,-0.5791919827461243,1.6493567915133311,-1.0280549873967753,1.1643352292268552
1687017448.458133,0.5052708387374878,0.8623650670051575,0.03206063434481621,-0.006232082843780518,-0.19668519496917725,-0.02935982123017311,0.06763771176338196,-0.47961607575416565,-0.07377249002456665,1.6341637497554529,-1.039922623918891,1.178147964421514
1687017448.552208,0.5012045502662659,0.8648564219474792,0.02859286218881607,-0.06468099355697632,0.0027126073837280273,-0.035978078842163086,-0.06402675062417984,-0.18838591873645782,-0.1279025673866272,1.627782850121985,-1.0448643544346758,1.1865061557897962
1687017448.5687299,0.49431556463241577,0.8687103390693665,0.03153419867157936,-0.029700666666030884,-0.01112067699432373,0.19293785095214844,-0.48850172758102417,0.07501135766506195,-0.18906612694263458,1.6345036546797165,-1.0525926888698134,1.2011275619468411
1687017448.638001,0.49017491936683655,0.8694288730621338,0.06182488799095154,0.09812778234481812,0.022493183612823486,0.056598663330078125,-0.47185200452804565,0.00010285456664860249,-0.01671060360968113,1.696262021373619,-1.0540452102519284,1.2661771689628574
1687017448.651561,0.49225130677223206,0.8667788505554199,0.07989581674337387,0.024670779705047607,-0.017505109310150146,0.033019304275512695,-0.6071665287017822,-0.04084555432200432,0.11291063576936722,1.7317001598512949,-1.048706459184763,1.3102210236610747
1687017448.694571,0.4951466917991638,0.8632574677467346,0.09806542843580246,0.01773187518119812,0.07724869251251221,-0.06344316899776459,-0.09691417217254639,-0.0775151476264,0.009513542987406254,1.7663193531081665,-1.0416879194367716,1.3514317886329326
1687017448.790879,0.49479925632476807,0.8641546964645386,0.0917106568813324,-0.007158726453781128,-0.03210800886154175,-0.009313099086284637,0.06508143246173859,-0.07194932550191879,-0.02366032265126705,1.7540657345370787,-1.043468140039351,1.3425520738520103
1687017448.808851,0.4937707483768463,0.8648308515548706,0.09087541699409485,0.00444406270980835,0.012809038162231445,0.004217386245727539,0.030288923531770706,-0.04045220464468002,-0.04894530400633812,1.7528033160690866,-1.0448133277184972,1.3431524867215652
1687017448.844993,0.4927171766757965,0.8656408786773682,0.08885935693979263,0.025746047496795654,-0.007990062236785889,0.02582573890686035,-0.0069536552764475346,-0.006955498829483986,0.001203814521431923,1.7492239538640897,-1.0464290071729798,1.3402909560367422
1687017448.942287,0.49234411120414734,0.8659257888793945,0.08814924210309982,0.0108756422996521,-0.004231274127960205,0.003952868282794952,-0.012221342884004116,-0.07337331771850586,-0.002846121322363615,1.747959140248281,-1.046998369696752,1.3413933325908687
1687017448.959147,0.493564635515213,0.8652983903884888,0.08748271316289902,0.014583706855773926,-0.005663812160491943,0.0010030344128608704,-0.0018166835652664304,-0.07236167043447495,0.0028480500914156437,1.7462211169753954,-1.0457452946420254,1.343758699096768
1687017449.0272431,0.49318575859069824,0.8660554885864258,0.08195286244153976,0.012689054012298584,0.0026733875274658203,0.0005209669470787048,0.12833687663078308,-0.07822470366954803,-0.03551638126373291,1.7354620786075645,-1.0472576739453758,1.3353489955814601
1687017449.120788,0.49161669611930847,0.867516279220581,0.07568911463022232,-0.007516264915466309,-0.012291550636291504,-0.006261587142944336,0.06153276935219765,-0.04809672385454178,-0.04932627081871033,1.7235564767745926,-1.0501870036026715,1.3255636446695225
1687017449.136448,0.4906560778617859,0.868190348148346,0.07417646050453186,0.002736896276473999,-0.0021778345108032227,0.00828205794095993,-0.004444424528628588,0.002150647807866335,-0.026251643896102905,1.7208382664472148,-1.051543815147398,1.323699730466098
1687017449.208404,0.4899677634239197,0.8685928583145142,0.07401666790246964,0.006522864103317261,-0.003663480281829834,-0.001064293086528778,-0.013005111366510391,0.019864752888679504,-0.014475880190730095,1.7207270467484674,-1.0523555017645987,1.3232156770425705
1687017449.2216291,0.48947399854660034,0.8687933087348938,0.07492367178201675,0.013837248086929321,-0.0048253536224365234,0.0008820295333862305,-0.01866907812654972,0.0024027605541050434,-0.009958958253264427,1.722687133799038,-1.0527601293522122,1.3245671227260207
1687017449.297202,0.48905348777770996,0.8689786195755005,0.07551907002925873,0.010610878467559814,0.005807816982269287,0.00024091452360153198,0.013126135803759098,0.009616464376449585,-0.003370431251823902,1.72400504894781,-1.053134517418101,1.3260186096026727
1687017449.302603,0.48884788155555725,0.869081974029541,0.0756622925400734,0.010938644409179688,-0.008775949478149414,-0.004418961703777313,-0.01960659958422184,0.012343363836407661,-0.015479158610105515,1.7243546265676373,-1.0533433980737164,1.325861809904206
1687017449.3867779,0.4884960651397705,0.8691041469573975,0.07765297591686249,0.007170528173446655,-0.00788271427154541,0.005339622497558594,-0.014858849346637726,0.036434851586818695,-0.002607768401503563,1.7284406604721163,-1.0533882610909906,1.3291604154506487
1687017449.401318,0.4895963966846466,0.867962658405304,0.08328371495008469,0.007534980773925781,-0.024685680866241455,0.006773702800273895,-0.22776472568511963,0.13547302782535553,0.0656537115573883,1.7392903535327378,-1.0510851963296752,1.3377509865026909
1687017449.445044,0.4935559332370758,0.8640701174736023,0.09892145544290543,0.0019580423831939697,-0.037516772747039795,0.03711067885160446,-0.3814546465873718,0.1476418823003769,0.10939233750104904,1.76860149587279,-1.0433001651969174,1.364629747412236
1687017449.540333,0.4991225302219391,0.858343780040741,0.11883990466594696,0.0005266070365905762,-0.07561361789703369,0.05031907558441162,-0.26917657256126404,0.28790420293807983,0.24054156243801117,1.8045417900263607,-1.0320329341488717,1.3937897933418721
1687017449.5605168,0.5150256156921387,0.8470697999000549,0.13123171031475067,0.020710527896881104,-0.10236448049545288,0.0008484125137329102,0.205974280834198,0.27058812975883484,0.6651170253753662,1.8202933052550443,-1.0104475163969306,1.3936963697378226
1687017449.630466,0.5533486604690552,0.8247148394584656,0.11683714389801025,0.0094413161277771,-0.13446825742721558,-0.0191044881939888,0.6103174686431885,-0.005455517675727606,1.1557339429855347,1.7788854944028911,-0.9696977814356261,1.3358996424223768
1687017449.637223,0.6121335029602051,0.7850464582443237,0.09484105557203293,-0.007992208003997803,-0.23823249340057373,0.004371635615825653,0.3546118140220642,0.1591702699661255,1.72679603099823,1.7245093974172798,-0.9027710915764101,1.265511013674096
1687017449.686213,0.6789138913154602,0.7279958128929138,0.09538353979587555,0.0022690296173095703,-0.1137533187866211,-0.08909691870212555,0.06503380835056305,0.10377758741378784,1.9065059423446655,1.7103770412552828,-0.8153940877679764,1.2379683730523698
1687017449.781599,0.7517223358154297,0.6522276401519775,0.0975334644317627,0.0023366212844848633,-0.16745591163635254,-0.1509697437286377,-0.1064678207039833,-0.03818630054593086,2.359679698944092,1.699822197065027,-0.7105195048446931,1.2202018331022957
1687017449.797282,0.8306267857551575,0.5481051206588745,0.09818312525749207,0.09454411268234253,-0.12420076131820679,-0.1947254091501236,-0.4153924584388733,-0.4057573080062866,2.7965221405029297,1.6884540327022135,-0.5800970841788439,1.2175406795709425
1687017449.834393,0.9038698077201843,0.4204587936401367,0.07895451784133911,0.14721661806106567,-0.116946280002594,-0.11852050572633743,-0.44466632604599,-0.7581489086151123,3.120335578918457,1.657926811634126,-0.4339509154508989,1.2186519309420154
1687017449.897676,0.9623258709907532,0.2688342332839966,0.04071023315191269,0.20304900407791138,-0.05054199695587158,-0.1789853572845459,-0.8799299001693726,-1.4515362977981567,3.2850046157836914,1.613075119352893,-0.27218250811180217,1.2442873253793212
1687017449.992135,0.9935088753700256,0.11317167431116104,-0.011516798287630081,0.24307876825332642,0.04909024387598038,-0.010287940502166748,-1.4892175197601318,-1.2964237928390503,3.056882858276367,1.5592048021626026,-0.11341465829152896,1.3046817373425277
1687017450.009564,0.9950177073478699,-0.030867671594023705,-0.09480007737874985,0.2298969030380249,0.08210664987564087,0.018353581428527832,-0.8634554743766785,-1.9252290725708008,2.9071385860443115,1.4758082833313961,0.030872576384335673,1.366402068041661
1687017450.07506,0.972793459892273,-0.15318813920021057,-0.17380034923553467,0.21871966123580933,0.11401878297328949,0.13437169790267944,-1.7227100133895874,-1.2208921909332275,2.538247585296631,1.3940005827736193,0.15379369729944298,1.4557051832689338
1687017450.0803518,0.9355054497718811,-0.2404339611530304,-0.2588845193386078,0.2091631293296814,0.09846615791320801,0.054248929023742676,-1.340279459953308,-1.7459689378738403,1.938939094543457,1.3008203792847004,0.24281290942974235,1.5455074106812812
1687017450.138113,0.8882144689559937,-0.28659775853157043,-0.3590778708457947,0.12402313947677612,0.030021190643310547,0.21910899877548218,-3.122011184692383,-1.3366687297821045,1.5730319023132324,1.1866149321128923,0.29067373528687923,1.682963222759435
1687017450.2629619,0.8416677117347717,-0.27522480487823486,-0.46459323167800903,0.04454755783081055,-0.049985796213150024,0.23681002855300903,-3.9404993057250977,-1.1871479749679565,1.2655781507492065,1.0664255922780745,0.2788235272155515,1.8763250535435947
1687017450.270932,0.8043458461761475,-0.20222724974155426,-0.558687686920166,0.10695481300354004,0.060671478509902954,0.2011285424232483,-4.579395771026611,-0.8370459675788879,0.7961666584014893,0.9637129016588792,0.2036316250245889,2.099264367337261
1687017450.353946,0.7739745378494263,-0.10774142295122147,-0.6239833831787109,0.024167001247406006,-0.05514614284038544,0.12729454040527344,-4.118903160095215,-0.8453245759010315,0.7338221669197083,0.8922822774587821,0.10795096355099788,2.2910189233511815
1687017450.3689651,0.7432219982147217,0.012496540322899818,-0.6689282655715942,0.058032333850860596,-0.16728165745735168,0.24578678607940674,-5.329108238220215,-0.8047988414764404,0.7887427806854248,0.8379600468132765,-0.012496865601971321,2.491772390800607
1687017450.4352279,0.7288058400154114,0.1765420287847519,-0.661570131778717,0.007903814315795898,0.07585367560386658,0.08075958490371704,-5.216628074645996,-0.35665738582611084,0.4513348340988159,0.8337184652120962,-0.17747218990323724,2.718781360702461
1687017450.4482021,0.7195759415626526,0.30497974157333374,-0.6238573789596558,-0.0057239532470703125,-0.03810343146324158,0.12608516216278076,-4.1099853515625,-0.42092007398605347,0.501349687576294,0.8565271903636327,-0.30991716290926313,2.9048580592056945
1687017450.5272632,0.7209175825119019,0.39835378527641296,-0.5670909881591797,0.021300435066223145,0.0494917631149292,0.08497434854507446,-3.392683982849121,-0.22966384887695312,0.5461148023605347,0.9042649358728049,-0.40972136520176144,3.082453880883862
1687017450.542111,0.7266945242881775,0.45555606484413147,-0.5141826272010803,0.01669842004776001,0.034296900033950806,0.04595154523849487,-2.18168568611145,-0.04973775893449783,0.42112305760383606,0.9550121196036985,-0.47299676378395744,-3.06362799606316
1687017450.582326,0.7376150488853455,0.4871181547641754,-0.4675895571708679,0.03792816400527954,-0.01229509711265564,0.02793818712234497,-1.8036149740219116,0.07028283178806305,0.5059666037559509,1.0058077369093918,-0.5087868936160818,-2.957356981838696
1687017450.680186,0.7521387934684753,0.49954888224601746,-0.42981192469596863,-0.002047240734100342,0.041314274072647095,-0.013211667537689209,-0.8528367280960083,0.12346189469099045,0.441005676984787,1.0516318520872214,-0.5230779406973867,-2.876300553357587
1687017450.688339,0.7636717557907104,0.49367931485176086,-0.41603630781173706,0.0011903047561645508,0.02576044201850891,-0.041177958250045776,-0.13846400380134583,0.10308818519115448,0.31161800026893616,1.0719663716707006,-0.5163155316030204,-2.846171883726909
1687017450.736216,0.7716927528381348,0.48862528800964355,-0.40710657835006714,-0.011209964752197266,0.03317961096763611,-0.04130333662033081,-0.2259792536497116,0.10298502445220947,0.15280085802078247,1.0853523372214742,-0.5105134511311291,-2.8290298606508
1687017450.863706,0.7740954160690308,0.4887555241584778,-0.402361124753952,-0.008928120136260986,0.014128506183624268,-0.04794090986251831,-0.02232271246612072,0.02608989179134369,-0.04441966116428375,1.091448388374619,-0.5106627184895745,-2.8238458858700457
1687017450.870524,0.7726442813873291,0.4941876232624054,-0.3984964191913605,-0.00016808509826660156,0.0003803074359893799,-0.023027509450912476,-0.15503548085689545,0.025112245231866837,-0.07292161136865616,1.0946229877558808,-0.516900138646318,-2.8190589251631732
1687017450.979249,0.7707563042640686,0.4973048269748688,-0.39827463030815125,0.0060686469078063965,-0.024221271276474,-0.001993805170059204,0.03406781703233719,-0.00015085586346685886,-0.04603360593318939,1.0938527222979961,-0.5204894550506867,-2.8202097005344973
1687017450.987516,0.7704589366912842,0.4975365400314331,-0.39856043457984924,-0.0028960704803466797,-0.03009873628616333,0.001191169023513794,0.02392294630408287,0.015241505578160286,0.005921204574406147,1.0934026173211708,-0.5207565546289022,-2.8211112235283715
1687017451.105259,0.77154940366745,0.49483299255371094,-0.39981475472450256,0.013561069965362549,-0.020208269357681274,-0.008144110441207886,0.1322660744190216,0.01012370828539133,0.047691889107227325,1.0926971522641127,-0.5176426214350397,-2.823756887195087
1687017451.123719,0.7734728455543518,0.48923739790916443,-0.40297237038612366,-0.0025835037231445312,-0.03196188807487488,-0.0021178722381591797,0.036257289350032806,-0.01918375864624977,0.1000029593706131,1.09049732559066,-0.511215144968574,-2.8275888005554433
1687017451.1277761,0.7759035229682922,0.4847143292427063,-0.40376439690589905,-0.0028170347213745117,0.009884148836135864,-0.009199351072311401,0.09660620987415314,0.011879264377057552,0.08018824458122253,1.090978257709834,-0.5060365324195335,-2.826202150235143
1687017451.1560268,0.7771859765052795,0.47561848163604736,-0.41203051805496216,0.011098384857177734,0.0142345130443573,-0.023241639137268066,0.4715172350406647,-0.06316035985946655,0.06518306583166122,1.083315227938388,-0.49566700720271484,-2.839803951196025
1687017451.159116,0.7777732014656067,0.46664533019065857,-0.4210832118988037,0.0047127604484558105,-0.014817267656326294,0.002855151891708374,0.0736311599612236,-0.04088479280471802,0.09656888246536255,1.0745829358317227,-0.4854940004039084,-2.852104232862782
1687017451.214168,0.7788411378860474,0.4650634825229645,-0.42085927724838257,0.006391465663909912,0.0025116801261901855,-0.015099525451660156,-0.13395275175571442,-0.020024962723255157,0.07137990742921829,1.0753797382743318,-0.4837063268438912,-2.8475720199397507
1687017451.2742949,0.7797073721885681,0.46556493639945984,-0.4186954200267792,0.011994898319244385,0.010311007499694824,-0.01364704966545105,-0.13328181207180023,-0.03354911506175995,0.048409875482320786,1.0779960905668493,-0.48427282546888,-2.8391937805945626
1687017451.339818,0.779367983341217,0.46680042147636414,-0.41795113682746887,0.010304927825927734,-0.006030678749084473,-0.00010907649993896484,-0.14092330634593964,-0.053639382123947144,0.02064508944749832,1.0785559829241087,-0.48566937688030487,-2.832783409132846
1687017451.431371,0.7792942523956299,0.46845743060112,-0.41623082756996155,0.007921934127807617,0.00444301962852478,0.0018632709980010986,-0.11122826486825943,-0.04586987569928169,0.05911138653755188,1.0802325593476583,-0.4875439729663635,-2.824146740351306
1687017451.4399738,0.779747486114502,0.46680551767349243,-0.41723695397377014,0.0017161965370178223,-0.008858650922775269,0.005493879318237305,-0.027509396895766258,-0.0617271363735199,0.08612116426229477,1.0794704995316817,-0.485675127445856,-2.819782355549288
1687017451.5509958,0.7804659605026245,0.46404358744621277,-0.4189710021018982,0.003591775894165039,0.011649340391159058,0.007197380065917969,0.024511059746146202,-0.04651249200105667,0.05743739381432533,1.0781271441840106,-0.48255460276855067,-2.8170500265515352
1687017451.568192,0.7807847857475281,0.46225589513778687,-0.4203505516052246,0.008796453475952148,0.00026857852935791016,0.00785982608795166,-0.023729218170046806,-0.02603447437286377,0.036098480224609375,1.0769264696555139,-0.48053752188916155,-2.8161457683497497
1687017451.635346,0.7807136178016663,0.4618915617465973,-0.4208828806877136,-0.002576470375061035,6.830692291259766e-05,0.006439030170440674,0.015289288945496082,-0.024122323840856552,0.012974786572158337,1.0763599781452666,-0.48012672326277833,-2.8155090084269085
1687017451.647562,0.7807490825653076,0.46178901195526123,-0.420929878950119,0.002713501453399658,0.008792132139205933,0.0032206177711486816,-0.0018002607394009829,-0.005894673056900501,0.00825360044836998,1.0763323008858074,-0.4800111056751402,-2.814643810831838
1687017451.7273278,0.7808628678321838,0.4606710970401764,-0.42194241285324097,0.003148972988128662,0.002799421548843384,0.00879552960395813,0.04548913612961769,-0.0021941219456493855,0.009022455662488937,1.0753889968441335,-0.47875115864613293,-2.816079319203437
1687017451.742474,0.780993640422821,0.45981135964393616,-0.4226377010345459,0.00854194164276123,0.0014466643333435059,-0.004043757915496826,0.02285834774374962,-0.012588261626660824,0.021107016131281853,1.0747701704044426,-0.477782763839157,-2.817083871880504
1687017451.8167682,0.7811797857284546,0.4570554792881012,-0.42527472972869873,-0.0009520649909973145,0.009863585233688354,-0.0009184479713439941,0.16445565223693848,-0.011361698620021343,0.0027139598969370127,1.072262260539404,-0.47468182039874934,-2.8218354258511185
1687017451.8223228,0.7810379266738892,0.45495182275772095,-0.4277835190296173,0.011900365352630615,0.003040820360183716,-0.0032008886337280273,0.05679025873541832,-0.00798569805920124,-0.008881176821887493,1.069711751457244,-0.4723181207856143,-2.826863562423547
1687017451.875607,0.7800424695014954,0.45407426357269287,-0.43052366375923157,-2.8252601623535156e-05,0.016873151063919067,-0.011111438274383545,0.1921388953924179,-0.012228647246956825,-0.05526898428797722,1.0664776433746765,-0.47133292204501476,-2.8333741831233086
1687017451.973568,0.7783107161521912,0.45233774185180664,-0.4354575276374817,0.0008031129837036133,0.00959169864654541,0.002306342124938965,0.21339336037635803,-0.009926787577569485,-0.08223248273134232,1.0606958613665585,-0.46938483009723453,-2.844535188364018
1687017451.989038,0.7758708596229553,0.44803377985954285,-0.4441736042499542,0.004509449005126953,0.037577271461486816,-0.012903332710266113,0.6204915046691895,-0.006822873838245869,-0.13529470562934875,1.0508549863600123,-0.46456481172163094,-2.8664784870454043
1687017452.028185,0.7719537019729614,0.43623682856559753,-0.46236905455589294,0.00462716817855835,0.05080854892730713,-0.010348200798034668,1.1190980672836304,0.0038479692302644253,-0.22550316154956818,1.0311422003560078,-0.4514123409309708,-2.9111943285983863
1687017452.1499848,0.7649526000022888,0.4118940532207489,-0.4951675534248352,-0.005675196647644043,0.07502925395965576,0.01739966869354248,1.9339908361434937,0.01305362954735756,-0.46889224648475647,0.9963088519973402,-0.42453166161599337,-2.994375574856953
1687017452.157414,0.7550111413002014,0.3817393183708191,-0.5331354737281799,0.017205774784088135,0.05974337458610535,0.01880747079849243,2.104438304901123,0.08780891448259354,-0.6307355165481567,0.9559686088929388,-0.39167740084951946,-3.1017464467883316
1687017452.238418,0.7447879314422607,0.3442589044570923,-0.5716439485549927,0.03937649726867676,0.06087726354598999,0.03442782163619995,2.4851040840148926,0.07061155140399933,-0.7347152233123779,0.9161727395251933,-0.3514493147892669,3.0607791087756553
1687017452.253083,0.7355155348777771,0.2897355854511261,-0.6124299168586731,0.017536282539367676,0.08306720852851868,0.030505478382110596,3.2043747901916504,0.10204111784696579,-0.7664926052093506,0.8764591294998134,-0.29395056729826424,2.9225737712832243
1687017452.328967,0.7311668992042542,0.20038571953773499,-0.6521047949790955,0.044651031494140625,0.16474191844463348,0.06178802251815796,4.601818084716797,0.2416895627975464,-0.9628250002861023,0.8424919249756616,-0.2017516042505646,2.7468736240959477
1687017452.3361568,0.7303076982498169,0.06409342586994171,-0.6801048517227173,0.02842026948928833,0.06678124517202377,0.17911309003829956,5.445285797119141,0.23061124980449677,-1.0889623165130615,0.8209775885998024,-0.06413738896075319,2.51838908376851
1687017452.4193559,0.7422131299972534,-0.07283442467451096,-0.6661943197250366,0.07739752531051636,0.04138608276844025,0.15919053554534912,5.38960075378418,0.3998585045337677,-1.3677690029144287,0.839320864400649,0.07289897495786786,2.280960255823381
1687017452.434464,0.7680580019950867,-0.1840543895959854,-0.6133604645729065,0.1117943525314331,0.06106854975223541,0.1880674958229065,5.289008140563965,0.5688446760177612,-1.8481340408325195,0.8969180912724367,0.18510972734186948,2.0235819614491812
1687017452.47508,0.808608889579773,-0.24974292516708374,-0.5327103137969971,0.16418474912643433,-0.01963578164577484,0.19164586067199707,4.839023590087891,0.6593421101570129,-2.1941256523132324,0.9882607133328736,0.2524147537280719,1.7532933370305122
1687017452.571471,0.8569232821464539,-0.26253485679626465,-0.4435742199420929,0.15960204601287842,0.07505005598068237,0.18841677904129028,4.551242828369141,0.8754761815071106,-2.5451464653015137,1.09313977463477,0.26564826983017104,1.4921383587626493
1687017452.587863,0.91119784116745,-0.23774398863315582,-0.3364468514919281,0.18465787172317505,0.045300066471099854,0.2903347611427307,4.976953506469727,1.015135407447815,-2.9048027992248535,1.217088776744582,0.24004258452426083,1.1993888654586016
1687017452.624639,0.9542064070701599,-0.16436192393302917,-0.24995112419128418,0.18084919452667236,-0.0230618417263031,0.20719605684280396,2.8772592544555664,0.9228445887565613,-2.8981547355651855,1.3146057881539361,0.16511110866598439,0.9610818706604737
1687017452.719522,0.9792032837867737,-0.054648254066705704,-0.19538277387619019,-0.04377853870391846,-0.13745993375778198,0.11611345410346985,1.2759573459625244,0.8763214349746704,-2.4833385944366455,1.3738504316329367,0.05467549180518079,0.8310478118443873
1687017452.7351441,0.9868369698524475,0.059477075934410095,-0.15038448572158813,0.01601654291152954,0.03991863876581192,0.04673159122467041,-0.22319793701171875,0.9646186232566833,-2.409557342529297,1.419569390081469,-0.059512197587039045,0.7909090579790637
1687017452.7745109,0.9789298176765442,0.17398715019226074,-0.1068873479962349,0.03957909345626831,0.06089133024215698,-0.0009464472532272339,0.10272800922393799,0.8256344795227051,-2.2321603298187256,1.462039203712943,-0.17487713724485415,0.7766434971709193
1687017452.8717852,0.9569063782691956,0.2823232114315033,-0.06800186634063721,0.09915465116500854,0.022959381341934204,-0.034704990684986115,-0.30951792001724243,0.64744633436203,-2.2446608543395996,1.4998513119797798,-0.2862149808591457,0.7684259234914853
1687017452.886102,0.9220167994499207,0.38524454832077026,-0.03836400806903839,0.13315904140472412,-0.04236435890197754,-0.11643636226654053,-1.1357920169830322,0.17131002247333527,-2.1260628700256348,1.5292115171516636,-0.39547280470894336,0.798974942773372
1687017452.927104,0.8773698210716248,0.47967642545700073,-0.011535719968378544,0.1339828372001648,-0.12016409635543823,-0.23551928997039795,-1.5153555870056152,-0.3890537619590759,-1.9350109100341797,1.5576490138112091,-0.5002859052176407,0.8734481775983121
1687017453.020262,0.8300417065620422,0.5576778650283813,0.005140235181897879,0.07942795753479004,-0.11134302616119385,-0.13995158672332764,-1.1194902658462524,-0.4774373471736908,-1.663527488708496,1.5769889907354138,-0.5915855679696983,0.9557014420569534
1687017453.034123,0.7855575084686279,0.6187189221382141,0.00929783470928669,0.014155685901641846,-0.11688786745071411,-0.10327661037445068,-0.7138729095458984,-0.43402647972106934,-1.4683566093444824,1.5826317428558254,-0.6671109425143288,1.0070985336670664
1687017453.1090899,0.7407419681549072,0.6713635921478271,0.02392565831542015,0.009212315082550049,-0.14739203453063965,-0.012893440201878548,-0.9456878900527954,-0.17906025052070618,-1.3063359260559082,1.6030846860728434,-0.7360471207960844,1.061483588076204
1687017453.122962,0.6982847452163696,0.7132365107536316,0.06076376512646675,-0.06016218662261963,-0.10447186231613159,-0.02154863253235817,-1.329190969467163,0.07869584858417511,-1.2312445640563965,1.6575962811646385,-0.794104915258775,1.1444393103589525
1687017453.1631021,0.6543692946434021,0.7479321956634521,0.1113492026925087,-0.004772007465362549,-0.05800598859786987,-0.10443687438964844,-1.1828203201293945,0.05682783201336861,-1.123881459236145,1.7393445514887422,-0.8449413245669188,1.2502401044706257
1687017453.229696,0.6121934056282043,0.7756482362747192,0.15358763933181763,0.01115870475769043,-0.01821720600128174,-0.17063166201114655,-0.8692832589149475,-0.042615048587322235,-1.0611099004745483,1.8166039157327443,-0.8877415004373886,1.3479894123434555
1687017453.3219562,0.5744860768318176,0.800541877746582,0.1705835610628128,0.052833378314971924,-0.07829749584197998,-0.12614987790584564,-0.3756803870201111,-0.34260159730911255,-0.8989195823669434,1.8594364811027901,-0.9281989044709723,1.4143775515805603
1687017453.3375602,0.5504871010780334,0.8180955648422241,0.16638506948947906,0.06900453567504883,-0.11301732063293457,-0.09593510627746582,-0.10892990976572037,-0.5786721706390381,-0.5165895223617554,1.8643166182642021,-0.9580915563621472,1.448442801721178
1687017453.4065762,0.5435654520988464,0.8257161974906921,0.150763139128685,0.02244412899017334,-0.15661829710006714,0.043328747153282166,-0.06004434823989868,-0.43337082862854004,-0.12481702864170074,1.841354999413714,-0.9714706725992426,1.4549259556108616
1687017453.420553,0.539623498916626,0.8267385363578796,0.15909211337566376,0.13583749532699585,-0.010499954223632812,0.18941868841648102,-0.4123399257659912,0.2521428167819977,-0.07189236581325531,1.8574946279643956,-0.973285517232291,1.4793117331068395
1687017453.465755,0.5390098690986633,0.8214584589004517,0.1862117350101471,0.06575709581375122,0.046934664249420166,-0.04625807702541351,-0.7414385080337524,-0.04231846332550049,0.003728823969140649,1.9034297988339786,-0.9639638478185129,1.5272206989807755
1687017453.562058,0.5393502712249756,0.8146519064903259,0.2131749540567398,-0.04240196943283081,0.0409846305847168,0.027395099401474,-0.5507196187973022,-0.017540765926241875,0.02993646077811718,1.947196005604806,-0.9521287633701175,1.5838480262422554
1687017453.579386,0.5406496524810791,0.8119747638702393,0.21998895704746246,0.0017393827438354492,0.012625515460968018,-0.0067931413650512695,0.08815626055002213,-0.09866616129875183,-0.0012613405706360936,1.9572346028327607,-0.9475274679339869,1.5993559503346084
1687017453.6148582,0.5393877029418945,0.813717782497406,0.21662107110023499,-0.027714550495147705,0.01507878303527832,0.01181831955909729,-0.05988819897174835,-0.06429459899663925,-0.10270147770643234,1.9526860059432982,-0.9505198116996904,1.5990355483368455
1687017453.7129378,0.5345751643180847,0.8160810470581055,0.21963998675346375,0.01260519027709961,0.018147647380828857,0.0008801519870758057,-0.04120905324816704,-0.025679029524326324,-0.13485223054885864,1.960636702250644,-0.9545973054800047,1.6109972479828165
1687017453.730006,0.5309728384017944,0.8194537162780762,0.21578674018383026,0.0015742778778076172,-0.006068587303161621,0.04904484748840332,0.17164254188537598,-0.01640927791595459,-0.04883778095245361,1.9568067306204078,-0.9604572365182664,1.6084312149391338
1687017453.7657661,0.5298507809638977,0.8221219182014465,0.20826417207717896,0.010798752307891846,-0.007546663284301758,0.00717473030090332,0.1710072010755539,0.008289322257041931,-0.01030876487493515,1.9453073302485606,-0.9651282520221548,1.5938728888368525
1687017453.860538,0.5300008058547974,0.8233491778373718,0.20296674966812134,0.011274278163909912,-9.173154830932617e-05,0.0017909705638885498,0.12022005021572113,-0.03497133404016495,0.0068720197305083275,1.9365234183052615,-0.9672872264657749,1.5832335855065556
1687017453.8758922,0.5306275486946106,0.8240705728530884,0.1983489692211151,0.00639033317565918,0.0020250678062438965,-0.0025786161422729492,0.11171191930770874,-0.05236603319644928,0.003488806774839759,1.9285151570426675,-0.96855952964011,1.5759100189303021
1687017453.91342,0.5313270092010498,0.8249813318252563,0.19260667264461517,0.01043623685836792,-0.014342963695526123,-0.002237945795059204,0.08187386393547058,-0.057990096509456635,-0.004684035200625658,1.9185643479427574,-0.9701691866940275,1.5670928345065067
1687017454.011595,0.5312668085098267,0.8256474733352661,0.18990133702754974,-0.004533231258392334,-0.005609393119812012,0.008417293429374695,-0.0057246508076786995,-0.024138834327459335,-0.024005601182579994,1.914092652065813,-0.9713488539102316,1.5643428054048718
1687017454.027645,0.5309429168701172,0.8261097073554993,0.18879228830337524,0.007677137851715088,0.004441499710083008,-0.004435539245605469,0.04148236662149429,-0.037905603647232056,-0.01377906370908022,1.9124328554066896,-0.9721686871952636,1.5640958425355238
1687017454.1288881,0.5304142236709595,0.8270077705383301,0.18633019924163818,0.009319663047790527,-0.006069660186767578,0.00028489530086517334,0.02800850197672844,-0.031275395303964615,-0.028789104893803596,1.9086215523311358,-0.9737641888883747,1.561564580367695
1687017454.144967,0.5295991897583008,0.827704131603241,0.18555551767349243,0.002200186252593994,0.0017942190170288086,-0.0005884319543838501,-0.010013848543167114,-0.005378818605095148,-0.023873375728726387,1.9078004768457417,-0.9750039857025664,1.5617435584547894
1687017454.216439,0.5289878249168396,0.8278136253356934,0.18680620193481445,0.0042915940284729,0.007513523101806641,0.003379449248313904,-0.010049624368548393,-0.0011176723055541515,-0.008222511038184166,1.910264778271665,-0.9751991429830675,1.564491098551039
1687017454.2217531,0.5285879969596863,0.8277373909950256,0.18827109038829803,0.0031656622886657715,-0.007623076438903809,0.0015788376331329346,-0.06377219408750534,0.016531452536582947,-0.008454139344394207,1.9129637302694797,-0.9750632791791485,1.5671904609626668
1687017454.31021,0.5291460156440735,0.8265222311019897,0.19200412929058075,0.01789689064025879,0.008728623390197754,0.006527990102767944,-0.09788498282432556,0.012944528833031654,0.04547514021396637,1.9188784623042918,-0.972901063604396,1.573175582583439
1687017454.325572,0.5318136811256409,0.82269686460495,0.20085927844047546,0.04547220468521118,-0.007862210273742676,0.0094984769821167,-0.30259767174720764,0.04585019126534462,0.10726720094680786,1.9319209110235334,-0.966138880826042,1.5868109518848388
1687017454.3974009,0.5358694791793823,0.8154428005218506,0.21885408461093903,0.04108065366744995,-0.01467674970626831,-0.011685505509376526,-0.46408811211586,0.03665820136666298,0.13731823861598969,1.958531037654202,-0.9534937598331572,1.61662208130679
1687017454.4026198,0.541942834854126,0.8091208934783936,0.22720305621623993,0.017841041088104248,-0.02828294038772583,-0.02302519977092743,0.059663012623786926,-0.0859992727637291,0.18202006816864014,1.967776441486602,-0.9426545755551481,1.6296820541317887
1687017454.454376,0.5553473830223083,0.8036452531814575,0.21387739479541779,0.05311208963394165,-0.1092635989189148,-0.009638473391532898,0.30697405338287354,-0.1389111429452896,0.500520646572113,1.9384128410931032,-0.9333954904254754,1.5999255388738398
1687017454.519665,0.5903775095939636,0.7811020016670227,0.2033090442419052,0.0528721809387207,-0.24457228183746338,-0.08349689841270447,-0.07958786189556122,-0.1497221440076828,1.1516823768615723,1.9024479133433623,-0.8964287971263245,1.5650620903109531
1687017454.6115708,0.6440426707267761,0.7379539012908936,0.20157811045646667,0.0677495002746582,-0.164711594581604,-0.17963585257530212,0.052288718521595,-0.19453667104244232,1.6054341793060303,1.8741263909612313,-0.8300333909373503,1.5389130466327288
1687017454.62894,0.7079407572746277,0.6813789010047913,0.1858576387166977,0.07062381505966187,-0.10036993026733398,-0.20277953147888184,0.28446292877197266,-0.3984968066215515,1.9509482383728027,1.8275353103405394,-0.7496449317484912,1.4929817367859506
1687017454.6973271,0.7795382738113403,0.6049090027809143,0.1624975949525833,0.04251378774642944,-0.13437366485595703,-0.18010616302490234,-0.06392595171928406,-0.7063326239585876,2.243494749069214,1.7763070164886794,-0.6496515587900086,1.4552628987113765
1687017454.703233,0.8504141569137573,0.5103232860565186,0.1279306560754776,0.014133691787719727,0.021949052810668945,-0.1288156509399414,0.31288838386535645,-0.9916361570358276,2.45497989654541,1.720110065732182,-0.535560675816118,1.4317004746937239
1687017454.755414,0.913300096988678,0.4023782014846802,0.0630480945110321,0.012511789798736572,0.11184301972389221,-0.11436331272125244,0.87770676612854,-1.3073770999908447,2.506157636642456,1.6397202480790969,-0.4141131447234535,1.3817213357631242
1687017454.8500118,0.9595175385475159,0.28036874532699585,-0.02682310901582241,0.04715055227279663,-0.030200958251953125,-0.06784236431121826,1.0214362144470215,-1.7546648979187012,2.792541742324829,1.5428488185307296,-0.284178250088813,1.3164480000479075
1687017454.857295,0.9835048317909241,0.14229007065296173,-0.11167792230844498,0.021133899688720703,0.0031414180994033813,0.044859714806079865,-0.40389883518218994,-1.4735028743743896,2.7890477180480957,1.4577296537923017,-0.14277464575404394,1.3121066928282967
1687017454.905199,0.9826369881629944,0.013073967769742012,-0.18507812917232513,0.22759872674942017,0.13299839198589325,0.06674623489379883,-0.7654181122779846,-1.7302792072296143,2.6794681549072266,1.3846288884617297,-0.013074339856620851,1.3639119060835114
1687017454.999577,0.9624059796333313,-0.08989391475915909,-0.2563082277774811,0.15353035926818848,0.2491956651210785,0.15640899538993835,-0.9921676516532898,-1.0750210285186768,1.937009572982788,1.31051735776748,0.09001542749252524,1.4378182303531062
1687017455.007204,0.9326540231704712,-0.164235919713974,-0.32122135162353516,0.23337692022323608,0.148153156042099,0.035027533769607544,0.3994884192943573,-1.7521400451660156,1.5020536184310913,1.2391043820952612,0.16498337029904575,1.4717041224876963
1687017455.0538092,0.8867248892784119,-0.21920421719551086,-0.4070242941379547,0.06560671329498291,-0.15457512438297272,0.12926852703094482,-1.8164381980895996,-1.5897325277328491,1.508255124092102,1.1404668942482867,0.22099877839783333,1.5217217650841741
1687017455.152133,0.8349015116691589,-0.22253264486789703,-0.5034072995185852,0.09767001867294312,-0.16166846454143524,0.18059223890304565,-3.790313243865967,-1.5222010612487793,1.5946701765060425,1.0282075502257821,0.2244114805921493,1.690680135059317
1687017455.159618,0.7838508486747742,-0.15637782216072083,-0.6009359359741211,0.038796305656433105,-0.06267738342285156,0.2013387680053711,-4.896851062774658,-1.1620196104049683,1.3531908988952637,0.9167267727169468,0.15702228144139463,1.9176288854089336
1687017455.206613,0.7420271039009094,-0.04893907159566879,-0.6685811877250671,0.07569140195846558,0.03216966986656189,0.17738550901412964,-4.87409782409668,-1.0699506998062134,1.2246544361114502,0.837418031747809,0.04895862900270494,2.150606206178184
1687017455.306406,0.7107921242713928,0.06713299453258514,-0.7001911997795105,0.10167735815048218,-0.024515174329280853,0.20173239707946777,-4.4475321769714355,-0.7767247557640076,1.1230148077011108,0.7929111622958539,-0.06718352031611062,2.356121780788203
1687017455.322839,0.6987847685813904,0.18848465383052826,-0.6900532841682434,0.09310060739517212,-0.018791615962982178,0.2131856083869934,-4.859465599060059,-0.31986868381500244,0.9679914116859436,0.7916849917380151,-0.18961891925905178,2.557082195877457
1687017455.47981,0.7017510533332825,0.31623369455337524,-0.6383900046348572,0.03955143690109253,0.05594351887702942,0.09140825271606445,-4.391323566436768,-0.11442673951387405,0.7483377456665039,0.8326423763205038,-0.3217567967597624,2.7606217625660494
1687017455.496976,0.7102787494659424,0.4143865704536438,-0.569023609161377,0.017794370651245117,0.022335290908813477,0.012993454933166504,-3.740464448928833,-0.13166582584381104,0.6502382159233093,0.8953684468385564,-0.42726867902982374,2.9502692723578408
1687017455.602768,0.7205058336257935,0.4809549152851105,-0.4995536804199219,0.01951497793197632,0.014070838689804077,0.00971609354019165,-3.0184133052825928,-0.19101658463478088,0.7232341766357422,0.964555875302676,-0.5017435356905607,3.1230210056140946
1687017455.610661,0.7385093569755554,0.5131543874740601,-0.437351793050766,0.03839188814163208,0.0003039240837097168,0.008381575345993042,-2.443478584289551,-0.08325044810771942,0.9911432862281799,1.036125266775533,-0.5388559380351666,-3.0030236825298475
1687017455.617059,0.7625349164009094,0.517699122428894,-0.38797956705093384,0.024559199810028076,0.04940903186798096,0.004190593957901001,-1.6076563596725464,-0.0012242873199284077,0.8953560590744019,1.1001316543033026,-0.5441594755832997,-2.874788507260604
1687017455.631417,0.7835527062416077,0.5119565725326538,-0.3520594835281372,-0.02108621597290039,0.08498263359069824,-0.013434171676635742,-0.9626944661140442,0.12213954329490662,0.5740219354629517,1.148514843935476,-0.537460964109249,-2.7866549099774662
1687017455.65358,0.7936409115791321,0.516330897808075,-0.32177111506462097,-0.015930891036987305,0.0763053297996521,-0.030218541622161865,-0.874151349067688,0.16259518265724182,0.06379608809947968,1.1856119717029436,-0.5425609700783194,-2.7294335932948828
1687017455.682874,0.7933748960494995,0.5249406695365906,-0.30821043252944946,-0.006433308124542236,0.0938490629196167,-0.04327571392059326,0.2378387451171875,0.05677225813269615,-0.17890796065330505,1.2002600960076473,-0.5526454379473892,-2.7125586866422116
1687017455.714007,0.789148211479187,0.5237545967102051,-0.3208216726779938,0.016622722148895264,-0.0018581151962280273,-0.016855239868164062,0.606578528881073,0.008756795898079872,-0.14501385390758514,1.184663270133475,-0.5512524959517076,-2.744752379048343
1687017455.775738,0.7870089411735535,0.5219587683677673,-0.328901469707489,0.02141702175140381,-0.03936892747879028,-0.011659383773803711,0.08548039942979813,0.048769015818834305,-0.07945547997951508,1.1749434935717487,-0.5491457229863947,-2.7670979590982694
1687017455.838428,0.7861717343330383,0.5250164866447449,-0.3260243237018585,0.00397413969039917,-0.020377755165100098,-0.023157715797424316,-0.05745593085885048,0.014944296330213547,-0.03181904926896095,1.177683306225534,-0.5527345137297245,-2.7649663567276015
1687017455.964073,0.7847556471824646,0.5254576802253723,-0.3287140429019928,-0.0005301833152770996,-0.014044046401977539,-0.02129194140434265,0.2287319302558899,-0.023901814594864845,-0.0671565979719162,1.1741255381862932,-0.5532529359075481,-2.771347122695295
1687017456.0206718,0.7828810214996338,0.5230847001075745,-0.3368675112724304,0.011323690414428711,-0.025983870029449463,-0.009232252836227417,0.3040173053741455,-0.0283600352704525,-0.06483172625303268,1.1644517703014563,-0.5504663179800341,-2.7870272794807245
1687017456.03505,0.7813712358474731,0.5192721486091614,-0.3461441099643707,0.01472562551498413,-0.041382014751434326,0.0011887550354003906,0.21459457278251648,-0.0358438715338707,0.0022054959554225206,1.1537824117500397,-0.5459990651974373,-2.8035096622806113
1687017456.039665,0.7822633981704712,0.5150370001792908,-0.3504296839237213,0.004083037376403809,-0.034659743309020996,0.00011852383613586426,0.0906854197382927,-0.024119839072227478,0.059618718922138214,1.1496327226710445,-0.54105081520048,-2.809217521625205
1687017456.073952,0.7845693230628967,0.5106733441352844,-0.35165873169898987,0.0009837150573730469,-0.01879096031188965,-0.0038557052612304688,-0.015740888193249702,-0.016196932643651962,0.0936572477221489,1.1494246297669808,-0.5359677992260908,-2.8084668010186657
1687017456.099979,0.7865571975708008,0.5072243809700012,-0.3522091805934906,-0.003781259059906006,-0.004309892654418945,-0.007425129413604736,-0.0058608269318938255,-0.020365579053759575,0.06189892068505287,1.1497852255805527,-0.5319610831397501,-2.806257173159628
1687017456.1668959,0.787675678730011,0.5055669546127319,-0.3520924746990204,0.0007154345512390137,0.003756284713745117,-0.005756556987762451,-0.04041667282581329,-0.025357674807310104,0.04847658798098564,1.1504384856932526,-0.5300389643774933,-2.8024762296245966
1687017456.231103,0.7882530093193054,0.5030376315116882,-0.3544156551361084,0.009720683097839355,0.005751550197601318,-0.006530940532684326,0.12738142907619476,-0.03636949136853218,0.057126469910144806,1.1482570295120003,-0.527109877334225,-2.8032693999101936
1687017456.288876,0.7889517545700073,0.4969620704650879,-0.3613639175891876,0.004474759101867676,0.0014052987098693848,0.0018364489078521729,0.25638729333877563,-0.030355896800756454,0.05446630343794823,1.1412843753249808,-0.5200944274921825,-2.813948057743195
1687017456.347858,0.7898386120796204,0.4925443232059479,-0.36545202136039734,-0.0010355114936828613,-0.003973066806793213,-0.0024830400943756104,0.015089995227754116,-0.021916339173913002,0.0575672872364521,1.1374379928965725,-0.515010871600624,-2.8196148731388773
1687017456.4754782,0.7905149459838867,0.49225643277168274,-0.36437615752220154,0.006314337253570557,0.010001987218856812,-0.009128391742706299,-0.07555783540010452,-0.009069160558283329,0.027184948325157166,1.138886003356743,-0.5146801114819008,-2.815353255980853
1687017456.491016,0.7907603979110718,0.4923994243144989,-0.3636494576931,0.008144080638885498,0.011644244194030762,-0.0031717419624328613,-0.021911920979619026,-0.020805979147553444,0.019671104848384857,1.1397623160281432,-0.5148444060838234,-2.812214372937486
1687017456.625828,0.7906761765480042,0.49185115098953247,-0.3645733892917633,0.009067535400390625,0.01078873872756958,-0.004277229309082031,0.015495595522224903,-0.02503170445561409,0.014373743906617165,1.1387578036672452,-0.5142145742444808,-2.8120287603506786
1687017456.642922,0.7903740406036377,0.4913738965988159,-0.3658698499202728,0.00615006685256958,-0.0005290508270263672,-0.0005698800086975098,-0.0050325836054980755,-0.019169554114341736,-0.0029746186919510365,1.1372607272707715,-0.5136665142587212,-2.813037078479201
1687017456.677124,0.7898693680763245,0.49146509170532227,-0.3668362498283386,0.004121899604797363,0.01065605878829956,-0.0023043453693389893,0.04694495350122452,-0.018524624407291412,-0.01766781136393547,1.1360103071806456,-0.5137712196255835,-2.813999030144998
1687017456.680805,0.7891970276832581,0.4920244514942169,-0.3675327003002167,0.01028740406036377,0.0018569529056549072,-0.0014705359935760498,-0.023669207468628883,-0.01325671561062336,-0.01844758354127407,1.134959469106814,-0.5144136323892631,-2.814267759010417
1687017456.6841311,0.7879443168640137,0.4920872449874878,-0.37012723088264465,0.0029035210609436035,0.00884363055229187,-0.0019124746322631836,0.17327888309955597,-0.03147033974528313,-0.04561349004507065,1.1316502085414788,-0.5144857730877797,-2.8186007175343666
1687017456.7337608,0.7863115668296814,0.4897654354572296,-0.37662193179130554,0.004475235939025879,0.0044821202754974365,-0.007075488567352295,0.30878177285194397,-0.0021256785839796066,-0.0695280134677887,1.124111470560637,-0.5118206822514729,-2.8322780400436787
1687017456.798847,0.7837388515472412,0.4836841821670532,-0.38961929082870483,-0.0077683329582214355,0.023914813995361328,-0.02499246597290039,0.8194984197616577,-0.02790454402565956,-0.11583232879638672,1.1094481578091724,-0.5048591597433401,-2.8606001030831982
1687017456.892431,0.7775017023086548,0.4605017602443695,-0.4282866418361664,0.01572650671005249,0.11650943756103516,-0.06023871898651123,2.467933416366577,-0.10448871552944183,-0.4199438691139221,1.0673009258349146,-0.4785603861146841,-2.9454594607200515
1687017456.91136,0.762047529220581,0.4069494307041168,-0.5036624073982239,-0.02219456434249878,0.16261550784111023,-0.03340113162994385,4.222588539123535,-0.17133209109306335,-0.7006861567497253,0.9867736519052259,-0.41911194745085656,-3.115374652957144
1687017456.9438272,0.7410382032394409,0.29069197177886963,-0.605277419090271,0.028447329998016357,0.17351099848747253,0.094596266746521,6.192413330078125,-0.21571777760982513,-1.0391812324523926,0.8858972001729778,-0.2949499664150384,2.908958621467445
1687017457.038754,0.7233989238739014,0.14464297890663147,-0.6751092076301575,0.10075879096984863,0.057413965463638306,0.13281190395355225,5.347917079925537,-0.07600656151771545,-1.1962155103683472,0.8199139092000612,-0.14515214903324566,2.650195854642434
1687017457.054245,0.7177956700325012,0.006225267890840769,-0.6962260603904724,0.062462568283081055,0.07122838497161865,0.1735820174217224,5.61790657043457,0.14906065165996552,-1.2838830947875977,0.80065105087951,-0.006225307976268876,2.411965147180185
1687017457.097507,0.7327737212181091,-0.1521228849887848,-0.6632506251335144,0.09336769580841064,0.07331125438213348,0.2108122706413269,6.362575531005859,0.41532447934150696,-1.2439097166061401,0.8351577980928973,0.15271580377194469,2.151751669279437
1687017457.1921859,0.7615013122558594,-0.2964605987071991,-0.5763912796974182,0.07301712036132812,0.05897277593612671,0.3477994203567505,5.8455891609191895,0.5542839169502258,-1.4108359813690186,0.922884687192309,0.30098449727397386,1.8633044824177
1687017457.207591,0.8128080368041992,-0.3648711144924164,-0.45410603284835815,0.14097309112548828,0.1175260841846466,0.35191792249679565,4.905797958374023,1.071676254272461,-2.0070197582244873,1.0613074142692347,0.37349437869209134,1.583296193239737
1687017457.2750301,0.877342700958252,-0.36694085597991943,-0.30923184752464294,0.11276966333389282,0.04629260301589966,0.28605377674102783,4.762002468109131,1.3841681480407715,-2.312225103378296,1.2319279567421912,0.37571835203436593,1.2925388613805586
1687017457.288094,0.9374465942382812,-0.3019619882106781,-0.17324253916740417,0.22164154052734375,0.12477687001228333,0.19208718836307526,4.022003650665283,1.4292446374893188,-2.8317768573760986,1.3880554664605809,0.3067500426530267,1.0423880067358378
1687017457.334446,0.9808365702629089,-0.17871662974357605,-0.07758807390928268,0.3342573642730713,0.08992569148540497,0.07714558392763138,3.698662042617798,0.46188071370124817,-3.0597574710845947,1.4918567336182882,0.1796819297204897,0.8308508137578562
1687017457.427732,0.9977871179580688,-0.036052484065294266,-0.05586865171790123,0.1419987678527832,-0.171314537525177,-0.000832974910736084,0.745582640171051,0.11037876456975937,-3.118180990219116,1.5148621730937697,0.036060300412911035,0.7040352025735334
1687017457.445091,0.9916660785675049,0.1194802075624466,-0.048198048025369644,0.1554134488105774,0.01913057267665863,-0.09183180332183838,-0.9504058957099915,0.1177813783288002,-3.1449942588806152,1.5222314402991788,-0.11976632485544615,0.7130656440750381
1687017457.4850411,0.9616815447807312,0.2714439928531647,-0.03856319934129715,0.15748971700668335,-0.0064293742179870605,-0.11774778366088867,-1.0102375745773315,-0.03203723579645157,-3.047178268432617,1.5307180391411017,-0.27489302518910536,0.7518457774519806
1687017457.5470881,0.9111481308937073,0.4105618894100189,-0.0353265143930912,0.25953662395477295,-0.0764707624912262,-0.1936468482017517,-0.7932048439979553,-0.5825183987617493,-2.8096208572387695,1.5320443087967244,-0.4230702124029218,0.794975601634677
1687017457.64247,0.8476859927177429,0.5287996530532837,-0.04242448881268501,0.2555094361305237,-0.22562271356582642,-0.18401587009429932,-1.8043326139450073,-1.087760329246521,-2.503584861755371,1.5207906372324274,-0.5571856544020641,0.8579922919737549
1687017457.6603088,0.7785217761993408,0.6267116665840149,-0.03371041640639305,0.04302668571472168,-0.3690364956855774,-0.05041122063994408,-2.2347397804260254,-1.2090301513671875,-2.0759716033935547,1.5275228161664136,-0.6773261193661801,0.9746372967410989
1687017457.724725,0.7172271609306335,0.6968060731887817,0.006843907292932272,-0.085177481174469,-0.2358379364013672,-0.07993340492248535,-1.8009145259857178,-0.5837647318840027,-1.6561921834945679,1.5803382126967542,-0.7709348343349689,1.1179061062614843
1687017457.7390919,0.6664125919342041,0.7443886995315552,0.04218849539756775,-0.10856646299362183,-0.26726168394088745,-0.08457732200622559,-1.086130976676941,-0.1629524677991867,-1.2476236820220947,1.6340188272615046,-0.8396189387277572,1.218217203575924
1687017457.782724,0.6217065453529358,0.7789822220802307,0.08165756613016129,-0.05288928747177124,-0.08113664388656616,-0.1349564790725708,-1.0790423154830933,0.10850469768047333,-1.184004306793213,1.7013929927041878,-0.8930410332118652,1.3080765174154414
1687017457.91135,0.5732614994049072,0.8105775713920593,0.11973132193088531,0.02080899477005005,-0.02142345905303955,-0.27602696418762207,-0.485076367855072,-0.07310353964567184,-1.0951521396636963,1.7766962923180785,-0.9451376572163287,1.3978315465977211
1687017457.9294062,0.5509320497512817,0.8282111883163452,0.10266619175672531,0.04992860555648804,-0.18133002519607544,-0.16309094429016113,0.07247281074523926,-0.5767838954925537,-0.5834380388259888,1.7550331096326843,-0.9759082169272463,1.3955990444079036
1687017458.0296159,0.5314177870750427,0.8448336720466614,0.06206201761960983,-0.046111881732940674,0.04852283000946045,0.020488150417804718,0.9334152340888977,-0.6059337854385376,-0.47114548087120056,1.6870554242181799,-1.0062541740582758,1.3548601772136595
1687017458.0474,0.5083103775978088,0.8606952428817749,0.02871568128466606,0.06651878356933594,-0.11679869890213013,0.3863234519958496,0.3374638557434082,0.35834887623786926,-0.6345902681350708,1.62722875882431,-1.0366336782990266,1.2944481989865564
1687017458.117227,0.4947510063648224,0.8680232167243958,0.04192065820097923,0.07600405812263489,-0.14664870500564575,0.012980461120605469,-0.3318764865398407,0.3984319567680359,-0.02272222377359867,1.6553252447432787,-1.051207148472187,1.2999982455468242
1687017458.122266,0.4937918782234192,0.8678300380706787,0.05514369532465935,0.06551912426948547,0.10703879594802856,0.03773665428161621,-0.018391665071249008,-0.12193295359611511,-0.018582407385110855,1.6820094965091021,-1.0508182195776554,1.3243910387261832
1687017458.2097402,0.49212780594825745,0.8692876696586609,0.04636531323194504,0.029600828886032104,0.08026695251464844,-0.09649038314819336,0.2871123254299164,-0.11496132612228394,-0.010723419487476349,1.6647330092112047,-1.053759407471945,1.309823506757689
1687017458.226053,0.4919975996017456,0.8697449564933777,0.03849960118532181,0.00566786527633667,-0.09266054630279541,0.05654739961028099,-0.32467949390411377,-0.08317188173532486,-0.016127504408359528,1.6488887954134146,-1.0546852401694335,1.300246787408694
1687017458.297425,0.49113547801971436,0.8691534399986267,0.057953689247369766,-0.025177747011184692,0.07556408643722534,-0.0015723705291748047,-0.27471670508384705,0.0424971804022789,-0.06791806221008301,1.6882525806022555,-1.0534879404516477,1.3452843927734686
1687017458.302927,0.4862121641635895,0.8716994524002075,0.06114036962389946,-0.001653909683227539,0.012227058410644531,-8.987635374069214e-05,0.08504342287778854,0.0623224638402462,-0.10944779962301254,1.6958880755696424,-1.058659727834908,1.350964677876571
1687017458.3905668,0.48224762082099915,0.8740894198417664,0.058353979140520096,-0.01245996356010437,0.002711176872253418,0.03672361001372337,0.09651463478803635,0.04449721425771713,-0.08374762535095215,1.6912150689035277,-1.0635580729323062,1.3428850580707312
1687017458.407048,0.4793130159378052,0.8759658932685852,0.05424898862838745,0.015117615461349487,0.00747227668762207,0.011638522148132324,0.09448805451393127,-0.020022209733724594,-0.04099323973059654,1.683497446443871,-1.067434603943987,1.332961098170542
1687017458.4761639,0.47821465134620667,0.8768416047096252,0.049596529453992844,0.021251380443572998,-0.0031995773315429688,0.013803839683532715,0.12506727874279022,-0.06937430799007416,0.007865245454013348,1.67413872161291,-1.069253038753439,1.3245241752836907
1687017458.490135,0.47944632172584534,0.8765195608139038,0.04295295104384422,0.012817531824111938,0.008169829845428467,-0.002623915672302246,0.10199453681707382,-0.09692373871803284,0.029658958315849304,1.6601464432549922,-1.0685835655616693,1.3132316489801916
1687017458.536026,0.4804827868938446,0.8760815262794495,0.040216002613306046,0.0033734142780303955,-0.015730082988739014,-0.0010466650128364563,-0.09804042428731918,-0.08263721317052841,-0.00549217127263546,1.6543008413184739,-1.0676743472640782,1.3120020048849421
1687017458.629815,0.4811510741710663,0.8756133317947388,0.04237333685159683,0.0014998316764831543,0.005826056003570557,-0.01139795407652855,-0.03140977397561073,-0.0729479193687439,0.011534549295902252,1.658636298083665,-1.0667041362052605,1.3212031190050029
1687017458.645747,0.4819207191467285,0.8752996325492859,0.04003904387354851,0.00948864221572876,0.0011041760444641113,-0.0021361149847507477,0.03365471586585045,-0.036594972014427185,0.020320717245340347,1.6536881707305828,-1.06605510501865,1.3186327808592828
1687017458.685627,0.4823748469352722,0.8751350045204163,0.03812410309910774,0.0016340017318725586,-0.0002570152282714844,-0.009223941713571548,0.016262540593743324,-0.009439517743885517,0.007936019450426102,1.6496665651133522,-1.0657147286456878,1.3153580445298592
1687017458.7772632,0.4830545485019684,0.8747776746749878,0.03771529346704483,0.0032431185245513916,-0.001593470573425293,0.004109140485525131,-0.016337834298610687,-0.014464281499385834,0.006462758872658014,1.6487149285460196,-1.0649767833048764,1.3147911439663926
1687017458.792941,0.4834273159503937,0.8745496273040771,0.03822662681341171,-0.006925761699676514,-0.005195319652557373,0.007397174835205078,-0.026863493025302887,-0.0382906049489975,0.008756471797823906,1.649706332714203,-1.0645063059063742,1.317542491583138
1687017458.904264,0.4835995137691498,0.8744192123413086,0.03902468830347061,0.0026371777057647705,0.008683383464813232,-0.002845998853445053,-0.06130340322852135,-0.03303494676947594,-0.010183795355260372,1.651318137226991,-1.0642374884494268,1.3212226607745743
1687017458.912157,0.48335403203964233,0.8744668364524841,0.04095057025551796,0.003843933343887329,-0.0054939985275268555,-0.0020864009857177734,-0.04966374486684799,-0.02079070918262005,-0.006172343157231808,1.655316179743875,-1.0643355583423897,1.3272984132586407
1687017458.992552,0.4832344353199005,0.8744826912879944,0.04200941324234009,0.00851064920425415,0.01009988784790039,-0.0043354034423828125,0.003531121416017413,-0.007662479765713215,0.0034303502179682255,1.6575121281328,-1.064368311657358,1.330371648136652
1687017459.009428,0.483225017786026,0.8745191693305969,0.04135414958000183,0.0007991194725036621,-0.0065228939056396484,-0.000658869743347168,-0.0059531498700380325,0.002186778001487255,-0.01580333150923252,1.6561678068446253,-1.0644434844686748,1.3290756530992291
1687017459.077744,0.48309949040412903,0.8745093941688538,0.04299525171518326,0.008859246969223022,0.005755066871643066,-0.006709810346364975,-0.02350577898323536,0.02589849755167961,0.008918792940676212,1.6595612093017258,-1.0644233876245632,1.331796305773943
1687017459.083915,0.4832722544670105,0.8743615746498108,0.04404553025960922,0.005268484354019165,-0.0010399818420410156,-0.0026941299438476562,0.005537369288504124,0.0356055423617363,0.0030951914377510548,1.6616854273389476,-1.064118710026503,1.3325475481610463
1687017459.13638,0.4836069345474243,0.8741843700408936,0.043889790773391724,0.001439511775970459,-0.003380417823791504,0.002451181411743164,0.004082484636455774,0.021942995488643646,0.01460137777030468,1.6613034749844549,-1.0637535925333366,1.3306689936973415
1687017459.293747,0.48455095291137695,0.873608410358429,0.04493442922830582,0.010810434818267822,0.00416874885559082,-0.00036346912384033203,-0.040448855608701706,0.01863996498286724,0.039935898035764694,1.6632660287440115,-1.0625688433927065,1.3319095486388939
1687017459.309651,0.4867401421070099,0.8722460269927979,0.047657761722803116,0.02557384967803955,-0.0037766098976135254,0.012126214802265167,-0.12182746082544327,0.0639541819691658,0.08175651729106903,1.6683973527621174,-1.0597761701050774,1.3362866641884508
1687017459.345917,0.49260666966438293,0.8680739402770996,0.06153415888547897,0.05574846267700195,-0.03129720687866211,0.033116213977336884,-0.38338786363601685,0.13408124446868896,0.15740160644054413,1.6950680205202022,-1.05130922844694,1.3606142057657384
1687017459.349653,0.5017010569572449,0.8607101440429688,0.08645457029342651,0.0017170310020446777,-0.061210572719573975,0.02111995220184326,-0.40526941418647766,0.2033083438873291,0.2891968786716461,1.7414432504858333,-1.0366629206053004,1.4039535863898087
1687017459.3533401,0.5168549418449402,0.849561333656311,0.10538924485445023,-0.0005279779434204102,-0.10244512557983398,0.03116166591644287,-0.14595627784729004,0.294238418340683,0.5314370393753052,1.7719437381958025,-1.0151530927339925,1.425281317617928
1687017459.402314,0.5536003112792969,0.8235874772071838,0.12341229617595673,0.0240822434425354,-0.22641950845718384,-0.06338417530059814,-0.30583417415618896,0.22274436056613922,1.2311934232711792,1.7901365174286337,-0.9677073266182827,1.4303905446140792
1687017459.4659848,0.6107293367385864,0.7808908224105835,0.13122375309467316,0.0292854905128479,-0.20131605863571167,-0.1053294986486435,0.18234902620315552,0.25207793712615967,1.7905919551849365,1.7824425005840603,-0.8960906149242401,1.4056936283455477
1687017459.524929,0.6878950595855713,0.7153016328811646,0.12306127697229385,-0.056898295879364014,-0.13609325885772705,-0.12213040888309479,0.40628084540367126,0.138180211186409,2.178912878036499,1.7478191457180423,-0.7970556651135816,1.3495129230349237
1687017459.626498,0.7679967284202576,0.6308651566505432,0.11041048914194107,0.015954196453094482,-0.06435209512710571,-0.14935088157653809,0.47939348220825195,-0.20227520167827606,2.6198601722717285,1.7135822595849917,-0.6826677901736783,1.2984420853934338
1687017459.643616,0.8507328033447266,0.518083930015564,0.0885603129863739,0.04910856485366821,-0.11079633235931396,-0.20309269428253174,-0.050728388130664825,-0.6042406558990479,3.008195400238037,1.674521580319469,-0.5446092723162433,1.2593081414469427
1687017459.6730208,0.921074390411377,0.3862249255180359,0.04952307790517807,0.1241070032119751,0.021871417760849,-0.132881760597229,-0.03814637288451195,-1.1599541902542114,3.0672175884246826,1.6245112488142328,-0.3965354271461628,1.248509110537712
1687017459.769314,0.97151118516922,0.23668824136257172,-0.012044265866279602,0.13139426708221436,-0.021798700094223022,-0.054789185523986816,-1.1803754568099976,-1.5547188520431519,3.1059250831604004,1.5583995064919927,-0.23895581175456876,1.2724139501021743
1687017459.776212,0.9922195076942444,0.09176458418369293,-0.08414347469806671,0.22767508029937744,0.15112480521202087,-0.1118098571896553,-1.5145275592803955,-1.830600380897522,3.133014678955078,1.4861954610267705,-0.0918938647362057,1.3541419649661646
1687017459.8281279,0.9802255034446716,-0.03710595890879631,-0.19437411427497864,0.23815834522247314,-0.012210477143526077,0.054634153842926025,-2.204854965209961,-2.3741302490234375,2.707643985748291,1.3750404278227437,0.037114478894487,1.4571548913831882
1687017459.927198,0.9392775297164917,-0.11663763970136642,-0.32272815704345703,0.2947465181350708,0.04890386015176773,0.12111380696296692,-2.8671412467956543,-2.5662896633148193,2.0301058292388916,1.23984162584349,0.11690373347427058,1.6173588624582644
1687017459.9445071,0.8836812973022461,-0.13473573327064514,-0.44827863574028015,0.17968851327896118,0.04472412168979645,0.14626145362854004,-3.4759697914123535,-1.9937217235565186,1.4147995710372925,1.1013373937889437,0.13514675452553995,1.7929403176942391
1687017459.973052,0.8332664966583252,-0.08732715994119644,-0.5459312796592712,0.09149247407913208,0.11724965274333954,0.06674432754516602,-3.3044748306274414,-1.6185805797576904,0.5736600160598755,0.9907951551010805,0.08743853951324995,1.9698864365945765
1687017460.070992,0.7873070240020752,-0.017846614122390747,-0.6163028478622437,0.07412797212600708,-0.014929259195923805,0.011337637901306152,-2.4845359325408936,-1.5341100692749023,0.27962830662727356,0.906632386417462,0.017847561015968433,2.0969758785576538
1687017460.077462,0.7392220497131348,0.041575659066438675,-0.6721773147583008,0.03186565637588501,-0.03417513519525528,0.07737445831298828,-1.7774335145950317,-1.4345566034317017,0.1961798220872879,0.8328647795989069,-0.04158764662196347,2.182274922061061
1687017460.126538,0.6965399980545044,0.0903531163930893,-0.7118064761161804,0.05681699514389038,-0.11520963907241821,0.12245100736618042,-1.9362932443618774,-1.08688223361969,0.43401867151260376,0.7745585822025053,-0.09047650587571554,2.2562692070999466
1687017460.221597,0.6635698676109314,0.150546595454216,-0.7328102588653564,0.021549761295318604,-0.06022977828979492,0.08805012702941895,-2.2144064903259277,-0.9623361229896545,0.5330692529678345,0.7358531489997273,-0.15112115142801336,2.3466592317920405
1687017460.229588,0.636539101600647,0.22110335528850555,-0.7388716340065002,0.05769002437591553,-0.10791361331939697,0.16060930490493774,-2.9033730030059814,-0.8120890259742737,0.8019911646842957,0.7111335616633704,-0.22294567841048413,2.455326850261604
1687017460.309051,0.6195037364959717,0.30911681056022644,-0.7215691208839417,0.1049378514289856,-0.050938040018081665,0.19485098123550415,-3.3663570880889893,-0.694705605506897,0.8424217700958252,0.7094373196928232,-0.3142642212651185,2.5942697969746065
1687017460.3251848,0.6164331436157227,0.40389901399612427,-0.6759259104728699,0.061804771423339844,-0.050062865018844604,0.16173529624938965,-3.5537195205688477,-0.31718215346336365,0.7816407680511475,0.7393964079135793,-0.41577497785215145,2.7477749367040154
1687017460.363378,0.6279172301292419,0.49546656012535095,-0.6001942157745361,0.07273590564727783,-0.0741102397441864,0.11870312690734863,-3.673943281173706,-0.11150684952735901,0.9364805221557617,0.8079680084318234,-0.5183718580104559,2.924568001121399
1687017460.46497,0.6534256339073181,0.5566615462303162,-0.5129941701889038,0.04164278507232666,-0.03656560182571411,0.06217336654663086,-2.908612012863159,0.06316588819026947,0.9902054071426392,0.9052167348382624,-0.5903617025893546,3.1091935599032667
1687017460.482675,0.6845702528953552,0.582182765007019,-0.4386650621891022,0.02355968952178955,-0.05450320243835449,0.007421255111694336,-2.073721408843994,0.20778004825115204,0.9695501923561096,1.0009236185097325,-0.6214107411077636,-3.0181097029834505
1687017460.5169559,0.7133226990699768,0.5886058807373047,-0.3804130554199219,-0.04013538360595703,0.04469501972198486,-0.03277963399887085,-1.3893495798110962,0.2786310613155365,0.513848066329956,1.0808670754664835,-0.6293332657717119,-2.9020087298423975
1687017460.608663,0.7257377505302429,0.5971794724464417,-0.3415868580341339,-0.021407246589660645,0.0607033371925354,-0.08033382892608643,-0.48939695954322815,0.23198845982551575,0.03572883456945419,1.1308824489692673,-0.6399801111805835,-2.84082684590167
1687017460.624545,0.7259531021118164,0.5966825485229492,-0.34199756383895874,-0.01123136281967163,0.07119476795196533,-0.053327083587646484,0.7586548924446106,0.051761697977781296,-0.1303955614566803,1.1305336473640495,-0.6393606940467838,-2.8528476354343013
1687017460.662924,0.7243434190750122,0.5846050381660461,-0.3654637932777405,0.02196401357650757,-0.028681457042694092,-0.036986708641052246,0.714998722076416,0.011658132076263428,0.0232705008238554,1.1035194033060585,-0.6243931840006842,-2.9001771178220053
1687017460.789988,0.7271974086761475,0.5749145746231079,-0.3750430643558502,0.014120399951934814,-0.018273890018463135,-0.027987241744995117,0.005644295364618301,0.05110194534063339,0.11545895040035248,1.0946380379628773,-0.6124997702459224,-2.918168306304938
1687017460.8073912,0.7310285568237305,0.574364185333252,-0.3683790862560272,0.007008552551269531,0.019080698490142822,-0.030424505472183228,-0.2624306082725525,-0.004640235565602779,0.1027219146490097,1.1040185454929714,-0.6118272297622038,-2.9040545814956142
1687017460.8805032,0.7320480346679688,0.5739912986755371,-0.3669331669807434,-0.013160645961761475,0.04284536838531494,-0.019587188959121704,0.07901597768068314,-0.037521395832300186,-0.004666658118367195,1.1061556871567566,-0.6113718137495459,-2.8980926872567765
1687017460.8936028,0.730202317237854,0.5729063153266907,-0.3722674250602722,0.009742140769958496,0.010940790176391602,-0.00261041522026062,0.14743885397911072,-0.024094538763165474,-0.059676848351955414,1.0993282961579502,-0.610047414993464,-2.906730615232927
1687017460.8972359,0.7280111908912659,0.5728659629821777,-0.37659576535224915,0.01117032766342163,-0.003148496150970459,-0.004995912313461304,0.10448743402957916,-0.02179534360766411,-0.0490821897983551,1.0934094902100404,-0.6099981691436562,-2.914742362405828
1687017460.93463,0.7269403338432312,0.5731191635131836,-0.37827548384666443,0.013187289237976074,-0.027388453483581543,0.0017039179801940918,-0.03276874125003815,-0.013636570423841476,-0.010196777991950512,1.0909884828947927,-0.6103071254866692,-2.917544762219191
1687017461.032479,0.7270649671554565,0.5732147693634033,-0.3778906464576721,0.009095311164855957,-0.014453113079071045,-0.0018852651119232178,0.010184629820287228,-0.001978761050850153,0.005942709743976593,1.0914753205008842,-0.6104237595685621,-2.9162524047901703
1687017461.120033,0.7276854515075684,0.5714941620826721,-0.37929993867874146,0.009359896183013916,-0.02086538076400757,0.0024231672286987305,0.07401856034994125,0.007899614050984383,0.013399960473179817,1.090300179546289,-0.6083254805318059,-2.9188201811360446
1687017461.1275702,0.7283520698547363,0.5694413781166077,-0.38110339641571045,0.0063127875328063965,-0.01762247085571289,-0.0036315619945526123,0.057245347648859024,0.003772069001570344,0.01308424212038517,1.0887295420043435,-0.6058261328915545,-2.9220808327014907
1687017461.209682,0.7292219996452332,0.5673904418945312,-0.38249653577804565,0.004008650779724121,-0.0160902738571167,-0.00403904914855957,0.03343034163117409,-0.0007565473206341267,0.023463180288672447,1.0877202934096486,-0.6033333027111355,-2.924257515030126
1687017461.227332,0.7303354144096375,0.5657100081443787,-0.38286092877388,0.006358921527862549,-0.0005091428756713867,-0.012738317251205444,0.00957130454480648,-0.005403053015470505,0.032876987010240555,1.0879561542785148,-0.6012939971923946,-2.9237103197766734
1687017461.2643409,0.7313161492347717,0.564343273639679,-0.38300585746765137,0.0031198859214782715,-0.0023467540740966797,-0.008229434490203857,-0.047772280871868134,-0.00795968808233738,0.03577124699950218,1.088352258626887,-0.5996375607636214,-2.922393256468385
1687017461.389913,0.7317269444465637,0.5634018182754517,-0.3836067020893097,0.00855320692062378,0.008985936641693115,-0.01362520456314087,0.03785167634487152,-0.02998349629342556,0.015301723964512348,1.0879386890886347,-0.598497525853412,-2.9215076994711073
1687017461.396891,0.7311227321624756,0.5623899698257446,-0.386234849691391,0.00033789873123168945,0.007144451141357422,-0.009181320667266846,0.039524808526039124,-0.03141334652900696,-0.008961738087236881,1.0847843498682286,-0.5972733628049032,-2.9239696829550352
1687017461.479457,0.7299096584320068,0.5624663233757019,-0.3884115517139435,0.005518198013305664,-0.0002409219741821289,-0.0042885541915893555,-0.0012524040648713708,-0.03721388801932335,-0.020000474527478218,1.081771275270868,-0.5973657102192996,-2.925945813153863
1687017461.495212,0.7286418676376343,0.5632333159446716,-0.38967856764793396,0.004375100135803223,-0.0008247494697570801,0.000549018383026123,0.008756687864661217,-0.03043987601995468,-0.024967867881059647,1.079696894376676,-0.5982935943177192,-2.926382226450723
1687017461.53406,0.7272201180458069,0.563316822052002,-0.39220568537712097,0.01110696792602539,-0.006889700889587402,0.006448328495025635,0.06347350776195526,-0.028301268815994263,-0.035058386623859406,1.0761882621178158,-0.5983946895117718,-2.9297791092658296
1687017461.630567,0.7258703112602234,0.5635164976119995,-0.394413024187088,0.0037897229194641113,-0.009881734848022461,0.008335232734680176,0.05575668439269066,-0.01724204793572426,-0.033493444323539734,1.073060909901872,-0.5986363542505381,-2.9333965303747522
1687017461.6477919,0.7252275347709656,0.562431812286377,-0.39713430404663086,0.0080641508102417,-0.006798148155212402,0.008157312870025635,0.11327413469552994,-0.00789710320532322,-0.01334996148943901,1.0697979064941812,-0.5973239315139505,-2.938369261681013
1687017461.752757,0.7248647809028625,0.5603840947151184,-0.40067535638809204,0.0038187503814697266,-0.011372804641723633,0.014338135719299316,0.12366383522748947,-0.001451099757105112,-0.014954116195440292,1.0658375397056112,-0.5948495074254238,-2.9453875906009865
1687017461.760704,0.724511444568634,0.5574926733970642,-0.40532124042510986,0.008703947067260742,0.006640136241912842,0.0033895373344421387,0.3326718211174011,0.029336195439100266,-0.046389270573854446,1.060733823133514,-0.5913625210351607,-2.956420564120202
1687017461.839005,0.7231188416481018,0.5468317866325378,-0.4219883978366852,-0.0006762146949768066,0.053250670433044434,-0.03075501322746277,1.096075177192688,0.02612406760454178,-0.1480754315853119,1.0425474278588238,-0.5785754182803111,-2.9930457881606345
1687017461.845536,0.7173185348510742,0.5207170248031616,-0.46293431520462036,0.0014773011207580566,0.0801895260810852,-0.04071253538131714,2.147470712661743,0.019827114418148994,-0.34146377444267273,0.9976843511277591,-0.5476906036390791,-3.079853843254465
1687017461.92908,0.7058286666870117,0.47163522243499756,-0.5285510420799255,-0.007616996765136719,0.057081907987594604,-0.007200181484222412,2.748915672302246,-0.08093127608299255,-0.45580434799194336,0.9280395640061585,-0.49114428219519174,3.068117760559378
1687017461.945085,0.692947506904602,0.41961053013801575,-0.586302638053894,0.02085864543914795,0.00815439224243164,0.02638143301010132,2.20619535446167,-0.07266358286142349,-0.5302941799163818,0.8685709817529977,-0.4330162008461798,2.9426734427694523
1687017462.019176,0.6803461909294128,0.3772980272769928,-0.6283114552497864,0.022855103015899658,0.01329648494720459,0.021301627159118652,1.8911406993865967,-0.03373651206493378,-0.5365501642227173,0.8251391408743832,-0.3868769562647122,2.84199827141526
1687017462.034241,0.670276403427124,0.33093780279159546,-0.664236307144165,0.026974022388458252,0.029596924781799316,0.02193284034729004,2.100461959838867,-0.06712909042835236,-0.4982074499130249,0.789924172099247,-0.33729721577468763,2.746277912291801
1687017462.106082,0.6613169312477112,0.2734682857990265,-0.698480486869812,0.025725245475769043,0.0518491268157959,0.04882234334945679,2.3569610118865967,0.025207852944731712,-0.5549815893173218,0.7580747396697555,-0.2769969243441053,2.6466377354499606
1687017462.112531,0.6556845307350159,0.19264329969882965,-0.73004549741745,0.024582862854003906,0.15551654994487762,-0.014629185199737549,3.615222454071045,0.021587906405329704,-0.8408937454223633,0.7317876246777006,-0.19385518779747907,2.5196079720330524
1687017462.198739,0.6499205231666565,0.07331296056509018,-0.7564579248428345,0.019986093044281006,0.07675725966691971,0.1561923623085022,4.296212196350098,0.15190215408802032,-0.860560953617096,0.7097895924099251,-0.07337879640912383,2.356227388628082
1687017462.216301,0.6613892912864685,-0.08440291881561279,-0.7452787756919861,0.09350883960723877,0.16773119568824768,0.19005721807479858,6.1405792236328125,0.29156693816185,-1.321517825126648,0.7258316714447233,0.08450345250355085,2.1477687802113796
1687017462.2553282,0.6857699155807495,-0.25802087783813477,-0.6805474758148193,0.03064548969268799,-0.028905421495437622,0.25894713401794434,5.534280776977539,0.443509578704834,-1.5426819324493408,0.7892204205785287,0.26097315037136926,1.880823998909723
1687017462.3480859,0.7266741394996643,-0.34435445070266724,-0.5944449305534363,0.1447400450706482,-0.004079997539520264,0.19202494621276855,3.808175802230835,0.48696988821029663,-1.8481281995773315,0.8851547173903416,0.3515511019383031,1.6443771557086162
1687017462.364358,0.7750865817070007,-0.3587430417537689,-0.520138680934906,0.07598769664764404,-0.08975857496261597,0.14660358428955078,2.460608959197998,0.5669182538986206,-1.7951372861862183,0.979750251155876,0.3669209583359504,1.4506196358810104
1687017462.4035,0.8231478333473206,-0.3333541750907898,-0.45967695116996765,0.03201580047607422,0.08968651294708252,0.13442063331604004,1.4860103130340576,0.8887574672698975,-1.8514893054962158,1.0614979559160838,0.33985901580673733,1.3212124394528373
1687017462.499609,0.8697614669799805,-0.2980314791202545,-0.39330965280532837,0.03876227140426636,0.027630358934402466,0.15789705514907837,2.612947940826416,0.8278956413269043,-1.6776360273361206,1.1461110278513473,0.30262973821091976,1.1865345065545
1687017462.519209,0.9115698337554932,-0.26763319969177246,-0.31211069226264954,0.06763249635696411,0.1233917772769928,0.13217908143997192,2.541698455810547,1.1325541734695435,-1.7973411083221436,1.240918712215731,0.27093576996583596,1.0342634418433754
1687017462.587933,0.9490706920623779,-0.2113047093153,-0.233699232339859,0.14165812730789185,0.05275055766105652,0.1198839545249939,2.5752952098846436,0.8270922303199768,-2.1464433670043945,1.3293595353286682,0.21290961576111384,0.8705267742325855
1687017462.681363,0.9759132266044617,-0.12141510099172592,-0.1812506765127182,0.10787278413772583,-0.07325658947229385,0.010520175099372864,0.8353217840194702,0.7437766790390015,-2.2752206325531006,1.3871644426237961,0.12171540573494281,0.7640917327696714
1687017462.697804,0.9889724254608154,-0.009278099052608013,-0.14780840277671814,0.16591942310333252,0.05000374838709831,-0.051929086446762085,0.3239198327064514,0.5567871332168579,-2.53509783744812,1.4224379136014824,0.009278232542334428,0.7194895415700662
1687017462.7677531,0.9846342206001282,0.1160963699221611,-0.1304509937763214,0.16926604509353638,-0.005836397409439087,-0.1146966814994812,0.297166645526886,0.1710413098335266,-2.546473979949951,1.4390766705107767,-0.11635875961119913,0.6882048729198413
1687017462.773196,0.9634957313537598,0.2358049899339676,-0.12677614390850067,0.11496508121490479,-0.059306591749191284,-0.08020931482315063,0.07197711616754532,0.056532926857471466,-2.5080106258392334,1.4399685339138462,-0.23804683240346092,0.6592996244164538
1687017462.8614821,0.9261692762374878,0.35500189661979675,-0.12721779942512512,0.14777493476867676,-0.04176947474479675,-0.07834857702255249,-0.3394245207309723,-0.15530359745025635,-2.5073201656341553,1.4342914341267,-0.3629160961045529,0.6491366065096269
1687017462.878237,0.8757964968681335,0.4658353328704834,-0.12640489637851715,0.124752938747406,-0.11235019564628601,-0.10940438508987427,-0.640175461769104,-0.2248556911945343,-2.304875135421753,1.427454834324883,-0.4845783862155657,0.6518870005771906
1687017462.944962,0.819382905960083,0.5614027380943298,-0.1159258484840393,0.05854684114456177,-0.24894851446151733,-0.08591733872890472,-1.3402049541473389,-0.44329845905303955,-1.9175746440887451,1.4302496636292148,-0.596079859959998,0.6919965875896595
1687017462.9584079,0.7622819542884827,0.6402245759963989,-0.09507269412279129,0.06794875860214233,-0.10361874103546143,-0.13440418243408203,-1.1623302698135376,-0.6606675982475281,-1.6857640743255615,1.4467158925738204,-0.6947905672787439,0.7633765931961322
1687017463.0744581,0.7089879512786865,0.6993144750595093,-0.09107992798089981,0.0015071630477905273,-0.11952626705169678,-0.06973236799240112,-0.7738255858421326,-0.7270214557647705,-1.3826090097427368,1.4430314062171916,-0.7744380559673766,0.810798909045463
1687017463.130717,0.6549608111381531,0.7497435212135315,-0.09439978748559952,-0.033546507358551025,-0.10333538055419922,-0.014212250709533691,-0.3469402492046356,-0.4829643964767456,-1.3906797170639038,1.4276516709300917,-0.8476743881875708,0.8308650556041219
1687017463.145146,0.6014196276664734,0.7949303388595581,-0.07987639307975769,-0.020212292671203613,-0.10526365041732788,-0.020450107753276825,-0.9619843363761902,-0.23344410955905914,-1.4004979133605957,1.4387559887210906,-0.9188927545812056,0.8706285277957342
1687017463.148746,0.5484240055084229,0.834288477897644,-0.05651693046092987,0.052619874477386475,-0.08651614189147949,-0.03657687455415726,-0.6010798215866089,-0.2787427008152008,-1.1403462886810303,1.4681054745177657,-0.9868409766906883,0.9233591563791812
1687017463.18531,0.509315550327301,0.8599335551261902,-0.03334972262382507,0.07080841064453125,-0.1412292718887329,-0.023016154766082764,-0.8685184121131897,-0.2864695191383362,-0.7771358489990234,1.5054101755746385,-1.0351394756765582,0.9833145719706214
1687017463.246135,0.48108336329460144,0.8766249418258667,-0.009373201988637447,0.06306043267250061,-0.07892590761184692,-0.0750994086265564,-0.5825735330581665,-0.38183721899986267,-0.5095630288124084,1.5513152621602746,-1.0688025258937288,1.0532229812893696
1687017463.339635,0.4619848430156708,0.8868777751922607,0.0042398241348564625,0.05673778057098389,-0.09082669019699097,-0.06367278099060059,-0.43951502442359924,-0.4086352288722992,-0.2792331576347351,1.5799734784070505,-1.0905426763576547,1.107384613503908
1687017463.346457,0.45772889256477356,0.8890628218650818,0.007185577414929867,0.017155200242996216,-0.1459292769432068,0.05223214626312256,-0.13712012767791748,-0.17517158389091492,0.03406861796975136,1.58649336413583,-1.0952938834376884,1.1324608391755762
1687017463.394561,0.46043893694877625,0.8872583508491516,0.02772630751132965,0.01998409628868103,-0.03670293092727661,0.05354201793670654,-0.7850722670555115,0.13028527796268463,0.12808114290237427,1.6309408222169681,-1.091367109950182,1.1819683403775938
1687017463.492013,0.4635203778743744,0.8839856386184692,0.060978759080171585,-0.028736382722854614,0.12500178813934326,0.06139683350920677,-0.51448655128479,0.22424034774303436,-0.03227398544549942,1.7016008954388875,-1.0843198741871263,1.252573035530418
1687017463.499181,0.4641497731208801,0.8818615078926086,0.08297859877347946,0.005073279142379761,0.005391299724578857,-0.031953103840351105,-0.4313773512840271,-0.028537487611174583,0.031072895973920822,1.7477029263899309,-1.0797956861673947,1.3000264363144407
1687017463.5443559,0.46302491426467896,0.8809128403663635,0.09798357635736465,0.02766728401184082,0.06615447998046875,0.028206706047058105,-0.16992054879665375,-0.11866462975740433,-0.06180111691355705,1.7793359565453535,-1.0777875257794438,1.3393430597231026
1687017463.640746,0.462415486574173,0.8811379075050354,0.09883388131856918,-0.01263207197189331,-0.025257110595703125,0.018689393997192383,-0.1879945546388626,-0.14543987810611725,-0.016983311623334885,1.781362044756193,-1.0782632258110112,1.3491897669545372
1687017463.6491861,0.46103352308273315,0.8815387487411499,0.10167380422353745,-0.011784255504608154,0.019797861576080322,0.0015519708395004272,0.007642375770956278,-0.1639319807291031,-0.0719640702009201,1.7878564192807578,-1.0791116717254086,1.3647119053206427
1687017463.694165,0.4590326249599457,0.882926344871521,0.09864217787981033,0.012280881404876709,-0.0029824376106262207,0.009451143443584442,0.017124516889452934,-0.08179964125156403,-0.0388697013258934,1.7824687103057038,-1.0820588732723362,1.3642116680269638
1687017463.76075,0.45798003673553467,0.8837696313858032,0.09594698995351791,0.011899203062057495,-0.005671977996826172,0.024353384971618652,-0.02404298260807991,-0.0477483794093132,-0.017438046634197235,1.777309957109114,-1.0838579531146606,1.3619033461851366
1687017463.853001,0.4578971564769745,0.8837437033653259,0.09657977521419525,0.002643674612045288,-0.005050957202911377,0.0061577558517456055,-0.04551640525460243,-0.060737594962120056,-0.011470569297671318,1.778669722238089,-1.0838025727399636,1.3663782330374115
1687017463.870415,0.4582146108150482,0.8835367560386658,0.09696637094020844,0.011161059141159058,0.005318343639373779,0.0003390312194824219,0.0326310396194458,-0.05332539230585098,-0.005189902614802122,1.7793374816293375,-1.083360535542099,1.3700663179238617
1687017463.934277,0.4585303068161011,0.8838225603103638,0.09277817606925964,-0.004642307758331299,-0.00856316089630127,0.006831280887126923,0.05628488212823868,-0.0567658431828022,-0.000456932932138443,1.7704390953713158,-1.0839711723332361,1.3630245367476224
1687017463.948684,0.4583200514316559,0.884168803691864,0.09049104154109955,0.009148359298706055,-0.0009288787841796875,0.00013101845979690552,0.03093811124563217,-0.021480556577444077,-0.017904432490468025,1.7657298315545877,-1.0847117651756415,1.3594663390245019
1687017464.026257,0.45793792605400085,0.8844107389450073,0.09005925804376602,0.004632323980331421,0.004245936870574951,-0.0019091442227363586,0.026776744052767754,0.015729041770100594,-0.007688014302402735,1.764980778375017,-1.0852298823538806,1.3585710475089803
1687017464.124391,0.4573679268360138,0.8848069310188293,0.08905965089797974,0.002409994602203369,-0.00515294075012207,0.00029587745666503906,0.02840358205139637,0.010102668777108192,-0.017798172309994698,1.7631118955926846,-1.086079439656576,1.3557691317947835
1687017464.132217,0.456337034702301,0.8854789137840271,0.08765745162963867,0.010749846696853638,0.005039334297180176,-0.005732893943786621,0.053689055144786835,0.0005239890888333321,-0.02578246220946312,1.7605739826015203,-1.0875236196693334,1.3524267778151293
1687017464.20836,0.45533472299575806,0.886127233505249,0.08630965650081635,0.0066100358963012695,-0.010837018489837646,0.009225748479366302,0.011556822806596756,0.013380222022533417,-0.020707344636321068,1.7581259538325658,-1.0889206587730211,1.349514600823723
1687017464.214421,0.45467960834503174,0.8865053057670593,0.08587708324193954,0.004762589931488037,0.005706608295440674,-0.003327019512653351,0.029481850564479828,0.0224457997828722,-0.013993781059980392,1.7574711368193314,-1.0897371166412189,1.347910104734915
1687017464.303087,0.454139769077301,0.886862576007843,0.08504229038953781,0.005744963884353638,-0.0008761882781982422,0.0011241436004638672,0.0404549166560173,0.029747210443019867,-0.015395468100905418,1.7559125766233556,-1.0905098307614893,1.3447955304005348
1687017464.309016,0.45354437828063965,0.8872576951980591,0.08409154415130615,0.00788143277168274,-0.00023376941680908203,0.0034024640917778015,0.013565867207944393,0.025536397472023964,-0.01350688748061657,1.7541242406935946,-1.0913656536543486,1.3412794462388793
1687017464.422822,0.4526667892932892,0.887663722038269,0.08453495055437088,0.0055242180824279785,0.005585849285125732,0.002547025680541992,0.014192775823175907,0.014612377621233463,-0.02750406414270401,1.7554184313983352,-1.0922466799827337,1.3414874239601255
1687017464.4306068,0.4515872597694397,0.8882811069488525,0.08381945639848709,0.004391193389892578,0.002633810043334961,-0.0016203001141548157,0.005387788638472557,0.007058764807879925,-0.03293817490339279,1.75431858906861,-1.0935891343630115,1.3399346868996007
1687017464.508651,0.45095720887184143,0.8885611891746521,0.08424156904220581,-1.4156103134155273e-05,-0.0026969313621520996,-0.004743225872516632,-0.03597470000386238,-0.027736766263842583,-0.018787670880556107,1.755473892367355,-1.094199307141699,1.3416843075659757
1687017464.516566,0.45074886083602905,0.8886696100234985,0.08421295881271362,0.0038257837295532227,0.0012534856796264648,-0.008453018963336945,0.0025505456142127514,-0.011883057653903961,-0.002587328664958477,1.7554959787662103,-1.0944356504159183,1.3426730975775767
1687017464.599458,0.4505697190761566,0.8887944221496582,0.08385567367076874,0.00035813450813293457,-0.0034794211387634277,-0.0017023086547851562,0.009402858093380928,-0.0013151010498404503,-0.01007174327969551,1.7548014545567707,-1.094707967987055,1.3423660860918858
1687017464.6149158,0.45051345229148865,0.8888586759567261,0.08347630500793457,0.007128238677978516,0.0009272098541259766,-0.0011551380157470703,0.005270520690828562,0.028680259361863136,-0.0023227434139698744,1.7540099104038185,-1.0948481052548622,1.3409588538980686
1687017464.688139,0.45104914903640747,0.8884915709495544,0.08448400348424911,0.0002906322479248047,5.823373794555664e-05,-0.002406962215900421,-0.010073015466332436,0.02485729195177555,0.02447771094739437,1.7559564171080022,-1.0940475406698038,1.3417632267142479
1687017464.704633,0.4523753225803375,0.8877787590026855,0.08488642424345016,0.006593853235244751,-0.008231580257415771,0.015409708023071289,-0.0028349875938147306,0.0443001426756382,0.042420893907547,1.75628532259679,-1.0924965509568174,1.3406163005596665
1687017464.744973,0.4549596905708313,0.8861218094825745,0.08831646293401718,0.015621334314346313,-0.009565472602844238,0.022096142172813416,-0.057175811380147934,0.07400672882795334,0.0952104702591896,1.7625310340045786,-1.0889089457592958,1.3440520789689228
1687017464.80767,0.46134427189826965,0.8829458951950073,0.08699516952037811,0.01685100793838501,-0.027889132499694824,0.05327892303466797,0.19264192879199982,0.05809789150953293,0.21078753471374512,1.7571766563377567,-1.0821005625705242,1.3348374209256426
1687017464.9024649,0.47284257411956787,0.8772866725921631,0.0823923870921135,0.05689695477485657,-0.05706554651260376,0.02678430825471878,0.08932432532310486,0.17963072657585144,0.3403812050819397,1.7433133040322137,-1.0701794395326811,1.3111373998196654
1687017464.920865,0.4921582043170929,0.8655555844306946,0.0927053764462471,0.12170299887657166,-0.08026188611984253,-0.05645036697387695,-0.506463348865509,0.04405122995376587,0.7037649154663086,1.7569797644831822,-1.046258659230987,1.3210975377616636
1687017464.985924,0.528598964214325,0.8401078581809998,0.12166306376457214,0.10180264711380005,-0.05833911895751953,-0.12381447851657867,-0.5845975279808044,-0.0736984834074974,0.9523090124130249,1.797017979287633,-0.9974820800189017,1.3696233291375768
1687017464.99965,0.5733384490013123,0.8095102906227112,0.12639717757701874,0.02611839771270752,-0.07786661386489868,-0.13985539972782135,0.0483301505446434,-0.18650971353054047,1.152121663093567,1.7877836690694169,-0.9433174990254272,1.3678200686822095
1687017465.0753388,0.6256044507026672,0.7711832523345947,0.11788039654493332,-0.0019623637199401855,-0.12039583921432495,-0.18959665298461914,0.01900852657854557,-0.2033698409795761,1.464019536972046,1.7570390727724912,-0.8806977172458519,1.34122209399634
1687017465.0801558,0.690564751625061,0.715813159942627,0.10359563678503036,0.00451892614364624,-0.04972118139266968,-0.17538821697235107,0.34170305728912354,-0.33708909153938293,1.8269917964935303,1.7197017446444096,-0.7977878900294777,1.3089604488233715
1687017465.135625,0.7649124264717102,0.6413019895553589,0.06033984199166298,-0.02644801139831543,-0.19055742025375366,-0.1514805555343628,0.8909201622009277,-0.638246476650238,2.458416223526001,1.6495179500876718,-0.6961939741837563,1.2412404802478862
1687017465.231368,0.8454027771949768,0.5340834259986877,0.007029679603874683,-0.007496654987335205,-0.14986705780029297,-0.11896812915802002,0.5684210658073425,-0.9397794604301453,2.8882522583007812,1.5791113186446077,-0.5634231950847154,1.1885608696533827
1687017465.2477121,0.9163633584976196,0.3952040374279022,-0.06397096067667007,0.04202604293823242,-0.04754781723022461,-0.06850582361221313,0.5169339776039124,-1.5358049869537354,3.393399953842163,1.501099798467402,-0.40628996233523546,1.1590101890345836
1687017465.285224,0.9619315266609192,0.23189033567905426,-0.1446194350719452,0.13593840599060059,0.05314384400844574,-0.07413046061992645,0.0552205927670002,-1.822464942932129,3.522427797317505,1.4215711813007303,-0.23402054021073038,1.1655563596108351
1687017465.3814301,0.9667319655418396,0.06135266274213791,-0.24832449853420258,0.3217353820800781,0.0648374855518341,-0.05968937277793884,-0.6009235978126526,-2.511838912963867,3.5965216159820557,1.3193622507455776,-0.0613912169514029,1.2112848706378336
1687017465.396939,0.9230600595474243,-0.08113303035497665,-0.37600237131118774,0.34135955572128296,0.02990923821926117,0.037699759006500244,-2.287543535232544,-2.7155184745788574,3.3306119441986084,1.1839755639076845,0.08122230393922474,1.3322023225449442
1687017465.467945,0.8471994996070862,-0.14109930396080017,-0.5121954083442688,0.2923727035522461,0.09646731615066528,0.2198064923286438,-3.430020809173584,-2.6704132556915283,2.2794151306152344,1.0270198356679345,0.14157174047313864,1.5268208215999393
1687017465.622984,0.7626839280128479,-0.11000311374664307,-0.6373480558395386,0.0764884352684021,0.09314212203025818,0.17264169454574585,-3.899495840072632,-2.2672717571258545,1.603559970855713,0.8746837026849889,0.11022618150426884,1.7321685435877257
1687017465.639221,0.686202883720398,-0.035766590386629105,-0.7265303730964661,0.08284008502960205,0.0025176890194416046,0.20490866899490356,-3.5237019062042236,-1.8989310264587402,1.3586883544921875,0.7568601750306495,0.03577421909824959,1.9164682157730775
1687017465.707674,0.6270549297332764,0.05863810330629349,-0.7767649292945862,0.08922320604324341,-0.0533432811498642,0.2724924683570862,-3.747518539428711,-1.221076250076294,1.1706995964050293,0.6791549555318455,-0.05867176096965646,2.0792513651555438
1687017465.7133799,0.5942080020904541,0.18235042691230774,-0.783367931842804,0.0822598934173584,-0.11888909339904785,0.23782038688659668,-4.336165904998779,-0.7610592842102051,1.1256814002990723,0.6489379639263017,-0.1833764295165431,2.2478086021156156
1687017465.71807,0.5834736824035645,0.32753580808639526,-0.7431546449661255,0.16525983810424805,-0.02992832660675049,0.1904813051223755,-4.746002197265625,-0.5673662424087524,0.9442486763000488,0.6656084249805264,-0.33369434092732686,2.4351557130264534
1687017465.796545,0.5879292488098145,0.461713969707489,-0.6641983985900879,0.09430646896362305,0.004823595285415649,0.1444535255432129,-4.398113250732422,-0.1470552682876587,0.8724460005760193,0.7245617192620907,-0.479926491728542,2.6305011251188746
1687017465.811304,0.6078077554702759,0.5588016510009766,-0.5641902089118958,0.04586350917816162,-0.03656947612762451,0.07987630367279053,-3.5223259925842285,-0.041623108088970184,0.9482121467590332,0.8225973916535689,-0.5929400681977645,2.8314282080345325
1687017465.888781,0.6390852332115173,0.6035464406013489,-0.4767618775367737,0.017012178897857666,0.041900455951690674,-0.06085097789764404,-2.104875087738037,0.1413203477859497,0.9727770090103149,0.9298558195350587,-0.6479415586838955,3.0055757269516215
1687017465.90535,0.6671027541160583,0.6023983955383301,-0.43828099966049194,0.03028494119644165,0.03168070316314697,-0.07427692413330078,-0.6437031626701355,-0.023104552179574966,0.8200662732124329,0.9895216933552888,-0.6465024967414214,3.1011061892030556
1687017465.946988,0.6872774362564087,0.5903193354606628,-0.42328813672065735,-0.01929342746734619,0.03312426805496216,-0.0489865243434906,-0.5232924222946167,-0.01544920727610588,0.5399121046066284,1.0187739725330924,-0.6314544325850006,-3.1313894784601786
1687017465.9597158,0.6980971097946167,0.5913923978805542,-0.40362799167633057,0.0110856294631958,0.024086177349090576,-0.04801681637763977,-0.8385882377624512,-0.0015280651859939098,0.23705589771270752,1.046573084521376,-0.6327844553665312,-3.0843188212837127
1687017466.003947,0.702229380607605,0.5988093018531799,-0.3850993812084198,0.002589404582977295,0.06276613473892212,-0.04895204305648804,-0.28760701417922974,-0.03654028847813606,0.06317097693681717,1.0691858720466365,-0.6420135672954324,-3.045664993642715
1687017466.064868,0.7011805176734924,0.599073052406311,-0.38659703731536865,0.010794520378112793,0.02208179235458374,-0.016692668199539185,0.1504441350698471,-0.08101685345172882,-0.020615996792912483,1.0669159872103577,-0.6423429260135637,-3.0440222036112203
1687017466.127368,0.6992017030715942,0.5962276458740234,-0.3944992423057556,0.010469257831573486,-0.022314012050628662,0.0022416412830352783,0.1416986733675003,-0.05390410125255585,-0.008381834253668785,1.0571059670338785,-0.6387939434024642,-3.0544749876873625
1687017466.186359,0.6983005404472351,0.5954156517982483,-0.3973119854927063,0.011996090412139893,-0.02299731969833374,0.0013159513473510742,-0.02371048554778099,-0.03204478323459625,-0.01152176782488823,1.0535056441545054,-0.6377828877122019,-3.0573633535905596
1687017466.280836,0.6980091333389282,0.5964037775993347,-0.3963406980037689,0.005756795406341553,-0.023924410343170166,0.012444913387298584,-0.03383129835128784,-0.00970618985593319,0.010608168318867683,1.0543778089034492,-0.6390133680725693,-3.0543403468897328
1687017466.297754,0.6991724371910095,0.594858705997467,-0.3966119587421417,0.013397753238677979,-0.040277957916259766,0.0003871023654937744,0.005334791727364063,-0.011387886479496956,0.0622839480638504,1.0547989542782956,-0.6370898611580225,-3.053351939658345
1687017466.33306,0.701828122138977,0.5920098423957825,-0.39618396759033203,0.005432009696960449,-0.032790422439575195,0.0036822259426116943,-0.058698832988739014,0.0013648378662765026,0.09520920366048813,1.056886732501515,-0.6335503707401793,-3.0496385479219863
1687017466.431431,0.7051228284835815,0.5891087651252747,-0.3946552276611328,0.001099705696105957,-0.020383059978485107,-0.007551133632659912,0.00596116716042161,0.0033817386720329523,0.10773810744285583,1.060538592854319,-0.6299554462980422,-3.0441445522680737
1687017466.449092,0.7086511850357056,0.5850252509117126,-0.3944096863269806,0.011746704578399658,-0.02423417568206787,-0.0003350675106048584,-0.07050821930170059,0.004293516278266907,0.12072049081325531,1.0629276153499545,-0.6249111941819973,-3.0405745207651504
1687017466.553189,0.7119120359420776,0.582197904586792,-0.39271727204322815,-0.0016764402389526367,0.008225798606872559,-0.0070476531982421875,-0.009468832984566689,0.009652595035731792,0.08828079700469971,1.0666969191033195,-0.6214293412485569,-3.0347442108418594
1687017466.572788,0.7149690985679626,0.5787516236305237,-0.3922574818134308,0.007092118263244629,-0.002793252468109131,-0.004547238349914551,-0.00895368866622448,0.01011296734213829,0.09216327965259552,1.0690012548831684,-0.6171970198004135,-3.0316675633853336
1687017466.637793,0.717425525188446,0.5760109424591064,-0.39180612564086914,0.003353893756866455,0.01267319917678833,-0.009164243936538696,0.010785572230815887,-0.0039255316369235516,0.07182671874761581,1.070930768731869,-0.6138403219356451,-3.0281770223304867
1687017466.6435618,0.7192298769950867,0.5731630325317383,-0.3926737606525421,0.011727213859558105,-0.00047004222869873047,-0.0032001733779907227,-0.010174437426030636,-0.0021209735423326492,0.06295459717512131,1.0710568928838449,-0.6103606345055264,-3.0277889817805423
1687017466.732203,0.7204405069351196,0.572049081325531,-0.39207854866981506,0.0053591132164001465,0.002902209758758545,-0.0017202496528625488,-0.03442242741584778,-0.0043951356783509254,0.045239247381687164,1.0724011122651436,-0.6090019099733536,-3.024550133535006
1687017466.748662,0.7215035557746887,0.5710282921791077,-0.3916111886501312,0.004646897315979004,-0.0011429786682128906,-0.0037439167499542236,-0.02915279008448124,-0.005457648541778326,0.043468449264764786,1.073520169991712,-0.6077579204015173,-3.022042326996539
1687017466.783519,0.7225692868232727,0.5702586770057678,-0.3907668888568878,0.005900561809539795,-0.002341747283935547,-0.0019027292728424072,-0.04304015263915062,-0.0035258796997368336,0.03844912350177765,1.0750423713428126,-0.6068207247118896,-3.0188500580144093
1687017466.9124641,0.7235473394393921,0.5698774456977844,-0.38951119780540466,0.00371706485748291,-8.374452590942383e-05,0.00027486681938171387,-0.05423466116189957,-0.008114594966173172,0.03604748472571373,1.0769526639438536,-0.6063567373992264,-3.015091315385861
1687017466.929858,0.7243521213531494,0.5688163042068481,-0.3895665109157562,0.007413685321807861,-0.0009909272193908691,-0.00020390748977661133,0.049284227192401886,-0.010390887968242168,0.023796075955033302,1.077357312437286,-0.6050659604974719,-3.01385854701605
1687017466.996012,0.7249268889427185,0.567104697227478,-0.3909902274608612,0.004427969455718994,-0.0026361942291259766,6.014108657836914e-05,0.006892962846904993,-0.007746368646621704,0.03371069207787514,1.0761654731748451,-0.6029863554600469,-3.014903672814348
1687017467.0096521,0.7257573008537292,0.5659401416778564,-0.3911370635032654,0.007488608360290527,-0.00211256742477417,0.0034112930297851562,0.014743783511221409,0.005142176989465952,0.029166540130972862,1.0764868596549044,-0.6015731745430033,-3.0139206507535827
1687017467.0883322,0.7266564965248108,0.5640300512313843,-0.3922252953052521,0.009320735931396484,-0.0014841556549072266,0.003477156162261963,0.028654716908931732,-0.002415252849459648,0.03521684184670448,1.0758433822174418,-0.5992581429290692,-3.0146809622352504
1687017467.103028,0.7275550961494446,0.562764585018158,-0.39237716794013977,0.004103899002075195,-0.0005543828010559082,0.0036138296127319336,0.0051006111316382885,-0.001033693552017212,0.021822407841682434,1.0761980255929162,-0.5977264349712629,-3.0138601203007016
1687017467.179096,0.7282628417015076,0.5611594319343567,-0.3933615982532501,0.007531225681304932,0.001554250717163086,0.003453880548477173,0.06113671883940697,0.0002321065403521061,0.02013382874429226,1.0755571114838591,-0.5957858990275952,-3.015066045679688
1687017467.192058,0.7289189100265503,0.5592040419578552,-0.39492788910865784,0.005059301853179932,0.0022736787796020508,0.004806548357009888,0.08929036557674408,0.015294767916202545,0.012224440462887287,1.074270908145705,-0.5934253975528049,-3.0180126937478287
1687017467.266663,0.7296668887138367,0.5565033555030823,-0.39735421538352966,0.00846177339553833,-0.005874574184417725,0.0012513399124145508,0.10196568071842194,0.011734121479094028,0.014256964437663555,1.072132110674802,-0.5901712881446631,-3.0232439154295156
1687017467.280233,0.730401873588562,0.5545222163200378,-0.3987712264060974,0.010229289531707764,-0.008150637149810791,-0.0034809112548828125,0.06855233013629913,0.010772187262773514,0.012477707117795944,1.0710590598169378,-0.5877886801471714,-3.026600737046534
1687017467.325018,0.7312005758285522,0.5520166158676147,-0.4007786512374878,0.008362412452697754,-0.0022575855255126953,-0.0020685791969299316,0.13661226630210876,0.005341292358934879,0.013081979006528854,1.069405020241181,-0.5847807797505626,-3.030666613735344
1687017467.453195,0.7318193316459656,0.5481356978416443,-0.4049539864063263,0.006233036518096924,-0.010599017143249512,-0.00022777915000915527,0.15863162279129028,0.013157847337424755,0.0188092403113842,1.065382933505005,-0.5801336322891473,-3.039036302111432
1687017467.47,0.7326502799987793,0.5438568592071533,-0.40919843316078186,0.003723621368408203,-0.01265251636505127,9.512901306152344e-05,0.14727683365345,0.01069735363125801,0.026751119643449783,1.0614368697361434,-0.5750262747277063,-3.0472341586092995
1687017467.536632,0.7339082956314087,0.5407131910324097,-0.4111059904098511,0.006356656551361084,-0.020388364791870117,0.0002173781394958496,0.034705597907304764,0.018901042640209198,0.037301965057849884,1.060186284398807,-0.5712846999508544,-3.051103861562858
1687017467.550983,0.7351571917533875,0.5383719801902771,-0.41194599866867065,0.010082066059112549,-0.013728976249694824,-0.002055346965789795,0.1049099862575531,0.017623525112867355,0.031854867935180664,1.060040909504436,-0.5685040100819213,-3.0531115195803293
1687017467.627369,0.7367522716522217,0.5343089699745178,-0.4143792390823364,0.00664067268371582,-0.013663768768310547,0.012356013059616089,0.12540055811405182,0.0265737883746624,0.03813493624329567,1.0584521456108935,-0.5636900376766897,-3.0581281686556356
1687017467.63394,0.73895663022995,0.5292922854423523,-0.4168849289417267,0.010173678398132324,-0.013758718967437744,0.008864998817443848,0.15395134687423706,0.03852037340402603,0.0626530647277832,1.0571517232718803,-0.5577662189585472,-3.063940652659589
1687017467.72035,0.7418342232704163,0.5239896774291992,-0.4184695780277252,0.00728076696395874,-0.007449090480804443,0.009015321731567383,0.13491594791412354,0.05331787094473839,0.07167571038007736,1.0571913472452035,-0.5515284517214232,-3.0686158776997563
1687017467.7375631,0.7451106309890747,0.5184593200683594,-0.41953569650650024,0.007361352443695068,-0.0021017789840698242,0.0070296525955200195,0.11491632461547852,0.06663855910301208,0.07288625836372375,1.0579879793815306,-0.5450482303839106,-3.073014088938599
1687017467.7736359,0.7482056617736816,0.5139861106872559,-0.4195316433906555,0.0027862191200256348,-0.0004819631576538086,0.002753138542175293,0.1069440245628357,0.07501712441444397,0.060256149619817734,1.0597623358694834,-0.5398252516622778,-3.076581677275974
