Timestamp,gravityX,gravityY,gravityZ,accelerationX,accelerationY,accelerationZ,rotationRateX,rotationRateY,rotationRateZ,attitudeRoll,attitudePitch,attitudeYaw
1687006764.850717,0.8754602074623108,0.48319515585899353,-0.009591851383447647,0.003110349178314209,-0.013376951217651367,-0.008916914463043213,-0.044453661888837814,0.03996144235134125,-0.02290184423327446,1.5598404120249183,-0.5043005189158422,0.21235034119530413
1687006764.859356,0.8754216432571411,0.4832833707332611,-0.008633927442133427,0.010152876377105713,-0.006324023008346558,-0.011644900776445866,-0.048522308468818665,0.0021288441494107246,0.006022547837346792,1.5609340535024832,-0.504401295385469,0.2136324871940138
1687006764.910717,0.8754296898841858,0.4832713007926941,-0.008477994240820408,0.004682064056396484,0.004033446311950684,-0.012823164463043213,0.016580618917942047,0.0009753406047821045,-0.02279498428106308,1.5611122482425632,-0.5043875041775765,0.21422782492348103
1687006764.925043,0.8751780390739441,0.4837176501750946,-0.008991258218884468,0.004002928733825684,-0.004759460687637329,-0.00876986887305975,-0.008907697163522243,-0.020331813022494316,0.002558707492426038,1.5605230550587659,-0.5048973955911326,0.21535861578950302
1687006764.928927,0.8752127289772034,0.48362070322036743,-0.010677379556000233,0.005097448825836182,-0.0033655166625976562,-6.473064422607422e-05,-0.0025694621726870537,-0.017339129000902176,-0.005008132196962833,1.5585971787750494,-0.5047866498817968,0.2144313426344509
1687006764.99389,0.8751341700553894,0.48372551798820496,-0.012251644395291805,0.001498579978942871,-0.002310633659362793,0.006606042385101318,-0.029276397079229355,-0.03232864290475845,0.0100712850689888,1.5567975082552152,-0.5049063849424902,0.21347690645167602
1687006765.091179,0.8753684759140015,0.48329195380210876,-0.012619543820619583,-0.00015473365783691406,0.0027768313884735107,0.006989121437072754,0.011932604014873505,-0.01663028448820114,0.010099048726260662,1.5563810602228378,-0.5044111013425503,0.2153030382976556
1687006765.108595,0.8752638101577759,0.4834683835506439,-0.013097910210490227,-8.07642936706543e-05,-0.0008023381233215332,0.014135600998997688,0.013412167318165302,-0.0055312057957053185,-0.0036840082611888647,1.5558329155118102,-0.5046126266074338,0.21444826455833726
1687006765.144843,0.8753592371940613,0.4833115339279175,-0.012510369531810284,0.005042552947998047,-0.0013778209686279297,0.009336648508906364,-0.05044368654489517,-0.0031261940021067858,0.008287833072245121,1.5565056026766326,-0.5044334580596692,0.2159518262211959
1687006765.240015,0.8752463459968567,0.4835531413555145,-0.010978510603308678,-0.0013753771781921387,0.008512437343597412,0.009025453589856625,-0.009565542452037334,0.008226506412029266,-0.01367199420928955,1.5582536465395618,-0.5047094510640217,0.2179984565441393
1687006765.256743,0.8750593066215515,0.4839100241661072,-0.010125392116606236,-0.0010052919387817383,0.0038524866104125977,0.005730986595153809,-0.002835290040820837,0.010591482743620872,-0.0037105733063071966,1.55922575104682,-0.5051172303985688,0.2183139719612715
1687006765.295234,0.8748239278793335,0.48436084389686584,-0.008833431638777256,0.00142747163772583,0.007613182067871094,0.004805206321179867,0.007831957191228867,0.02557886391878128,-0.015929754823446274,1.5606992875663699,-0.5056324397105162,0.21927891223271959
1687006765.3919868,0.8744713068008423,0.48501157760620117,-0.008003463968634605,0.0006966590881347656,-0.013957411050796509,0.004082083702087402,-0.04538954049348831,0.009460970759391785,-0.001742430729791522,1.561644236472578,-0.5063763941199639,0.21845347000492513
1687006765.408263,0.8747971653938293,0.48444703221321106,-0.006413000635802746,-0.0010330677032470703,-0.002315014600753784,0.0002638697624206543,-0.03663400188088417,0.012464483268558979,0.004039091989398003,1.563465614865089,-0.5057309699970087,0.22104672210138213
1687006765.445138,0.8745260238647461,0.4849506616592407,-0.005196660291403532,-0.00035005807876586914,0.00397142767906189,-0.003287135623395443,0.020272603258490562,0.028329821303486824,-0.032800547778606415,1.564854137261482,-0.5063067642584849,0.221023067568562
1687006765.543535,0.8744007349014282,0.48518913984298706,-0.003870865795761347,0.006367087364196777,-0.009267479181289673,-0.0077256555669009686,-0.025285692885518074,0.010756154544651508,0.019640088081359863,1.5663694771276568,-0.506579448492793,0.22213139382433217
1687006765.5517468,0.8745002746582031,0.48501935601234436,-0.002455390989780426,0.0005151629447937012,0.01234099268913269,-0.004075229167938232,-0.014818627387285233,0.016576316207647324,-0.014861761592328548,1.56798856935862,-0.5063853169373205,0.224469243282561
1687006765.5969992,0.8740436434745789,0.48584333062171936,-0.0020970720797777176,0.0028181076049804688,-0.010135173797607422,-0.01191037893295288,-0.011296995915472507,0.010204968973994255,-0.015012829564511776,1.56839705533371,-0.5073277652830651,0.22384494977651195
1687006765.689914,0.8740696907043457,0.4857982397079468,-0.0014813193120062351,0.0059046149253845215,-0.006840109825134277,-0.006392061710357666,-0.06522485613822937,-0.021634541451931,0.01885991543531418,1.5691015902103873,-0.5072761954646366,0.2259373700942388
1687006765.785202,0.8743882179260254,0.4852261245250702,-0.0010481905192136765,0.00012356042861938477,0.016421884298324585,-0.0029494762420654297,0.014046487398445606,0.0030627259984612465,-0.013989975675940514,1.5695975572211829,-0.5066217615673159,0.22917927749016762
1687006765.801602,0.8740021586418152,0.4859176278114319,-0.002159979660063982,0.008978307247161865,-0.0006727874279022217,0.00020694732666015625,0.07952500879764557,0.009540953673422337,0.0007796493591740727,1.5683249653874123,-0.5074127669627679,0.22610985122236182
1687006765.805666,0.8741737008094788,0.4856093227863312,-0.002087073866277933,0.0030390024185180664,-0.0019665956497192383,-0.0010408761445432901,-0.0538223534822464,-0.019702862948179245,0.022387806326150894,1.568408849506207,-0.5070600468531195,0.22790317237487667
1687006765.832844,0.8741260170936584,0.48569217324256897,-0.002691213507205248,0.0033002495765686035,0.014399468898773193,0.009145796298980713,0.07670187950134277,0.02117222175002098,-0.02823229506611824,1.5677175885536614,-0.5071548290320451,0.22614716564985285
1687006765.962543,0.8736923336982727,0.4864684045314789,-0.0032449853606522083,0.0023148059844970703,-0.0046415627002716064,-0.0015919208526611328,0.012796844355762005,0.0029701367020606995,-0.0008418163051828742,1.5670822387112104,-0.5080430694470108,0.2235446590055559
1687006765.970653,0.8735878467559814,0.48665302991867065,-0.0036691073328256607,0.00603562593460083,0.014750868082046509,-0.0011983513832092285,0.058721236884593964,0.012144815176725388,-0.013765004463493824,1.5665963076380578,-0.5082543842356549,0.221838982065629
1687006766.0544782,0.8727087378501892,0.4882298409938812,-0.0033841177355498075,-0.008359193801879883,0.012807905673980713,-0.012622237205505371,0.0131790516898036,0.00891466811299324,-0.04075494408607483,1.5669186290004915,-0.5100602480838164,0.2228125729090805
1687006766.070095,0.8716562390327454,0.49010059237480164,-0.004164434969425201,0.0018485784530639648,-0.005832254886627197,0.008604884147644043,0.006807394325733185,0.0018406901508569717,-0.03711367025971413,1.566018751583952,-0.5122051463334794,0.21912129626836968
1687006766.143678,0.8711250424385071,0.4910537898540497,-0.002784391865134239,0.001799941062927246,0.003331124782562256,0.0015790460165590048,-0.07488440722227097,-0.014772375114262104,0.013792453333735466,1.5676000204242542,-0.5132990211486688,0.2236096180726051
1687006766.1504931,0.8710044622421265,0.49127450585365295,-0.0006177854374982417,0.006635189056396484,-0.005816161632537842,0.0088881254196167,-0.14002564549446106,-0.013981238007545471,-0.008888822980225086,1.5700870475822055,-0.5135524225979945,0.2290432992433138
1687006766.230328,0.8709143996238708,0.49143311381340027,0.001391565427184105,0.0034447908401489258,-0.0007256269454956055,0.0018587112426757812,0.0558815523982048,0.03416924551129341,-0.0007747046183794737,1.57239414662624,-0.5137345179823852,0.23287666287953193
1687006766.246072,0.8711926341056824,0.4909377694129944,0.0019087992841377854,0.008110344409942627,-0.03433370590209961,-0.01254415512084961,-0.140679270029068,-0.03145068883895874,0.040405355393886566,1.5729873419101623,-0.5131658601212582,0.2339164376250133
1687006766.286886,0.872168779373169,0.48918822407722473,0.004066570661962032,-0.0004037022590637207,0.015664100646972656,-0.0012283329851925373,-0.07814864814281464,-0.020447837188839912,0.018911847844719887,1.5754588890190542,-0.511158757241416,0.24161986995437867
1687006766.385476,0.8727312684059143,0.48819422721862793,0.002582669723778963,0.0011700987815856934,0.010432511568069458,-0.007816314697265625,0.09951278567314148,-0.0006257519125938416,0.013661426492035389,1.5737556137276603,-0.510019471204143,0.2397561605663772
1687006766.401351,0.8733037114143372,0.48717013001441956,0.0024982537142932415,0.003985166549682617,-0.00464138388633728,-0.002818584442138672,-0.0398244671523571,-0.030548762530088425,0.05843641981482506,1.5736570118669762,-0.508846418646174,0.24187112168163544
1687006766.434139,0.8747926950454712,0.4844977855682373,-0.0001829786633607,-0.005316197872161865,-0.005982041358947754,0.00738525390625,0.06645874679088593,-0.02452460490167141,0.05312035232782364,1.5705871587739286,-0.5057889915728727,0.23798975078780712
1687006766.533493,0.8754016160964966,0.4833880662918091,-0.002829938195645809,-0.010564029216766357,0.014994502067565918,0.007773876190185547,0.2775258421897888,0.0420437715947628,-0.0004954055766575038,1.567563606933005,-0.5045208822539609,0.2309233908947961
1687006766.549807,0.8751618266105652,0.48380953073501587,-0.0045264908112585545,0.013601720333099365,-0.039702415466308594,0.023645877838134766,-0.050768282264471054,0.010189433582127094,0.006217824295163155,1.5656241972175584,-0.5050023907591606,0.2234301707664158
1687006766.593718,0.8751587867736816,0.4838155508041382,-0.004477102775126696,0.02092897891998291,-0.01534011960029602,0.003210783004760742,0.020333634689450264,0.02798263356089592,-0.010240310803055763,1.5656806108740078,-0.505009260176862,0.22035226747571016
1687006766.681952,0.875680148601532,0.48288992047309875,-0.0012614417355507612,-0.012093782424926758,-0.0018260478973388672,-0.009984135627746582,-0.10669657588005066,-0.002475583925843239,0.032918211072683334,1.5693557998480185,-0.5039519050568995,0.22668859630344962
1687006766.6974149,0.8769845366477966,0.48051488399505615,-0.0019247614545747638,-0.005173623561859131,0.013000190258026123,-0.002408623695373535,-0.019448310136795044,-0.023760542273521423,0.048752304166555405,1.5686015807580402,-0.5012417084711652,0.22620669297563759
1687006766.73557,0.877470850944519,0.47962480783462524,-0.002268184209242463,-0.013411343097686768,0.03743457794189453,-0.0012412071228027344,0.08937665820121765,0.02845863066613674,-0.012513652443885803,1.5682114212075864,-0.50022709289584,0.22603181095495978
1687006766.865917,0.876157820224762,0.48201411962509155,-0.0031824950128793716,0.012056350708007812,0.00527539849281311,-0.004996120929718018,0.023775281384587288,0.04127003252506256,-0.07472788542509079,1.5671640119550365,-0.5029520496799927,0.21945719045382134
1687006766.881088,0.8743028044700623,0.4853808283805847,-0.0007049855194054544,-0.002903759479522705,0.005952268838882446,-0.02322065830230713,0.03544476255774498,0.030521603301167488,-0.047862522304058075,1.5699899867238807,-0.5067986906424264,0.2228775147284365
1687006766.949208,0.8724774122238159,0.4886542856693268,0.0006837407127022743,-0.003977596759796143,-0.02770143747329712,0.01053154468536377,-0.19711977243423462,0.0026825154200196266,-0.09855752438306808,1.5715800039098777,-0.5105466770758262,0.22381863039712893
1687006766.9633489,0.8714669942855835,0.4904496669769287,0.0021663617808371782,-0.0006783604621887207,-0.0033585429191589355,-0.021041393280029297,-0.03613310307264328,-0.030478812754154205,-0.0011747779790312052,1.5732822008023017,-0.5126056801812817,0.23016798738885133
1687006767.072757,0.8727256655693054,0.4882110059261322,0.00047964631812646985,0.01043790578842163,-0.014974832534790039,-0.005499601364135742,-0.08246780186891556,-0.09534160792827606,0.09475874155759811,1.5713459225058903,-0.5100386766614534,0.2331354965014191
1687006767.0892081,0.8755483031272888,0.4831181466579437,-0.0035123745910823345,-0.009611964225769043,0.01077839732170105,0.0061980485916137695,0.054101184010505676,-0.07474374771118164,0.1165422648191452,1.5667847197406914,-0.5042125784875047,0.23424652461405038
1687006767.156015,0.8783489465713501,0.4779565632343292,-0.007799863815307617,-0.010825693607330322,-0.014302968978881836,0.006396174896508455,0.07300536334514618,-0.05657326430082321,0.12372374534606934,1.5619164174431226,-0.4983268786245916,0.22970282645155277
1687006767.168397,0.8814545273780823,0.4721345603466034,-0.011275043711066246,0.0076904296875,0.007464498281478882,0.026778101921081543,0.11580143123865128,-0.012828177772462368,0.10921104997396469,1.5580056172212011,-0.49171065792200375,0.22622073093385572
1687006767.2824159,0.8821765184402466,0.47073954343795776,-0.012998159974813461,0.010386347770690918,0.0093020498752594,0.02442711591720581,0.26595836877822876,0.08641646802425385,-0.015134602785110474,1.5560631992573393,-0.4901287998364427,0.21607458916480773
1687006767.298966,0.8824794292449951,0.47017282247543335,-0.012946062721312046,0.013272523880004883,-0.031055331230163574,0.01679140329360962,0.0886981263756752,0.05381787195801735,0.047729913145303726,1.5561272779085813,-0.4894865728047353,0.20741107661796554
1687006767.373774,0.8834581971168518,0.4683028757572174,-0.013940584845840931,0.015055656433105469,0.035893380641937256,0.010141253471374512,0.6544392108917236,0.20077313482761383,0.000372851500287652,1.555018072387165,-0.4873690251972974,0.1922552552840005
1687006767.3885431,0.8823360800743103,0.46949660778045654,-0.03249797970056534,0.021365702152252197,0.06437796354293823,-0.024997051805257797,2.202606678009033,0.48966121673583984,-0.15830987691879272,1.5339812207933816,-0.4887205493321992,0.10834404993488261
1687006767.392123,0.8771064877510071,0.4769556522369385,-0.05654656141996384,0.042693257331848145,-0.06931707262992859,0.02432013303041458,1.3328381776809692,0.5325474739074707,-0.37503379583358765,1.5064159879955654,-0.49718773250595805,-0.007052577581226644
1687006767.423904,0.8719556927680969,0.48483964800834656,-0.06800002604722977,-0.010230779647827148,0.048363566398620605,-0.08977574110031128,2.4906327724456787,0.7915171980857849,-0.15568964183330536,1.492968206745713,-0.5061798086658977,-0.0944110887999969
1687006767.4887872,0.8732150793075562,0.4739675521850586,-0.11336009204387665,0.06170624494552612,0.07101544737815857,-0.06828039884567261,3.764315605163574,0.8810737133026123,-0.20260383188724518,1.4416991125746996,-0.4937911534716416,-0.3032798296817987
1687006767.583343,0.8712912797927856,0.4731963872909546,-0.1301417350769043,0.02343839406967163,-0.05048206448554993,-0.025345206260681152,1.5389974117279053,0.8072553873062134,-0.28414151072502136,1.4225259877535734,-0.49291555515675006,-0.4228219134283224
1687006767.5999188,0.8721739649772644,0.46643921732902527,-0.1474698781967163,0.04201066493988037,0.2309943437576294,-0.029776155948638916,3.712350368499756,1.2009309530258179,-0.2624177634716034,1.4032974437278978,-0.48526095513957446,-0.5755554866806634
1687006767.666646,0.8731361031532288,0.45934203267097473,-0.16321250796318054,0.00442737340927124,-0.12666988372802734,0.0598495751619339,1.8130671977996826,1.0499341487884521,-0.3363955616950989,1.3860022000943513,-0.47725433509479,-0.7302903616905295
1687006767.6798558,0.8780030012130737,0.44740405678749084,-0.17011944949626923,0.023043811321258545,0.16587725281715393,-0.040512800216674805,3.5875391960144043,1.277678370475769,-0.0316493958234787,1.3794105396922876,-0.4638605674352026,-0.8738051312754298
1687006767.725669,0.8902899622917175,0.41838496923446655,-0.1798277050256729,0.026030898094177246,0.006114602088928223,0.04292595386505127,3.2906177043914795,1.5585238933563232,0.027522314339876175,1.3714901563956767,-0.43166645201547793,-1.0536187111205821
1687006767.8532891,0.906192421913147,0.37300699949264526,-0.19920170307159424,0.019009053707122803,-0.012029767036437988,0.1319257616996765,4.439773082733154,1.260851263999939,0.1356184333562851,1.3544151082672289,-0.3822478337504095,-1.2734657353812866
1687006767.86921,0.9193957448005676,0.33439162373542786,-0.20710836350917816,-0.02088189125061035,-0.08915230631828308,0.06054776906967163,3.004438638687134,1.169214129447937,0.06365235149860382,1.3492289699288065,-0.34095963389595746,-1.4584734095430998
1687006767.941006,0.9317960143089294,0.3070462942123413,-0.19359466433525085,-0.009280085563659668,-0.04618197679519653,0.05951571464538574,2.32296085357666,1.2573572397232056,0.022472692653536797,1.3659456320540397,-0.3120878405648674,-1.5944265820134502
1687006767.956013,0.9436912536621094,0.2875514626502991,-0.16358807682991028,0.003604888916015625,0.012726247310638428,0.14790208637714386,2.1851701736450195,1.3792256116867065,-0.06755400449037552,1.3991529056853778,-0.2916693487524698,-1.702718893580306
1687006768.0315661,0.9509415030479431,0.2808349132537842,-0.12977725267410278,0.0006576776504516602,0.03137516975402832,0.05070628225803375,2.1434998512268066,1.436545729637146,-0.2396623194217682,1.4351618595187947,-0.2846639175980722,-1.8233895439167749
1687006768.045708,0.953107476234436,0.29215067625045776,-0.07895898073911667,0.08561950922012329,0.06339442729949951,0.16591888666152954,1.3689099550247192,1.6451425552368164,-0.7744560241699219,1.4881413429061245,-0.29647485301310816,-1.9056044116838033
1687006768.1176019,0.9424811601638794,0.3335443139076233,-0.021861346438527107,0.08298593759536743,0.10705330967903137,0.12440043687820435,1.560832142829895,1.7854933738708496,-0.9977898001670837,1.547604958516849,-0.3400606851639891,-1.9932815045878731
1687006768.1321502,0.920691728591919,0.38816335797309875,0.04069673269987106,0.0666435956954956,0.012593507766723633,0.05290079116821289,0.5646852850914001,1.6122925281524658,-1.4702867269515991,1.6149699166287554,-0.398637861176319,-2.043898429433561
1687006768.17503,0.8835978507995605,0.457661896944046,0.09899895638227463,0.007897019386291504,-0.03545117378234863,-0.12222278118133545,-0.4108485281467438,1.0918854475021362,-1.4441274404525757,1.6823717451197895,-0.47536375747803117,-2.046431160377453
1687006768.270833,0.8438466191291809,0.5160390138626099,0.14706167578697205,-0.09084045886993408,0.09493827819824219,-0.10383342206478119,-0.05131005868315697,0.8208520412445068,-1.404387354850769,1.7433387935531883,-0.54222022160879,-2.016232112849043
1687006768.287338,0.8014479875564575,0.5706589818000793,0.17896826565265656,-0.058100759983062744,-0.15229350328445435,-0.05502106249332428,-0.4268302917480469,0.5666046142578125,-1.2889686822891235,1.790497958548484,-0.6073081269926165,-1.9964865695078469
1687006768.326535,0.7617645263671875,0.6125749349594116,0.21087193489074707,-0.030761659145355225,-0.013194441795349121,-0.11707605421543121,-0.2998478412628174,0.4886639416217804,-1.116700530052185,1.8408541322888037,-0.6593142164676083,-1.9528173018537287
1687006768.421746,0.7220816612243652,0.6513843536376953,0.23301652073860168,0.06760650873184204,-0.06830018758773804,-0.005813121795654297,-0.05816468223929405,0.5588714480400085,-1.0354816913604736,1.8829475173253079,-0.7094075139821531,-1.9267067100261726
1687006768.437948,0.6832742691040039,0.6813330054283142,0.262529581785202,0.12773042917251587,-0.02946227788925171,-0.09399619698524475,-0.4510755240917206,0.3820425271987915,-0.9543270468711853,1.9376281650980471,-0.7495821978056734,-1.8827865758292701
1687006768.473556,0.6482351422309875,0.7063764333724976,0.2842952609062195,0.10075783729553223,-0.08117800951004028,-0.10425674915313721,-0.44683536887168884,0.17417748272418976,-0.8333214521408081,1.9841029149540923,-0.7843658311691648,-1.8352609839133698
1687006768.569755,0.6198363304138184,0.723518431186676,0.30384936928749084,0.08516561985015869,-0.006065309047698975,-0.14408978819847107,-0.39371010661125183,-0.018760548904538155,-0.7054571509361267,2.0265805326625057,-0.808885712294297,-1.7805198505725495
1687006768.585383,0.5971125960350037,0.7394424676895142,0.31093713641166687,0.024393320083618164,-0.03175497055053711,-0.11336621642112732,-0.17873552441596985,-0.07572831213474274,-0.60187166929245,2.050893640424508,-0.8322418257184724,-1.7430147410931636
1687006768.6911469,0.5783795118331909,0.7521675825119019,0.31578725576400757,0.04053235054016113,-0.001465439796447754,-0.1194523274898529,-0.12862162292003632,-0.13753148913383484,-0.5755799412727356,2.0705527418838754,-0.8513452489148617,-1.7089145663968313
1687006768.707823,0.5579123497009277,0.7708430886268616,0.3074657917022705,0.014612793922424316,0.003693222999572754,-0.01243695616722107,0.19832271337509155,-0.013110117986798286,-0.5419289469718933,2.074484056904938,-0.8801635669828767,-1.6992033657509444
1687006768.778297,0.5394287705421448,0.7830087542533875,0.30970025062561035,0.0272369384765625,-0.058002591133117676,0.0113447904586792,-0.19683721661567688,-0.08319404721260071,-0.4507520794868469,2.0919737697399,-0.899488342481006,-1.6746874968769625
1687006768.793359,0.5257824659347534,0.7913802862167358,0.31188255548477173,0.011021912097930908,-0.026151716709136963,0.09361988306045532,0.04982952028512955,0.05157140642404556,-0.3143017292022705,2.1061845150845757,-0.9130635646260168,-1.651951670723577
1687006768.93453,0.5118268132209778,0.8012288808822632,0.30994459986686707,0.023009002208709717,0.06637054681777954,-0.04151192307472229,0.12159495800733566,0.06854940950870514,-0.33139631152153015,2.1152979842639494,-0.9293461929914363,-1.6479134040794297
1687006768.951474,0.4962995946407318,0.8082954287528992,0.3167741596698761,0.00853756070137024,-0.03047841787338257,-0.04348918795585632,-0.3341846466064453,-0.055509064346551895,-0.4167959988117218,2.1388827097756655,-0.941251201041925,-1.618605578981564
1687006769.056148,0.4808845520019531,0.8160515427589417,0.32064077258110046,0.015178829431533813,0.01970309019088745,-0.06017306447029114,-0.096078060567379,-0.10770009458065033,-0.4059426784515381,2.1588724483359987,-0.9545462485468448,-1.58838350668815
1687006769.071739,0.4688187837600708,0.8221261501312256,0.3229830265045166,0.04369354248046875,-0.07940441370010376,0.014236360788345337,0.050445109605789185,-0.02125033736228943,-0.26247215270996094,2.1740536396758072,-0.9651356571078893,-1.5663070818666187
1687006769.075691,0.4586338400840759,0.8298608064651489,0.31778329610824585,0.03625449538230896,0.02049630880355835,0.027294278144836426,0.14051392674446106,0.07917595654726028,-0.2224593609571457,2.1767352555729493,-0.9788582259888186,-1.5663379558096755
1687006769.138442,0.44941967725753784,0.8335426449775696,0.32129278779029846,-0.022051483392715454,-0.01232975721359253,-0.04188895225524902,-0.231007918715477,-0.1279904544353485,-0.29310867190361023,2.191456342742878,-0.9854895024247975,-1.5454638982905688
1687006769.1521358,0.4400344491004944,0.8378386497497559,0.32310429215431213,0.007612675428390503,-0.045083463191986084,0.018646836280822754,0.04324698448181152,0.003528246656060219,-0.17616623640060425,2.204154257447697,-0.9933120420121526,-1.5260665088953405
1687006769.2251601,0.4359586834907532,0.8401849269866943,0.32253608107566833,-0.0163266658782959,-0.10286492109298706,-0.04259824752807617,-0.02326391078531742,-0.007414238527417183,-0.054960910230875015,2.207757962563277,-0.9976241632447462,-1.5197291154319645
1687006769.238646,0.43564391136169434,0.8406385779380798,0.3217783272266388,0.0038550496101379395,0.04258596897125244,-0.032975196838378906,0.10927895456552505,0.004372379742562771,0.002282138215377927,2.2069788624555216,-0.9984612128513767,-1.521758407374125
1687006769.35611,0.43604397773742676,0.8423152565956116,0.31681424379348755,0.030066370964050293,-0.027968764305114746,0.043094903230667114,0.006147907581180334,-0.02827850915491581,-0.013656147755682468,2.199129506812109,-1.001564533345182,-1.5288499228291197
1687006769.372167,0.4363124966621399,0.8415765166282654,0.31840309500694275,-0.006747037172317505,-0.0063713788986206055,-0.020505666732788086,-0.04427367448806763,-0.029939433559775352,0.019534893333911896,2.2012170001388034,-1.000195359924693,-1.5260393824328917
1687006769.439433,0.4380679130554199,0.8400329947471619,0.3200646936893463,0.0010800957679748535,-0.009634315967559814,0.002277374267578125,-0.010486684739589691,-0.03168486803770065,0.02991776168346405,2.2017836729221076,-0.9973440225964298,-1.524276609234559
1687006769.453823,0.4392564296722412,0.8399693965911865,0.3185988664627075,-0.008958578109741211,0.0159875750541687,-0.0057020485401153564,0.057666581124067307,0.028020096942782402,0.0066255540587008,2.198310358495616,-0.9972268682891298,-1.5281219364812517
1687006769.528202,0.43909943103790283,0.8408348560333252,0.3165258765220642,0.016863733530044556,-0.01605147123336792,-0.005231291055679321,0.04422822594642639,0.014557727612555027,0.019961267709732056,2.195380525271434,-0.9988237022932092,-1.532750209212692
1687006769.54368,0.4397520422935486,0.8412712812423706,0.3144538402557373,0.019842803478240967,0.02349025011062622,0.014205366373062134,0.0626884177327156,0.006982810329645872,0.010431477800011635,2.1915654708972587,-0.9996305226622756,-1.537925099543336
1687006769.6185632,0.4400293231010437,0.8412209749221802,0.3142000734806061,0.0031317174434661865,-0.0116310715675354,0.006417602300643921,-0.024827808141708374,-0.018151216208934784,-0.01320121344178915,2.1908854314284723,-0.9995374259324574,-1.5379500605153542
1687006769.632411,0.4405558407306671,0.8409480452537537,0.3141930401325226,0.0065877437591552734,-0.006841480731964111,0.0005805492401123047,0.013205461204051971,-0.033321648836135864,-0.004552931059151888,2.190309395828848,-0.9990328525210743,-1.5370128985278622
1687006769.7075691,0.4404011070728302,0.8410059213638306,0.31425485014915466,0.009138137102127075,0.002194821834564209,-0.0082244873046875,-0.0028280108235776424,-0.007277351804077625,-0.014601570554077625,2.190568464816703,-0.9991398782981463,-1.535907636932583
1687006769.721885,0.4411691427230835,0.8406959176063538,0.31400763988494873,0.007210493087768555,-0.014966368675231934,0.013186722993850708,-0.004932085983455181,0.011933804489672184,0.027592355385422707,2.1893730196411387,-0.9985671174364777,-1.536833807678529
1687006769.765425,0.4428892731666565,0.8394494652748108,0.3149193525314331,0.0006685554981231689,-0.004335761070251465,-0.003548353910446167,-0.017796795815229416,0.022201798856258392,0.042723704129457474,2.1889043601625815,-0.9962693879805036,-1.5385936477873963
1687006769.86298,0.44516390562057495,0.8384791612625122,0.314296692609787,-0.0020027756690979004,-0.022515177726745605,0.008854061365127563,0.03218798711895943,0.017572248354554176,0.05950561538338661,2.1855542707126334,-0.9944862923061887,-1.5433751398157032
1687006769.870923,0.4487318992614746,0.836967408657074,0.3132496476173401,-0.008058041334152222,-0.032737672328948975,0.0116710364818573,0.02758275903761387,0.03009532019495964,0.15460403263568878,2.1802308850063836,-0.9917180296706348,-1.5511872908147026
1687006769.916729,0.4570566713809967,0.8313896656036377,0.31605494022369385,0.006169706583023071,-0.09776228666305542,0.019913196563720703,-0.08594260364770889,0.050757989287376404,0.2974244952201843,2.1757951632720878,-0.9816038238346488,-1.558363885681045
1687006770.0125961,0.4714454412460327,0.8226443529129028,0.3177981674671173,-0.010004401206970215,-0.07552826404571533,-0.01782551407814026,0.15158730745315552,0.18879051506519318,0.6091160774230957,2.1639227627364037,-0.9660465096333021,-1.5790996689316001
1687006770.029033,0.4998859465122223,0.807239830493927,0.3138122856616974,0.024573922157287598,-0.11317849159240723,-0.04310598969459534,0.2542271316051483,0.16851453483104706,0.9140336513519287,2.131383447473363,-0.9394605367122791,-1.628542545100102
1687006770.098423,0.536306619644165,0.7909895181655884,0.29446712136268616,-0.006170511245727539,0.07268846035003662,-0.03979793190956116,1.182263731956482,0.2981017231941223,1.1225050687789917,2.0729213134304034,-0.9124246293600473,-1.7158449794308832
1687006770.194201,0.5802772045135498,0.7705905437469482,0.26357004046440125,0.09168946743011475,-0.13451242446899414,-0.004521459341049194,0.9634000658988953,0.3082508444786072,1.4900521039962769,1.9971490886526477,-0.8797671885854073,-1.833402052126192
1687006770.210412,0.636313259601593,0.7292847037315369,0.2514948546886444,0.05004245042800903,-0.17816764116287231,0.03553834557533264,0.29041537642478943,0.2799111008644104,1.7872250080108643,1.947190355081034,-0.8172759240526659,-1.919974754708784
1687006770.277946,0.6984928846359253,0.6684944033622742,0.2553885877132416,-0.003836393356323242,-0.040412068367004395,-0.044100046157836914,0.12969402968883514,0.3679864704608917,2.0014421939849854,1.9213252896504633,-0.7321825371770624,-1.9766381045376005
1687006770.291411,0.7591489553451538,0.590376079082489,0.27413415908813477,0.04555398225784302,-0.09918028116226196,0.05872121453285217,-0.7053260803222656,0.19639641046524048,2.1612517833709717,1.917331722333084,-0.6315247319516801,-2.0108555082583126
1687006770.3677812,0.815109372138977,0.4959118068218231,0.29944658279418945,0.08970630168914795,0.18208199739456177,-0.2320179045200348,-0.7778924703598022,-0.16454802453517914,1.9937512874603271,1.9228608070525526,-0.5188845366763155,-1.9988513418402825
1687006770.38153,0.8623432517051697,0.4025905430316925,0.30705931782722473,0.13108038902282715,0.07044726610183716,0.035195499658584595,-0.8222566246986389,-0.28138571977615356,1.9062767028808594,1.9128733342272712,-0.414345113069158,-2.0039944869992996
1687006770.4954128,0.9014857411384583,0.3093780279159546,0.3026696741580963,0.07535147666931152,0.2166382372379303,-0.18326961994171143,-0.7609813809394836,-0.5958788990974426,1.6738154888153076,1.8947161389509084,-0.3145388997106193,-1.977160921191991
1687006770.5119162,0.9304671883583069,0.2353229969739914,0.280809223651886,0.14626920223236084,0.1507548689842224,-0.06447011232376099,-0.15217141807079315,-0.6613624691963196,1.4716697931289673,1.8638979765573243,-0.23755088077825448,-1.9905721472387659
1687006770.57661,0.9561513662338257,0.1544441133737564,0.248841792345047,0.02949047088623047,-0.030191749334335327,-0.018433988094329834,-1.8509774208068848,-1.112133264541626,1.2614943981170654,1.8254018746220886,-0.15506479217106192,-1.9587039638935524
1687006770.5895529,0.9761102795600891,0.08597732335329056,0.19954149425029755,0.046625375747680664,0.22473740577697754,-0.008516684174537659,-1.3957140445709229,-1.249819278717041,0.897384524345398,1.7724431980452953,-0.08608360310057878,-1.8952390480078858
1687006770.6367369,0.9892927408218384,0.03444255143404007,0.14182355999946594,0.017177104949951172,0.15058553218841553,0.037467241287231445,-1.9003220796585083,-1.316603183746338,0.5614225268363953,1.7131847194657612,-0.03444936625764213,-1.8160452303279935
1687006770.73048,0.9969491958618164,0.0048330700956285,0.07790454477071762,0.03753572702407837,0.15587249398231506,0.015387766063213348,-1.8010258674621582,-1.3670856952667236,0.2201644629240036,1.6487807922796966,-0.0048330888688739694,-1.7245398003356442
1687006770.737803,0.9999440908432007,-0.0020306806545704603,0.010396042838692665,0.030298948287963867,0.09948859363794327,0.03621959686279297,-1.6755472421646118,-1.348549246788025,-0.07606332749128342,1.5811925767924078,0.002030682044002832,-1.6400923702598673
1687006770.820384,0.9984191656112671,0.00864312332123518,-0.05553760379552841,0.010003626346588135,-0.0014409516006708145,0.08053155243396759,-2.215711832046509,-1.2720634937286377,-0.18372660875320435,1.5152280542578846,-0.008643231174008162,-1.5426630671230266
1687006770.8368258,0.9934967756271362,0.02571876160800457,-0.11091799288988113,0.023760974407196045,0.05744166299700737,0.04080390930175781,-1.3736509084701538,-1.0503233671188354,-0.225332573056221,1.4596127093541853,-0.02572159750207776,-1.4517776760824186
1687006770.906094,0.9870133399963379,0.04822542518377304,-0.15322868525981903,0.035249292850494385,-0.028877243399620056,0.1029510498046875,-1.429833173751831,-0.8114641308784485,-0.25903454422950745,1.4167809806659497,-0.04824413859255274,-1.3853202173489965
1687006770.919932,0.9792262315750122,0.07427900284528732,-0.18867658078670502,0.057456016540527344,-0.11738505959510803,0.10832387208938599,-1.623548150062561,-0.8351021409034729,-0.31656554341316223,1.3804497543937555,-0.07434747806458565,-1.3205933662481104
1687006771.0038118,0.9697381258010864,0.10830044001340866,-0.21881289780139923,-0.0034752488136291504,-0.041558459401130676,0.06018257141113281,-1.7527198791503906,-0.7057201862335205,-0.268813818693161,1.3488716441804671,-0.10851327764842039,-1.2337725089585578
1687006771.018275,0.9604790210723877,0.14030316472053528,-0.2404063642024994,0.04525834321975708,-0.0848984569311142,0.04196585714817047,-1.8655766248703003,-0.6565378904342651,-0.2404816448688507,1.3255368250606567,-0.14076760668106578,-1.152629087454285
1687006771.088772,0.9511232376098633,0.17214138805866241,-0.2563825845718384,-0.015255868434906006,0.01200173795223236,-0.009715378284454346,-1.5572797060012817,-0.5895951986312866,-0.16949200630187988,1.307496797721956,-0.17300309499142072,-1.0688989072498771
1687006771.212069,0.9418875575065613,0.20019134879112244,-0.2697615623474121,0.06705409288406372,-0.05344751477241516,-0.0076583921909332275,-1.8307349681854248,-0.6401906609535217,-0.1521984487771988,1.291857967412429,-0.20155321560351339,-0.9947213115357589
1687006771.228613,0.9310082197189331,0.23513679206371307,-0.2791673541069031,0.009894490242004395,-0.016630887985229492,-0.006126135587692261,-1.9000533819198608,-0.6388095617294312,-0.15042650699615479,1.2794726774350687,-0.23735930476537784,-0.8994500154124129
1687006771.3034902,0.9210759997367859,0.2644538879394531,-0.28580304980278015,0.007955491542816162,0.00577932596206665,-0.003839254379272461,-1.4318169355392456,-0.5273357033729553,-0.13115860521793365,1.2699237531035577,-0.26763761283774695,-0.822021731251072
1687006771.317222,0.9116935729980469,0.29141756892204285,-0.2896392047405243,0.0175819993019104,-0.04292812943458557,0.025601208209991455,-1.624350905418396,-0.5653711557388306,-0.10349135845899582,1.26318693421508,-0.295708406283201,-0.7492213753970745
1687006771.320818,0.9017742276191711,0.322092741727829,-0.28820091485977173,0.003514528274536133,-0.028132110834121704,0.036034226417541504,-1.9645860195159912,-0.5656234622001648,-0.08960317820310593,1.2614624303799522,-0.32793920904696244,-0.6604652630570221
1687006771.355575,0.8915402889251709,0.3576970398426056,-0.27786463499069214,0.013885736465454102,-0.027405232191085815,0.08264383673667908,-2.164961814880371,-0.49850231409072876,-0.1443476378917694,1.2686695563009245,-0.3658005912251213,-0.5555936249377496
1687006771.451776,0.8835341930389404,0.38606613874435425,-0.2651798725128174,0.024257004261016846,0.012096762657165527,-0.047838807106018066,-1.3613436222076416,-0.35812243819236755,-0.14239288866519928,1.279215330322,-0.3963633005987956,-0.4733890658221993
1687006771.4583158,0.8761649131774902,0.4138847291469574,-0.24705152213573456,-0.0027518272399902344,-0.06000286340713501,0.05726279318332672,-1.9381564855575562,-0.3896987736225128,-0.061905570328235626,1.2959625282714415,-0.42671734108988024,-0.38246419140869875
1687006771.511046,0.8719159960746765,0.4316898286342621,-0.23109859228134155,0.02348506450653076,0.011761188507080078,-0.029963910579681396,-1.098268747329712,-0.2933211028575897,-0.02155228704214096,1.3117068038257953,-0.4463653191599386,-0.30793364967989145
1687006771.6051002,0.8687142133712769,0.4460631310939789,-0.21532197296619415,0.013854265213012695,-0.02269268035888672,0.027059078216552734,-1.4091938734054565,-0.2831074297428131,0.008866537362337112,1.3278301131586723,-0.46236174835042376,-0.23884346155009917
1687006771.6210241,0.8666605353355408,0.4571930766105652,-0.19968576729297638,0.013161420822143555,0.04390570521354675,-0.03763410449028015,-0.786338746547699,-0.16535086929798126,-0.013418194837868214,1.3443402005865763,-0.4748365389484199,-0.17806095101529087
1687006771.6909451,0.8645461797714233,0.46638476848602295,-0.18720345199108124,0.00793612003326416,-0.05693039298057556,-0.0017002075910568237,-1.0711833238601685,-0.21504129469394684,0.022387007251381874,1.3575546092277988,-0.4851994253303683,-0.12995243712438984
1687006771.7031689,0.8641192317008972,0.47167229652404785,-0.1755654662847519,-0.002913177013397217,0.041786015033721924,-0.03070269525051117,-0.4621342122554779,-0.10127868503332138,0.0534818060696125,1.370351923958701,-0.49118633030015146,-0.08541777951566489
1687006771.747401,0.8660920858383179,0.4684736430644989,-0.17440524697303772,-0.016970932483673096,0.06387507915496826,0.030408143997192383,0.4843156933784485,0.05802015960216522,0.1544671505689621,1.372083495045495,-0.4875622989387079,-0.0775899755512179
1687006771.842171,0.8673087358474731,0.46310099959373474,-0.1825190931558609,0.00981229543685913,-0.07377290725708008,0.07299160957336426,0.03900900483131409,0.12214978784322739,-0.10990438610315323,1.363379837280524,-0.4814908138894846,-0.10875699929187932
1687006771.8594131,0.8664692044258118,0.4678032398223877,-0.1743316650390625,0.020646333694458008,-0.018950611352920532,-0.01797473430633545,-0.11711938679218292,0.0819719210267067,-0.026121940463781357,1.3722493235480016,-0.4868036456171224,-0.10156466706798571
1687006771.896296,0.8666104674339294,0.46964770555496216,-0.16857455670833588,0.017758429050445557,-0.031186342239379883,-0.01730792224407196,-0.16885808110237122,0.037989284843206406,-0.017497358843684196,1.378673860913979,-0.48889168878067263,-0.0930724039227656
1687006771.958641,0.8669045567512512,0.4701636731624603,-0.16559885442256927,0.014321208000183105,-0.028787821531295776,-0.031514063477516174,-0.028446199372410774,0.02307194285094738,0.019791290163993835,1.3820470482124954,-0.4894762342178601,-0.08932218266769762
1687006772.0569181,0.8683079481124878,0.4671238362789154,-0.16684335470199585,0.001443028450012207,-0.02017858624458313,-0.022762224078178406,0.01972842961549759,-0.02219025418162346,0.049394454807043076,1.3809623579367631,-0.4860350936560961,-0.08961541423479412
1687006772.0727859,0.8698432445526123,0.4636693596839905,-0.16847464442253113,0.01353389024734497,-0.024765461683273315,0.001513063907623291,-0.14203685522079468,-0.038732923567295074,0.06566357612609863,1.3794812369709026,-0.4821321825653811,-0.08575275143860343
1687006772.15291,0.8715844750404358,0.4600140154361725,-0.1694929301738739,0.004010677337646484,0.013237416744232178,0.010069191455841064,-0.01682491973042488,-0.02641216292977333,0.058911994099617004,1.37872822697213,-0.4780109806121767,-0.0811340087649056
1687006772.1675549,0.8730149865150452,0.4576646089553833,-0.16848750412464142,0.001817166805267334,0.021415650844573975,0.02590949833393097,-0.10334333777427673,-0.002935689175501466,0.04523313418030739,1.3801453442323415,-0.47536678456297904,-0.07618194557604713
1687006772.228616,0.8737711906433105,0.4559935927391052,-0.16909758746623993,0.0019460320472717285,0.02824416756629944,-0.0005189776420593262,0.10659586638212204,0.007608209270983934,0.019383162260055542,1.3796332850791253,-0.4734883073831918,-0.07881554756421803
1687006772.321927,0.8734384179115295,0.4576743245124817,-0.16625207662582397,-0.005960941314697266,0.019758015871047974,0.0004654526710510254,-0.12946446239948273,0.015278645791113377,-0.029771536588668823,1.382704249439287,-0.47537772338513945,-0.07441912879243481
1687006772.338089,0.8725841045379639,0.4590355157852173,-0.16698390245437622,-0.004206359386444092,0.03623434901237488,-0.0063100457191467285,0.2092457115650177,0.026779595762491226,-0.04563485458493233,1.3817152211158048,-0.47690927869862226,-0.08073928061499369
1687006772.410081,0.870948314666748,0.46262460947036743,-0.16561374068260193,-0.001273512840270996,-0.0021447837352752686,-0.013036072254180908,-0.1822430044412613,-0.013457128778100014,-0.06366811692714691,1.382886363354619,-0.4809533709666938,-0.07804333865969527
1687006772.4241052,0.8694692254066467,0.4654313623905182,-0.16552101075649261,0.004157602787017822,0.023307740688323975,-0.01042795181274414,0.07470797002315521,-0.020520631223917007,-0.044684238731861115,1.3826771149708326,-0.4841219021573457,-0.07675621824116616
1687006772.533361,0.8684294819831848,0.467223584651947,-0.16592954099178314,0.005792379379272461,-0.02033933997154236,0.005910754203796387,-0.15231288969516754,-0.05413682386279106,-0.019658980891108513,1.3820032800805193,-0.4861479191190909,-0.07258187117729205
1687006772.5414019,0.8675760626792908,0.46848049759864807,-0.16684751212596893,-0.0005410909652709961,0.009546935558319092,0.008385121822357178,0.10054290294647217,0.0057336101308465,-0.03900444507598877,1.3808014080664168,-0.4875700582845601,-0.07221718387402837
1687006772.6215382,0.8671122789382935,0.46906283497810364,-0.16761943697929382,0.011839687824249268,-0.03351590037345886,0.01515372097492218,-0.017679128795862198,-0.007190532982349396,-0.02212926186621189,1.3798439280235675,-0.4882293186902962,-0.07496369068315599
1687006772.638102,0.8669037818908691,0.4692364037036896,-0.1682111620903015,0.008492887020111084,0.0055408477783203125,0.014127984642982483,0.10763396322727203,0.017645131796598434,-0.021065860986709595,1.3791412122549578,-0.48842587301558127,-0.07778250552626949
1687006772.710853,0.8675271272659302,0.4669606387615204,-0.1713028997182846,0.004650115966796875,0.03369554877281189,-0.012473881244659424,0.6502166390419006,0.10674269497394562,0.003314712317660451,1.3758431490835583,-0.48585054511961695,-0.09179980809823907
1687006772.724302,0.8685333132743835,0.4610750079154968,-0.1818244308233261,0.007138252258300781,-0.06646734476089478,0.02826009690761566,0.1947161853313446,0.04160994291305542,-0.03544566407799721,1.3644300894798285,-0.4792062959896797,-0.12727354788140866
1687006772.8008962,0.8674428462982178,0.4627164304256439,-0.1828574538230896,0.0030864477157592773,0.028601467609405518,-0.023029282689094543,0.13293367624282837,0.044443897902965546,-0.0812859982252121,1.363037488636422,-0.4810569470465498,-0.13568255417283012
1687006772.80802,0.8661407828330994,0.46595093607902527,-0.18080388009548187,0.00472414493560791,0.0021888017654418945,0.0005824565887451172,-0.15089160203933716,-0.029099736362695694,-0.010520009323954582,1.3650049608390056,-0.4847090423226285,-0.13001593641043924
1687006772.893389,0.8655348420143127,0.4668405055999756,-0.18141032755374908,0.009236454963684082,0.036363959312438965,-0.015885725617408752,0.22467903792858124,0.015905465930700302,-0.03633063659071922,1.3641936579804286,-0.48571470052665916,-0.13073754045313507
1687006772.9089189,0.8652752041816711,0.46504685282707214,-0.18716494739055634,0.009557127952575684,0.030238330364227295,-0.011855319142341614,0.612788200378418,0.10642640292644501,-0.015711043030023575,1.3577713947452317,-0.48368752831144585,-0.14976445172864916
1687006772.981952,0.8681288361549377,0.45119529962539673,-0.2068224400281906,0.011265814304351807,0.08562421798706055,-0.028330683708190918,2.0903265476226807,0.3892389237880707,0.01729530841112137,1.3369167675192448,-0.46810428410414817,-0.2216627604398168
1687006773.07401,0.8748016357421875,0.4196975529193878,-0.24202510714530945,-0.0024108290672302246,0.14226847887039185,-0.06301325559616089,4.084823131561279,1.0525823831558228,-0.09407808631658554,1.3008848514906974,-0.4331120673049137,-0.3812611104907689
1687006773.089981,0.883790135383606,0.37453776597976685,-0.2804220914840698,0.03314101696014404,-0.19416356086730957,0.1445731818675995,3.039245367050171,0.9345333576202393,-0.30387499928474426,1.2635491258346692,-0.3838982011699449,-0.6028033396921173
1687006773.1599731,0.8927643299102783,0.3496570289134979,-0.2840985357761383,0.013882458209991455,0.11833009123802185,-0.03853321075439453,3.6575193405151367,1.2247542142868042,-0.36761364340782166,1.262705753195891,-0.3572050070763625,-0.752478450700663
1687006773.172974,0.9046721458435059,0.30946284532546997,-0.2929181456565857,0.07234805822372437,-0.16619804501533508,0.06849196553230286,2.8698644638061523,1.1311018466949463,-0.36735448241233826,1.2576648614304722,-0.31462810520964496,-0.9517249324958142
1687006773.246364,0.9149196743965149,0.2943394184112549,-0.2762002646923065,0.028043091297149658,-0.007504642009735107,0.050324440002441406,2.0742053985595703,1.0873383283615112,-0.2646387815475464,1.2776113150162203,-0.29876425511119303,-1.0606769051984388
1687006773.2608109,0.9261889457702637,0.2695963680744171,-0.26361367106437683,0.041950881481170654,0.048869937658309937,0.03163430094718933,2.4320571422576904,0.9442595839500427,-0.10505117475986481,1.2935069029433863,-0.27297384000619745,-1.1872441318077889
1687006773.3411689,0.9381848573684692,0.2520568072795868,-0.23722721636295319,-0.008100509643554688,0.019046157598495483,0.04252511262893677,1.5525583028793335,1.1369330883026123,-0.052250612527132034,1.323129922707822,-0.2548050968505488,-1.2695283052485178
1687006773.354511,0.9504960775375366,0.2301771640777588,-0.20874834060668945,0.007237136363983154,0.1773546040058136,-0.03453771770000458,2.642228841781616,1.2091623544692993,-0.035061173141002655,1.3546081104593173,-0.23225973108839992,-1.3817206622559144
1687006773.431206,0.9617547988891602,0.21207503974437714,-0.1733553111553192,0.05296999216079712,0.013114199042320251,0.0713045597076416,2.328906297683716,1.351530909538269,-0.23751874268054962,1.392462237349568,-0.21369780998073304,-1.498558622918261
1687006773.445261,0.9698876142501831,0.20443634688854218,-0.1323784440755844,-0.006050825119018555,0.1528177112340927,0.0798882246017456,3.2971439361572266,1.7039715051651,-0.3807932138442993,1.4351460951973025,-0.20588786192218222,-1.65273837445145
1687006773.486474,0.9739615321159363,0.21500414609909058,-0.07191776484251022,0.06148463487625122,-0.11858385801315308,0.1857026219367981,1.6642303466796875,1.6760001182556152,-0.6344612836837769,1.497089630808022,-0.21669608130686957,-1.777366039961159
1687006773.547324,0.9684892296791077,0.2488304078578949,-0.010599646717309952,0.007279872894287109,0.12337726354598999,0.08902984857559204,1.7060327529907227,1.6885179281234741,-0.8567481637001038,1.5598522469053813,-0.2514724892248884,-1.8594866533531367
1687006773.643604,0.9556732177734375,0.2902756631374359,0.04928562045097351,-0.015945374965667725,-0.08521276712417603,0.11161839962005615,1.1435894966125488,1.6017906665802002,-0.8454926013946533,1.6223223022708357,-0.2945149046823515,-1.9386997546321958
1687006773.658966,0.9342270493507385,0.34118932485580444,0.10397059470415115,0.027778685092926025,0.13584622740745544,-0.0010347366333007812,0.8061932325363159,1.3111779689788818,-1.1817318201065063,1.6816307436432234,-0.34818186312942734,-1.978748225869979
1687006773.7348418,0.9044551849365234,0.40077894926071167,0.1460733413696289,-0.011648118495941162,-0.0692054033279419,-0.0031594038009643555,0.2521330416202545,1.066663384437561,-1.226379632949829,1.7309179243930795,-0.412366894535522,-2.0069844631462637
1687006773.741492,0.8686809539794922,0.45797115564346313,0.18882766366004944,0.04797554016113281,0.07149359583854675,-0.007354870438575745,-0.0003285454586148262,0.8272043466567993,-1.3602948188781738,1.7848393920817058,-0.4757116013147694,-1.9932192605714494
1687006773.82266,0.8284597396850586,0.5167269110679626,0.215981587767601,0.03407388925552368,-0.08212602138519287,-0.09410953521728516,-0.008602897636592388,0.6833842992782593,-1.335609793663025,1.8258223657451942,-0.5430235025267958,-1.9856800818521447
1687006773.910878,0.7859697341918945,0.5637969970703125,0.2537422180175781,0.0951797366142273,0.01626598834991455,-0.043903201818466187,-0.3297969400882721,0.5961475372314453,-1.2970837354660034,1.8830730447510025,-0.5989759865349084,-1.9414870885605693
1687006773.927795,0.7417241334915161,0.6131633520126343,0.27180200815200806,0.06719011068344116,-0.0833476185798645,-0.13132953643798828,0.023828500881791115,0.473972886800766,-1.2588891983032227,1.9220467822962868,-0.6600588646111012,-1.919395013116358
1687006773.995904,0.6984467506408691,0.654518187046051,0.28944486379623413,0.11026912927627563,-0.03252410888671875,-0.09063804149627686,0.038371045142412186,0.3410664200782776,-1.0862069129943848,1.9636649653103673,-0.7135451759153508,-1.8873971971113053
1687006774.009382,0.6615891456604004,0.6889070868492126,0.296153724193573,0.055696070194244385,-0.08209550380706787,-0.04722177982330322,-0.23104946315288544,0.09203086048364639,-0.972038209438324,1.9916859092120536,-0.7599802188208508,-1.8598813922921325
1687006774.121242,0.6279754638671875,0.7150282263755798,0.3072160482406616,0.0179443359375,0.03379690647125244,-0.003932267427444458,-0.09834867715835571,0.045886799693107605,-0.9349315762519836,2.025780092359303,-0.7966644474109458,-1.8151479111740683
1687006774.138283,0.5946022868156433,0.7430156469345093,0.3072073757648468,-0.024945735931396484,-0.13173317909240723,-0.027010172605514526,-0.10160984843969345,0.05806037411093712,-0.8156205415725708,2.0476831744507247,-0.837565009393988,-1.7903610521949267
1687006774.2061281,0.565324604511261,0.7601577043533325,0.32026407122612,0.01798856258392334,0.030247807502746582,-0.05114462971687317,-0.038489289581775665,0.04343251883983612,-0.7227537631988525,2.0862294445521794,-0.8635558185154605,-1.7417953162022275
1687006774.221107,0.5411810278892517,0.7808101177215576,0.31218448281288147,0.043322205543518066,-0.11451971530914307,-0.03641223907470703,-0.024575650691986084,-0.060963746160268784,-0.5757491588592529,2.0940256558003423,-0.8959614168647184,-1.732264667354626
1687006774.2978501,0.5209119915962219,0.790639340877533,0.32177650928497314,0.045906245708465576,-0.021092891693115234,-0.08790495991706848,-0.31302782893180847,-0.1475822627544403,-0.5319166779518127,2.124141750827525,-0.9118525303442506,-1.6873482946131462
1687006774.312254,0.5004048347473145,0.800545871257782,0.32972922921180725,0.023917675018310547,0.030875027179718018,0.01655372977256775,-0.2371978461742401,-0.006702553015202284,-0.5613571405410767,2.153420097104921,-0.9282055259955485,-1.645630338846191
1687006774.39076,0.48029157519340515,0.8051105737686157,0.34801918268203735,0.014734119176864624,-0.06342649459838867,-0.017345905303955078,-0.606209397315979,-0.008911289274692535,-0.4823281466960907,2.197842179318195,-0.9358618331849405,-1.5892160106785678
1687006774.404162,0.464331716299057,0.8086857795715332,0.36114251613616943,0.021706610918045044,-0.0354311466217041,-0.083844393491745,-0.15207648277282715,-0.06779582053422928,-0.32720428705215454,2.2318336388828937,-0.9419144947637716,-1.5447970149458659
1687006774.4771729,0.45358824729919434,0.8100873231887817,0.3715054988861084,-0.005361288785934448,-0.06461918354034424,0.035293906927108765,-0.3842530846595764,0.0038635386154055595,-0.22439894080162048,2.2570377944853317,-0.9443010710659934,-1.5109793646822025
1687006774.491801,0.4475489854812622,0.8104760050773621,0.3779272139072418,-0.0013819336891174316,0.018045783042907715,-0.06940960884094238,0.150151327252388,0.05283081531524658,-0.08099697530269623,2.27205228284124,-0.9449643034133459,-1.4939914787114268
1687006774.534749,0.4458284378051758,0.8133606314659119,0.3737403452396393,0.04855644702911377,-0.03876328468322754,-0.007788747549057007,0.005420953035354614,-0.010278024710714817,0.0025883351918309927,2.2684616950272067,-0.9499056886497708,-1.4985376625061015
1687006774.6322808,0.4459640085697174,0.8125949501991272,0.37524130940437317,0.013798683881759644,0.002331376075744629,0.019442737102508545,-0.24385730922222137,0.022868210449814796,-0.009225180372595787,2.270285856969609,-0.9485907436278185,-1.496333717918348
1687006774.649252,0.44575855135917664,0.8065201640129089,0.3883616626262665,-0.019412696361541748,-0.00561678409576416,-0.042841583490371704,-0.23557879030704498,-0.056234151124954224,0.0020248102955520153,2.2874915080984173,-0.938242243036795,-1.4735714398792215
1687006774.685655,0.4481678903102875,0.8024932742118835,0.3938918113708496,0.012784987688064575,0.03323084115982056,-0.011964142322540283,-0.049978919327259064,-0.011737703345716,0.04952681437134743,2.2918271979317004,-0.931462217293295,-1.4653122670619063
1687006774.779769,0.44895780086517334,0.8021666407585144,0.3936566710472107,0.020234674215316772,0.02167057991027832,-0.017466485500335693,-0.005557883996516466,0.0205920971930027,0.015468647703528404,2.290658075791234,-0.9309150637916105,-1.467175349530972
1687006774.796211,0.4502473473548889,0.8020584583282471,0.3924030363559723,0.013940393924713135,-0.012019157409667969,0.015540778636932373,0.029993629083037376,-0.018232708796858788,0.04331425949931145,2.28765633937489,-0.9307338327098788,-1.470932208862868
1687006774.833389,0.4525623619556427,0.8013205528259277,0.3912453055381775,0.014616042375564575,0.012980043888092041,0.004338860511779785,-0.044490814208984375,-0.05712941661477089,0.00885268859565258,2.283654895419151,-0.9294994224836503,-1.472627865113514
1687006774.931814,0.45462700724601746,0.7986674904823303,0.39426475763320923,0.010491371154785156,-0.0006633400917053223,-3.8564205169677734e-05,-0.08715158700942993,-0.053271032869815826,0.02847639098763466,2.2852068237350713,-0.9250775991018161,-1.467482735789301
1687006774.947474,0.45671218633651733,0.7971803545951843,0.3948643207550049,-0.005967497825622559,0.013732850551605225,-0.010083317756652832,-0.010658548213541508,-0.056265756487846375,0.01483587920665741,2.2836942864795464,-0.9226104296348471,-1.4657003067659888
1687006775.018347,0.4582369923591614,0.7964273691177368,0.3946172893047333,0.006179600954055786,0.008458733558654785,-0.026758253574371338,0.011161130852997303,-0.04144420102238655,0.006315429229289293,2.2817361666862794,-0.9213642368833022,-1.465290133829808
1687006775.10948,0.45893797278404236,0.7969381213188171,0.3927670121192932,0.002701491117477417,-0.0014668107032775879,0.008523941040039062,0.0188142117112875,-0.021866325289011,0.01549874059855938,2.278657889056208,-0.9222092677508476,-1.466824323621574
1687006775.128911,0.4596225917339325,0.7973582744598389,0.3911101818084717,0.0038479268550872803,-0.007105469703674316,-0.0026214122772216797,-0.009039256721735,-0.015101097524166107,-0.00267027597874403,2.2758345284066714,-0.9229051653538003,-1.468899762592768
1687006775.231844,0.46029898524284363,0.7969105243682861,0.3912275433540344,0.013868004083633423,-0.013325691223144531,0.006767570972442627,-0.015413976274430752,-0.03886616975069046,0.020727725699543953,2.275256844208322,-0.9221635876001135,-1.4679076207708226
1687006775.24951,0.4625534117221832,0.7951151132583618,0.3922201693058014,0.00317537784576416,-0.002527773380279541,-0.002007007598876953,-0.03584250807762146,-0.0305279903113842,0.055225446820259094,2.274096535759309,-0.9191973814068107,-1.4671353057935053
1687006775.319718,0.4680458605289459,0.7921954393386841,0.39161205291748047,0.021639317274093628,-0.053044259548187256,-0.014567196369171143,-0.015611717477440834,-0.06411134451627731,0.15689228475093842,2.267515779499792,-0.9143981853284187,-1.472197339544705
1687006775.326943,0.479864239692688,0.7846006155014038,0.3925970792770386,0.004159837961196899,-0.11985141038894653,-0.004443913698196411,-0.09536508470773697,-0.08692201972007751,0.3789270222187042,2.256501970330237,-0.902051656184469,-1.4810528255712976
1687006775.3318639,0.49836426973342896,0.774853527545929,0.38888999819755554,-0.01472163200378418,-0.03110957145690918,-0.02951490879058838,0.2384696900844574,-0.040819864720106125,0.41231173276901245,2.2334295155318156,-0.8864833938896188,-1.5065399154623003
1687006775.375982,0.5129621028900146,0.7731428742408752,0.3729879856109619,0.01685357093811035,0.06427472829818726,-0.004823833703994751,0.21060369908809662,-0.027057714760303497,0.2562137544155121,2.1994965237381194,-0.8837817202755671,-1.548329777471219
1687006775.474381,0.5205835103988647,0.771105170249939,0.3665923476219177,-0.004531204700469971,0.044461965560913086,0.0036164522171020508,0.21978144347667694,-0.03006637841463089,0.17075642943382263,2.184332241141591,-0.8805750464686043,-1.5659099268367696
1687006775.490975,0.5305144786834717,0.7714921236038208,0.35121843218803406,-0.0029571056365966797,-0.0918503999710083,-0.0029517710208892822,0.5687956809997559,0.0267258882522583,0.4119942784309387,2.155584564371226,-0.8811830440503101,-1.603478389408348
1687006775.526798,0.5546401739120483,0.7640902400016785,0.32945558428764343,-0.02699112892150879,-0.26563113927841187,0.009533792734146118,0.5757589340209961,0.11834164708852768,0.9235945343971252,2.106791474034535,-0.8696298772207889,-1.6713436897544247
1687006775.652453,0.5965202450752258,0.7386654019355774,0.31390634179115295,0.00739210844039917,-0.2269008755683899,-0.0459771454334259,0.6094406843185425,0.16592292487621307,1.4261422157287598,2.0552063889823367,-0.8310883120867676,-1.7497864334340627
1687006775.6605291,0.6537615060806274,0.6992785334587097,0.2891456186771393,0.03471499681472778,-0.14984017610549927,-0.05272597074508667,0.8442972302436829,0.15838104486465454,1.8598227500915527,1.987211781688443,-0.774387756704637,-1.8540869195429517
1687006775.745125,0.7175158262252808,0.6409645676612854,0.2726454734802246,0.07826054096221924,-0.1133614182472229,-0.12762585282325745,0.17638865113258362,-0.06228858605027199,2.0082309246063232,1.9339304941271374,-0.6957542875682754,-1.9374014259714825
1687006775.76166,0.7829331755638123,0.5619630813598633,0.2668585479259491,0.1192275881767273,0.072238028049469,0.015856385231018066,-0.005769561044871807,-0.298113077878952,2.0969419479370117,1.8992917279960773,-0.5967571793927543,-1.978839939184528
1687006775.826908,0.8363679051399231,0.48679232597351074,0.25203680992126465,0.07851874828338623,0.1562894582748413,-0.1635509431362152,0.028643939644098282,-0.3520444929599762,1.7744312286376953,1.8634882834101512,-0.5084138556117599,-2.0164544213845432
1687006775.841641,0.8797200918197632,0.41379350423812866,0.23423871397972107,0.06572985649108887,0.18447312712669373,0.041075706481933594,0.9057105183601379,-0.30393874645233154,1.5669853687286377,1.8310237423533078,-0.4266171318007266,-2.0484332837315287
1687006775.916847,0.9107552170753479,0.3712814152240753,0.1807621717453003,-0.052112698554992676,0.1598007082939148,-0.07112768292427063,2.3373117446899414,-0.2405526041984558,1.4435045719146729,1.7667251369769856,-0.3803886995753463,-2.1718907047919025
1687006775.931118,0.9387229084968567,0.31146129965782166,0.14762042462825775,-0.004365980625152588,-0.16944769024848938,0.1130913645029068,0.36710840463638306,-0.22344231605529785,1.6445800065994263,1.7267755763309593,-0.3167304279733533,-2.2568464264981385
1687006776.008078,0.9638869762420654,0.2351064383983612,0.1250874549150467,0.04938817024230957,0.1255655586719513,-0.17084850370883942,-0.03492758050560951,-0.5886847376823425,1.595312237739563,1.6998490621864912,-0.23732807659240054,-2.2715764172160595
1687006776.101995,0.9821872711181641,0.1573360115289688,0.10273037105798721,0.04552268981933594,0.10407756268978119,0.021155819296836853,-0.39334824681282043,-0.5631276369094849,1.5685306787490845,1.6750108684152107,-0.1579924756710003,-2.26943884895559
1687006776.11032,0.9945632219314575,0.07682351768016815,0.07030078768730164,0.00047767162322998047,0.05286092311143875,0.08802448958158493,-1.600540280342102,-0.7697196006774902,1.3977972269058228,1.6413640421267002,-0.07689928238133109,-2.229195855370449
1687006776.193822,0.9994086623191833,0.015537271276116371,0.03067329339683056,0.09647750854492188,0.2586784362792969,-0.07879949361085892,-1.3905613422393799,-1.0568559169769287,0.9862506985664368,1.601478137952602,-0.015537896134971323,-2.1435307327872692
1687006776.210475,0.9990563988685608,-0.03198190778493881,-0.029385263100266457,-0.04352051019668579,0.08583017438650131,0.14617609977722168,-1.3282170295715332,-1.1086448431015015,0.7964553833007812,1.541391787019428,0.03198736381573271,-2.0873817698826884
1687006776.344378,0.9946298599243164,-0.055404674261808395,-0.08741971850395203,0.044615983963012695,0.1159973219037056,-0.010877378284931183,-1.7637919187545776,-1.1308537721633911,0.4832649528980255,1.483129891692566,0.055433059258470224,-2.006966559747277
1687006776.362165,0.9864518046379089,-0.06949620693922043,-0.14860425889492035,0.01833951473236084,0.06363683193922043,0.16419875621795654,-2.1465234756469727,-1.0994462966918945,0.5122529864311218,1.4212754149162665,0.06955226681724139,-1.9044989754764907
1687006776.4278321,0.9759649038314819,-0.06281638890504837,-0.20867875218391418,0.05235552787780762,-0.026157617568969727,0.10485798120498657,-2.857391834259033,-1.0317131280899048,0.23846431076526642,1.3601503248825304,0.06285777368034408,-1.7815224793786766
1687006776.4426131,0.9642935991287231,-0.04053741693496704,-0.26171499490737915,0.007233560085296631,-0.12357083708047867,0.21618282794952393,-3.615807294845581,-0.7919608950614929,0.45934736728668213,1.305774553311042,0.04054852814602019,-1.6167995635024526
1687006776.516049,0.9537902474403381,-0.014121274463832378,-0.30014118552207947,0.054266393184661865,-0.03176187723875046,-0.023863881826400757,-2.9197568893432617,-0.6086305379867554,0.31930118799209595,1.2659242814119849,0.014121744221180553,-1.4526280436362176
1687006776.5317159,0.9457903504371643,0.013347580097615719,-0.3245038092136383,0.05710887908935547,-0.0756491869688034,0.030436456203460693,-2.67678165435791,-0.4481361508369446,0.392021119594574,1.2402787190795614,-0.013347976302927562,-1.3154033915404535
1687006776.535276,0.9387433528900146,0.0368439219892025,-0.3426421582698822,0.021904349327087402,-0.04422914236783981,-0.01659548282623291,-2.5682623386383057,-0.46844103932380676,0.3567338287830353,1.2208206871155776,-0.03685226345958885,-1.1904612354759445
1687006776.605637,0.9311432838439941,0.0689191222190857,-0.35808199644088745,0.03479933738708496,-0.010035410523414612,-0.0011098682880401611,-2.72784686088562,-0.5339770317077637,0.275984525680542,1.2036692903350181,-0.06897379607538326,-1.0607111742291182
1687006776.619697,0.9208492636680603,0.11651685833930969,-0.3721027970314026,0.0031314492225646973,-0.07954476773738861,0.07728782296180725,-3.7225639820098877,-0.680337131023407,0.17697352170944214,1.1867720276137304,-0.11678212383444322,-0.9084575557183568
1687006776.662726,0.9100828170776367,0.17540067434310913,-0.37547817826271057,0.02120685577392578,0.10884009301662445,-0.010019779205322266,-3.0755996704101562,-0.5559743642807007,0.027835635468363762,1.1794959449591529,-0.17631274007886816,-0.7458429501528236
1687006776.764021,0.8988611102104187,0.23810821771621704,-0.3679039180278778,0.027728915214538574,-0.023462772369384766,0.07652214169502258,-3.6891660690307617,-0.5806577205657959,-0.07632146030664444,1.1822984329503166,-0.24041757367098907,-0.589045256319601
1687006776.783694,0.8880701661109924,0.3025292158126831,-0.3461326062679291,0.0005866289138793945,0.12964555621147156,-0.020566612482070923,-2.7797648906707764,-0.4202345013618469,-0.17394095659255981,1.1991501769689692,-0.30734509526419196,-0.43285781669423773
1687006776.882642,0.8778105974197388,0.3573528230190277,-0.3189793825149536,-0.04143047332763672,0.008476734161376953,0.02953547239303589,-2.8100223541259766,-0.3830767273902893,-0.24281322956085205,1.2222512066924103,-0.365432011374346,-0.2992110696758073
1687006776.9006019,0.8683707118034363,0.40504294633865356,-0.28613394498825073,-0.039635300636291504,0.03335738182067871,0.03750735521316528,-2.18343186378479,-0.2100624293088913,-0.2879640758037567,1.252493726401185,-0.41702580339163975,-0.18134234094167306
1687006776.966389,0.8600728511810303,0.445009708404541,-0.24948187172412872,0.051472008228302,-0.0025962889194488525,0.006790876388549805,-1.6542041301727295,-0.05896930396556854,-0.3307294547557831,1.2884737681255571,-0.4611850914126979,-0.0822366443101234
1687006776.9817939,0.8537864089012146,0.47070518136024475,-0.2224539965391159,0.019535303115844727,-0.0695820152759552,-0.027469664812088013,-1.061510443687439,-0.04348834976553917,-0.14431603252887726,1.3159132184124904,-0.4900898786042512,-0.017306770166725122
1687006777.094687,0.8512865900993347,0.4848770201206207,-0.20051363110542297,0.01776254177093506,-0.06855612993240356,-0.027773022651672363,-0.9424206614494324,-0.046729154884815216,-0.07463355362415314,1.3394709245841272,-0.5062225298972276,0.03582234783548911
1687006777.1123428,0.8497815728187561,0.4955344498157501,-0.17977002263069153,0.03290897607803345,-0.08264678716659546,-0.015023589134216309,-1.111277461051941,-0.11729342490434647,0.05195315554738045,1.3623214882034191,-0.518450024201906,0.09025903349065756
1687006777.176436,0.8513222932815552,0.5012114644050598,-0.15504075586795807,-0.0070992112159729,-0.05133652687072754,0.013851284980773926,-1.3198660612106323,-0.13218821585178375,0.12972325086593628,1.390653025727043,-0.5249982319054765,0.1605307437476799
1687006777.192147,0.8543334603309631,0.5026592016220093,-0.13209186494350433,0.01302194595336914,0.03579306602478027,0.005032062530517578,-0.9994657039642334,-0.09596025943756104,0.13364095985889435,1.4173970431154408,-0.5266720705667399,0.2256524367305394
1687006777.2670689,0.8553566932678223,0.5057610869407654,-0.1121206283569336,-0.01998358964920044,0.01584547758102417,-0.05885399878025055,-0.737614631652832,-0.025243479758501053,-0.02217247150838375,1.440458873377754,-0.5302639730673291,0.27698827405380655
1687006777.282572,0.853520393371582,0.5114803314208984,-0.0994536429643631,0.012919485569000244,0.04023176431655884,-0.010562121868133545,-0.3617345988750458,0.015042689628899097,-0.07986938953399658,1.454797722153065,-0.5369066245403444,0.30508911851425535
1687006777.3938432,0.851494550704956,0.5160037875175476,-0.0932588204741478,-0.0033195018768310547,0.07458764314651489,-0.03575407713651657,0.07862868160009384,0.037687014788389206,-0.11611900478601456,1.4617074417255669,-0.542179103061395,0.3176845461946918
1687006777.4112291,0.847025990486145,0.5231717824935913,-0.09401440620422363,0.010060369968414307,0.017950773239135742,-0.0023905187845230103,-0.023872265592217445,-0.017066244035959244,-0.17819376289844513,1.4602552529181194,-0.5505684926716138,0.3142777526033965
1687006777.478121,0.842197060585022,0.5297959446907043,-0.10010349005460739,0.012829244136810303,-0.035151660442352295,-0.01584792137145996,0.29576340317726135,-0.0431513749063015,-0.15881426632404327,1.4524914280139645,-0.5583599188878582,0.3020986355008678
1687006777.49347,0.8383892774581909,0.534450113773346,-0.10708298534154892,0.004048526287078857,-0.06003904342651367,0.01343989372253418,0.11146540939807892,-0.03816043213009834,-0.1252109706401825,1.4437595005436883,-0.563857011527043,0.2896852814642611
1687006777.5688949,0.8362618684768677,0.5367997884750366,-0.11185798048973083,0.0267447829246521,-0.09991008043289185,0.011699438095092773,0.04414775222539902,-0.05726088955998421,-0.03535478562116623,1.4378260810761998,-0.5666394773595123,0.28209576083454607
1687006777.5749102,0.8366937637329102,0.5354909300804138,-0.11486094444990158,0.0022497177124023438,-0.07606405019760132,0.016426630318164825,0.055350564420223236,-0.015775321051478386,0.021251967176795006,1.4343695329040074,-0.5650889568462822,0.27746118183105334
1687006777.692871,0.8385347127914429,0.5325215458869934,-0.11524144560098648,0.0026976466178894043,-0.04367566108703613,0.029594004154205322,-0.015010818839073181,0.007348906248807907,0.060292378067970276,1.4342199766531865,-0.5615768645899426,0.27707547858470905
1687006777.709996,0.8409819006919861,0.5288791656494141,-0.11417653411626816,-0.0009245872497558594,-0.008935928344726562,-0.007985211908817291,0.06572046875953674,0.044056229293346405,0.06541570276021957,1.4358556292739195,-0.5572793472964632,0.27646490861179807
1687006777.8131251,0.8430680632591248,0.5260538458824158,-0.111821249127388,0.001475512981414795,0.01061314344406128,-0.006815686821937561,-0.04743209853768349,0.025828402489423752,0.05236594378948212,1.43892992954738,-0.5539538019252505,0.27773731338886587
1687006777.834568,0.8443709015846252,0.5241535902023315,-0.11091011017560959,0.0037737488746643066,0.03830069303512573,-0.037679851055145264,0.04413967579603195,0.020178595557808876,0.02312050759792328,1.4401916665238912,-0.5517209360306308,0.27801025874487845
1687006777.897155,0.8442035913467407,0.5246281027793884,-0.10993508994579315,-0.0035511255264282227,0.028640329837799072,-0.028172068297863007,-0.027402417734265327,-0.00855664536356926,0.007761392742395401,1.4413016133045302,-0.552278242774714,0.2802401131387653
1687006777.911402,0.843277096748352,0.5258944630622864,-0.11099153757095337,-0.00897216796875,-0.003753840923309326,0.002883121371269226,-0.07489559054374695,-0.012862355448305607,-0.02795419469475746,1.4399292741512093,-0.5537664161530292,0.28082352615923967
1687006777.989649,0.84177166223526,0.5278212428092957,-0.11324872076511383,0.01388019323348999,0.012812912464141846,-0.0013446137309074402,0.1550394743680954,0.005043940152972937,-0.030420614406466484,1.4370631695552603,-0.5560333545636278,0.27809435107774344
1687006778.0036821,0.8413194417953491,0.5278644561767578,-0.1163639947772026,0.007877886295318604,-0.014818191528320312,0.022965088486671448,0.09740947186946869,0.01717996597290039,0.009023997001349926,1.4333569949090663,-0.5560841929865696,0.2697944650416626
1687006778.1144938,0.8416366577148438,0.5269654393196106,-0.11813276261091232,0.007362425327301025,-0.009753525257110596,0.0025323107838630676,0.12291309982538223,0.026058677583932877,-0.00611587380990386,1.4313465690656768,-0.5550260801734856,0.263361132031005
1687006778.135149,0.8426204323768616,0.5257031917572021,-0.11673544347286224,0.0043340325355529785,0.014229178428649902,-0.005151703953742981,0.03701673820614815,0.010227605700492859,0.029611896723508835,1.433133999139143,-0.5535415268611208,0.26313753383389266
1687006778.167232,0.8432758450508118,0.5244765281677246,-0.11751734465360641,0.005173861980438232,0.005491733551025391,-0.006460234522819519,0.05643153935670853,0.011545781046152115,-0.004833828192204237,1.4323299699517629,-0.5521001824129229,0.2597969781713977
1687006778.179455,0.8432954549789429,0.5241968035697937,-0.11861927062273026,0.006649613380432129,0.005893528461456299,-0.02110528200864792,0.12961623072624207,0.004384452942758799,0.00890202447772026,1.4310515860777153,-0.5517716819473892,0.2573892632902271
1687006778.1821408,0.8444536328315735,0.5192875266075134,-0.13129660487174988,0.02421402931213379,0.04833954572677612,-0.11237084865570068,1.16115140914917,0.12029862403869629,0.07574537396430969,1.4165502200746265,-0.5460170242475519,0.2252869324864229
1687006778.25742,0.8480077385902405,0.5035887360572815,-0.165171280503273,0.014052987098693848,0.025372564792633057,0.010615095496177673,2.156881093978882,0.2209085077047348,0.1050758957862854,1.3784291649037668,-0.5277476635807988,0.13340355262544198
1687006778.349162,0.8545599579811096,0.46204179525375366,-0.23715998232364655,0.024193763732910156,0.195627361536026,-0.1405559778213501,5.372402191162109,0.584217369556427,0.14047029614448547,1.3000860927805937,-0.48029608710175853,-0.06907318138188637
1687006778.3667269,0.8645756244659424,0.3966420888900757,-0.30851924419403076,-0.03938031196594238,-0.2257893979549408,0.19671818614006042,2.8057687282562256,0.41196703910827637,0.23454627394676208,1.2280368399062092,-0.4078559778797333,-0.2947509595731723
1687006778.406563,0.8726195096969604,0.346264511346817,-0.34443601965904236,0.040619075298309326,0.26069968938827515,-0.13351494073867798,3.9647836685180664,0.5168614983558655,-0.15895555913448334,1.1948542557548802,-0.35358634222428625,-0.4364868730123894
1687006778.529801,0.8796303868293762,0.2706317901611328,-0.3911636471748352,-0.048743486404418945,0.09889039397239685,0.20137488842010498,4.883599758148193,0.7191095948219299,-0.37620624899864197,1.1523662005242266,-0.2740492396558851,-0.6759965768576278
1687006778.547555,0.8895272016525269,0.20336337387561798,-0.4091269373893738,0.07687300443649292,-0.05625331401824951,0.06472086906433105,3.749901294708252,0.7254678010940552,-0.45098942518234253,1.139709140557903,-0.20479185344021061,-0.878648754699121
1687006778.617512,0.9019913673400879,0.1461557149887085,-0.4062637388706207,-0.033384740352630615,0.03556126356124878,0.07957309484481812,3.52850341796875,0.8573156595230103,-0.3426301181316376,1.1476035291797564,-0.1466811326448173,-1.0623726256405908
1687006778.633504,0.9159197807312012,0.09821277856826782,-0.38915953040122986,0.016346395015716553,-0.08371690660715103,0.09498542547225952,2.5979347229003906,0.7223962545394897,-0.3479860723018646,1.1690240540661367,-0.0983713586641295,-1.209844429740531
1687006778.706794,0.9288784861564636,0.06852348148822784,-0.3639911413192749,-0.005035042762756348,0.08333201706409454,-0.009559273719787598,2.538830518722534,0.8491526246070862,-0.3670533001422882,1.1973260666401373,-0.06857721768127926,-1.3324750436238713
1687006778.712785,0.9434797167778015,0.04350818693637848,-0.3285622298717499,0.04715144634246826,0.1310676485300064,0.08703088760375977,2.887052059173584,0.964816689491272,-0.7346731424331665,1.2356857248846793,-0.043521926369110064,-1.4663497654510065
1687006778.800297,0.9571086764335632,0.04313163831830025,-0.28650128841400146,0.03423970937728882,0.05328866094350815,0.017275214195251465,2.5813491344451904,1.0861645936965942,-0.9976228475570679,1.2799447907002575,-0.04314502345989617,-1.6146288391711903
1687006778.81781,0.970142662525177,0.06189662590622902,-0.23450417816638947,0.03977566957473755,0.10858984291553497,0.19301557540893555,2.42055082321167,1.2880351543426514,-1.1806704998016357,1.3336243900029012,-0.061936216218884094,-1.7419246491251899
1687006778.923135,0.9780621528625488,0.09637179225683212,-0.18468068540096283,0.03681516647338867,0.019198283553123474,0.04965569078922272,2.5587284564971924,1.2126410007476807,-1.2739710807800293,1.3841705666351183,-0.09652159767266755,-1.882694105328436
1687006778.932159,0.9806873202323914,0.13808828592300415,-0.1385064721107483,-0.012196719646453857,-0.13872915506362915,0.08702339231967926,1.3930168151855469,1.121727705001831,-1.1476962566375732,1.430490227817293,-0.13853094773778668,-1.9927771362707134
1687006779.0109081,0.9774909615516663,0.18931862711906433,-0.09311265498399734,0.02553027868270874,-0.03291603922843933,0.05786491185426712,0.8500783443450928,1.0664620399475098,-1.1501805782318115,1.4758260921636068,-0.19046817268102562,-2.0499723365324525
1687006779.028449,0.9698870778083801,0.2376835197210312,-0.05315876752138138,0.027351200580596924,-0.004162982106208801,0.012875616550445557,0.7659822702407837,0.9265763759613037,-1.026545763015747,1.5160418760321648,-0.2399803276590159,-2.0934978678362786
1687006779.095336,0.9564482569694519,0.2914262115955353,-0.01667504943907261,0.0452457070350647,0.033479243516922,0.03965485095977783,0.6461277604103088,1.077567219734192,-1.2560157775878906,1.5533637468926622,-0.29571742085571334,-2.1355353205871235
1687006779.11021,0.9356905817985535,0.3516225516796112,0.02906322479248047,0.07349514961242676,0.055588752031326294,0.04262256249785423,0.27595821022987366,1.082638144493103,-1.359110951423645,1.6018470650418108,-0.3593037685776135,-2.155624267358778
1687006779.189104,0.9058166146278381,0.41865265369415283,0.06501208245754242,0.08415853977203369,0.06979653239250183,-0.044000618159770966,0.5545347332954407,0.8182461261749268,-1.486512303352356,1.642445257670033,-0.43196119792429283,-2.1757865216261614
1687006779.3734741,0.8711877465248108,0.482246458530426,0.09203466027975082,0.02331298589706421,-0.09551244974136353,-0.007180459797382355,-0.3529011905193329,0.5028868317604065,-1.4589604139328003,1.6760486754397799,-0.5032172502478813,-2.171440420527429
1687006779.38166,0.8310865163803101,0.5438265800476074,0.11639595776796341,0.019896209239959717,0.06721168756484985,-0.018541336059570312,-0.030365850776433945,0.42139101028442383,-1.42961585521698,1.7099440100359902,-0.5749902118373277,-2.150369384022721
1687006779.3962479,0.7900853157043457,0.5970656871795654,0.138844832777977,-0.023361682891845703,-0.16905665397644043,-0.022679582238197327,-0.6207444667816162,0.24417413771152496,-1.3192927837371826,1.7447540757992255,-0.6398382142618854,-2.117848074848658
1687006779.3998451,0.7500698566436768,0.6416588425636292,0.1602175086736679,0.044318199157714844,0.0585976243019104,-0.09655772149562836,-0.24761362373828888,0.10504581034183502,-1.1965534687042236,1.7812372679322543,-0.6966590840214784,-2.0721053631177844
1687006779.412817,0.7111236453056335,0.6806704998016357,0.1760426163673401,0.049694836139678955,-0.15500515699386597,-0.075258269906044,-0.6359168887138367,0.07814043015241623,-1.0995410680770874,1.8134730270115074,-0.7486774649296548,-2.030927870722994
1687006779.4231381,0.6763253211975098,0.7093610763549805,0.1984725296497345,0.10445177555084229,-0.03159612417221069,-0.1363844871520996,-0.41005071997642517,-0.016971701756119728,-0.9195410013198853,1.8562398002933838,-0.7885913348246132,-1.9719829139698917
1687006779.453442,0.6460614800453186,0.7348000407218933,0.20657560229301453,0.1146959662437439,-0.09333580732345581,-0.08517661690711975,-0.4136584401130676,-0.10218122601509094,-0.804070234298706,1.8802689025865198,-0.8253718522341269,-1.9338058044179511
1687006779.514288,0.6213734745979309,0.7488938570022583,0.23033325374126434,0.05459100008010864,-0.13924407958984375,-0.09634575247764587,-0.8636538982391357,-0.1664220094680786,-0.5978904962539673,1.9257778166258832,-0.8463913715415394,-1.8641875495541045
1687006779.608119,0.6023521423339844,0.7612234950065613,0.24023111164569855,0.0249977707862854,0.03496497869491577,-0.10854768753051758,-0.20324376225471497,-0.14714914560317993,-0.6005496978759766,1.9502865346088338,-0.8651977025378939,-1.8196865765345798
1687006779.731971,0.5850576162338257,0.7686368823051453,0.2586609125137329,-0.010350465774536133,-0.10910600423812866,0.014822393655776978,-0.8958730101585388,-0.23737633228302002,-0.5194008350372314,1.9870711696595855,-0.8767074671319115,-1.7571863649144293
1687006779.7506208,0.5675868988037109,0.7797781229019165,0.26418063044548035,-0.009359359741210938,0.14983314275741577,-0.04039517045021057,0.03950262442231178,-0.21404792368412018,-0.5697322487831116,2.0064200476416865,-0.8943113323744714,-1.7181813708907896
1687006779.8175712,0.5447738766670227,0.7910187244415283,0.27840766310691833,-0.031925976276397705,-0.0814850926399231,0.06779906153678894,-0.8119053244590759,-0.08674545586109161,-0.6506694555282593,2.043246239440947,-0.9124724004143036,-1.6627217135998238
1687006779.834425,0.5205336213111877,0.7997488379478455,0.2990765869617462,0.02162647247314453,0.05361431837081909,-0.07841920852661133,-0.3920406997203827,-0.050837792456150055,-0.672389805316925,2.092298148398849,-0.9268767392497189,-1.5953976149109053
1687006779.905504,0.494011789560318,0.8087536692619324,0.3191709518432617,0.05138316750526428,-0.0715404748916626,-0.06169402599334717,-0.540353000164032,-0.022618047893047333,-0.5770049095153809,2.1444106547753803,-0.9420299779867018,-1.5319809818156682
1687006779.911079,0.47440391778945923,0.8162375092506409,0.32969316840171814,0.03676557540893555,-0.031874656677246094,-0.05070137977600098,-0.304637610912323,-0.19622693955898285,-0.5185529589653015,2.1781337593600245,-0.9548680420496195,-1.4802130130318094
1687006780.000033,0.458911269903183,0.820178747177124,0.3416246473789215,0.0004393458366394043,-0.08699393272399902,0.05662986636161804,-0.06373538821935654,0.12150362133979797,-0.18601660430431366,2.210719341274908,-0.9617234057407266,-1.4389215507041917
1687006780.016418,0.4516695439815521,0.8251814842224121,0.3392201364040375,-0.006723254919052124,-0.05226278305053711,-0.0142078697681427,-0.007093063555657864,0.0538824088871479,-0.1497584581375122,2.2149602165410722,-0.9705234146640268,-1.443317670539086
1687006780.0898771,0.4463605582714081,0.8291110396385193,0.33665627241134644,-0.005427271127700806,-0.02327907085418701,-0.00758516788482666,0.20164670050144196,-0.05956106260418892,-0.06932653486728668,2.216995951950661,-0.9775157752786734,-1.4399666429528175
1687006780.095982,0.4461826682090759,0.8280798196792603,0.33941909670829773,0.028594613075256348,-0.0735783576965332,-0.0024133920669555664,-0.3311801850795746,0.0027502484153956175,0.01005750335752964,2.2211216199782795,-0.9756738092715254,-1.4335396891636125
1687006780.212494,0.44631829857826233,0.8248435854911804,0.3470355272293091,-0.012709200382232666,0.05404764413833618,-0.011815041303634644,-0.053913164883852005,-0.034693531692028046,-0.001358402892947197,2.2316985816602886,-0.9699254611982893,-1.4195217024884306
1687006780.230442,0.4468207359313965,0.8220824003219604,0.35289114713668823,0.05954223871231079,-0.008804082870483398,0.014952540397644043,-0.20589542388916016,0.014532516710460186,-0.015436004847288132,2.2392758697661024,-0.9650587855963454,-1.4101931344021588
1687006780.2967138,0.44515129923820496,0.8182486295700073,0.3637440800666809,0.007256597280502319,0.03970742225646973,-0.018117189407348633,-0.19159996509552002,-0.0948546975851059,-0.02475780062377453,2.2558922516242608,-0.9583577742508421,-1.388419379182219
1687006780.311232,0.4475977122783661,0.8156157732009888,0.36664313077926636,-0.0029566287994384766,-0.058489978313446045,0.02932247519493103,-0.18050982058048248,-0.021338220685720444,0.026622366160154343,2.2570967718720554,-0.9537926661213204,-1.3826621232035365
1687006780.389385,0.4471699297428131,0.8141400814056396,0.37042590975761414,0.0029491186141967773,0.0731128454208374,-0.023273110389709473,0.0106839369982481,0.0002556655090302229,-0.037689778953790665,2.2626032178145867,-0.9512466943386483,-1.3751604907647597
1687006780.395107,0.44613662362098694,0.8155691623687744,0.3685236871242523,0.006301909685134888,-0.023286819458007812,0.002204030752182007,0.03821134567260742,-0.016901927068829536,-0.029877128079533577,2.2612108539744167,-0.9537121209716356,-1.3766639459250944
1687006780.446687,0.44333216547966003,0.8153330087661743,0.3724091649055481,0.029049396514892578,-0.017008483409881592,0.006466597318649292,-0.22723528742790222,0.011973042041063309,-0.07139774411916733,2.269469565486719,-0.9533041468759954,-1.3665320074160296
1687006780.544164,0.4439868927001953,0.8138076663017273,0.3749578297138214,-0.011339068412780762,0.0006151199340820312,-0.024661630392074585,0.05251558497548103,-0.053668729960918427,0.03132916986942291,2.2721030285634884,-0.950674525230311,-1.361556168721803
1687006780.561648,0.44552066922187805,0.8125037550926208,0.3759646415710449,-0.006036967039108276,0.0182916522026062,-0.01854264736175537,-0.009924979880452156,0.013950349763035774,-0.004342275205999613,2.2717249011217255,-0.9484342716649194,-1.3609671037923607
1687006780.626528,0.445824533700943,0.8140439987182617,0.3722544014453888,0.0016090571880340576,0.017255008220672607,0.004653126001358032,0.14059244096279144,-0.015377001836895943,0.013564420863986015,2.266505420155789,-0.9510813280578522,-1.3668684712811563
1687006780.723041,0.4455750584602356,0.8149112462997437,0.37065184116363525,0.013897627592086792,-0.014709770679473877,0.01174876093864441,-0.018743637949228287,-0.008073993027210236,0.00587367732077837,2.264658858214358,-0.9525760272063113,-1.3687417436465164
1687006780.7312012,0.4467509388923645,0.8149096369743347,0.36923766136169434,0.012904912233352661,0.01025533676147461,-0.0065818727016448975,0.04520396143198013,-0.03014884516596794,0.01735822670161724,2.2614855781181125,-0.9525733072179421,-1.3716948840287253
1687006780.811898,0.44814538955688477,0.8144931197166443,0.36846572160720825,0.004949122667312622,-0.0036104321479797363,0.010104894638061523,0.0031243758276104927,-0.019986044615507126,0.0036964102182537317,2.25892879556108,-0.9518549875320812,-1.3732997437959151
1687006780.829462,0.45008695125579834,0.8134412169456482,0.3684231638908386,0.004289388656616211,-0.03960675001144409,-0.00215110182762146,-0.046814464032649994,-0.008985147811472416,0.06917109340429306,2.2567523150904933,-0.9500441769444027,-1.3751335165403091
1687006780.896573,0.4549502730369568,0.8102704882621765,0.36943525075912476,-0.006021380424499512,-0.03143125772476196,-0.01364600658416748,0.011607210151851177,-0.04703870415687561,0.15353776514530182,2.252832322601569,-0.9446134951965708,-1.3781136276744295
1687006780.910857,0.46457743644714355,0.8049177527427673,0.36915451288223267,-0.01043015718460083,-0.11329793930053711,0.024552762508392334,-0.07061318308115005,0.016539564356207848,0.3082531988620758,2.242237599632332,-0.9355368707337292,-1.3905801602591052
1687006780.99663,0.4776220917701721,0.795774519443512,0.37231722474098206,-0.0015173852443695068,-0.02590763568878174,-0.029787808656692505,0.10478216409683228,0.035551782697439194,0.5423014760017395,2.2329257413871866,-0.9202854729518675,-1.4045223652498917
1687006781.011455,0.504423975944519,0.7805697321891785,0.3691444396972656,0.024567782878875732,-0.1618105173110962,-0.005893588066101074,0.04158082231879234,0.09084619581699371,0.821540355682373,2.2025562957639333,-0.8955767835661722,-1.4440971838369097
1687006781.07671,0.5379353761672974,0.7650962471961975,0.3539116382598877,0.03283488750457764,-0.06639629602432251,-0.030303150415420532,0.8406190872192383,0.24704495072364807,1.1709535121917725,2.1527102594369305,-0.8711908338733697,-1.522808207721491
1687006781.092304,0.5837321877479553,0.7384912967681885,0.3374727666378021,0.04940086603164673,-0.15061575174331665,-0.04097911715507507,0.39484789967536926,0.08650115877389908,1.4428819417953491,2.0949792740054796,-0.8308300194484032,-1.6109483116329384
1687006781.135617,0.6398981213569641,0.7008877992630005,0.3150979280471802,0.04975336790084839,-0.09586155414581299,-0.06889727711677551,0.6409867405891418,0.009019240736961365,1.6732420921325684,2.0283606642474408,-0.7766414247225255,-1.7057377522428343
1687006781.294619,0.7014543414115906,0.644608736038208,0.3040420711040497,0.0317610502243042,-0.15771597623825073,-0.02901756763458252,-0.10951694846153259,-0.1551731675863266,1.9507123231887817,1.979798418935842,-0.7005114195680393,-1.7724775960032615
1687006781.311246,0.7666438221931458,0.5674338936805725,0.3004606068134308,0.0493505597114563,-0.006871640682220459,-0.24214136600494385,-0.16110575199127197,-0.4090750217437744,1.9970625638961792,1.9443150855830553,-0.6033860629222941,-1.8056675339003112
1687006781.378012,0.8250207901000977,0.4867115318775177,0.2871461808681488,0.07140260934829712,0.12539485096931458,-0.01706552505493164,0.2773574888706207,-0.25353366136550903,2.072006940841675,1.9057303932958685,-0.5083213477173452,-1.8483780146657542
1687006781.393193,0.8770868182182312,0.3981975018978119,0.2686212658882141,0.11836600303649902,-0.01289781928062439,-0.10158330202102661,-0.6560415625572205,-0.6943013668060303,1.8717999458312988,1.867991156721953,-0.40955098690062497,-1.8760681564044832
1687006781.396542,0.9183651208877563,0.3152349591255188,0.23923362791538239,0.0652623176574707,0.1715204417705536,-0.22028207778930664,-0.4721536338329315,-1.019639253616333,1.6208477020263672,1.825632172859441,-0.32070422259372267,-1.8732935613154194
1687006781.4341168,0.9517163038253784,0.23412446677684784,0.19854900240898132,0.1108599305152893,0.05860014259815216,-0.04472509026527405,-1.2939040660858154,-1.3643848896026611,1.4457918405532837,1.7764684019793051,-0.23631790320596333,-1.852489264193966
1687006781.562676,0.9769051671028137,0.164896622300148,0.13588868081569672,0.02420884370803833,0.12511195242404938,0.01969003677368164,-1.7462471723556519,-1.6611796617507935,1.0395153760910034,1.7090106315536011,-0.16565319182400423,-1.7893096380389533
1687006781.580082,0.991058886051178,0.11345388740301132,0.07022060453891754,0.05557215213775635,0.16552260518074036,0.04168737679719925,-1.5379741191864014,-1.5357164144515991,0.6926247477531433,1.6415322317114496,-0.1136987004546567,-1.7055237281724882
1687006781.646387,0.9966775178909302,0.08144385367631912,-0.0010222129058092833,0.007686614990234375,0.055686891078948975,0.058532655239105225,-1.412341833114624,-1.5585216283798218,0.5141024589538574,1.5697707066609459,-0.08153416281781138,-1.637787644066471
1687006781.661557,0.9957082271575928,0.06476475298404694,-0.06611078232526779,0.05348610877990723,0.15348172187805176,0.04331422597169876,-1.0122613906860352,-1.378894329071045,0.2687360644340515,1.5044979009950419,-0.06481011209231179,-1.570945190095132
1687006781.739222,0.9893214702606201,0.05638347938656807,-0.13440294563770294,0.002164185047149658,-0.09482032805681229,0.20340323448181152,-1.7339624166488647,-1.3795263767242432,0.2708682715892792,1.435769312715586,-0.05641339778393113,-1.5103492708260517
1687006781.7457728,0.9807019233703613,0.059533096849918365,-0.18622542917728424,0.066997230052948,0.1742316037416458,0.007987543940544128,-0.7076173424720764,-1.003448247909546,0.06935045123100281,1.383140612802522,-0.059568320092109585,-1.4357420129068499
1687006781.832051,0.9710326194763184,0.06368550658226013,-0.23030370473861694,0.03801584243774414,-0.18262775242328644,0.1385069042444229,-1.5031490325927734,-0.9625733494758606,0.14858980476856232,1.3379251318259016,-0.06372863515475971,-1.3942315230332418
1687006781.849162,0.9590445160865784,0.07815373688936234,-0.27226072549819946,0.007386267185211182,0.03900327533483505,0.08099186420440674,-1.5388754606246948,-1.0402371883392334,0.10001002252101898,1.2941864096034814,-0.07823351933419306,-1.311463914915598
1687006781.8894758,0.9437938332557678,0.10123039782047272,-0.3146519958972931,0.013756394386291504,-0.10025376826524734,0.1283879578113556,-2.2750244140625,-1.0403988361358643,0.07314565777778625,1.248994230078977,-0.10140409256952762,-1.2232764229585482
1687006781.979784,0.9272513389587402,0.13449494540691376,-0.34945109486579895,0.023371219635009766,-0.0008126497268676758,0.12098130583763123,-2.47065806388855,-1.0555174350738525,0.13708822429180145,1.210389193300958,-0.13490376014632238,-1.1097885294780356
1687006781.996747,0.9109420776367188,0.17948582768440247,-0.3714423179626465,0.06291961669921875,0.010303035378456116,0.08085402846336365,-2.582197904586792,-0.7647086381912231,-0.006871279329061508,1.1836214634290545,-0.1804637683678852,-0.9840034225148399
1687006782.033186,0.8981216549873352,0.22358518838882446,-0.37866538763046265,0.01827561855316162,-0.023893311619758606,0.08502525091171265,-2.346524477005005,-0.6162699460983276,0.059633977711200714,1.1717926862045696,-0.22549123440664334,-0.8721877398328461
1687006782.160733,0.8909896612167358,0.25424253940582275,-0.37616249918937683,0.04139864444732666,-0.08175712823867798,-0.052762001752853394,-1.53872549533844,-0.37786874175071716,0.1589687466621399,1.1713124189118167,-0.2570644148059453,-0.7760595561174745
1687006782.178956,0.8856495022773743,0.27833041548728943,-0.371694952249527,0.031129062175750732,-0.09430935978889465,0.05455639958381653,-1.9523471593856812,-0.3733021318912506,0.18607227504253387,1.1734350162285954,-0.28205538443560024,-0.6969089407492425
1687006782.2460032,0.8835341930389404,0.3005829155445099,-0.3591900169849396,0.019816696643829346,-0.04042050242424011,-0.05914491415023804,-1.6130722761154175,-0.30604442954063416,0.2653970718383789,1.1846666759453106,-0.30530376930413206,-0.6025651331490389
1687006782.260717,0.8816452026367188,0.3188527822494507,-0.3479005992412567,0.0168839693069458,-0.003178894519805908,-0.016784369945526123,-1.4695581197738647,-0.23215742409229279,0.12740451097488403,1.1949504239313455,-0.3245188563302847,-0.5282997027952333
1687006782.340547,0.8794885277748108,0.33922669291496277,-0.33380454778671265,-0.016161322593688965,-0.026680827140808105,-0.004971057176589966,-1.6580842733383179,-0.2765800356864929,0.1670859307050705,1.2080478812452515,-0.34609473834399923,-0.4480176297424758
1687006782.3470368,0.8778628706932068,0.35535430908203125,-0.32106101512908936,0.023397505283355713,0.005088835954666138,-0.05354216694831848,-1.298880696296692,-0.2491881549358368,0.10297565907239914,1.2201772206190162,-0.3632930943039661,-0.37692785512470317
1687006782.433373,0.8760075569152832,0.37320730090141296,-0.3054949939250946,-0.012100696563720703,0.02135452628135681,0.0021198689937591553,-1.3894169330596924,-0.20816341042518616,0.0644180178642273,1.2352483944049373,-0.3824637020370285,-0.3048400153764409
1687006782.450536,0.8744794130325317,0.38655006885528564,-0.29302719235420227,0.022752702236175537,0.04930207133293152,-0.01695495843887329,-0.7484692931175232,-0.1265096515417099,0.021357495337724686,1.2474677707372512,-0.39688793231951774,-0.25048454706777723
1687006782.516417,0.8729062080383301,0.39836186170578003,-0.28167831897735596,0.007800638675689697,-0.037720292806625366,0.020676791667938232,-0.9586777687072754,-0.12556049227714539,0.025145774707198143,1.258654952041571,-0.4097301835021383,-0.20680999719229967
1687006782.531066,0.8728530406951904,0.40476521849632263,-0.2725668251514435,-0.0003249645233154297,0.040806740522384644,-0.012986034154891968,-0.20941908657550812,-0.02678385190665722,0.030490407720208168,1.2681199531992429,-0.4167220622811582,-0.17442979828628122
1687006782.5753,0.8728243708610535,0.40754228830337524,-0.2684900164604187,0.010186493396759033,-0.06017589569091797,0.03472548723220825,-0.3643400967121124,-0.0007099078502506018,0.014320424757897854,1.2723720592808136,-0.41976109228409636,-0.1626367822331657
1687006782.637394,0.8735164403915405,0.4098186492919922,-0.26271218061447144,0.005694985389709473,0.0027790367603302,0.008043140172958374,-0.2094699591398239,-0.01012524776160717,0.0660923421382904,1.2786493755732746,-0.42225524032839323,-0.14546801747717
1687006782.764051,0.874746561050415,0.4092806875705719,-0.2594379186630249,-0.0007993578910827637,0.026907145977020264,0.008629262447357178,-0.0505850575864315,0.04555701091885567,0.011943087913095951,1.2824742337676296,-0.4216655543923485,-0.1368796685714914
1687006782.782121,0.875420868396759,0.4087620973587036,-0.2579766809940338,0.006857633590698242,-0.012308210134506226,-0.00427594780921936,-0.08282635360956192,0.007472743280231953,0.013812494464218616,1.2842193158329935,-0.42109726163465,-0.13781424963142036
1687006782.846745,0.8755434155464172,0.41100165247917175,-0.25397148728370667,0.003408670425415039,0.023675501346588135,-0.010890454053878784,-0.14419956505298615,0.019810102880001068,-0.0022946372628211975,1.288471593539469,-0.4235525364703408,-0.12601582187097513
1687006782.861526,0.8759704828262329,0.4104445278644562,-0.25339964032173157,0.01494455337524414,-0.041303813457489014,0.0009430646896362305,-0.11567515134811401,-0.0498201958835125,0.06429357826709747,1.289204342687093,-0.42294149938820585,-0.12387937723063622
1687006782.938994,0.8763632774353027,0.4098559021949768,-0.25299355387687683,-0.003346860408782959,0.031580954790115356,-0.005886971950531006,-0.021076567471027374,-9.72924754023552e-05,-0.01872953772544861,1.2897516586605642,-0.42229606445545725,-0.11702529944913884
1687006782.9540129,0.8758295178413391,0.4104675054550171,-0.2538488805294037,-0.001363515853881836,-0.017065316438674927,0.00542062520980835,-0.015847761183977127,-0.003486786037683487,-0.028398875147104263,1.2886881277308722,-0.4229666781301982,-0.12031565811301828
1687006783.026474,0.8749769926071167,0.4124106168746948,-0.2536393105983734,0.015937983989715576,-0.015560001134872437,0.006614893674850464,-0.07952705025672913,-0.017918812111020088,-0.005159599240869284,1.2886485646420875,-0.42509861511901453,-0.11694827345525825
1687006783.0316858,0.8747344613075256,0.413901686668396,-0.25204160809516907,0.00882565975189209,-0.013083785772323608,0.004712015390396118,-0.12378430366516113,-0.009473484009504318,-0.013960881158709526,1.2902600905823656,-0.42673595113449625,-0.11257107216153532
1687006783.1198602,0.8751048445701599,0.4145682156085968,-0.24964909255504608,0.0004292130470275879,-0.011247873306274414,0.013305798172950745,-0.17515787482261658,-0.0382409505546093,0.041082996875047684,1.2928990851982018,-0.42746828555368754,-0.10351826414343245
1687006783.1388268,0.8754935264587402,0.4153483510017395,-0.24697522819042206,-0.00467449426651001,-0.010944634675979614,0.013195425271987915,-0.1113375723361969,0.029772810637950897,-0.03545498847961426,1.2958429405869858,-0.4283257038579895,-0.09705497367814847
1687006783.173454,0.8757739067077637,0.4173562526702881,-0.2425573468208313,0.0036969780921936035,-0.025769859552383423,0.02058786153793335,-0.21272198855876923,0.005496233701705933,0.023763062432408333,1.3006056394050662,-0.43053412262156476,-0.08905999222124031
