Timestamp,gravityX,gravityY,gravityZ,accelerationX,accelerationY,accelerationZ,rotationRateX,rotationRateY,rotationRateZ,attitudeRoll,attitudePitch,attitudeYaw
1687013790.714452,0.7422218918800354,0.6564116477966309,0.13501976430416107,0.00037747621536254883,0.01506662368774414,-0.01340724527835846,-0.15408454835414886,0.07904427498579025,0.08373580127954483,1.7507415386986658,-0.7160523107216552,3.128364924573257
1687013790.735038,0.7445586323738098,0.6525354981422424,0.1408192217350006,0.029702842235565186,0.008872032165527344,-0.010966897010803223,-0.23457986116409302,0.02484317496418953,0.05731157958507538,1.757719560931294,-0.7109257166236982,3.1318818421902144
1687013790.7994509,0.7451091408729553,0.6503515243530273,0.14783518016338348,-0.003806769847869873,0.05967050790786743,-0.04419757425785065,-0.05147702619433403,0.06284914910793304,-0.005593814887106419,1.7666600836234712,-0.7080470755180146,-3.1374463465798574
1687013790.815692,0.7447425127029419,0.6505385637283325,0.14885574579238892,0.01374131441116333,0.022725045680999756,-0.021231308579444885,0.17256157100200653,0.14702323079109192,0.04770549014210701,1.7680721188961368,-0.7082933153325693,3.139382526711805
1687013790.8588781,0.7450994849205017,0.651154637336731,0.14430662989616394,0.013384342193603516,0.025755882263183594,-0.008442401885986328,0.49064749479293823,0.2125622183084488,0.07466733455657959,1.762102147288069,-0.7091048025020463,3.1168086358657834
1687013790.956804,0.7471842169761658,0.6512517333030701,0.13261617720127106,0.0049214959144592285,0.016854405403137207,0.008466601371765137,0.8361243009567261,0.30497682094573975,0.14839822053909302,1.746454969950726,-0.7092327515241142,3.074350459321343
1687013790.972989,0.7506586313247681,0.649774968624115,0.1196003407239914,0.010205626487731934,-0.04979926347732544,0.06475627422332764,0.7831124067306519,0.4718981683254242,0.25585830211639404,1.7287955151564578,-0.7072883203059783,3.017129288927343
1687013791.042262,0.7564932703971863,0.6441569328308105,0.11304720491170883,0.011817097663879395,0.04016929864883423,-0.04085792601108551,0.9938968420028687,0.6989167928695679,0.21005092561244965,1.7191344720911899,-0.6999205471464216,2.955240008417779
1687013791.0477262,0.7557951807975769,0.6446506977081299,0.11488864570856094,0.05520951747894287,-0.05889618396759033,0.0059762150049209595,-0.06228923797607422,0.2081998586654663,-0.04546153545379639,1.7216517379343852,-0.7005662778040572,2.9219097961289204
1687013791.1328568,0.7480343580245972,0.651691734790802,0.12546943128108978,-0.013613641262054443,-0.008472681045532227,-0.04833626747131348,-0.539085328578949,-0.2594577968120575,-0.3789057433605194,1.7369815291298882,-0.7098127232272151,2.9480574710331844
1687013791.150949,0.7408088445663452,0.6581381559371948,0.13437487185001373,-0.027109503746032715,-0.027873754501342773,-0.12116073071956635,-0.8412593007087708,-0.5664390921592712,-0.2781083583831787,1.7502347316576659,-0.7183432049850134,2.999617022066163
1687013791.223051,0.7353347539901733,0.6639925837516785,0.1356334686279297,0.006928920745849609,-0.06824368238449097,-0.01804925501346588,-0.8517402410507202,-0.7674645185470581,-0.20524421334266663,1.7531975238816473,-0.7261457519262451,3.0559048403651197
1687013791.2388391,0.7363068461418152,0.6647363305091858,0.12640494108200073,-0.01757204532623291,0.01994091272354126,-0.07307551801204681,-0.11111874133348465,-0.5970426797866821,-0.07051882147789001,1.7408132778914884,-0.727140832602613,3.0883187187122707
1687013791.279265,0.7403371334075928,0.6621004939079285,0.1162930279970169,0.05186867713928223,-0.032949984073638916,0.028345003724098206,-0.6469980478286743,-0.7527865171432495,0.019880717620253563,1.726604329502169,-0.7236181807352305,3.1178181559602534
1687013791.372433,0.7453864812850952,0.6581225991249084,0.10617640614509583,0.007237911224365234,0.009602010250091553,0.012704834342002869,-0.07816541194915771,-0.4045567512512207,0.10625501722097397,1.7122892246115804,-0.7183225371915606,3.1396523274107095
1687013791.389261,0.7525981664657593,0.6519937515258789,0.09219605475664139,0.010966837406158447,-0.0025339126586914062,0.025815360248088837,0.30183514952659607,-0.1371525675058365,0.2720552384853363,1.6926926729395446,-0.7102109871723178,3.1310893186776605
1687013791.429229,0.7622320652008057,0.6425588130950928,0.07823190093040466,0.045491814613342285,0.01576632261276245,0.012054309248924255,0.3515256345272064,-0.08476489782333374,0.25064849853515625,1.6730734859880476,-0.697833079303406,3.106423060921138
1687013791.495449,0.7692446708679199,0.6351133584976196,0.06995726376771927,0.017986834049224854,-0.017910480499267578,0.049458034336566925,-0.05516594648361206,-0.10578443855047226,0.1691237986087799,1.661489641025007,-0.688155256628442,3.0978797962550666
1687013791.5883389,0.7724507451057434,0.6313991546630859,0.06822825223207474,0.030939757823944092,0.027216017246246338,0.01902151107788086,0.12880028784275055,0.07632465660572052,0.06499680131673813,1.6588946936376097,-0.683356179480061,3.0949777499455218
1687013791.607399,0.7740983366966248,0.6297640800476074,0.06456953287124634,0.0006210207939147949,0.03599226474761963,-0.024286381900310516,0.4069764316082001,0.27618351578712463,-0.013029559515416622,1.6540162524899387,-0.6812494440572485,3.0708198363957164
1687013791.671576,0.7699334025382996,0.634895920753479,0.06410976499319077,-0.0032401680946350098,-0.09500932693481445,0.03153229504823685,-0.41646909713745117,-0.2092103362083435,-0.13894906640052795,1.653871319110756,-0.6878737750724903,3.0708269797088534
1687013791.686922,0.7688872814178467,0.6363773941993713,0.06193682923913002,-0.041943371295928955,0.028890550136566162,-0.03874349966645241,0.14675062894821167,-0.14940017461776733,-0.03252442926168442,1.6511766171632984,-0.6897928593311686,3.0807997739275463
1687013791.727448,0.7711459398269653,0.6342561841011047,0.05525572970509529,-0.009778201580047607,0.02933335304260254,-0.004230380058288574,0.09128287434577942,-0.09812092036008835,0.06903168559074402,1.6423281219367227,-0.6870460280913763,3.0794893297394506
1687013791.8326159,0.7724026441574097,0.6335148811340332,0.04531397670507431,0.007779359817504883,0.0020290613174438477,0.03368080034852028,0.2437124103307724,0.0004648640751838684,0.010683093219995499,1.629395425465658,-0.6860876037241002,3.0611586747776776
1687013791.851385,0.7710174322128296,0.635367214679718,0.04290339723229408,0.020059168338775635,-0.013464629650115967,0.03207826614379883,-0.12203774601221085,-0.06084190681576729,-0.07372599840164185,1.6263841721763455,-0.6884839293477684,3.058845469655569
1687013791.9454699,0.7692314386367798,0.6373502016067505,0.04547176510095596,-0.01152580976486206,-0.009847700595855713,0.003463149070739746,-0.07753028720617294,0.0016346133779734373,-0.07569526880979538,1.6298408577308106,-0.6910546014114494,3.0661614830423276
1687013791.963297,0.7663916945457458,0.640416145324707,0.0501093752682209,0.017971038818359375,-0.044865548610687256,0.007584095001220703,-0.18730534613132477,-0.07925242185592651,-0.09151497483253479,1.6360868958022678,-0.6950400086897447,3.07846902138203
1687013792.069056,0.763780415058136,0.643458902835846,0.050989989191293716,0.031049787998199463,-0.031062662601470947,-0.017863158136606216,-0.15450097620487213,-0.08551014214754105,-0.09010497480630875,1.637457422182271,-0.6990083260376778,3.084474322857296
1687013792.0865679,0.7634405493736267,0.6436266899108887,0.05388271436095238,0.008608341217041016,-0.0002397298812866211,-0.0036660432815551758,-0.1561836451292038,-0.07481799274682999,-0.018080445006489754,1.6412582788860248,-0.6992275232617045,3.099737738236205
1687013792.156934,0.7627888321876526,0.6442592740058899,0.05552567541599274,0.03774815797805786,-0.03807336091995239,-0.00993240624666214,-0.3845351040363312,-0.19635464251041412,-0.06865833699703217,1.6434611462701736,-0.7000543769150308,3.1118174194863824
1687013792.172233,0.7617889046669006,0.6451913118362427,0.05835914611816406,-0.0051361918449401855,0.0273093581199646,-0.02561378851532936,-0.11436869204044342,-0.13953067362308502,-0.0192554984241724,1.6472550156631074,-0.7012736274898469,3.132313784918928
1687013792.275151,0.762546956539154,0.644576907157898,0.055159375071525574,0.004756331443786621,-0.00904834270477295,0.002564661204814911,-0.025063885375857353,-0.10111706703901291,0.038445547223091125,1.643006263374751,-0.7004697898651383,3.134610463978348
1687013792.291654,0.7625520825386047,0.6447569727897644,0.05294308811426163,-0.0031831860542297363,0.009097456932067871,0.017018437385559082,-0.05938120186328888,-0.0430225133895874,-0.04264930635690689,1.6401139096868917,-0.7007052964041001,3.1350475965988354
1687013792.366208,0.7607405185699463,0.6467428803443909,0.05475031957030296,-0.009901344776153564,0.007630348205566406,0.02728092670440674,-0.1533336490392685,-0.07468882948160172,-0.06440313160419464,1.6426422205552311,-0.7033061698824562,-3.137818541333704
1687013792.381238,0.7600249648094177,0.6474975943565369,0.055756911635398865,-0.013565123081207275,0.016198694705963135,0.021254178136587143,0.0147901875898242,0.0008540407288819551,0.01174729224294424,1.644027084516519,-0.7042961157831649,-3.1335787724019495
1687013792.453352,0.7597429156303406,0.6477046012878418,0.0571797713637352,0.0070111751556396484,-0.0029444098472595215,0.020685791969299316,-0.06264130771160126,-0.021071676164865494,-0.017067044973373413,1.6459167047657488,-0.7045677969768079,-3.131343741071421
1687013792.4668531,0.758770763874054,0.6487946510314941,0.05772850289940834,-0.01295161247253418,0.00620424747467041,-0.0034835264086723328,0.008869891986250877,0.03182775899767876,-0.03092680126428604,1.6467316464446495,-0.7059994138342978,-3.1317239455410824
1687013792.542763,0.7578979134559631,0.6495218276977539,0.060929954051971436,-0.005090296268463135,0.010344624519348145,-0.010331869125366211,-0.034448955208063126,-0.005182723514735699,-0.01778390072286129,1.6510171523668795,-0.7069553495415958,-3.1253187547379726
1687013792.5489259,0.7567149996757507,0.6508002877235413,0.06198107823729515,0.013975918292999268,-0.010510861873626709,-0.0017546415328979492,-0.07642556726932526,0.005294684320688248,-0.028911586850881577,1.652521976178611,-0.7086379776186302,-3.1248831867624665
1687013792.635665,0.7554109692573547,0.6522231698036194,0.06292329728603363,-0.004922747611999512,0.004652500152587891,-0.004802584648132324,0.006813221611082554,0.02866676263511181,-0.04737674817442894,1.653901249316173,-0.7105136015544025,-3.1232917937575007
1687013792.6518059,0.7547953128814697,0.652898371219635,0.06330500543117523,0.0019488930702209473,-0.00536113977432251,-0.006832249462604523,-0.008536439388990402,0.0168929286301136,-0.003404762828722596,1.6544709211355058,-0.7114046576665024,-3.1229795406219676
1687013792.724121,0.7544362545013428,0.6533157825469971,0.06328044086694717,0.004841029644012451,-0.016596972942352295,-0.011614203453063965,-0.036191146820783615,-0.014617148786783218,-0.020602257922291756,1.6544782247947027,-0.7119558949131052,-3.1234312167156695
1687013792.738817,0.7540478706359863,0.6537405252456665,0.06352540105581284,0.0026507973670959473,-0.007225513458251953,-0.007388345897197723,-0.018847312778234482,-0.01865982636809349,-0.023632269352674484,1.654843706958167,-0.7125170363593077,-3.120903392683372
1687013792.813606,0.7545705437660217,0.6532303094863892,0.06255662441253662,0.00835353136062622,0.00027310848236083984,-0.002116568386554718,0.08388669788837433,0.031007148325443268,0.024477070197463036,1.6535107862389138,-0.7118430196064797,-3.1230240303814902
1687013792.827719,0.7544339299201965,0.6533099412918091,0.06336955726146698,0.014166474342346191,-0.008748054504394531,-0.00042700767517089844,-0.09909488260746002,-0.051728565245866776,-0.03549352288246155,1.654595779553505,-0.7119481322136288,-3.1208839174993503
1687013792.877089,0.7540499567985535,0.6536788940429688,0.06412793695926666,-0.004095911979675293,0.00597381591796875,-0.0033826902508735657,0.02295885793864727,0.015740755945444107,0.0019859413150697947,1.6556368619874824,-0.7124355852971381,-3.1178606162151743
1687013792.969917,0.754148006439209,0.6534790992736816,0.06500781327486038,0.01797717809677124,0.010522425174713135,0.010416388511657715,0.01261194422841072,0.04084717109799385,-0.006701290141791105,1.6567841086590955,-0.7121716349393125,-3.119692866502996
1687013792.9857059,0.7528887391090393,0.6548575162887573,0.06572787463665009,0.006052851676940918,0.02052706480026245,0.005957834422588348,0.11559686809778214,0.14695914089679718,-0.024469168856739998,1.657876465578181,-0.7139940618797083,-3.124655824409793
1687013793.019378,0.7536261081695557,0.6542486548423767,0.06329428404569626,-0.00455707311630249,0.07622009515762329,-0.04621971398591995,0.7178811430931091,0.38728129863739014,0.14196941256523132,1.6545860075191778,-0.713188707454369,3.1356427867960153
1687013793.118793,0.7631146311759949,0.644957423210144,0.041062552481889725,0.04871392250061035,0.14019888639450073,-0.08978390693664551,2.3121497631073,1.0099802017211914,0.5308303236961365,1.6245536382011971,-0.7009675735243452,3.0377206710726363
1687013793.1340199,0.7845776081085205,0.619995653629303,-0.006584810093045235,0.028975188732147217,0.0063623785972595215,-0.044715285301208496,3.879531145095825,1.6079758405685425,0.9773380756378174,1.5624037145067766,-0.6687371472131077,2.840166943027232
1687013793.169339,0.8234335780143738,0.5632251501083374,-0.06880735605955124,0.04492872953414917,-0.0365070104598999,0.05251092463731766,5.268606185913086,2.2370798587799072,1.266860842704773,1.4874284987711026,-0.598283757802431,2.5485335046187707
1687013793.269003,0.8681508898735046,0.4869253635406494,-0.09601050615310669,0.05033677816390991,-0.19256797432899475,0.09770415723323822,3.9851160049438477,2.181460380554199,1.3935215473175049,1.4606519537741267,-0.5085661631501148,2.2883011075466158
1687013793.285811,0.9090092778205872,0.4065474271774292,-0.09176843613386154,0.014467895030975342,-0.0508192777633667,0.08525288105010986,4.432413101196289,2.2543551921844482,1.3646633625030518,1.470182869158927,-0.4186719178166024,2.0649872006194436
1687013793.318373,0.9412358999252319,0.33175817131996155,-0.0633363276720047,0.009035646915435791,-0.08474889397621155,0.14349067211151123,3.5065534114837646,2.1667511463165283,1.0938917398452759,1.5036070212322967,-0.33816667660556077,1.8536193690061171
1687013793.4163818,0.9620261788368225,0.27250054478645325,-0.015792911872267723,-0.024175047874450684,0.12834784388542175,0.047271728515625,4.306457042694092,2.2635161876678467,1.0273712873458862,1.5543814991671345,-0.27599098750389867,1.6669294905726226
1687013793.4323149,0.9702977538108826,0.23806007206439972,0.04300535470247269,0.002633035182952881,0.0038221627473831177,0.16628408432006836,4.014636516571045,2.4573028087615967,0.40056395530700684,1.6150891497492121,-0.2403680104625777,1.426854792108093
1687013793.472007,0.9632301330566406,0.24429941177368164,0.11182790994644165,0.08514022827148438,0.2185758650302887,0.007266871631145477,3.3994317054748535,2.1255176067352295,-0.0847896933555603,1.6863756780112436,-0.24679714581541315,1.2608491314069374
1687013793.568984,0.9434475898742676,0.28884628415107727,0.16271023452281952,0.10113859176635742,0.09723156690597534,-0.02393162250518799,3.479205846786499,1.8978636264801025,-0.6657087206840515,1.7415797700926658,-0.2930215329918109,1.0813180687511332
1687013793.585015,0.9144512414932251,0.35814303159713745,0.18844833970069885,0.04679161310195923,0.12383627891540527,-0.020128577947616577,3.443300485610962,1.7280210256576538,-1.1391918659210205,1.7740292954868682,-0.36627824010827587,0.9118811634574183
1687013793.619432,0.8727668523788452,0.4480304718017578,0.19376979768276215,0.18196642398834229,-0.017137616872787476,-0.039472952485084534,2.366858959197998,1.0529727935791016,-1.5030672550201416,1.7892704901073535,-0.464561113299768,0.7706501990958124
1687013793.717819,0.8255934715270996,0.5362041592597961,0.17572879791259766,0.13506942987442017,0.017598271369934082,0.008658409118652344,1.8102312088012695,0.6343500018119812,-1.695188283920288,1.7805179997203309,-0.5659336725154374,0.6674821511378012
1687013793.733962,0.7731636762619019,0.6150624752044678,0.15464766323566437,0.15504366159439087,-0.15674960613250732,-0.10198953747749329,0.2985179126262665,-0.22263284027576447,-1.933736801147461,1.7682104464890314,-0.6624651766191743,0.6318265870545138
1687013793.769947,0.7173404097557068,0.6835102438926697,0.13504330813884735,0.12384623289108276,0.005958080291748047,-0.12045586109161377,0.7604897618293762,-0.13138264417648315,-1.531689167022705,1.7568740636830564,-0.7525608183196368,0.6242431449596071
1687013793.87182,0.6617517471313477,0.7429035902023315,0.10089230537414551,0.1105567216873169,-0.14436233043670654,-0.09253047406673431,0.5711381435394287,-0.4014342725276947,-1.5346969366073608,1.7220936754368579,-0.8373976041543275,0.5926498604120867
1687013793.888794,0.6129515767097473,0.7870168089866638,0.06996448338031769,0.08890706300735474,-0.17776381969451904,-0.05119621008634567,0.40183937549591064,-0.5456284880638123,-1.162510633468628,1.6844480170532878,-0.9059584602430317,0.5720422224435188
1687013793.9203181,0.575374960899353,0.8170161247253418,0.03779717907309532,0.009998083114624023,-0.15933167934417725,-0.04618942365050316,0.3638449013233185,-0.46429678797721863,-0.8546029329299927,1.6363934633940382,-0.9562170348491307,0.5494196886096622
1687013794.019267,0.5421074032783508,0.8403056859970093,0.002497288165614009,0.07779628038406372,-0.0564921498298645,0.035344481468200684,0.7299526333808899,-0.3524630069732666,-0.6759829521179199,1.5754029243353063,-0.9978468483132815,0.500385245645809
1687013794.034811,0.5152515172958374,0.8562297821044922,-0.03723583742976189,0.06322449445724487,-0.021467268466949463,0.029438555240631104,0.668768048286438,-0.2876506447792053,-0.6387744545936584,1.4986544423778665,-1.0279266859377951,0.42392021451001777
1687013794.070139,0.4909306466579437,0.8681579828262329,-0.07272286713123322,-0.08062177896499634,0.14873331785202026,0.11331123858690262,0.6757660508155823,-0.1626284420490265,-0.6306008696556091,1.4237331168942355,-1.0514786320540357,0.3537444869862072
1687013794.16718,0.45400214195251465,0.8857247829437256,-0.09681762009859085,-0.07259339094161987,-0.010633289813995361,0.08584654331207275,0.031375378370285034,-0.3160291910171509,-0.8670206069946289,1.360689936263157,-1.0880530554473955,0.29271262734050346
1687013794.1831741,0.4172751009464264,0.902714729309082,-0.10482281446456909,-0.08075761795043945,-0.08249366283416748,0.0312601774930954,-0.08806580305099487,-0.5381568074226379,-0.801567554473877,1.3246810996306546,-1.12603807521347,0.27352793970622774
1687013794.218647,0.3811188042163849,0.9196797609329224,-0.0945395976305008,-0.10411068797111511,-0.17431843280792236,0.0783957839012146,-0.5519980192184448,-0.5837277173995972,-0.7127692699432373,1.3276462018384727,-1.1672640951282098,0.30787731841814286
1687013794.320246,0.34769806265830994,0.932709813117981,-0.09570073336362839,0.06258037686347961,-0.15768539905548096,0.07601690292358398,-0.19534040987491608,-0.350007027387619,-0.41845694184303284,1.3022061412291792,-1.2018553765194038,0.3055489009347674
1687013794.337956,0.33444371819496155,0.9376777410507202,-0.09438072890043259,0.08483731746673584,-0.03750079870223999,0.09601343423128128,-0.02151034027338028,-0.1613682359457016,-0.10921315103769302,1.2957467546557027,-1.2158861910245942,0.31318603344295565
1687013794.436506,0.33662012219429016,0.9364227652549744,-0.09899188578128815,0.09465435147285461,-0.07359927892684937,0.07213640213012695,0.03907839581370354,0.049683187156915665,0.17846104502677917,1.2847832518799973,-1.2122922209670959,0.3018037040983095
1687013794.454247,0.3474904000759125,0.9330737590789795,-0.09286440163850784,-0.0150013267993927,0.11549490690231323,0.007674582302570343,-0.0891064703464508,-0.05294811725616455,0.2716125547885895,1.3096558731918742,-1.2028659316290793,0.3307275152779663
1687013794.555482,0.3504885733127594,0.9319919943809509,-0.0924590602517128,-0.03530299663543701,0.0415644645690918,0.09346617013216019,-0.1047317311167717,0.0443207323551178,-0.03034137189388275,1.3128717334425495,-1.1998700379797484,0.3316231130426843
1687013794.574276,0.34992095828056335,0.9323803186416626,-0.09067630022764206,-0.01660791039466858,0.05309325456619263,-0.032095909118652344,0.03424440324306488,0.03837656229734421,-0.010591702535748482,1.3172399218567392,-1.2009428904434643,0.3344767568014096
1687013794.6424909,0.3500162661075592,0.9320988059043884,-0.09316959232091904,0.05009979009628296,-0.03739970922470093,-0.029205918312072754,-0.056458957493305206,-0.21750092506408691,0.055834461003541946,1.3106423119139554,-1.2001647762675332,0.331720208634413
1687013794.657343,0.3517214059829712,0.9309315085411072,-0.09827718883752823,0.0011228621006011963,-0.008492052555084229,-0.03525243699550629,0.1223725751042366,-0.04961765557527542,-0.04772255942225456,1.2983276670573647,-1.1969553413996556,0.3239972035000958
1687013794.732235,0.3532608449459076,0.9297815561294556,-0.10350505262613297,0.019221574068069458,0.019422054290771484,-0.012858524918556213,0.10831037908792496,-0.11719172447919846,0.05653074383735657,1.2857748273520133,-1.1938189204252303,0.3171809911515842
1687013794.746388,0.3536824584007263,0.9287140369415283,-0.11135125160217285,0.013444095849990845,-0.01394963264465332,0.04798150062561035,0.06122297793626785,-0.0032511334866285324,-0.03211956471204758,1.2657865544432787,-1.1909294551599099,0.297539074808913
1687013794.820718,0.35393306612968445,0.9288533926010132,-0.1093742772936821,0.015436530113220215,-0.010335445404052734,0.019912011921405792,-0.06330541521310806,-0.009142667055130005,0.04442694038152695,1.271080131352607,-1.191305549222518,0.30385344583347657
1687013794.8346,0.35528355836868286,0.9284687042236328,-0.10825695097446442,0.011400431394577026,-0.0071887969970703125,-0.012882590293884277,-0.0007912131259217858,-0.028789162635803223,0.029529284685850143,1.2750279390539399,-1.1902683929539075,0.30888101285810926
1687013794.9165,0.3557402193546295,0.9282339811325073,-0.10876829922199249,0.013247907161712646,0.0234413743019104,0.014865696430206299,-0.007529676426202059,-0.04423283040523529,-0.012556049972772598,1.2740708249726047,-1.1896370098790345,0.309977379748524
1687013794.930923,0.3554469347000122,0.9282211661338806,-0.10983264446258545,-0.0031213760375976562,0.008653342723846436,-0.008209362626075745,0.06747843325138092,-0.027361618354916573,-0.03863878548145294,1.271104416054109,-1.189602519995809,0.3082107111744385
1687013795.003005,0.3542521297931671,0.9286853671073914,-0.1097683385014534,0.02407437562942505,-0.003743290901184082,0.009930059313774109,-0.057204507291316986,-0.011267069727182388,-0.013568917289376259,1.27031896899906,-1.1908522478084156,0.30931315539653376
1687013795.017737,0.3545491397380829,0.928705096244812,-0.10863512754440308,0.019810020923614502,-0.017190933227539062,-0.018928341567516327,-0.02999516949057579,0.007441014517098665,-0.019979678094387054,1.2734751052132125,-1.1909054852914165,0.3117444901114759
1687013795.059665,0.3568943440914154,0.9282329678535461,-0.1049296110868454,-0.009207457304000854,-0.0021923184394836426,-0.04655963182449341,-0.062053948640823364,-0.07062671333551407,0.0440877228975296,1.2848462764204485,-1.1896341679657774,0.32576654214935463
1687013795.155993,0.35574668645858765,0.9286811947822571,-0.10486114770174026,0.014996260404586792,-0.0006415247917175293,0.015063151717185974,-0.04610045999288559,-0.036109838634729385,-0.035684339702129364,1.284150530428747,-1.1908409628071681,0.3286744826422395
1687013795.172719,0.35577476024627686,0.9285457134246826,-0.10595958679914474,-0.004196912050247192,-0.03297680616378784,-0.03812916576862335,0.04312848299741745,-0.03618094325065613,-0.05327504873275757,1.2813336278538587,-1.1904758398137614,0.32629562211228424
1687013795.2088718,0.3549500107765198,0.9287717342376709,-0.10674183070659637,0.008850127458572388,0.010788321495056152,0.035712167620658875,-0.06768453121185303,-0.027171378955245018,0.03931766748428345,1.2786758487529144,-1.1910851170823564,0.3262715907768257
1687013795.3061419,0.35426315665245056,0.9289805293083191,-0.1072043925523758,0.043228328227996826,0.004979372024536133,0.0426291897892952,-0.04977744072675705,-0.062415651977062225,0.01859228126704693,1.2769446416907333,-1.1916489308106184,0.3259625164843322
1687013795.322993,0.35601478815078735,0.9285915493965149,-0.10474418103694916,-0.008755147457122803,0.007596254348754883,-0.03354628384113312,0.015964996069669724,-0.05411528795957565,0.006693144794553518,1.2846571224330943,-1.190599396539892,0.33634228300130925
1687013795.361382,0.3565468490123749,0.9282271862030029,-0.106155164539814,-0.003794044256210327,-0.02295362949371338,0.0014188140630722046,-0.03247328847646713,-0.0055097597651183605,0.022229494526982307,1.2814221746839305,-1.189618642118968,0.3343281475133666
1687013795.45607,0.35457339882850647,0.9287529587745667,-0.10814641416072845,0.020960718393325806,-0.0011407136917114258,-0.0077898502349853516,0.04501711204648018,-0.06386575102806091,-0.04025765135884285,1.2747547754717508,-1.191034541934386,0.32955974394783366
1687013795.472749,0.35547640919685364,0.9285030961036682,-0.10732530802488327,-0.021171510219573975,-0.012426376342773438,0.010508283972740173,-0.029938844963908195,-0.024364851415157318,-0.03056514449417591,1.2775793464835938,-1.1903611116911277,0.33507786873352363
1687013795.50963,0.3546280860900879,0.9287115931510925,-0.10832329094409943,0.015611231327056885,0.02474910020828247,-0.026259243488311768,0.07705658674240112,-0.0037858071736991405,0.028107888996601105,1.2743415400550067,-1.1909229986700784,0.33362066401752993
1687013795.606193,0.3538748323917389,0.9289976954460144,-0.10833198577165604,0.019675642251968384,-0.022503674030303955,0.019159629940986633,-0.08519326895475388,-0.05369468778371811,-0.030803030356764793,1.2737244725064538,-1.1916952199251905,0.33359837544510074
1687013795.6238189,0.35515493154525757,0.9288461208343506,-0.10540373623371124,0.0035792887210845947,0.009004831314086914,0.05964261293411255,-0.10872069746255875,0.11068706959486008,0.061333153396844864,1.2822940734411163,-1.19128590784939,0.34151877609484366
1687013795.660233,0.36099720001220703,0.9283981919288635,-0.08807989954948425,0.013911336660385132,-0.029136717319488525,0.052816808223724365,-0.3525720536708832,0.02445346489548683,0.15719616413116455,1.33148156807448,-1.1900785725682979,0.3910119118205166
1687013795.756108,0.3740238547325134,0.9242616891860962,-0.07646258920431137,0.00039637088775634766,-0.20853298902511597,0.06289751082658768,-0.3126106262207031,0.18374280631542206,0.4169805943965912,1.3691425077156925,-1.1790970098079105,0.4223219546365272
1687013795.772861,0.405467689037323,0.9119327664375305,-0.06304647773504257,0.02283141016960144,-0.19768404960632324,-0.0009489133954048157,0.09638921916484833,0.2938167452812195,0.9366558790206909,1.4165408209147516,-1.1479698785198225,0.4655720342647161
1687013795.876497,0.4583265781402588,0.8866499066352844,-0.06155072897672653,0.0172288715839386,-0.29238128662109375,0.14371931552886963,-0.0765719935297966,0.5167372822761536,1.3934168815612793,1.4373005560220995,-1.090049720232615,0.45988862234048794
1687013795.893643,0.5195931792259216,0.8529067635536194,-0.05072276294231415,0.05343538522720337,0.06349021196365356,-0.05819445475935936,0.3165627717971802,0.7464775443077087,1.4362061023712158,1.47348451496005,-1.0215281040234618,0.468850141424366
1687013795.964917,0.5813220739364624,0.8124942183494568,-0.04379265010356903,0.05182617902755737,-0.03171736001968384,-0.020904596894979477,0.2339625358581543,0.5979843735694885,1.4576027393341064,1.4956054913350214,-0.948417910551198,0.45469164739856305
1687013795.970628,0.6432858109474182,0.7644877433776855,-0.04173721745610237,-0.021947860717773438,-0.0012888908386230469,-0.005412459373474121,0.7528581619262695,0.8150510787963867,1.558788537979126,1.5060058382293071,-0.8702463204755275,0.42498468353125757
1687013796.057236,0.7040477395057678,0.709324061870575,-0.0342988446354866,0.005028247833251953,-0.16049593687057495,0.068295419216156,0.2419881522655487,0.6787053942680359,1.655561089515686,1.5221181672895776,-0.7885387781852985,0.3911808846064412
1687013796.0740619,0.7657590508460999,0.6428075432777405,-0.020286479964852333,0.020144939422607422,0.033522963523864746,-0.08515173196792603,0.2858912944793701,0.5071632266044617,1.9104355573654175,1.544310534077051,-0.6981577343540801,0.38303759828878775
1687013796.141007,0.825141191482544,0.56490159034729,-0.005315991584211588,-0.01102370023727417,-0.13600760698318481,-0.052545368671417236,-0.11764650046825409,0.5396789908409119,1.9579689502716064,1.5643538925639011,-0.6003140076539698,0.3663170035929755
1687013796.1562839,0.8754075765609741,0.483259916305542,0.011029085144400597,0.03925013542175293,0.17299002408981323,-0.14049994945526123,0.13029609620571136,0.2564503252506256,1.8896998167037964,1.583394461278966,-0.5043744879113475,0.3768247853883365
1687013796.1988611,0.9195948243141174,0.3917141556739807,0.03009161539375782,0.04955202341079712,-0.008779585361480713,0.03651297464966774,-0.856581449508667,-0.06147777661681175,2.0569889545440674,1.6035073430467355,-0.4024939010988656,0.386217792147595
1687013796.295454,0.9507357478141785,0.307761013507843,0.03720908239483833,0.14995694160461426,0.0020990967750549316,-0.26096391677856445,-1.0145225524902344,-0.06708905100822449,1.764936089515686,1.6099135081078153,-0.3128389425359392,0.4221471049926295
1687013796.30203,0.9752799868583679,0.2182166874408722,0.0347898006439209,0.1560523509979248,-0.015747934579849243,-0.0480344332754612,-3.796117067337036,-1.5254225730895996,1.5600861310958862,1.6064528110919787,-0.21998674118209563,0.5497723389366732
1687013796.359171,0.9882475733757019,0.15195579826831818,-0.016620958223938942,0.009158432483673096,0.34223055839538574,0.3848307728767395,-4.589560508728027,-1.8970588445663452,1.1657541990280151,1.5539792952467466,-0.15254674420398212,0.75444510838228
1687013796.447044,0.9875965118408203,0.13539661467075348,-0.07950395345687866,0.10136222839355469,0.15273500978946686,-0.25815778970718384,-4.407986164093018,-1.9926958084106445,0.33835509419441223,1.4904670873607255,-0.13581375703499288,0.9839429256254807
1687013796.455509,0.9745830297470093,0.15502963960170746,-0.16172093152999878,-0.07370418310165405,0.046569421887397766,0.4779897928237915,-5.912961006164551,-2.652660608291626,-0.15727947652339935,1.4063561308518766,-0.15565745134241873,1.2469109272727865
1687013796.5009,0.9477718472480774,0.226893812417984,-0.22416053712368011,0.03907519578933716,0.08107434213161469,0.017159730195999146,-4.450258731842041,-2.092406988143921,-0.41658514738082886,1.338550856440716,-0.22888712592210023,1.4987577569833168
1687013796.600492,0.9151511788368225,0.3102547824382782,-0.2573722004890442,-0.01035076379776001,0.004656076431274414,0.2655966281890869,-6.12005090713501,-2.2038686275482178,-0.6946853399276733,1.2966431191886372,-0.3154610308748887,1.760281931027883
1687013796.617566,0.880908727645874,0.3972342014312744,-0.2573031783103943,-0.007190406322479248,-0.008089244365692139,0.022332996129989624,-3.756061553955078,-1.559590220451355,-0.4886634647846222,1.2866136350462758,-0.4085010921747113,1.9976728473296923
1687013796.6512918,0.8523592352867126,0.46848949790000916,-0.2323821634054184,0.07961708307266235,-0.008253872394561768,0.020544350147247314,-3.457031726837158,-1.1137734651565552,-0.4509507715702057,1.304631026429221,-0.487580261522411,2.1888263542270536
1687013796.712537,0.832200288772583,0.5166532397270203,-0.20127606391906738,-0.0022901296615600586,0.012231647968292236,0.006238177418708801,-2.6932272911071777,-0.7250233888626099,-0.44510915875434875,1.3334932764185334,-0.5429374652916892,2.341180196683681
1687013796.809279,0.8134705424308777,0.5623132586479187,-0.14855855703353882,0.019522011280059814,0.006198704242706299,-0.05949509143829346,-3.2818615436553955,-0.7905407547950745,-0.5024113655090332,1.3901637283039439,-0.5971805766631675,2.5121539948123814
1687013796.827547,0.7946943640708923,0.5999327301979065,-0.09242115914821625,0.02230691909790039,0.025601327419281006,0.009153909981250763,-2.7344281673431396,-0.5868018269538879,-0.44147056341171265,1.4550186874870452,-0.6434170418035455,2.688229177609889
1687013796.926976,0.7805987000465393,0.6236768364906311,-0.041145071387290955,0.03614318370819092,0.014796674251556396,-0.03157836198806763,-1.9464060068130493,-0.4022997319698334,-0.3901984691619873,1.518135429938521,-0.6734377119899793,2.8281721202691954
1687013796.944313,0.7697895169258118,0.6382626891136169,0.006701868027448654,0.024750888347625732,-0.014712154865264893,-0.026278972625732422,-2.102621555328369,-0.50432950258255,-0.3281385004520416,1.5795022113511041,-0.692239333882906,2.9629908552460953
1687013797.012253,0.762170672416687,0.6455026268959045,0.04921792820096016,0.04804050922393799,-0.01586383581161499,-0.052666425704956055,-1.5727901458740234,-0.34582021832466125,-0.13053640723228455,1.6352827844453672,-0.7016811738730867,3.0838466004582443
1687013797.016793,0.7619321942329407,0.6435069441795349,0.07320224493741989,0.024200737476348877,-0.04485863447189331,-0.0857449620962143,-0.7387408018112183,-0.2424810230731964,0.1298457682132721,1.6665768406633599,-0.6990710693432747,-3.1297644206765836
1687013797.109237,0.7692272067070007,0.6337487101554871,0.08155976235866547,0.030668914318084717,0.02790290117263794,-0.03468478471040726,-0.44960513710975647,-0.23936007916927338,0.1608465611934662,1.6764298412249947,-0.6863898454415155,-3.0937905934857186
1687013797.1270819,0.7761220932006836,0.6245055794715881,0.08733426034450531,0.01558011770248413,0.034292638301849365,-0.0797506645321846,-0.2674042880535126,-0.19107669591903687,0.20009416341781616,1.6828514042472116,-0.6744983266004346,-3.066238553505185
1687013797.193091,0.7809755802154541,0.6181395053863525,0.08933484554290771,0.017226874828338623,0.035333454608917236,0.017354600131511688,-0.1426324099302292,0.013931315392255783,0.12937811017036438,1.6846900737910082,-0.6663736267251289,-3.057515288821076
1687013797.2075,0.7824153900146484,0.6159289479255676,0.09196687489748001,-0.008581101894378662,0.045127689838409424,-0.029787294566631317,-0.06879916042089462,0.029224606230854988,0.003779513528570533,1.6878017048845986,-0.6635646220361329,-3.0559249888587763
1687013797.283283,0.7818494439125061,0.6160593032836914,0.09582406282424927,-0.024204909801483154,0.039366722106933594,-0.007857218384742737,-0.10333836078643799,-0.017378048971295357,0.00874823983758688,1.6927488977776797,-0.6637300406983789,-3.0468118519763405
1687013797.297371,0.7825009226799011,0.6156970858573914,0.0927872285246849,-0.0189054012298584,0.08652764558792114,-0.03806925565004349,0.2944333255290985,0.019281605258584023,0.020688390359282494,1.6888229998626365,-0.6632703238944927,-3.0544678558726384
1687013797.3402882,0.7805135250091553,0.6188974380493164,0.08811751753091812,0.003620326519012451,0.01910310983657837,0.010347485542297363,-0.014713465236127377,-0.00281597301363945,-0.10730040073394775,1.6832171622422305,-0.6673382079414732,-3.0634043632680914
1687013797.435811,0.7764261364936829,0.6243821382522583,0.08549605309963226,-0.004651904106140137,0.02077484130859375,-0.006425023078918457,0.09677427262067795,0.03289639577269554,-0.12727664411067963,1.680469330472189,-0.674340264678263,-3.067792158498008
1687013797.452132,0.7724044919013977,0.6292279958724976,0.08639269322156906,0.01313328742980957,-0.04100155830383301,0.020006783306598663,-0.07399396598339081,-0.06571637839078903,-0.1150505319237709,1.6821824056290584,-0.6805595191414527,-3.06310208524983
1687013797.489581,0.7703076004981995,0.6321451663970947,0.08377835899591446,0.012132585048675537,-0.03746432065963745,0.01457977294921875,0.16178090870380402,0.06282650679349899,-0.033996161073446274,1.679130138900277,-0.6843186252253001,-3.06820579533085
1687013797.555378,0.7684291005134583,0.6341753005981445,0.08566519618034363,0.025241494178771973,-0.05162513256072998,-0.0029320716857910156,-0.0678197368979454,0.026542626321315765,-0.10831240564584732,1.6818188460526684,-0.6869414044914113,-3.068333007501047
1687013797.648265,0.7668452262878418,0.635663628578186,0.08877180516719818,0.009903490543365479,-0.037580013275146484,-0.03283309191465378,-0.06482540816068649,-0.04893188923597336,0.008703765459358692,1.6860456831920474,-0.6888678535269942,-3.0628362331659584
1687013797.656252,0.7688918113708496,0.6335409879684448,0.08620403707027435,0.00305020809173584,0.013294398784637451,-0.025947101414203644,0.0796346515417099,-0.03172289952635765,0.028492916375398636,1.6824447466206152,-0.686121296300156,-3.064061943436323
1687013797.768913,0.7701874375343323,0.6323906779289246,0.08302665501832962,0.01374804973602295,0.003885626792907715,0.0012629032135009766,0.008842372335493565,-0.0813000425696373,0.024849645793437958,1.6781822085160814,-0.6846355068215454,-3.0650932157621873
1687013797.786028,0.7709171772003174,0.6319716572761536,0.07936323434114456,-0.007611572742462158,0.002778768539428711,0.014585137367248535,-0.005646377801895142,0.004764360375702381,0.003004134399816394,1.673381461760264,-0.6840946950315524,-3.069263532877751
1687013797.888181,0.7720890045166016,0.6305786967277527,0.07905150204896927,-0.017938673496246338,0.00990903377532959,0.017765522003173828,0.012449357658624649,-0.035603657364845276,0.036719221621751785,1.6728272969307616,-0.6822986327591617,-3.0663910213021994
1687013797.90575,0.7729326486587524,0.6299186944961548,0.07601074129343033,0.015061736106872559,0.00828021764755249,0.020882606506347656,0.09267846494913101,0.02078860066831112,0.007296683732420206,1.6688218472771637,-0.6814484967728918,-3.0728139630171403
1687013797.918179,0.7722254395484924,0.630532443523407,0.0780830904841423,0.00022029876708984375,0.009558618068695068,0.020595557987689972,-0.0420340821146965,0.029834825545549393,-0.032499462366104126,1.671568193517097,-0.6822390467695139,-3.071644560739188
1687013797.921241,0.771943211555481,0.6309224367141724,0.07772071659564972,0.011214017868041992,0.07754319906234741,-0.006126530468463898,0.40589556097984314,0.2234952747821808,0.029206642881035805,1.6711400881208476,-0.6827415731200306,-3.0814180030655494
1687013797.970814,0.7691397666931152,0.634693443775177,0.07475659251213074,0.040690064430236816,0.17596036195755005,-0.022556297481060028,1.092768907546997,0.7451853156089783,-0.06758155673742294,1.6676870593248312,-0.6876117321004416,-3.1225535694945172
1687013798.034472,0.767500102519989,0.6391888856887817,0.048796895891427994,0.01663374900817871,0.31848323345184326,-0.1323845386505127,3.8663365840911865,1.8545880317687988,0.16474215686321259,1.6342898766273177,-0.6934431278628395,3.0073668126192508
1687013798.095922,0.7693207263946533,0.6387455463409424,-0.012249735184013844,0.046627819538116455,-0.03713715076446533,0.09396052360534668,3.9317867755889893,2.01339054107666,0.10207219421863556,1.5548748785770257,-0.6928667327327259,2.7280779587100747
1687013798.189883,0.7775446176528931,0.626971423625946,-0.04828256368637085,0.05686694383621216,-0.038195788860321045,0.04080570116639137,3.4350547790527344,1.967759370803833,0.18630318343639374,1.5087797606083844,-0.6776595189044546,2.499100867379096
1687013798.2080479,0.7931338548660278,0.6053701043128967,-0.06682589650154114,0.09442406892776489,-0.11826378107070923,0.11338037997484207,2.8491790294647217,1.9040979146957397,0.43269971013069153,1.4867393443542292,-0.6502307569588103,2.303794278819779
1687013798.2408261,0.8132678866386414,0.5765891075134277,-0.07836116850376129,-0.010548770427703857,-0.05623382329940796,0.12371021509170532,2.9857189655303955,1.9551656246185303,0.46520864963531494,1.474739402804091,-0.6145477532153093,2.125909188655353
1687013798.335943,0.8360140919685364,0.5437493920326233,-0.07359953969717026,0.0032802820205688477,-0.15913647413253784,0.12439597398042679,2.5416579246520996,1.8908742666244507,0.6107668876647949,1.482986467974255,-0.5748982689590443,1.9710422593505879
1687013798.3518372,0.85982346534729,0.5060046911239624,-0.06828578561544418,-0.02657151222229004,-0.026619315147399902,0.15996050834655762,3.166600227355957,2.0112569332122803,0.677448570728302,1.4915442929002587,-0.5305463754423856,1.8033684648584398
1687013798.457547,0.8801724910736084,0.4724009037017822,-0.04619530215859413,0.03399693965911865,-0.03833407163619995,0.04485243186354637,2.7277708053588867,2.1207082271575928,0.5377210974693298,1.5183600654726903,-0.4920128076249937,1.641798753204525
1687013798.4746308,0.8950502872467041,0.4455081820487976,-0.02019394375383854,-0.08216863870620728,0.018069148063659668,0.03882485628128052,2.4182353019714355,1.9853575229644775,0.34694552421569824,1.5482383563713968,-0.4617418061144056,1.490685113154573
1687013798.544946,0.9018887281417847,0.4316321313381195,0.01704440638422966,-0.011187374591827393,0.1512383222579956,0.030791878700256348,2.6356444358825684,1.8586945533752441,0.4240998923778534,1.5896926466869814,-0.4463013667884036,1.3650191864137784
1687013798.559083,0.9062090516090393,0.42121434211730957,0.03692537546157837,-0.021641850471496582,-0.01681077480316162,0.04855429753661156,3.7564525604248047,2.1316661834716797,0.20005328953266144,1.6115208783134918,-0.43478381778809894,1.1806362929728176
1687013798.632905,0.8995460271835327,0.43377700448036194,0.05152206867933273,0.07930529117584229,0.2058561146259308,0.020499467849731445,3.780278444290161,2.011173725128174,-0.2971576154232025,1.628009452636271,-0.44868050058651693,0.9835953174080722
1687013798.6394238,0.8818850517272949,0.46911919116973877,0.0469670444726944,0.06634187698364258,0.14310908317565918,0.1237940788269043,3.930513620376587,1.808693766593933,-0.9155699014663696,1.6240036190314495,-0.4882931515211882,0.7503337126820965
1687013798.695682,0.8479645252227783,0.5285489559173584,0.039905063807964325,0.092587411403656,-0.0840756893157959,0.06084871664643288,1.6487656831741333,0.9184988141059875,-1.5408976078033447,1.6178214595820513,-0.5568903194992382,0.6013537427165466
1687013798.789041,0.8006174564361572,0.5984377264976501,0.029736444354057312,0.1119193434715271,0.010326921939849854,-0.12093830108642578,0.8668816685676575,0.3005077838897705,-1.6322745084762573,1.6079211494232881,-0.6415496834234663,0.5314098686456853
1687013798.806229,0.7482747435569763,0.6631479859352112,0.01788148656487465,-0.001433253288269043,-0.07489126920700073,-0.13772404193878174,0.41679084300994873,0.0527762696146965,-1.7982655763626099,1.5946887326706352,-0.7250167882154017,0.49655581070933025
1687013798.873189,0.6859523057937622,0.7276335954666138,0.004342873580753803,0.04431807994842529,0.001797497272491455,-0.11399257183074951,0.5221935510635376,0.015800323337316513,-1.658013939857483,1.5771274017956172,-0.8148658780866573,0.47369100995642804
1687013798.88596,0.6215705275535583,0.7833072543144226,-0.008939451538026333,0.1161157488822937,-0.03591656684875488,-0.1520560383796692,-0.12201808393001556,-0.48449283838272095,-1.792550802230835,1.5564152790477819,-0.8999683854378311,0.46252786745604413
1687013798.931453,0.5606736540794373,0.8276594281196594,-0.024999815970659256,0.10106956958770752,-0.16907483339309692,0.023489177227020264,0.05076123774051666,-0.5010449886322021,-1.3416225910186768,1.5262369503436384,-0.974924321958772,0.448848409551913
1687013799.027021,0.5018024444580078,0.8638713359832764,-0.0438220277428627,0.16088682413101196,-0.1363019347190857,-0.06518673896789551,0.13801948726177216,-0.5740046501159668,-1.1110717058181763,1.4836880734854663,-1.0429054095047374,0.4367618882935504
1687013799.0461311,0.45744788646698,0.8875941634178162,-0.05401749908924103,0.06887361407279968,-0.2116146683692932,0.03970474377274513,-0.19809003174304962,-0.5903680324554443,-0.9651824235916138,1.4532561500299686,-1.092095649129191,0.4353949055831216
1687013799.080091,0.42343035340309143,0.9042598009109497,-0.05496424436569214,0.03532525897026062,-0.07540237903594971,0.11461085081100464,-0.13352298736572266,-0.28550368547439575,-0.6298341155052185,1.4417110732036331,-1.12964293055677,0.4472036346042004
1687013799.1434588,0.40087759494781494,0.9143127202987671,-0.05770103260874748,-0.028456270694732666,-0.11347049474716187,0.041526734828948975,-0.15128903090953827,-0.03867863118648529,-0.4604051411151886,1.4278413832589723,-1.1538077243348253,0.43988617449966266
1687013799.238577,0.3879341781139374,0.9204204082489014,-0.0483059398829937,0.032033562660217285,-0.14892077445983887,0.1065029501914978,-0.6136613488197327,-0.2148565948009491,-0.08566594868898392,1.446913019423759,-1.1691545526145812,0.4665100669311406
1687013799.2560658,0.382476270198822,0.9236317276954651,-0.02482476271688938,-0.06715333461761475,-0.03570759296417236,-0.10489022731781006,-0.18473267555236816,0.030243266373872757,-0.17207713425159454,1.5059818710924764,-1.1774501462423985,0.5372498522466581
1687013799.2921438,0.376116544008255,0.9265367388725281,-0.00812668725848198,0.04835250973701477,-0.09687066078186035,-0.018774569034576416,-0.4180125892162323,-0.23549316823482513,0.03423815593123436,1.5491928557460841,-1.1851001629722742,0.5895791476815704
1687013799.387254,0.37877362966537476,0.9254681468009949,-0.006275318097323179,-0.010456889867782593,0.013222038745880127,0.08888638019561768,0.02125660888850689,0.028468092903494835,0.012591647915542126,1.5542303787393892,-1.1822694552617061,0.6001558156944349
1687013799.480363,0.3770213723182678,0.9261928200721741,0.004641812760382891,0.05310869216918945,0.0713808536529541,-0.05702519416809082,-0.2096644937992096,0.050846900790929794,0.025058170780539513,1.5831075069548461,-1.1841869136650645,0.6282405892096615
1687013799.499193,0.3774668872356415,0.9259127974510193,0.014300839975476265,0.003911405801773071,0.006445050239562988,-0.09366178512573242,-0.27764278650283813,-0.2712215185165405,-0.024973638355731964,1.608664557931914,-1.1834449767422655,0.6612419048178689
1687013799.503138,0.3764530122280121,0.9264013171195984,0.007981149479746819,-0.04104948043823242,-0.029810190200805664,0.047881245613098145,0.17987661063671112,0.08403840661048889,-0.04808927699923515,1.5919940681111457,-1.1847403471069469,0.6499402759084227
1687013799.530781,0.3726208508014679,0.9279552102088928,0.007285525556653738,0.07769662141799927,0.0038380026817321777,-0.011802196502685547,0.01269769761711359,-0.08667109906673431,0.028589455410838127,1.590345950909129,-1.1888883417281655,0.6467988437694168
1687013799.624948,0.37654173374176025,0.9263652563095093,0.007976977154612541,0.004012495279312134,-0.0005077719688415527,0.030810832977294922,-0.25766152143478394,-0.12053088843822479,0.03391391038894653,1.591978001351024,-1.184644479002229,0.6535085924259073
1687013799.639477,0.374748170375824,0.9269911050796509,0.015862395986914635,0.005058467388153076,0.0037798285484313965,0.007071616128087044,-0.005597952287644148,-0.007914772257208824,-0.028442805632948875,1.6130992200856515,-1.186309718326522,0.6792597780449124
1687013799.749687,0.3770122826099396,0.9260553121566772,0.016831139102578163,-0.0255107581615448,-0.04125922918319702,-0.004502059891819954,-0.11624390631914139,-0.030320478603243828,0.037509381771087646,1.6154101818603592,-1.1838223608163978,0.6839356147864856
1687013799.756535,0.37703195214271545,0.92591392993927,0.0230253953486681,0.022488951683044434,-0.00527501106262207,0.0192719679325819,-0.19084396958351135,-0.0439249724149704,0.05627434700727463,1.6317907139270935,-1.183448003369,0.7033319577708532
1687013799.838898,0.37828192114830017,0.9251483678817749,0.031676389276981354,0.025282621383666992,0.014670968055725098,0.0012367963790893555,-0.21900010108947754,-0.07528448849916458,0.0145444106310606,1.65433893680434,-1.1814262013642243,0.7293597804816531
1687013799.857096,0.37971529364585876,0.9245553612709045,0.031837087124586105,0.008315742015838623,0.05025225877761841,-0.022513989359140396,0.15641896426677704,-0.027070801705121994,0.03118690475821495,1.654445302536192,-1.179867061593861,0.7328326069408905
1687013799.9273481,0.38019630312919617,0.9242936968803406,0.03364560753107071,-0.006325364112854004,-0.003837764263153076,0.0196075439453125,-0.15722502768039703,-0.07698225975036621,-0.08424322307109833,1.6590617437355095,-1.1791808779763477,0.742122354487887
1687013799.9421148,0.3813832998275757,0.9237151145935059,0.036020271480083466,0.004160642623901367,-0.07512795925140381,-0.013147350400686264,-0.19411087036132812,-0.054017551243305206,0.08287985622882843,1.6649633754311775,-1.1776677984640167,0.7506702915500173
1687013799.979298,0.3813183605670929,0.923596203327179,0.03958003968000412,0.010786831378936768,0.050585925579071045,-0.013701200485229492,0.10681381076574326,-0.004214043729007244,0.02448112890124321,1.674223836906859,-1.1773575212267624,0.7633747094206894
1687013800.074686,0.38216352462768555,0.9234173893928528,0.0353781133890152,0.0024038851261138916,0.012282192707061768,0.0056985653936862946,0.07617982476949692,-0.011207859963178635,-0.06376271694898605,1.6631064673977387,-1.176891407811033,0.7519574802285063
1687013800.0898728,0.38181519508361816,0.923511266708374,0.03666381537914276,0.022008776664733887,0.0011560916900634766,0.01095879077911377,-0.12483921647071838,-0.05717836692929268,0.022711725905537605,1.6665278408427613,-1.177135996105693,0.759127682948987
1687013800.163074,0.38280901312828064,0.9228509664535522,0.04246857762336731,0.020694583654403687,-0.03411799669265747,0.020748618990182877,-0.24841822683811188,-0.10261979699134827,0.015743166208267212,1.6812838659388394,-1.1754181449139953,0.7774742012808363
1687013800.259108,0.3840947449207306,0.9222829341888428,0.04319322854280472,-0.0030216574668884277,0.019947290420532227,-0.01786363124847412,0.19407182931900024,0.08690805733203888,-0.007577070966362953,1.6827804806893323,-1.1739458808627006,0.7803948496085023
1687013800.2763882,0.3892877697944641,0.9200813174247742,0.04365541785955429,0.011743873357772827,-0.06398683786392212,0.0280609168112278,-0.006255708634853363,0.0652514100074768,0.20788776874542236,1.6824715119869746,-1.1682879598636282,0.7776834569997018
1687013800.3422,0.4035867750644684,0.9140428900718689,0.040537767112255096,0.03110566735267639,-0.23162412643432617,0.04596424102783203,-0.04164290428161621,0.1636444628238678,0.4644782841205597,1.6709043081220416,-1.1531420218220612,0.7565866057065341
1687013800.3559752,0.43563151359558105,0.8986297249794006,0.05186240002512932,-0.06366795301437378,-0.1892639398574829,-0.011579278856515884,0.017401505261659622,0.31180518865585327,0.8885762095451355,1.6892896938346398,-1.1166360707958123,0.7683111209647252
1687013800.43266,0.4856635630130768,0.8722008466720581,0.058281004428863525,0.01902100443840027,-0.2072685956954956,0.0360029935836792,-0.05289924144744873,0.18288590013980865,1.3275606632232666,1.6902280445531865,-1.059683745008436,0.7538200912418297
1687013800.437844,0.5457276701927185,0.8362302184104919,0.05385788902640343,0.05513310432434082,-0.10212981700897217,-0.039224736392498016,-0.10836836695671082,0.16643661260604858,1.4786691665649414,1.6691678336007105,-0.9903723463068251,0.7164530523798966
1687013800.5266519,0.6079942584037781,0.791016161441803,0.0680915117263794,0.024635255336761475,0.007277846336364746,-0.0715857744216919,-0.09207327663898468,0.03838730230927467,1.7066826820373535,1.6823252714612071,-0.9124682065283483,0.7319052636621877
1687013800.5433378,0.6772921681404114,0.7321076393127441,0.07275911420583725,0.054015934467315674,-0.20998245477676392,0.030817508697509766,-0.17291414737701416,-0.08085351437330246,1.9407473802566528,1.6778123963672853,-0.8214108951814065,0.7241679638816488
1687013800.611271,0.7510574460029602,0.6564503312110901,0.07060884684324265,0.016307055950164795,-0.08886927366256714,-0.10991550236940384,0.3305398225784302,0.15167135000228882,2.302847385406494,1.664533396109648,-0.7161036111476943,0.7043240822744966
1687013800.626398,0.8228080868721008,0.563473105430603,0.07405912131071091,0.0681525468826294,-0.05305147171020508,0.0725015327334404,-0.6243395805358887,-0.3012576997280121,2.4096181392669678,1.6605622055794569,-0.5985838144780024,0.7008802028266796
1687013800.672226,0.8856802582740784,0.4588943421840668,0.07061745226383209,0.11851602792739868,0.21606296300888062,-0.0903775617480278,-0.8775662183761597,-0.6594274640083313,2.476803779602051,1.6503604533758063,-0.4767503782563624,0.7321770449110099
1687013800.764224,0.9376545548439026,0.3428202271461487,0.05725688487291336,0.11977958679199219,-0.09544482827186584,-0.24457383155822754,-1.506922960281372,-0.9301318526268005,2.098695755004883,1.631784539147439,-0.3499174272069492,0.7784278657573916
1687013800.7802548,0.9665515422821045,0.25481799244880676,0.029082508757710457,0.19535940885543823,0.21637332439422607,-0.012328390032052994,-2.4156885147094727,-1.5289037227630615,1.7535184621810913,1.6008761895417287,-0.2576594818810266,0.8808679208945097
1687013800.818828,0.9816030263900757,0.18844828009605408,-0.03070460632443428,0.16086828708648682,0.46905288100242615,0.11813747882843018,-2.237745523452759,-2.0426230430603027,1.0476465225219727,1.5395264577375825,-0.18958187516031794,1.0094141617226793
1687013800.9156508,0.9825811982154846,0.15927624702453613,-0.09573610872030258,0.004479408264160156,0.15629072487354279,-0.1686529517173767,-1.5402623414993286,-1.3849178552627563,0.3699500560760498,1.4736696232222914,-0.15995750211013438,1.1055876640891484
1687013800.9230561,0.9735462665557861,0.15458951890468597,-0.16825522482395172,0.09984856843948364,-0.10568512976169586,0.21258193254470825,-2.9985995292663574,-2.3445677757263184,0.21871937811374664,1.3996597144702823,-0.15521196808434504,1.2064873800804798
1687013800.973295,0.948566734790802,0.19675354659557343,-0.2480103075504303,-0.020878195762634277,0.07544796168804169,0.007913187146186829,-3.5157158374786377,-2.0186684131622314,-0.3686728775501251,1.3150631232148653,-0.19804562964982983,1.3797221069923844
1687013801.067443,0.9130629897117615,0.26201438903808594,-0.31251323223114014,0.042427122592926025,-0.1878109574317932,0.35365086793899536,-4.927040100097656,-2.6341183185577393,-0.33162251114845276,1.2410252722995962,-0.2651089367623611,1.5659234804350464
1687013801.075669,0.8641940951347351,0.3738202154636383,-0.33678919076919556,0.04814410209655762,0.05690482258796692,0.02013877034187317,-4.67899227142334,-2.0773911476135254,-0.617002010345459,1.1991878588528346,-0.3831244542030773,1.8149582602669265
1687013801.1239672,0.8170831799507141,0.47238636016845703,-0.3304939568042755,0.010828137397766113,-0.20937055349349976,0.22743600606918335,-4.895691871643066,-2.0650062561035156,-0.5623343586921692,1.1864337047277718,-0.4919962944274437,2.031834109252444
1687013801.216213,0.7790818214416504,0.5603547096252441,-0.28112998604774475,0.08387893438339233,0.02410268783569336,-0.020185410976409912,-3.514948606491089,-1.3117384910583496,-0.4074552357196808,1.2244904060844075,-0.5948140323766368,2.2601724477954446
1687013801.224215,0.7542243003845215,0.6143613457679749,-0.2317448854446411,-0.003995537757873535,-0.09841597080230713,0.05739791691303253,-3.3723411560058594,-1.16073477268219,-0.25510212779045105,1.2726900450639977,-0.6615762991192004,2.450549922259088
1687013801.27346,0.7379064559936523,0.6515313982963562,-0.1760713905096054,0.050515174865722656,0.03908151388168335,-0.06727583706378937,-2.4675679206848145,-0.917969822883606,-0.15450040996074677,1.3365666625665513,-0.7096013690719295,2.631903434639457
1687013801.366817,0.726128876209259,0.6757495403289795,-0.12688444554805756,0.016669034957885742,-0.06324636936187744,-0.02902992069721222,-2.6472926139831543,-0.8784776926040649,-0.16706998646259308,1.3978020286778687,-0.741981037680582,2.7851282773742114
1687013801.3751512,0.7162557244300842,0.6952144503593445,-0.060455068945884705,0.02388709783554077,0.005774378776550293,0.04000824689865112,-2.9320387840270996,-0.8706335425376892,-0.13389906287193298,1.486591597343694,-0.7687181753736154,2.983480412073196
1687013801.4219089,0.7105463743209839,0.7036399245262146,-0.0038456209003925323,0.024606764316558838,-0.03402310609817505,0.021957814693450928,-2.1630327701568604,-0.6246819496154785,-0.13098742067813873,1.5653841770341672,-0.7805072015435561,-3.1353274171841603
1687013801.5166721,0.7086800932884216,0.7039984464645386,0.04646296054124832,0.024107933044433594,0.013378322124481201,-0.0177459716796875,-1.5056790113449097,-0.44018152356147766,0.0009942466858774424,1.6362652968898619,-0.7810119328805394,-2.996873624091041
1687013801.5247931,0.7097944617271423,0.7002542614936829,0.07639379799365997,-0.026719510555267334,0.0063956379890441895,-0.0038230344653129578,-1.032036304473877,-0.18722514808177948,0.04268523305654526,1.6780116670433882,-0.7757535576143398,-2.9161242386752035
1687013801.572823,0.7131852507591248,0.6943661570549011,0.09603345394134521,-0.02835559844970703,0.06860387325286865,-0.039957404136657715,-0.4800771176815033,-0.13683681190013885,0.10334385186433792,1.7046455190019172,-0.7675387236611756,-2.864385279106534
1687013801.66769,0.7200505137443542,0.6869293451309204,0.09826144576072693,0.0014459490776062012,0.14523929357528687,-0.07955420762300491,0.3649306297302246,0.032493192702531815,0.18821567296981812,1.7064232134796244,-0.7572552022004008,-2.8579706375133154
1687013801.6754642,0.7233496904373169,0.6853206157684326,0.0842684656381607,0.016533732414245605,-0.0022302865982055664,0.004217274487018585,0.2638157308101654,-0.031088709831237793,0.08720583468675613,1.6867710990689955,-0.7550438908254399,-2.887354046856396
1687013801.722683,0.7242890000343323,0.6853918433189392,0.07512343674898148,-0.008453428745269775,0.019945740699768066,-0.004047989845275879,0.11707882583141327,-0.010376598685979843,-0.03100603073835373,1.674147030074838,-0.7551416960227968,-2.9055627710177765
1687013801.818027,0.7236854434013367,0.686138927936554,0.07411488145589828,-0.02526015043258667,0.023883163928985596,0.018597491085529327,0.07887720316648483,0.02214770019054413,-0.03180164843797684,1.6728536283667084,-0.7561681537532172,-2.904577605028544
1687013801.8247728,0.7220783829689026,0.6883047819137573,0.0695662871003151,0.012372851371765137,-0.010112524032592773,0.01911783218383789,0.2019180953502655,0.08490651100873947,-0.051356442272663116,1.666841644258044,-0.7591495405945012,-2.9180978032189877
1687013801.910771,0.7196476459503174,0.6910576820373535,0.0674269050359726,0.021120727062225342,-0.029345035552978516,0.006410352885723114,0.1507628858089447,0.049414828419685364,-0.01868964359164238,1.6642179313374268,-0.7629513699918204,-2.9281960064214876
1687013801.928769,0.7191823720932007,0.6917116045951843,0.06566458195447922,0.002222597599029541,-0.004882931709289551,0.00023818016052246094,0.0956868976354599,0.05040162056684494,-0.04218438267707825,1.6618483570929856,-0.7638564529090327,-2.936032007500598
1687013801.960155,0.7189735174179077,0.691923975944519,0.06571198254823685,0.011327266693115234,0.024262547492980957,-0.020561225712299347,0.1903964877128601,0.064061239361763,-0.011399372480809689,1.6619400499604764,-0.7641505892619048,-2.940236783022434
1687013802.054819,0.717621922492981,0.6933353543281555,0.06561248004436493,0.03449898958206177,-0.029883146286010742,-0.012557625770568848,-0.06260015815496445,0.0034043726045638323,-0.038101691752672195,1.661973250355878,-0.7661073110182406,-2.9461432050576457
1687013802.070301,0.7160083055496216,0.6949005722999573,0.0666755959391594,0.013392329216003418,-0.020461976528167725,-0.04056774824857712,0.057783860713243484,0.004390984773635864,-0.002181239891797304,1.6636498061306992,-0.7682816339222281,-2.944235334455317
1687013802.143989,0.7166768908500671,0.6943842768669128,0.06484377384185791,0.00929039716720581,-0.024599671363830566,-0.010766632854938507,-0.027396325021982193,-0.009911343455314636,0.0122291911393404,1.6610290271188688,-0.7675638881313989,-2.9473348565617723
1687013802.268526,0.717140793800354,0.6941601634025574,0.06205512955784798,0.005530714988708496,-0.013435006141662598,-0.020261287689208984,0.12913869321346283,-0.001455541467294097,0.02300487458705902,1.6571126266069296,-0.7672524994539291,-2.9519119451926343
1687013802.275609,0.7177317142486572,0.6937093734741211,0.06023871898651123,0.013789892196655273,-0.018767237663269043,0.009631283581256866,-0.08093629032373428,-0.04488272964954376,0.0001495585311204195,1.6545293864392951,-0.7666264581177984,-2.953856341815199
1687013802.36233,0.7185930609703064,0.6928532719612122,0.059821534901857376,0.0015760064125061035,0.0019405484199523926,0.002052910625934601,-0.006429968401789665,0.0072166877798736095,0.010672173462808132,1.6538529502273283,-0.7654385171004239,-2.9529402628678683
1687013802.380825,0.7184336185455322,0.6927056312561035,0.06334120035171509,0.008662879467010498,0.00782543420791626,0.0034008026123046875,-0.10588087886571884,-0.033075254410505295,-0.001857799245044589,1.658734635248292,-0.7652338035308196,-2.9438529808080927
1687013802.384484,0.7188057899475098,0.692484438419342,0.06151241064071655,0.004689693450927734,0.0029044747352600098,0.01681090146303177,0.01854022964835167,-0.0016119575593620539,0.016366612166166306,1.6561641847915545,-0.7649271494695462,-2.9485889372753347
1687013802.4098969,0.7190601229667664,0.6922146081924438,0.061577536165714264,-0.019276797771453857,0.0446629524230957,-0.006188146770000458,0.08749865740537643,0.0416731983423233,-0.010791040025651455,1.6562240455392314,-0.7645531660386793,-2.9470446691033603
1687013802.503831,0.7174316644668579,0.6939658522605896,0.06085311248898506,0.013082802295684814,0.0027505159378051758,0.016646258533000946,-0.04615350067615509,0.026552123948931694,-0.06858336925506592,1.6554145671165446,-0.7669825755102996,-2.9521803159990507
1687013802.518746,0.7153205275535583,0.6960646510124207,0.06173112615942955,-0.01840585470199585,0.035594403743743896,-0.011392347514629364,0.14889508485794067,0.0936688482761383,-0.03551289811730385,1.6568815939953132,-0.7699017201366326,-2.953145380953779
1687013802.5606399,0.7135506868362427,0.6978569626808167,0.061978232115507126,0.011302828788757324,-0.0292930006980896,-0.013012759387493134,-0.031004199758172035,-0.00824065413326025,-0.015069674700498581,1.6574377807159524,-0.7724010679708395,-2.9570946460414884
1687013802.687897,0.7141219973564148,0.6976666450500488,0.05736932530999184,-0.011119067668914795,-0.013920187950134277,-0.009838216006755829,0.12223217636346817,-0.04267514869570732,0.03497385233640671,1.6509596390326846,-0.7721353904886373,-2.9642366982557324
1687013802.707068,0.7160229682922363,0.6960495114326477,0.05316159129142761,0.022715985774993896,0.00435948371887207,0.0142059326171875,0.11929599940776825,-0.022031212225556374,0.06507682055234909,1.6449059990209955,-0.7698805892085534,-2.96913392720746
1687013802.7728748,0.7162033915519714,0.6960281729698181,0.050966162234544754,0.022413551807403564,-0.05650174617767334,0.02187931537628174,-0.027318205684423447,0.04333554208278656,-0.027290254831314087,1.6418381468381547,-0.7698509129843902,-2.976485260804941
1687013802.788365,0.714793860912323,0.697228729724884,0.054242152720689774,-0.00039261579513549805,0.007422327995300293,-0.014431945979595184,0.08366570621728897,0.1205858588218689,-0.042194172739982605,1.6465361939767436,-0.7715242464769538,-2.976522799957746
1687013802.834361,0.7144240736961365,0.6972872614860535,0.058212339878082275,0.0008162856101989746,-0.02014791965484619,-0.012390140444040298,-0.05219497159123421,0.010450209490954876,0.006468507461249828,1.6520982079027375,-0.7716059101544402,-2.972799932919674
1687013802.8381681,0.7150737047195435,0.6965897679328918,0.05858314782381058,0.008680999279022217,0.006565690040588379,-0.016255270689725876,0.008870734833180904,0.01570640131831169,0.029182009398937225,1.6525397910582451,-0.7706333404859786,-2.9732923002801184
1687013802.889842,0.7159874439239502,0.6956800222396851,0.05823791027069092,0.0036780834197998047,0.023924648761749268,-0.01606260985136032,0.07812876999378204,0.06795229762792587,0.002206517616286874,1.651956942082754,-0.7693660756609227,-2.9761064515118942
1687013802.955615,0.7153228521347046,0.6964506506919861,0.057179391384124756,0.00982046127319336,0.00021988153457641602,-0.00011158734560012817,0.052855901420116425,0.0835147425532341,-0.019596781581640244,1.650561807759197,-0.7704394537926016,-2.9836648955659215
1687013803.013602,0.714170515537262,0.6977342367172241,0.055924903601408005,-0.002180159091949463,0.034565627574920654,-0.0029158592224121094,0.3952009975910187,0.2617747485637665,-0.001990890596061945,1.648944345771688,-0.7722296947710179,-2.995422051566556
1687013803.108537,0.7159624695777893,0.6968575716018677,0.04227923974394798,0.009562432765960693,0.10224533081054688,-0.0016450844705104828,1.790223479270935,0.9146323204040527,0.23324458301067352,1.6297801376326546,-0.7710066900049001,-3.0618762811116023
1687013803.126073,0.7275495529174805,0.6859910488128662,-0.009383833035826683,-0.05913829803466797,0.18894797563552856,-0.07882726192474365,4.126319885253906,1.8826955556869507,0.420893132686615,1.5578991803804048,-0.7559648889226517,3.016493604941825
1687013803.159824,0.7464597821235657,0.6606549024581909,-0.0795796662569046,0.01959240436553955,0.07782477140426636,0.11461383104324341,4.63146448135376,2.523484468460083,0.47811681032180786,1.4645880412324803,-0.7216908326861557,2.715647397563247
1687013803.257959,0.7742035984992981,0.6167848706245422,-0.14207465946674347,0.11965620517730713,0.198064923286438,0.1268310695886612,5.714532852172852,2.9086387157440186,0.2505519390106201,1.3893049362298089,-0.6646515475244817,2.381846139056354
1687013803.273318,0.8001130819320679,0.5759727358818054,-0.16755487024784088,0.0859648585319519,-0.28048616647720337,0.19592086970806122,3.2524101734161377,2.5349795818328857,0.14030121266841888,1.3643654616077807,-0.6137935522506511,2.1084664620491127
1687013803.308852,0.8249940276145935,0.5405964851379395,-0.16474361717700958,0.034426748752593994,0.14833784103393555,0.08532154560089111,4.472934246063232,2.7144768238067627,0.1008988693356514,1.3736981960773762,-0.5711459621703897,1.896953040288396
1687013803.438408,0.8491573333740234,0.5012558698654175,-0.16635698080062866,0.04082691669464111,-0.1944931149482727,0.1953333467245102,3.5813989639282227,2.4315860271453857,-0.011178197339177132,1.3773381590404628,-0.5250495356021334,1.6579105944878323
1687013803.456589,0.8668776154518127,0.4765279293060303,-0.14643912017345428,0.07629865407943726,-0.03867703676223755,0.15457195043563843,3.4070873260498047,2.4520299434661865,-0.10952235013246536,1.4034491253662322,-0.4967011596183256,1.4644431661398127
1687013803.560905,0.8769577145576477,0.4642367660999298,-0.12421589344739914,0.08938151597976685,-0.01889374852180481,0.09621594846248627,3.0467729568481445,2.0567193031311035,-0.35196352005004883,1.4300882485136561,-0.4827727093616075,1.2835212239663294
1687013803.579196,0.8817172646522522,0.4588571786880493,-0.10965748131275177,0.029140889644622803,0.16911819577217102,0.05248279124498367,3.9628524780273438,2.268630266189575,-0.2695713937282562,1.447063582575071,-0.4767085524852011,1.0885048216196824
1687013803.645623,0.8865213394165039,0.4507410228252411,-0.10446307808160782,-0.045517921447753906,0.04188889265060425,0.18914932012557983,4.659849643707275,2.4714841842651367,-0.4106680750846863,1.4535023952183541,-0.46759531191501985,0.8439680912546129
1687013803.660738,0.8854759335517883,0.45535123348236084,-0.09266950935125351,0.032019853591918945,-0.1868424117565155,0.103823721408844,3.243025302886963,2.0094926357269287,-0.8046552538871765,1.4665208903220384,-0.47276668513983233,0.6105710900077983
1687013803.663838,0.8644583225250244,0.4973166286945343,-0.07340198755264282,0.01110619306564331,0.11692580580711365,0.003211565315723419,1.636275053024292,1.344835638999939,-1.4279931783676147,1.4860885561751183,-0.5205030338126635,0.4801471824764189
1687013803.699177,0.8277240991592407,0.557818591594696,-0.060921527445316315,0.10782283544540405,-0.06706541776657104,-0.08788222074508667,0.1855286806821823,0.32774996757507324,-1.5132085084915161,1.4973275469324407,-0.5917551195190892,0.41245673794726906
1687013803.825891,0.7833831906318665,0.6195756793022156,-0.04936196282505989,-0.048672497272491455,-0.0621265172958374,-0.1756136417388916,-1.0048338174819946,-0.39209938049316406,-1.525445818901062,1.5078682617464427,-0.6682020050444696,0.44303787715288523
1687013803.8437681,0.7382087707519531,0.6732019186019897,-0.042974285781383514,-0.08304208517074585,-0.0485072135925293,-0.15583252906799316,-0.406328409910202,-0.42510101199150085,-1.3233696222305298,1.5126476812177698,-0.7385303605769705,0.4875835180753523
1687013803.9117541,0.6896546483039856,0.7230708003044128,-0.03930680453777313,0.0028654932975769043,-0.05897790193557739,0.022918883711099625,-0.33751100301742554,-0.12892445921897888,-1.4402389526367188,1.513863013611852,-0.8082375061258527,0.5028281228704269
1687013803.927209,0.63393634557724,0.7727503180503845,-0.03133344277739525,0.16628044843673706,-0.002028942108154297,-0.07158708572387695,-0.4836415648460388,-0.31229907274246216,-1.4108203649520874,1.5214097213754725,-0.8831630154677345,0.5257384531066553
1687013804.003681,0.5802806615829468,0.8141821622848511,-0.019545914605259895,0.14809781312942505,-0.0712316632270813,-0.13180601596832275,-0.8582658767700195,-0.6708984375,-1.2726622819900513,1.537125501041049,-0.9513192525389643,0.579310906236236
1687013804.009225,0.5295695066452026,0.8482286930084229,-0.008027642033994198,0.10684412717819214,-0.09372735023498535,-0.23274081945419312,-0.25387445092201233,-0.5763795375823975,-1.1606618165969849,1.5556386803150457,-1.0126318414507827,0.6417662086044463
1687013804.09498,0.4880920350551605,0.8724968433380127,-0.022709693759679794,0.12372452020645142,-0.28304970264434814,0.006260691210627556,-0.016733471304178238,-0.46897462010383606,-0.7400444746017456,1.5243023750000815,-1.0602891724164605,0.6299535787605933
1687013804.1125488,0.46030309796333313,0.8872351050376892,-0.030579855665564537,0.05735141038894653,-0.11881774663925171,0.05462771654129028,0.30244916677474976,0.025451352819800377,-0.3575216233730316,1.5044596296163657,-1.091316703423104,0.6254680180633809
1687013804.1488929,0.4533458948135376,0.8906775712966919,-0.034222304821014404,0.06282854080200195,-0.19292360544204712,0.2020232081413269,-0.08058129251003265,0.04258240386843681,-0.11294224113225937,1.4954509418077895,-1.0988334119694971,0.6106252216091297
1687013804.245113,0.44947919249534607,0.8930864930152893,-0.019105933606624603,0.019637107849121094,0.04169744253158569,0.0001544952392578125,-0.6860081553459167,-0.034770622849464417,-0.15491299331188202,1.5283150761215694,-1.1041597435675765,0.6431969068258095
1687013804.2630448,0.4411159157752991,0.8974430561065674,0.003625308396294713,-0.02621406316757202,0.09941375255584717,-0.06379067897796631,-0.4368283152580261,-0.17183740437030792,-0.19121220707893372,1.5790146354409818,-1.1139385062332414,0.7036459748188135
1687013804.301231,0.4274071455001831,0.9038932919502258,0.01732504926621914,-0.05266645550727844,-0.12754136323928833,0.03974282741546631,-0.5098392963409424,-0.2154913991689682,-0.3244903087615967,1.6113093844320214,-1.1287854172888863,0.754556187515497
1687013804.3958,0.41486331820487976,0.9087420105934143,0.045567356050014496,-0.038474708795547485,-0.07890808582305908,0.02697288617491722,-0.5272194743156433,0.05337308347225189,-0.20097123086452484,1.680194835379525,-1.1402598964057393,0.8364184327558656
1687013804.4105449,0.4087965786457062,0.9098660945892334,0.07091719657182693,0.06392079591751099,-0.0830533504486084,-0.08399403095245361,-0.6148545145988464,-0.175850510597229,0.04519965872168541,1.74256480756752,-1.1429611387699126,0.9064419022604325
1687013804.448133,0.41448232531547546,0.907066285610199,0.07372306287288666,-0.0482712984085083,0.048255860805511475,-0.02082086354494095,0.33247965574264526,-0.025162024423480034,-0.0011629138607531786,1.7468232346989425,-1.1362622790814798,0.9173458207092194
1687013804.547864,0.4125818610191345,0.909180760383606,0.05627341568470001,0.022583693265914917,0.07258504629135132,0.022995956242084503,0.3312332034111023,0.06401187926530838,-0.06504508852958679,1.7063531978410198,-1.1413124495277913,0.8726603175599966
1687013804.565424,0.41034209728240967,0.9101108908653259,0.057596445083618164,0.02830234169960022,0.01760810613632202,0.008641950786113739,-0.2849941551685333,-0.0919126495718956,-0.11629562824964523,1.7102473092637258,-1.1435516446364178,0.8787208041832689
1687013804.6029282,0.40906283259391785,0.9104761481285095,0.060836054384708405,0.047937989234924316,-0.04597419500350952,0.022873640060424805,-0.17153507471084595,-0.07393071800470352,0.038746487349271774,1.7184347528675905,-1.144433916854672,0.8907213872478583
1687013804.6959639,0.4106423854827881,0.9094101786613464,0.06592489033937454,-0.018537193536758423,0.026396095752716064,-0.026007890701293945,0.09477996081113815,-0.024772757664322853,-0.03002392314374447,1.7299789228895073,-1.141863610785942,0.907238944000685
1687013804.712573,0.4115072190761566,0.9095734357833862,0.0577753521502018,-0.00911763310432434,-0.005154550075531006,0.011438485234975815,0.10762177407741547,-0.008634979836642742,0.002073093084618449,1.7102839319470509,-1.1422564276660625,0.8870403474411006
1687013804.781969,0.410408616065979,0.9099277853965759,0.0599668025970459,0.012107282876968384,-0.03918510675430298,0.035064928233623505,-0.23134000599384308,-0.03684043139219284,-0.009475238621234894,1.7158844926400194,-1.1431098631863896,0.895296359684049
1687013804.880622,0.4104841947555542,0.9096455574035645,0.06362204998731613,0.033104151487350464,0.04454755783081055,-0.017418503761291504,0.079500213265419,0.0008364641107618809,0.023016059771180153,1.7245654865927627,-1.1424299472473272,0.9048126951853553
1687013804.9012651,0.41219833493232727,0.9087944626808167,0.06469503045082092,0.00528225302696228,-0.004451751708984375,0.025713331997394562,-0.09997647255659103,-0.034835513681173325,0.004656159784644842,1.726477499143393,-1.1403856088848596,0.9077999535230139
1687013804.961689,0.4140850603580475,0.9079099297523499,0.0650637224316597,-0.00597342848777771,-0.0064359307289123535,-0.008209466934204102,0.010293573141098022,0.03481839969754219,0.04315801337361336,1.7266485284496518,-1.138270495883352,0.9084110074363091
1687013804.976841,0.4156852662563324,0.907051682472229,0.06680590659379959,0.028681278228759766,0.005072891712188721,-0.0056487396359443665,-0.02019660361111164,-0.002984462073072791,0.04735368862748146,1.7301464397832573,-1.1362275016172314,0.9120853641801815
1687013805.054364,0.418281227350235,0.9056777358055115,0.06920141726732254,0.007103383541107178,0.014793455600738525,-0.0023527145385742188,-0.03938307985663414,-0.0053522782400250435,0.055961158126592636,1.7347535093175008,-1.1329755700679005,0.9174710435071216
1687013805.0597649,0.41994670033454895,0.9048618674278259,0.06978467851877213,0.007375746965408325,-0.04264873266220093,0.006143093109130859,-0.08402613550424576,-0.006566591095179319,0.020026128739118576,1.7354666663672722,-1.1310551142072272,0.9171085085053651
1687013805.145164,0.4217801094055176,0.9034843444824219,0.07627341896295547,-0.008999258279800415,0.024097442626953125,-0.014811038970947266,-0.08910394459962845,-0.004565403331071138,0.03804421052336693,1.7496998013382565,-1.1278302998792114,0.93450423912893
1687013805.16194,0.42309504747390747,0.9027923345565796,0.07717868685722351,0.008820295333862305,-0.010229527950286865,-0.023360975086688995,-0.01899653859436512,-0.11610960215330124,0.035938382148742676,1.7512270341532734,-1.1262185503489357,0.9380913257037189
1687013805.232226,0.4238537549972534,0.902961254119873,0.07077352702617645,-0.02016720175743103,0.0329517126083374,0.012127391993999481,0.0912129282951355,-0.013088937848806381,-0.06727288663387299,1.7362462481469625,-1.1266114565148466,0.926524791930753
1687013805.248982,0.42136040329933167,0.9036855101585388,0.07621081173419952,0.04301038384437561,-0.011122643947601318,0.017905354499816895,-0.2195412665605545,-0.12047673761844635,0.002016501035541296,1.7497303490243716,-1.1282998672904645,0.9460523275947418
1687013805.288707,0.42202362418174744,0.9033496975898743,0.07652099430561066,0.009098291397094727,-0.009962916374206543,0.006669878959655762,0.0005984243471175432,0.03116791509091854,-0.019576340913772583,1.750166796456734,-1.1275163412744578,0.9481252003644416
1687013805.3882651,0.42615455389022827,0.9007960557937622,0.08341936022043228,0.004906356334686279,-0.018609225749969482,0.0010075569152832031,-0.09890827536582947,0.13828273117542267,0.19394086301326752,1.7641011304429672,-1.121599226002347,0.9586658164340478
1687013805.395731,0.4324352443218231,0.8976767063140869,0.08471300452947617,-0.0030986666679382324,-0.05481177568435669,-0.06454087048768997,0.20902028679847717,0.1732054054737091,0.24990634620189667,1.764244136150672,-1.114468563763442,0.9516807054995031
1687013805.442436,0.4544246196746826,0.8891082406044006,0.05463387072086334,-0.013827025890350342,-0.10781252384185791,0.04564690589904785,1.5718187093734741,0.35243597626686096,0.6942932605743408,1.690448502582382,-1.0953931040777958,0.8534221933983385
1687013805.536665,0.4938623309135437,0.8694866895675659,-0.00964101031422615,0.029941439628601074,-0.3941602110862732,-0.016741454601287842,1.486776351928711,0.4257279336452484,1.1156926155090332,1.5512771498353806,-1.0541621786198794,0.6737300730343133
1687013805.544781,0.5520298480987549,0.8320350646972656,-0.05459557846188545,0.007845640182495117,-0.0981636643409729,0.01963764801621437,1.2513558864593506,0.45866554975509644,1.63260817527771,1.4722172107066638,-0.9827662321171574,0.5633021896719538
1687013805.591666,0.6273329257965088,0.7755140066146851,-0.07093213498592377,-0.015196025371551514,-0.2558150291442871,0.05654311925172806,0.27909761667251587,0.47507354617118835,1.7902307510375977,1.4582051498175959,-0.8875288903197992,0.5120709779570529
1687013805.687717,0.708123505115509,0.7032501697540283,-0.0632479339838028,-0.05237698554992676,-0.2529938817024231,-0.0725858211517334,0.03856995329260826,0.7569481134414673,2.30562686920166,1.4817150570067132,-0.7799588209804464,0.5050490960750423
1687013805.696017,0.7873814105987549,0.6160027384757996,-0.023895785212516785,0.10145825147628784,-0.2187555432319641,-0.029479440301656723,-0.8768891096115112,0.08294393867254257,2.466205596923828,1.5404572161112415,-0.6636582887290383,0.5549075362034267
1687013805.742667,0.8627464175224304,0.5056122541427612,-0.0050110043957829475,0.1454935073852539,0.10568535327911377,0.07491147518157959,-0.7902215719223022,-0.14725489914417267,2.7783002853393555,1.5649881915719643,-0.5300914932598115,0.6074520913450642
1687013805.8396869,0.9213142991065979,0.3887651264667511,0.006447671912610531,0.2925223112106323,0.0017224550247192383,-0.1653984785079956,-2.323049783706665,-0.7999758720397949,2.4226744174957275,1.5777945537625828,-0.39929089201491486,0.680308773906777
1687013805.858745,0.9620068073272705,0.2730211913585663,-0.0015299237566068769,0.186262845993042,0.17680782079696655,0.14574068784713745,-3.6108386516571045,-1.396132469177246,2.2544496059417725,1.5692059820844517,-0.27653215747941295,0.8330343121645802
1687013805.888667,0.9791068434715271,0.1977008432149887,-0.047583628445863724,0.3642922639846802,0.3407970070838928,-0.17943668365478516,-3.2124481201171875,-2.235592842102051,1.2659696340560913,1.5222355169333812,-0.19901191300685117,1.0317666459800399
1687013805.985526,0.9802290797233582,0.1636643260717392,-0.11119745671749115,-0.15654444694519043,0.21447889506816864,0.11252493411302567,-2.2133586406707764,-1.1243362426757812,0.4868549108505249,1.4578389354778791,-0.16440392759974212,1.164104970175713
1687013806.003592,0.9755827188491821,0.1497940719127655,-0.16062457859516144,0.2645449638366699,0.03175494074821472,-0.060277000069618225,-1.5897066593170166,-1.8449729681015015,0.5984572172164917,1.4076155496120057,-0.15035999576328177,1.2428778422769868
1687013806.073616,0.9567008018493652,0.1686663031578064,-0.23722417652606964,-0.07860326766967773,0.04965639114379883,0.19375181198120117,-4.059074878692627,-2.136204719543457,0.13968361914157867,1.3277379583007332,-0.16947642648518413,1.4053941452492755
1687013806.1678782,0.9246283769607544,0.22589194774627686,-0.3066518008708954,0.030281901359558105,-0.08731162548065186,0.2867390513420105,-4.471152305603027,-2.531954288482666,-0.18184328079223633,1.2505626901882396,-0.2278585584418539,1.5985026281191757
1687013806.186456,0.8826454281806946,0.3239738345146179,-0.34055525064468384,0.08279329538345337,-0.0012962520122528076,0.12413981556892395,-5.415609836578369,-2.1840097904205322,-0.445959210395813,1.202560717325747,-0.32992687377493346,1.838623271633723
1687013806.253397,0.8321877121925354,0.4374389052391052,-0.34075069427490234,-0.02806466817855835,-0.08401477336883545,0.16001024842262268,-5.435943603515625,-2.399740219116211,-0.5388213992118835,1.1821582778203759,-0.4527486517381175,2.100972956867994
1687013806.258009,0.7819786667823792,0.5494924783706665,-0.2942235469818115,0.11290347576141357,-0.04969078302383423,0.18727463483810425,-5.378358364105225,-2.0664665699005127,-0.7122945785522461,1.2109256646795563,-0.5817566522506743,2.3742531342009814
1687013806.340919,0.7401561141014099,0.6355422139167786,-0.2196701616048813,-0.06764030456542969,-0.005415201187133789,0.053196728229522705,-4.1388702392578125,-1.3836756944656372,-0.5109165906906128,1.2822880478083443,-0.6887105930727921,2.6442235717278053
1687013806.359147,0.7146835327148438,0.685066282749176,-0.1411086469888687,0.058357179164886475,0.00965118408203125,-0.0005539655685424805,-3.182547092437744,-1.1400576829910278,-0.3756965696811676,1.3758614539103773,-0.7546946853245542,2.876214652378568
1687013806.434037,0.6982085108757019,0.7114242911338806,-0.07987603545188904,0.003451526165008545,0.007203638553619385,-0.03770821541547775,-2.441227912902832,-0.7984039783477783,-0.34890085458755493,1.4568901237460454,-0.7915228761583758,3.057757824315879
1687013806.450187,0.6858009696006775,0.7276247143745422,-0.015477021224796772,0.05426555871963501,0.019674599170684814,-0.00028532929718494415,-2.4312307834625244,-0.7645611763000488,-0.16770075261592865,1.548232353338378,-0.8148529330765405,-3.0414253665394235
1687013806.49085,0.6822611689567566,0.7307553291320801,0.022727830335497856,-0.007013976573944092,0.05586588382720947,-0.0595930814743042,-0.9496662020683289,-0.35066890716552734,0.03067217953503132,1.6040965213812945,-0.8194277616701474,-2.9256177833916923
1687013806.583918,0.6842599511146545,0.7286935448646545,0.028182843700051308,-0.012537539005279541,0.11577367782592773,-0.09712207317352295,0.20571362972259521,-0.11938457936048508,0.04225340113043785,1.6119603964126443,-0.8164123196610035,-2.901278065981967
1687013806.5899181,0.6868013143539429,0.7266677021980286,0.01606764644384384,-0.021808087825775146,0.08371144533157349,-0.03385937213897705,0.3673059344291687,0.04037037864327431,0.04526577144861221,1.5941869583382464,-0.8134588313848571,-2.9239419142379637
1687013806.680622,0.6873010396957397,0.726323664188385,0.008457574993371964,0.011337876319885254,-0.001058042049407959,0.016765236854553223,0.10350674390792847,-0.005530621390789747,0.035667140036821365,1.5831011939755413,-0.8129581478444206,-2.9410918158829626
1687013806.702117,0.6874517798423767,0.7261808514595032,0.00845933984965086,-0.028134822845458984,0.0367891788482666,0.01693129539489746,0.10150635242462158,0.2275618463754654,-0.07928647845983505,1.5831010641491063,-0.8127504007446921,-2.9492882579354194
1687013806.729838,0.6824116110801697,0.7308303713798523,0.014192531816661358,0.017539501190185547,-0.01203453540802002,0.04537773132324219,-0.19217360019683838,0.050413426011800766,-0.14861847460269928,1.591590940703629,-0.8195377352290737,-2.9443685789723
1687013806.8232899,0.6785004138946533,0.7344752550125122,0.013539553619921207,0.0016905665397644043,0.006781518459320068,-0.020512819290161133,0.4115450382232666,0.12889251112937927,-0.048876840621232986,1.5907487933997377,-0.8248931239549451,-2.952386883359922
1687013806.82976,0.6772994995117188,0.7356734275817871,0.007082807831466198,0.02013397216796875,-0.05418527126312256,0.008954167366027832,0.09035792201757431,0.03801286220550537,-0.05432213842868805,1.5812533693307822,-0.8266603301634685,-2.972327394136596
1687013806.885073,0.6747137904167175,0.7380657196044922,0.004511910490691662,0.026503801345825195,-0.030393540859222412,0.0024765729904174805,0.12579837441444397,0.022625470533967018,-0.061971403658390045,1.5774833747235926,-0.8301991336897333,-2.980135300670443
1687013806.981072,0.6750333905220032,0.7377787232398987,0.0035624071024358273,0.01933300495147705,-0.0658273696899414,-0.017127513885498047,-0.039964981377124786,-0.03862901031970978,0.05660457909107208,1.5760736567633824,-0.8297738546874892,-2.983111080971202
1687013807.002718,0.6782510280609131,0.7348208427429199,0.0037474585697054863,-0.0015237927436828613,-0.018634259700775146,0.007376194000244141,0.01351790688931942,-0.018247926607728004,0.08586612343788147,1.5763214498706057,-0.8254025391155848,-2.97982852348151
1687013807.029593,0.6816893815994263,0.7316398024559021,-0.0016907780664041638,-0.008700549602508545,-0.007945895195007324,0.0039490461349487305,0.1909698247909546,0.07868350297212601,0.03606075420975685,1.5683160554363897,-0.8207243459721022,-2.9931226381026916
1687013807.124965,0.6825428009033203,0.7308456301689148,0.0005694619612768292,0.024351119995117188,0.025120675563812256,0.001612544059753418,-0.021737640723586082,0.05958011746406555,0.005912438966333866,1.5716306507556321,-0.8195600742512692,-2.9923563004592446
1687013807.140948,0.6834664940834045,0.7299811244010925,0.0010653354693204165,0.0012868642807006836,-0.006455063819885254,-0.00036346912384033203,0.0189072135835886,0.04263646528124809,0.048165418207645416,1.572355049227785,-0.81829435514607,-2.996236488263319
1687013807.180708,0.6847777962684631,0.7287517189979553,0.0005437040235847235,-0.00670778751373291,0.021233081817626953,-0.024637341499328613,0.10809328407049179,0.04995216801762581,0.021365365013480186,1.571590312697147,-0.8164972424358531,-2.9997736215732096
1687013807.276569,0.6856865286827087,0.7278891205787659,-0.0034016058780252934,-0.005236148834228516,-0.004454612731933594,-0.010377109050750732,0.05319798365235329,-0.01168154738843441,0.026980772614479065,1.5658354916142552,-0.815238477198287,-3.008489045488893
1687013807.293713,0.685700535774231,0.727874219417572,-0.003734433092176914,0.0023334622383117676,0.023163437843322754,-0.0011941790580749512,0.013106138445436954,0.014817527495324612,-0.014700493775308132,1.5653502231488436,-0.8152167456657737,-3.0077881311352677
1687013807.362459,0.6848840117454529,0.7286417484283447,-0.0038965512067079544,0.009009361267089844,-0.0036660432815551758,0.009832203388214111,0.0016520596109330654,0.03411354869604111,-0.03113779053092003,1.5651070290735798,-0.8163366612476047,-3.0104151646626414
1687013807.460733,0.6837099194526672,0.7297458052635193,-0.003457168582826853,0.0018216371536254883,-0.005060017108917236,-0.004828333854675293,0.07444916665554047,0.05085311457514763,-0.006513071246445179,1.5657398855323008,-0.8179500600250184,-3.0114201307827555
1687013807.4780579,0.6836792826652527,0.7297691106796265,-0.004433418624103069,0.012563943862915039,0.0030800700187683105,-0.0031654834747314453,0.01776178739964962,0.0216789823025465,-0.01798883080482483,1.5643117712792194,-0.8179841738179346,-3.0168557808430907
1687013807.543158,0.6828064322471619,0.7305888533592224,-0.003952405881136656,0.004464685916900635,-0.011182606220245361,-0.017226815223693848,0.03370817378163338,0.017938129603862762,-0.010881787165999413,1.5650079195467903,-0.8191839342225159,-3.0168575853295065
1687013807.557845,0.6833608150482178,0.7300596237182617,-0.005556989926844835,0.012989163398742676,0.0008821487426757812,-0.018307745456695557,0.13577263057231903,0.04501768574118614,0.010845279321074486,1.5626646530558377,-0.818409215007173,-3.022795776556743
1687013807.6336288,0.6833276748657227,0.7300598621368408,-0.008722208440303802,0.012717187404632568,-0.017443835735321045,-0.004751324653625488,0.033961616456508636,0.025457920506596565,-0.006275583989918232,1.5580327071106062,-0.8184095347561938,-3.031160085504012
1687013807.650737,0.6836220026016235,0.729765772819519,-0.010154344141483307,0.005022406578063965,-0.03672671318054199,-0.008690238930284977,0.0068731424398720264,-0.017399797216057777,0.027505481615662575,1.5559436787332508,-0.8179793185105659,-3.0347963854852553
1687013807.72105,0.6846861839294434,0.7287644743919373,-0.01034772489219904,-0.00379335880279541,0.004878103733062744,0.0024436721578240395,0.03339875862002373,0.01736590638756752,-0.010411139577627182,1.5556843862003584,-0.8165159426740546,-3.0334091128885574
1687013807.7262979,0.6845554709434509,0.7288984060287476,-0.009542481042444706,0.024215221405029297,0.010191619396209717,0.013113021850585938,0.0313633494079113,0.05789850652217865,-0.0032158782705664635,1.556857554217315,-0.8167115433677475,-3.0351055301340226
1687013807.7818131,0.6852133870124817,0.7282687425613403,-0.01036878116428852,-0.02487403154373169,-0.0012025833129882812,0.002937733195722103,0.07958444952964783,0.04466694965958595,0.019209735095500946,1.555665289502683,-0.8157922710235977,-3.040603370077722
1687013807.847075,0.6855837106704712,0.7278827428817749,-0.012724539265036583,-0.002173125743865967,0.02202582359313965,0.0025011301040649414,0.1049257218837738,0.04582107439637184,-0.020854925736784935,1.552238303494395,-0.8152291171825652,-3.0478846147420002
1687013807.862409,0.6846463084220886,0.7287480235099792,-0.013635930605232716,-0.0014340877532958984,0.012768149375915527,0.0014441609382629395,0.01700695790350437,0.03472323343157768,-0.025949154049158096,1.5508822079783424,-0.8164918795768442,-3.0520416865405844
1687013807.9019861,0.6834493279457092,0.7298914790153503,-0.01246852707117796,0.006583571434020996,0.009183287620544434,-0.014112293720245361,0.020675240084528923,0.0415940135717392,-0.03456640988588333,1.5525548220150907,-0.8181631820302426,-3.0528312702033866
1687013807.962024,0.682309627532959,0.7309665083885193,-0.011894559487700462,0.01536792516708374,-0.011224627494812012,-0.012138009071350098,-0.034834399819374084,-0.010384321212768555,-0.017153531312942505,1.553365303974121,-0.8197371842300314,-3.0533330089558106
1687013808.026307,0.6815318465232849,0.7316910624504089,-0.011949163861572742,0.0015278458595275879,-0.006761133670806885,-0.02134549804031849,0.0048087043687701225,-0.008714075200259686,-0.02624463103711605,1.5532653198759976,-0.8207995849198282,-3.0518531087802407
1687013808.134995,0.6813443899154663,0.7318267822265625,-0.014119815081357956,0.0004487037658691406,0.0034638047218322754,-0.010736762546002865,0.07700203359127045,0.004496446345001459,-0.015792258083820343,1.5500758307867095,-0.8209986329415823,-3.055319268937895
1687013808.139354,0.681145966053009,0.7319648861885071,-0.016363849863409996,0.014898896217346191,-0.018555402755737305,0.004843473434448242,-0.019097648561000824,-0.04730292782187462,0.011763936839997768,1.5467769491289647,-0.8212013766905938,-3.057909159109926
1687013808.175983,0.6816115379333496,0.7314769625663757,-0.01863689161837101,0.009108006954193115,-0.009827733039855957,0.0009214282035827637,0.05668788403272629,-0.012319197878241539,0.009865702129900455,1.5434607438383265,-0.8204854941042738,-3.060709806200262
1687013808.259825,0.6821408271789551,0.7309466004371643,-0.02002330869436264,0.009112775325775146,0.0014295578002929688,0.01085275411605835,0.004949541762471199,-0.011818344704806805,-9.898096323013306e-05,1.54145112526936,-0.8197080419702147,-3.062186282520735
1687013808.278885,0.6829303503036499,0.730200469493866,-0.020341243594884872,-0.010841727256774902,0.005410671234130859,-0.004271211102604866,0.01011163555085659,-0.0011122601572424173,0.015982650220394135,1.5410198915061253,-0.8186152922776438,-3.0617715164000567
1687013808.322454,0.6834902167320251,0.7296594977378845,-0.020937755703926086,-0.0006594657897949219,0.004181504249572754,-0.0009281039237976074,0.016954049468040466,-0.005989395081996918,-0.000450185383670032,1.540172317525905,-0.8178238821806798,-3.063126949159283
1687013808.413635,0.6831560134887695,0.7299656271934509,-0.02117391675710678,-0.0034074783325195312,0.0056607723236083984,0.004923282191157341,-0.0054787760600447655,0.012959083542227745,-0.01413663662970066,1.5398119855749328,-0.8182716271232392,-3.062917720104179
1687013808.43087,0.6829646825790405,0.7301368117332458,-0.021438058465719223,0.005618631839752197,0.0020562410354614258,-0.010025560855865479,0.06424957513809204,0.022709982469677925,0.0012778067030012608,1.5394169278316305,-0.8185221700553609,-3.064899039915658
1687013808.473401,0.682930052280426,0.7301594614982605,-0.02176585979759693,0.004096865653991699,-0.011516213417053223,-0.00293809175491333,-0.015293368138372898,-0.022410180419683456,-0.00037641572998836637,1.5389358242450284,-0.8185553121121034,-3.065439226877117
