Timestamp,gravityX,gravityY,gravityZ,accelerationX,accelerationY,accelerationZ,rotationRateX,rotationRateY,rotationRateZ,attitudeRoll,attitudePitch,attitudeYaw
1687008237.709485,0.8961641192436218,0.3654952645301819,-0.2516014277935028,-0.007644712924957275,-0.006257534027099609,0.005462050437927246,-0.09396715462207794,0.03854943439364433,-0.003097586566582322,1.2970888130112663,-0.37416482229352566,0.3908256874256807
1687008237.728651,0.8964051604270935,0.3667028248310089,-0.24897226691246033,0.01074528694152832,-0.005954444408416748,-0.009938746690750122,-0.08304455131292343,0.026387400925159454,-0.007348923943936825,1.299879672309174,-0.375462482459281,0.3949523491388259
1687008237.794188,0.8967247605323792,0.3674295246601105,-0.24673978984355927,0.0043984055519104,-0.00027248263359069824,-0.012934207916259766,-0.05424676835536957,0.01777544803917408,-0.005596097558736801,1.3022844667942122,-0.3762437007652627,0.398505194896483
1687008237.798864,0.8966501951217651,0.3680347800254822,-0.24610744416713715,0.004564464092254639,-0.005546927452087402,0.004240512847900391,-0.20081815123558044,-0.012664038687944412,0.007458518259227276,1.3029189239731898,-0.3768945811087631,0.4038396854017538
1687008237.923799,0.8964928984642029,0.3694583773612976,-0.24454239010810852,-0.003304421901702881,0.00503811240196228,-0.008982285857200623,-0.09651979058980942,-0.04287058860063553,0.021813489496707916,1.304498253989988,-0.3784261029488758,0.4127088478993143
1687008237.942033,0.8965343832969666,0.3692185878753662,-0.24475283920764923,0.019878029823303223,0.008329689502716064,0.010744154453277588,-0.07900133728981018,-0.025248629972338676,0.01289469562470913,1.3042915368085617,-0.37816806415485443,0.4176199025749095
1687008238.0039458,0.8959925174713135,0.3703024685382843,-0.24509914219379425,-0.004055202007293701,-0.0009023845195770264,0.017132937908172607,-0.08184825628995895,-0.006409428082406521,-0.0019329863134771585,1.3037782691148956,-0.3793346063015863,0.42128260426731073
1687008238.018671,0.8959293961524963,0.3704107999801636,-0.2451661378145218,0.0021419525146484375,0.005306422710418701,0.009005963802337646,0.04993981868028641,-0.031299151480197906,-0.009509080089628696,1.303690766216799,-0.3794512276417541,0.42175391908078147
1687008238.161199,0.8960024118423462,0.37036287784576416,-0.2449721395969391,0.004983425140380859,0.005705296993255615,0.01558685302734375,-0.0012483997270464897,0.008595798164606094,0.018511701375246048,1.3039129553616966,-0.37939966010668885,0.422034403283991
1687008238.1786351,0.8964442014694214,0.36923131346702576,-0.24506361782550812,-0.008870899677276611,3.1441450119018555e-05,0.026023805141448975,-0.01911301724612713,0.015718689188361168,0.03289896249771118,1.303943391398467,-0.37818174474147925,0.4220373026992991
1687008238.182726,0.8973875641822815,0.36771297454833984,-0.24389076232910156,-0.006564199924468994,0.020714789628982544,0.006891325116157532,0.12108030915260315,0.025433633476495743,0.004599281586706638,1.3054274682209064,-0.37654848332656043,0.42041482010506254
1687008238.2466779,0.8980023264884949,0.36701929569244385,-0.2426706850528717,0.0044026970863342285,-0.005630046129226685,0.0071665942668914795,0.015229642391204834,0.06001903861761093,0.002091316506266594,1.3068664755602815,-0.3758026694431588,0.4171177645167287
1687008238.2609138,0.8987337350845337,0.36692115664482117,-0.24009741842746735,0.00016164779663085938,0.0035012662410736084,-0.003966808319091797,0.006450754590332508,0.0562945231795311,0.0014150731731206179,1.3097420081761786,-0.37569716713118845,0.4159623067657588
1687008238.334765,0.8994523882865906,0.3665720820426941,-0.23792947828769684,0.0009840726852416992,0.019734740257263184,-0.018692731857299805,0.09007672220468521,0.03391313925385475,-0.002719018142670393,1.3121925672671797,-0.3753219561614219,0.41562228071222046
1687008238.348444,0.8993598222732544,0.36673304438591003,-0.2380317598581314,0.006615698337554932,-0.007327437400817871,-0.008550196886062622,0.010798053815960884,0.03851091116666794,-0.01902368851006031,1.3120608464448174,-0.37549494685716933,0.4114739948245201
1687008238.4257169,0.8990951776504517,0.3670577108860016,-0.23853018879890442,0.007521092891693115,0.0104752779006958,-0.022105082869529724,0.10818732529878616,-0.002838395070284605,-0.02007916569709778,1.3114700461381166,-0.37584395063384296,0.40814432572351594
1687008238.4324598,0.8989053964614868,0.36727848649024963,-0.2389054149389267,0.007344722747802734,-0.007659286260604858,-0.002580106258392334,-0.012169800698757172,0.020937331020832062,-0.0035071142483502626,1.3110277969599402,-0.37608131495047936,0.4062783949978142
1687008238.553653,0.8985458612442017,0.3670785427093506,-0.24055957794189453,0.01086282730102539,-0.0013558268547058105,-0.008936762809753418,0.08457458019256592,-0.011553235352039337,-0.005626724101603031,1.3092098773995744,-0.37586635406121605,0.40312789261187676
1687008238.57043,0.8984742164611816,0.3660237789154053,-0.24242715537548065,0.0018096566200256348,0.00021773576736450195,0.008128583431243896,0.060807473957538605,-0.005578166805207729,0.000395348877646029,1.3072513981348624,-0.3747326968216069,0.39906721060553396
1687008238.636222,0.8985386490821838,0.36518594622612,-0.24344970285892487,0.012563765048980713,-0.01083102822303772,0.0008960962295532227,0.0012674885801970959,-0.018236082047224045,0.022536270320415497,1.3062089474630716,-0.3738325388706645,0.3981356528765343
1687008238.649576,0.8989689946174622,0.3644157350063324,-0.24301448464393616,-0.002743959426879883,-0.007024317979812622,0.0014832019805908203,-0.09395197033882141,-0.009734206832945347,0.033883336931467056,1.306780894938312,-0.37300533027807475,0.40021287502369796
1687008238.760668,0.8994859457015991,0.3644697368144989,-0.2410123497247696,-0.0013077855110168457,-0.007139354944229126,0.0010985136032104492,-0.23421543836593628,-0.019943879917263985,0.04714987426996231,1.3090012870198589,-0.37306330415099265,0.4099315874998395
1687008238.768892,0.9001603126525879,0.36484241485595703,-0.23791100084781647,0.00241243839263916,-0.014012277126312256,0.00014865398406982422,-0.22830821573734283,-0.016721365973353386,0.0465930700302124,1.3124061974000678,-0.37346353141403366,0.4226426047905107
1687008238.852357,0.9008938670158386,0.36402153968811035,-0.23638682067394257,-0.006316781044006348,0.002280980348587036,-0.02348552644252777,0.002023160457611084,-0.03077690675854683,0.017283253371715546,1.3141895795316305,-0.3725820418957744,0.4275496483506109
1687008238.8688269,0.9010620713233948,0.36504000425338745,-0.2341652512550354,-0.003784000873565674,0.009471803903579712,0.019672542810440063,-0.17279250919818878,0.06638763844966888,-0.009216265752911568,1.3165435389007627,-0.3736757632101561,0.43374634488884206
1687008238.935604,0.9014102816581726,0.36725977063179016,-0.22930365800857544,0.005267202854156494,-0.032664954662323,0.015497595071792603,-0.32081931829452515,0.02287016436457634,0.01554827019572258,1.3216965405704109,-0.376061195700458,0.443441894914749
1687008238.949764,0.9021691679954529,0.36910295486450195,-0.2232801616191864,-0.012520670890808105,0.026694834232330322,-0.0028244853019714355,-0.001620132359676063,0.046547796577215195,-0.020599281415343285,1.3281789941936588,-0.37804364815463404,0.45345306030005594
1687008239.0277371,0.9027774930000305,0.36992397904396057,-0.2194286286830902,0.016686558723449707,-0.021291136741638184,0.0005871951580047607,-0.08860238641500473,0.0647500604391098,-0.00960914883762598,1.3323605111705148,-0.3789272048042423,0.45469324124250055
1687008239.033406,0.902734637260437,0.3717218041419983,-0.216548353433609,-0.004602253437042236,0.0021033287048339844,-0.006489276885986328,0.06876277178525925,0.0534847117960453,-0.029567742720246315,1.3353644342525834,-0.38086302826295027,0.4539569281997155
1687008239.118032,0.9033111333847046,0.37197360396385193,-0.21369333565235138,0.01566481590270996,-0.0036568939685821533,-0.0006772875785827637,-0.03035559691488743,0.05661223828792572,0.020310934633016586,1.3385001823304636,-0.38113430047427715,0.4542421335473177
1687008239.133616,0.9037961959838867,0.3711674213409424,-0.2130432426929474,-0.008517146110534668,-0.010251224040985107,-0.005447268486022949,-0.0056853145360946655,0.008241420611739159,0.031207388266921043,1.3393017296736296,-0.38026593495553357,0.4531740919169618
1687008239.1725922,0.9047321677207947,0.3697545826435089,-0.2115214616060257,0.0008770227432250977,0.025554925203323364,-0.0024524331092834473,0.0132439024746418,0.022006500512361526,0.011149526573717594,1.3411270287980386,-0.37874488515932625,0.4552557938793338
1687008239.2696881,0.9049530029296875,0.36927157640457153,-0.21142107248306274,0.010681331157684326,-0.01513025164604187,-0.015583842992782593,-0.028501413762569427,0.02612481266260147,0.011925970204174519,1.341286309175276,-0.37822507001081107,0.4534927683388834
1687008239.2870111,0.9049901962280273,0.3696993589401245,-0.2105119675397873,-0.0010136961936950684,0.023092418909072876,-0.0017224401235580444,0.06765086203813553,0.023259606212377548,-0.02065221220254898,1.342248176177102,-0.37868544515668817,0.4534485471634837
1687008239.389194,0.9046961069107056,0.37013620138168335,-0.2110084444284439,0.011716485023498535,-0.022968173027038574,-0.009831935167312622,-0.10052420943975449,-0.004885300528258085,0.008312992751598358,1.3416559268133057,-0.37915564611091196,0.45325247287531195
1687008239.4063191,0.9042015671730042,0.37097451090812683,-0.21165457367897034,0.005329132080078125,0.0033999383449554443,0.0088043212890625,-0.02002541534602642,-0.02139246091246605,-0.014755640178918839,1.3408573828408983,-0.38005819639911204,0.45492601500241253
1687008239.477304,0.9040330052375793,0.37107187509536743,-0.21220357716083527,0.0059250593185424805,-0.0022821128368377686,-0.005737632513046265,0.03806833550333977,-0.029470982030034065,0.0040412163361907005,1.340240349275228,-0.38016304866691036,0.45660684249158096
1687008239.483628,0.9038596153259277,0.37018412351608276,-0.21448008716106415,-0.002171933650970459,-0.0028287172317504883,0.012621700763702393,-0.018786512315273285,-0.014344404451549053,0.00598053028807044,1.3378119306898184,-0.3792072077362075,0.45447709977037637
1687008239.5677052,0.9039371013641357,0.36999523639678955,-0.21447964012622833,0.001229703426361084,-0.008575469255447388,0.004030495882034302,0.006727767642587423,-0.014781962148845196,0.019391611218452454,1.3378316592399218,-0.3790038789636795,0.4556528581467184
1687008239.583767,0.9042654633522034,0.3690794110298157,-0.21467319130897522,0.0012216567993164062,0.011200189590454102,0.007779359817504883,0.0072616878896951675,0.003155936487019062,0.01318544615060091,1.337710596762267,-0.3780183150677624,0.4555357285400244
1687008239.6561441,0.9045361280441284,0.3688686788082123,-0.2138935625553131,-0.006922543048858643,-0.004031002521514893,0.0010946542024612427,-0.029132893308997154,-0.006400994956493378,0.019463449716567993,1.338593953874885,-0.3777915882417269,0.45644189845361666
1687008239.661803,0.9045482277870178,0.36858513951301575,-0.21433112025260925,0.008629441261291504,0.015493929386138916,0.011648684740066528,-0.0008404920808970928,-0.007198255974799395,-0.016720985993742943,1.3381388774035747,-0.37748654917778385,0.4566305121549335
1687008239.779593,0.9045131802558899,0.36913856863975525,-0.21352478861808777,0.008282899856567383,0.008730143308639526,0.00043588876724243164,0.023726103827357292,0.00677242036908865,-0.0022724061273038387,1.3389744151104086,-0.3780819549935933,0.4571668279507214
1687008239.7969089,0.9044148921966553,0.36974993348121643,-0.21288235485553741,-0.001277625560760498,0.007615238428115845,0.0059275031089782715,-0.011957414448261261,0.0185074619948864,-0.022936804220080376,1.3396230541697065,-0.3787398720144143,0.4559726251843459
1687008239.864748,0.9041995406150818,0.3711707890033722,-0.2113187462091446,0.009130597114562988,0.006285935640335083,-0.0019227266311645508,0.021118514239788055,0.021323489025235176,-0.023822437971830368,1.3412090224245623,-0.38026956645828985,0.4564659789964721
1687008239.878262,0.9038010835647583,0.3722703158855438,-0.21108898520469666,0.0021438002586364746,0.004270881414413452,-0.0022745132446289062,0.02813301421701908,0.02165372110903263,-0.03421289473772049,1.3413523806265,-0.3814539627517346,0.4542568222156503
1687008239.9548469,0.9031583070755005,0.37375837564468384,-0.21121108531951904,0.0022830963134765625,0.023611068725585938,-0.0038003921508789062,0.0649711936712265,0.013653052970767021,-0.04812711104750633,1.341066562294836,-0.3830577760736767,0.45211004457315773
1687008239.9692311,0.9017642736434937,0.3768431544303894,-0.21168498694896698,-0.002792656421661377,0.01629960536956787,-0.007461607456207275,0.030755426734685898,0.034800950437784195,-0.12163608521223068,1.3402256868423104,-0.3863858301861767,0.44740837403338096
1687008240.013929,0.8990611433982849,0.3838840425014496,-0.2105284035205841,0.006792187690734863,0.030559957027435303,-0.0032318681478500366,0.04772469028830528,0.0314677357673645,-0.17146123945713043,1.3407760700671438,-0.3939989658889321,0.44513685637428896
1687008240.110851,0.8956326246261597,0.39153534173965454,-0.21105100214481354,0.0035983920097351074,0.006459712982177734,0.0037604570388793945,0.031086061149835587,0.0368952602148056,-0.19895130395889282,1.3393735827928608,-0.4022995418039324,0.4393620036065917
1687008240.1190891,0.8918863534927368,0.40040045976638794,-0.21028149127960205,0.004262387752532959,0.019490927457809448,0.0029299408197402954,0.149172842502594,0.06902754306793213,-0.23961392045021057,1.3392532521005025,-0.41195382338830194,0.4327286109404338
1687008240.199497,0.8875610828399658,0.40908756852149963,-0.21185562014579773,0.0001800060272216797,0.03309693932533264,-0.0003940314054489136,0.39029577374458313,0.10335683822631836,-0.2777884006500244,1.3364864689128273,-0.42145389404811495,0.4154780762906985
1687008240.2919378,0.8830312490463257,0.41443151235580444,-0.220232754945755,0.016947448253631592,0.06744110584259033,-0.015713796019554138,1.012102723121643,0.10262660682201385,-0.28573867678642273,1.326377374193282,-0.42731804781230165,0.3763432228590204
1687008240.307514,0.8783208727836609,0.41253650188446045,-0.2415914237499237,0.014074325561523438,0.0697481632232666,-0.0026254355907440186,1.643685221672058,0.17457447946071625,-0.27041250467300415,1.3023738131110356,-0.4252368098070471,0.30442720596213196
1687008240.377264,0.8753392100334167,0.39168959856033325,-0.2834794819355011,0.016292870044708252,0.13818717002868652,-0.005506604909896851,3.356823444366455,0.14293034374713898,-0.24572187662124634,1.2576040196651923,-0.402467192915444,0.17311025732369656
1687008240.383496,0.8734458684921265,0.34197866916656494,-0.34661659598350525,0.02851647138595581,0.10673663020133972,0.06962388753890991,4.439708232879639,0.3574984669685364,-0.33029961585998535,1.1930187055030326,-0.34902169961624646,-0.02985728080684253
1687008240.469001,0.8769798278808594,0.26614096760749817,-0.40009427070617676,0.0294991135597229,0.0708799660205841,0.09339267015457153,5.5864129066467285,0.6594027876853943,-0.39913180470466614,1.1427832908171713,-0.26938739025481656,-0.2783646962996676
1687008240.4854689,0.8856694102287292,0.15715941786766052,-0.43691033124923706,0.04070699214935303,-0.008111521601676941,0.10075929760932922,6.0070013999938965,0.539297342300415,-0.3535219132900238,1.1125143413702965,-0.15781366734923502,-0.5595699975286296
1687008240.620903,0.9035202860832214,0.05246395245194435,-0.42532193660736084,0.0017684698104858398,-0.03395499661564827,0.1544022262096405,4.983174800872803,1.1706889867782593,-0.23795397579669952,1.1308305692360814,-0.05248804930542296,-0.8078351673888573
1687008240.639272,0.9242960214614868,-0.04480031132698059,-0.37903815507888794,0.03452056646347046,-0.08198493719100952,0.12093579769134521,5.250336170196533,0.876605212688446,-0.08459383994340897,1.1816279772489122,0.04481531015863592,-1.0505148976175522
1687008240.705618,0.9439132809638977,-0.1193147748708725,-0.3078828454017639,-0.006581008434295654,0.02446615695953369,0.1768556833267212,4.616309642791748,1.2520005702972412,-0.2574903070926666,1.255500194573563,0.1195996956199875,-1.2750438432607598
1687008240.719819,0.9635758399963379,-0.16161516308784485,-0.21307870745658875,0.09915322065353394,0.12987688183784485,0.17982980608940125,5.144549369812012,1.237645149230957,-0.7283216714859009,1.3531652953326427,0.1623271176914934,-1.5193438895200755
1687008240.7234368,0.9821965098381042,-0.1506294310092926,-0.11225524544715881,0.07952553033828735,0.1489967256784439,0.2383386343717575,5.631560325622559,1.2314891815185547,-1.5094716548919678,1.4570000768884477,0.15120493155253154,-1.796410208519298
1687008240.762079,0.9966276288032532,-0.07697155326604843,-0.028444092720746994,0.09919768571853638,0.08957529813051224,0.12977778911590576,4.633225917816162,0.90174800157547,-2.205036163330078,1.5422637310473897,0.07704775899650744,-2.0718945076750765
1687008240.855856,0.9984810948371887,0.05021292343735695,0.022680072113871574,0.07773661613464355,0.03668588027358055,0.09903931617736816,2.0939507484436035,0.9391225576400757,-2.868243932723999,1.5935069946518063,-0.050234048018692454,-2.234458153592439
1687008240.871791,0.9772750735282898,0.20635555684566498,0.04848819598555565,0.12599653005599976,0.060001879930496216,0.025486469268798828,1.146557092666626,0.4937393367290497,-3.236070394515991,1.6203713846590337,-0.20784887957181844,-2.307761205093954
1687008240.949089,0.929608941078186,0.3637799620628357,0.05909036844968796,0.11906671524047852,-0.015131860971450806,-0.028786301612854004,0.3041721284389496,0.23683464527130127,-3.3939363956451416,1.6342756803866803,-0.3723226809663734,-2.3316554123198627
1687008240.962966,0.8568027019500732,0.5119511485099792,0.06160644069314003,0.09198886156082153,-0.10548746585845947,-0.06841182708740234,-0.2129114270210266,0.055923011153936386,-3.2790911197662354,1.6425755101460153,-0.537454627127497,-2.327461487593138
1687008241.004545,0.7601369023323059,0.645893394947052,0.07080799341201782,0.12047839164733887,0.0010488033294677734,-0.06432294845581055,-0.2204217165708542,-0.07357887178659439,-3.173248529434204,1.6636799203356887,-0.7021929252306615,-2.2886360696366426
1687008241.100102,0.653572142124176,0.7523803114891052,0.08226514607667923,0.11283111572265625,-0.15142804384231567,-0.04700207710266113,-0.7357286810874939,-0.16634388267993927,-2.9704697132110596,1.696007881387561,-0.8516681200389208,-2.2331207470186842
1687008241.116163,0.5514083504676819,0.8280519843101501,0.10138480365276337,0.09629678726196289,-0.26295793056488037,-0.06535875797271729,-0.7342483997344971,-0.19030806422233582,-2.3929083347320557,1.7526306241011502,-0.975624178488479,-2.1488384762701265
1687008241.152515,0.46762415766716003,0.8760582208633423,0.117685467004776,0.13592204451560974,-0.2626853585243225,-0.07767689228057861,-0.2846065163612366,-0.24342188239097595,-1.6502048969268799,1.8173431179821011,-1.0676260582155668,-2.061298909779004
1687008241.253483,0.41036027669906616,0.9031531810760498,0.12617075443267822,0.06723988056182861,-0.17543089389801025,-0.12084531784057617,-0.12587657570838928,-0.31064948439598083,-0.9581398367881775,1.8690861064169266,-1.1270582797196806,-1.9880646102351627
1687008241.269786,0.37904757261276245,0.9195130467414856,0.10401415079832077,0.11069855093955994,-0.18069761991500854,-0.09752905368804932,0.4133112132549286,-0.4574950337409973,-0.49410480260849,1.8386132118290888,-1.1668397413294767,-1.9996969400462767
1687008241.3362389,0.36935728788375854,0.9247744679450989,0.0914733037352562,0.10676270723342896,-0.10234099626541138,0.011340491473674774,0.10828195512294769,-0.24953828752040863,-0.12377253919839859,1.8135670197816676,-1.1804424395334416,-2.0078019663081403
1687008241.459943,0.37326401472091675,0.9251475930213928,0.06911132484674454,0.04493367671966553,-0.09711390733718872,-0.02571522444486618,0.35206037759780884,-0.20587362349033356,0.2489900439977646,1.7538769747658696,-1.1814241911563592,-2.058294468266686
1687008241.4770799,0.3855842649936676,0.9201043248176575,0.06879579275846481,0.0342155396938324,-0.02592402696609497,0.034994594752788544,-0.17582668364048004,-0.0365726538002491,0.30644041299819946,1.7473580567757248,-1.1683467933847669,-2.0598694061669893
1687008241.552768,0.3946245610713959,0.915897786617279,0.07350300997495651,-0.06356987357139587,0.11036252975463867,0.06417714804410934,0.09139715880155563,0.20872312784194946,0.057563163340091705,1.7549467023966812,-1.1577388522492216,-2.0558945124778756
1687008241.56738,0.3949630856513977,0.9158378839492798,0.07242264598608017,0.016017138957977295,0.03031378984451294,-0.015827782452106476,-0.1235380470752716,-0.051499143242836,-0.019715378060936928,1.7521473264487093,-1.1575896393635867,-2.063190406784563
1687008241.5710201,0.39512723684310913,0.9146291017532349,0.08560486137866974,0.003478109836578369,-0.024736464023590088,-0.023821957409381866,-0.24660253524780273,-0.11821203678846359,0.022677885368466377,1.7841503674005135,-1.1545895025708492,-2.023543872832661
1687008241.601958,0.3991717994213104,0.9132862687110901,0.08105731755495071,0.013120710849761963,0.004865705966949463,0.04475140571594238,0.04195069149136543,-0.035058025270700455,0.01780935935676098,1.7711360458846894,-1.151280536599894,-2.0331714283852014
1687008241.696708,0.3996562957763672,0.912874162197113,0.08328258246183395,0.017473310232162476,0.02935624122619629,0.003326423466205597,-0.058127261698246,0.0045563154853880405,0.01908528059720993,1.7762417255708214,-1.1502699177102165,-2.0273914797820702
1687008241.704135,0.4007813632488251,0.9117653965950012,0.08976809680461884,0.0030730068683624268,-0.032065629959106445,-0.04858458787202835,-0.1831904947757721,-0.031223520636558533,0.00659512123093009,1.7911422797639354,-1.1475620949351497,-2.0106171826282706
1687008241.756619,0.40130478143692017,0.9115539789199829,0.08957736939191818,-0.009016543626785278,0.0017304420471191406,0.007956862449645996,0.14543525874614716,-0.022440768778324127,0.008471917361021042,1.7904114091050842,-1.1470476449305094,-2.0088100831582523
1687008241.851667,0.40151357650756836,0.9115429520606995,0.08875120431184769,0.008505463600158691,-0.0022715330123901367,-0.002111665904521942,-0.19441178441047668,0.016991058364510536,-0.030819563195109367,1.7883399391330261,-1.147020853998161,-2.0112228155045404
1687008241.8682299,0.40029481053352356,0.9112295508384705,0.09708162397146225,0.01085326075553894,0.014597475528717041,0.018107041716575623,-0.18226811289787292,0.01067998819053173,-0.030274946242570877,1.808727707475146,-1.1462592837442471,-1.988466438527813
1687008241.969738,0.40076297521591187,0.9103071689605713,0.10358665883541107,0.027276605367660522,-0.0004254579544067383,0.026570916175842285,-0.15080010890960693,-0.008235467597842216,0.014479609206318855,1.8237341291231288,-1.1440254845653757,-1.9709046534504244
1687008241.987005,0.40151217579841614,0.9089797735214233,0.11199942231178284,-0.0033645927906036377,-0.01960599422454834,-0.030792132019996643,-0.1700068861246109,0.039455000311136246,0.020908281207084656,1.8428255550099182,-1.1408299274134444,-1.9516164410172236
1687008242.055686,0.4022924602031708,0.9079265594482422,0.11760222911834717,-0.019449442625045776,0.014970839023590088,-0.038973577320575714,-0.056942153722047806,0.011617686599493027,-0.021920476108789444,1.855201834984376,-1.1383101849872335,-1.9387489908239606
1687008242.07007,0.4007803797721863,0.9085573554039001,0.11789488047361374,0.02840369939804077,0.01191401481628418,0.013544455170631409,0.0020261346362531185,0.0721823200583458,-0.025931796059012413,1.856889790410323,-1.1398177158653768,-1.9394335610187687
1687008242.147397,0.3991416096687317,0.9094998836517334,0.11617300659418106,0.018506735563278198,0.001205742359161377,0.0268629789352417,0.016636325046420097,0.011856572702527046,-0.007359842769801617,1.8540285862667538,-1.1420794770739258,-1.9430363024014277
1687008242.1536322,0.39971187710762024,0.9085232019424438,0.12172132730484009,0.01860782504081726,-0.022201180458068848,0.011564239859580994,-0.2224651575088501,0.009702963754534721,0.02191515453159809,1.8663971872076408,-1.1397359046098818,-1.9312371222758768
1687008242.2717528,0.4021438658237457,0.9062629342079163,0.1302613765001297,0.00625765323638916,0.0034661293029785156,0.0016966909170150757,-0.1009170264005661,-0.010860368609428406,0.056859493255615234,1.8840486819537317,-1.1343578324562205,-1.911534566600229
1687008242.2883868,0.402481347322464,0.9055837392807007,0.13389337062835693,0.03456100821495056,0.010645747184753418,-0.010403856635093689,-0.14056652784347534,0.021380214020609856,-0.06552141904830933,1.8919495287554418,-1.132753863910161,-1.9043057968830854
1687008242.353915,0.40352198481559753,0.904228687286377,0.1397881805896759,0.006710559129714966,-0.0037769675254821777,-0.0013451725244522095,-0.21599477529525757,-0.07103058695793152,0.01843353733420372,1.9042784940260302,-1.1295700372116364,-1.885579828151444
1687008242.3679252,0.41399747133255005,0.8972762227058411,0.15330258011817932,0.025593042373657227,-0.09181046485900879,-0.0014318227767944336,-0.5678963661193848,-0.12804833054542542,0.33781421184539795,1.9254386343504382,-1.1135605514470008,-1.8550319291543524
1687008242.447464,0.4414045810699463,0.8807209134101868,0.17173410952091217,0.06355452537536621,-0.18449294567108154,-0.05120493471622467,-0.19676584005355835,-0.18164071440696716,0.9385948777198792,1.9418387026985349,-1.0773821768914735,-1.8320032725099746
1687008242.45406,0.4906120300292969,0.8518205285072327,0.1835802048444748,-0.05945971608161926,-0.23728805780410767,-0.017854467034339905,-0.39577895402908325,0.22188669443130493,1.4202260971069336,1.9288532472651896,-1.0194509385660433,-1.84591377579953
1687008242.572102,0.5568016171455383,0.8036003112792969,0.21023477613925934,0.012702226638793945,-0.1706656813621521,-0.059035301208496094,-0.4216456115245819,0.2639840543270111,1.931351900100708,1.9318232397514052,-0.9333199877501249,-1.8602829622949852
1687008242.5869899,0.6374475359916687,0.7308622598648071,0.24392861127853394,-0.0393030047416687,-0.15202009677886963,0.028623923659324646,-0.5543936491012573,0.4388922154903412,2.468404531478882,1.936269660690892,-0.8195844728209354,-1.8758668679261123
1687008242.6547441,0.7228817343711853,0.640328049659729,0.2596586346626282,0.0568121075630188,0.010535836219787598,-0.09248322248458862,-0.4355379343032837,-0.08504467457532883,2.5909738540649414,1.915642932063961,-0.6949253161417736,-1.917046021169179
1687008242.669476,0.800406813621521,0.5286573767662048,0.2826136350631714,0.074501633644104,0.019300997257232666,-0.061681538820266724,-0.783591628074646,0.09783069789409637,2.491544008255005,1.9102190602391942,-0.5570180337227705,-1.9258484986339757
1687008242.7502031,0.8491376042366028,0.44057148694992065,0.2913121283054352,0.07050985097885132,0.1917375922203064,-0.033682674169540405,-0.41812875866889954,-0.340025395154953,1.8658689260482788,1.901282543030194,-0.45623516961649146,-1.9279119262884399
1687008242.764457,0.8916181325912476,0.3496512770652771,0.28768208622932434,0.017759859561920166,-0.11259075999259949,-0.04619652032852173,-0.6239786148071289,-0.4655934274196625,2.0077481269836426,1.8829027958852935,-0.3571988654875053,-1.9311583879594982
1687008242.8377872,0.9304117560386658,0.2412228286266327,0.2759454548358917,0.06212681531906128,-0.021450459957122803,-0.06870043277740479,-1.6149582862854004,-0.8306447267532349,2.05167555809021,1.8591164339626793,-0.24362568802461312,-1.9073409397719627
1687008242.852714,0.9615753293037415,0.12146559357643127,0.24620944261550903,0.08957213163375854,0.07850085198879242,-0.0015194565057754517,-2.155369758605957,-1.0986664295196533,1.9288362264633179,1.8214590733894012,-0.12176627896888695,-1.8407523918404665
1687008242.891292,0.9825955629348755,0.012546302750706673,0.18533450365066528,0.029474258422851562,0.10630442202091217,0.1364123821258545,-2.2425248622894287,-1.3759053945541382,1.7068229913711548,1.7572233934416333,-0.012546631659025453,-1.754017791792949
1687008242.989445,0.9902205467224121,-0.08426820486783981,0.11118616908788681,0.17315542697906494,0.0630890280008316,-0.02221214771270752,-3.147575616836548,-1.9229004383087158,1.1829699277877808,1.6826122285191958,0.08436825668522101,-1.6304909771091272
1687008243.0064611,0.9892911314964294,-0.1458175629377365,0.0063639055006206036,-0.03711211681365967,0.1528823971748352,0.2913808822631836,-3.195845365524292,-0.9754278659820557,0.9821237921714783,1.577229031448485,0.14633932027900232,-1.4721833592408042
1687008243.043108,0.9826531410217285,-0.16427305340766907,-0.08606597781181335,0.14623796939849854,0.07136231660842896,-0.020303010940551758,-2.973656177520752,-2.051635503768921,0.10414391756057739,1.4834339562335834,0.1650210052619516,-1.3215418971482795
1687008243.138576,0.9705207347869873,-0.14074446260929108,-0.19565436244010925,-0.07367008924484253,0.024365723133087158,0.22977305948734283,-4.700052261352539,-1.0127246379852295,0.0431918166577816,1.3718653796433469,0.14121332563477404,-1.1249745921304015
1687008243.154729,0.955504834651947,-0.06872886419296265,-0.2868567705154419,0.08285576105117798,-0.06652502715587616,0.18067094683647156,-4.827358245849609,-1.3512556552886963,-0.5352160334587097,1.2791424113983043,0.06878309078742624,-0.8987250904698467
1687008243.258319,0.9430291056632996,0.03317786753177643,-0.33105209469795227,-0.02560955286026001,-0.002721264958381653,0.008054077625274658,-5.035983562469482,-0.7846130728721619,-0.5370346903800964,1.2331847662285333,-0.03318395592555647,-0.667373393690225
1687008243.27532,0.9307604432106018,0.12846411764621735,-0.34231892228126526,-0.0057572126388549805,0.03811617195606232,0.06553980708122253,-3.9489614963531494,-0.34357208013534546,-0.29891493916511536,1.2183668678419097,-0.12882010414502088,-0.46599725982137796
1687008243.35321,0.9213355183601379,0.19999319314956665,-0.3333824574947357,0.04228764772415161,0.007953643798828125,0.0008630156517028809,-2.657806634902954,-0.3225499987602234,-0.2067112922668457,1.223606629967546,-0.2013509722326959,-0.31289101473998726
1687008243.367272,0.9153825044631958,0.2488582283258438,-0.31645631790161133,0.006126344203948975,0.0017674565315246582,-0.004176497459411621,-2.5158987045288086,-0.2048993557691574,-0.2299026995897293,1.2379489796308163,-0.25150121993875446,-0.1955978076161267
1687008243.436563,0.9111679792404175,0.29309919476509094,-0.2895960807800293,0.042063891887664795,0.006858140230178833,-0.047867149114608765,-2.1706762313842773,-0.09782065451145172,-0.2591524124145508,1.2630634797932365,-0.29746678543732125,-0.08462263242518452
1687008243.450505,0.9051954746246338,0.3347172737121582,-0.2618890106678009,-0.022123396396636963,0.024047493934631348,0.02606448531150818,-1.9094555377960205,0.034673381596803665,-0.23254135251045227,1.2891684542773234,-0.34130517544225614,0.01376919858539973
1687008243.4939342,0.8996248841285706,0.3720940053462982,-0.2285197228193283,0.05363750457763672,-0.05091169476509094,0.0010418295860290527,-1.8485559225082397,0.047724202275276184,-0.34808218479156494,1.3220408450656185,-0.3812640103679414,0.10604578918154099
1687008243.589089,0.8942664861679077,0.40355291962623596,-0.19347557425498962,0.017171621322631836,-0.014026492834091187,-0.03964811563491821,-1.4198462963104248,0.008094236254692078,-0.32558736205101013,1.357729073230119,-0.41539670269122847,0.18863564584045725
1687008243.603572,0.889811098575592,0.42488598823547363,-0.16645793616771698,0.018559932708740234,-0.05457037687301636,-0.035308897495269775,-1.226580023765564,-0.014420926570892334,-0.1820245236158371,1.3858627500659118,-0.4388359436146435,0.2540699360725959
1687008243.642178,0.8878028988838196,0.43750128149986267,-0.1428244411945343,0.029387712478637695,-0.037766724824905396,-0.03928905725479126,-0.9675033688545227,-0.046973634511232376,0.00876619666814804,1.411288954585572,-0.4528180298272696,0.31400492074831543
1687008243.802927,0.887843906879425,0.4424838423728943,-0.1262596845626831,0.022541284561157227,-0.08478724956512451,-0.005804955959320068,-0.9985395073890686,-0.04702724888920784,0.09458496421575546,1.4295341790831309,-0.4583665376533269,0.3659669284053211
1687008243.819,0.8897408843040466,0.44337067008018494,-0.10855323076248169,0.0018607378005981445,-0.05698758363723755,-0.04247813671827316,-0.9124117493629456,-0.14070597290992737,0.12748612463474274,1.4493908981974153,-0.45935569264964676,0.4196527575655358
1687008243.856008,0.8935773372650146,0.43907037377357483,-0.09347105771303177,0.03206658363342285,-0.06545889377593994,-0.03355824202299118,-0.9509543180465698,-0.1867026835680008,0.2810421884059906,1.4665721507339127,-0.4545637106680259,0.47302192259700737
1687008243.8686109,0.9028525352478027,0.4205073416233063,-0.08961770683526993,0.05379748344421387,-0.07083681225776672,-0.08388984948396683,-0.6817177534103394,-0.5613803267478943,0.8855446577072144,1.4718597778124214,-0.43400443513862114,0.5220203765562776
1687008243.871694,0.9201480746269226,0.37697258591651917,-0.10592089593410492,0.018069088459014893,0.029445260763168335,0.04905153065919876,-0.8893423676490784,-0.5267231464385986,0.8941023349761963,1.456187896997626,-0.38652557021150197,0.5650875481080289
1687008243.912294,0.9282218813896179,0.3559035658836365,-0.10833851248025894,-0.06239217519760132,0.0172196626663208,-0.01289243996143341,-0.6697263717651367,-0.28311842679977417,0.27697595953941345,1.4546058522016934,-0.363880773884563,0.6129214929258094
1687008243.973248,0.9294840693473816,0.353341668844223,-0.10587309300899506,-0.03776043653488159,0.09300845861434937,-0.057411059737205505,-0.07346972823143005,-0.06815224885940552,-0.03866710141301155,1.4573799182717204,-0.3611407836518806,0.6374988799740865
1687008244.0350509,0.9285979866981506,0.35443881154060364,-0.10990586131811142,0.023642241954803467,-0.004524171352386475,0.004254147410392761,-0.02891136333346367,-0.051309436559677124,0.00045640196185559034,1.4529876095740248,-0.3623138365836359,0.6356382144181233
1687008244.1288261,0.9280223846435547,0.35543400049209595,-0.11153996735811234,0.014360427856445312,0.00046202540397644043,0.030256524682044983,-0.14968731999397278,-0.05596064776182175,-0.0005685156211256981,1.451179082862899,-0.36337833945801024,0.638987094889064
1687008244.147394,0.928226888179779,0.3546818792819977,-0.11223088204860687,0.007472634315490723,0.030953556299209595,0.009371519088745117,-0.06441418826580048,-0.0984283909201622,0.01992444321513176,1.4504715128267813,-0.36257379341157936,0.6476909372458979
1687008244.184091,0.9278746843338013,0.35476768016815186,-0.1148427352309227,0.006558477878570557,-0.008988171815872192,0.007832929491996765,-0.028138648718595505,-0.06772755831480026,-0.007100650109350681,1.4476529249328978,-0.36266557814868366,0.6487530555423601
1687008244.279609,0.9269346594810486,0.3573472499847412,-0.11443459987640381,0.0017915964126586914,0.012419015169143677,0.023812778294086456,-0.04902413487434387,-0.01961231604218483,-0.024713732302188873,1.4479629783865247,-0.36542605326451344,0.6532696308166365
1687008244.28808,0.9263286590576172,0.35908767580986023,-0.11389239132404327,0.006288588047027588,-0.035891205072402954,0.017746925354003906,-0.12720441818237305,0.013659621588885784,-0.03551138937473297,1.448460001463904,-0.36729019171094207,0.6540733962187486
1687008244.371879,0.9258748292922974,0.36188146471977234,-0.10861799865961075,0.0065288543701171875,0.03391629457473755,-0.00238955020904541,0.03835298493504524,0.02851979434490204,-0.06093079224228859,1.4540161883197376,-0.3702853734380008,0.6606925497636803
1687008244.462023,0.9253623485565186,0.3642975389957428,-0.10484182834625244,0.00755995512008667,-0.028451591730117798,-0.003388620913028717,-0.13540592789649963,0.1018032357096672,-0.052964478731155396,1.4579792768905604,-0.3728783986886521,0.6614515160812635
1687008244.4792109,0.9244437217712402,0.36728596687316895,-0.1024937778711319,-0.003423154354095459,0.008477002382278442,-0.005370490252971649,0.11535300314426422,0.033582817763090134,-0.0684373751282692,1.460376533401033,-0.3760893620458142,0.6601700759736565
1687008244.547367,0.9236659407615662,0.3698582947254181,-0.10023106634616852,0.0021306276321411133,-0.0007176697254180908,-0.007846824824810028,0.06025739386677742,0.06457322835922241,-0.09853209555149078,1.4627048650361991,-0.378856500727719,0.6576461580865334
1687008244.553443,0.9223856925964355,0.37312576174736023,-0.09990932047367096,0.0010151863098144531,-0.01310989260673523,0.0017343834042549133,-0.012239620089530945,0.055210527032613754,-0.060482848435640335,1.462900763844393,-0.3823758364278282,0.6540650416209083
1687008244.669213,0.9217044115066528,0.37510523200035095,-0.09877779334783554,0.014620661735534668,-0.014463722705841064,-0.015083126723766327,0.07128909230232239,0.0068376678973436356,-0.038640402257442474,1.4640351834605632,-0.38451027953483957,0.6522900229085196
1687008244.685854,0.9214481115341187,0.375385046005249,-0.100098617374897,0.007980108261108398,-0.011554419994354248,-0.005827724933624268,0.04198180511593819,-0.0015110753010958433,-0.021535582840442657,1.4625887862077436,-0.38481215897946397,0.6490760585572657
1687008244.7551498,0.9213249683380127,0.37546664476394653,-0.10092231631278992,0.0051277875900268555,-0.013222962617874146,-0.0047599077224731445,-0.03334890305995941,0.018512167036533356,-0.017322462052106857,1.4616909152794217,-0.38490020792752144,0.6477232412792973
1687008244.768722,0.9209649562835693,0.3761548399925232,-0.10164285451173782,0.00043708086013793945,-0.004923701286315918,-0.015010476112365723,0.06034323573112488,-0.023743942379951477,-0.026799187064170837,1.4608755822317232,-0.38564282541765943,0.6468793181172467
1687008244.856316,0.9208999872207642,0.37587934732437134,-0.10323773324489594,0.0014023184776306152,-0.0046939849853515625,0.0028502941131591797,-0.05164641514420509,-0.005360141862183809,-0.013404686003923416,1.4591571861579609,-0.3853455359700487,0.6460570965349713
1687008244.870689,0.9205747246742249,0.37639373540878296,-0.10426044464111328,0.0028262734413146973,-0.006902098655700684,-0.006457209587097168,0.005852653179317713,-0.019270453602075577,-0.009138567373156548,1.4580210485951186,-0.38590068631595675,0.6470354329207271
1687008244.935143,0.9204752445220947,0.37663382291793823,-0.10427006334066391,0.002086341381072998,-0.011887729167938232,-0.00029824674129486084,-0.02704186923801899,-0.006398241966962814,-0.002778606489300728,1.4579986569192662,-0.38615984387994595,0.6481455756290935
1687008244.9489431,0.9203978180885315,0.376994788646698,-0.10364768654108047,0.0006532073020935059,0.0034678876399993896,-0.004765860736370087,-0.010033590719103813,0.002779277041554451,-0.0082363560795784,1.4586569302325632,-0.386549517797224,0.6497971278119512
1687008245.025692,0.9202787280082703,0.37722912430763245,-0.10385362803936005,0.007440447807312012,-0.0003827512264251709,0.000856935977935791,-0.003264279570430517,-0.0022714966908097267,-0.007953528314828873,1.4584215652065287,-0.3868025382789469,0.6493650508721016
1687008245.0400229,0.9201560020446777,0.3777989149093628,-0.10286527872085571,0.015024840831756592,-0.0004642009735107422,-0.01183493435382843,-0.04860863834619522,-0.031224675476551056,0.012188958004117012,1.4594674269333658,-0.38741787076302564,0.6524296908811487
1687008245.0851068,0.9202075004577637,0.3771780729293823,-0.10466677695512772,0.003147721290588379,0.015110164880752563,0.00481337308883667,0.02810358628630638,-0.024765176698565483,-0.003926961682736874,1.4575404785437862,-0.38674743991658694,0.6517055707462642
1687008245.179717,0.919485867023468,0.3786698281764984,-0.10561831295490265,-0.002646148204803467,0.03536221385002136,0.0010041594505310059,-0.017285600304603577,-0.012676822021603584,-0.06114557757973671,1.4564308588180344,-0.3883586703359838,0.6519643907429388
1687008245.1876202,0.9174776077270508,0.383058100938797,-0.10724488645792007,0.010317862033843994,0.05615091323852539,0.014929361641407013,0.16890639066696167,-0.0062396954745054245,-0.13023969531059265,1.4544333729284524,-0.3931046579012513,0.6470480164912414
1687008245.236116,0.9137614965438843,0.39108970761299133,-0.10995104163885117,0.004268527030944824,0.08411487936973572,0.03449641168117523,0.2385273426771164,0.07591234147548676,-0.279613196849823,1.451044125012018,-0.4018152950964488,0.6348282168962451
1687008245.3306332,0.906569242477417,0.40680259466171265,-0.11244619637727737,-0.007277131080627441,0.12658369541168213,0.03252077102661133,0.6111592650413513,0.17531457543373108,-0.5111569762229919,1.4473917297217669,-0.41895121954240594,0.6112131929170159
1687008245.338393,0.8944652676582336,0.4301495850086212,-0.12207961827516556,0.021519958972930908,0.10030701756477356,0.02575099468231201,1.2861746549606323,0.2679397463798523,-0.7499572038650513,1.4351510795078262,-0.4446584531311544,0.5559583481406993
1687008245.418305,0.877886176109314,0.45401644706726074,-0.15226630866527557,0.028958916664123535,0.12044647336006165,0.018446817994117737,2.644251585006714,0.2696715295314789,-0.9258935451507568,1.3990583666672127,-0.4712680236515744,0.4425481978613254
1687008245.433604,0.8582358956336975,0.467873752117157,-0.21101127564907074,0.03769940137863159,0.06358999013900757,0.016110867261886597,3.30594801902771,0.2801692485809326,-0.9320235252380371,1.329711982871965,-0.486883441883082,0.26561326543688635
1687008245.4763799,0.8402220606803894,0.4635987877845764,-0.2812528908252716,0.05795609951019287,0.08178094029426575,0.06744682788848877,4.016289710998535,0.3671171963214874,-1.0245330333709717,1.2477835647194648,-0.4820525160766027,0.056788278125959976
1687008245.567833,0.8191438317298889,0.44193822145462036,-0.3656419515609741,0.055673062801361084,-0.08001497387886047,0.07474848628044128,4.08344030380249,0.26951223611831665,-1.1111061573028564,1.150964458438415,-0.4577581834070095,-0.18678110099631098
1687008245.57486,0.8067454695701599,0.4085703492164612,-0.42688655853271484,0.07313740253448486,0.04017546772956848,0.15698915719985962,4.340494632720947,0.8344244956970215,-1.0899688005447388,1.0841042849472398,-0.4208871541774444,-0.403913724341186
1687008245.625881,0.8146093487739563,0.3225269317626953,-0.4820665419101715,0.17345839738845825,0.06725889444351196,0.2263292670249939,6.921648979187012,1.3617819547653198,-1.140566110610962,1.0364455778336366,-0.32839788434041534,-0.6984428431316875
1687008245.751264,0.8239216208457947,0.16779141128063202,-0.5412942171096802,0.0655742883682251,0.0051822662353515625,0.3667031526565552,8.492829322814941,0.924356997013092,-1.0893627405166626,0.989534833640486,-0.16858889459138326,-1.0740607103247517
1687008245.766938,0.8593724966049194,0.019759921357035637,-0.5109683871269226,0.06894177198410034,-0.0975034311413765,0.4382449984550476,6.253298282623291,1.9088528156280518,-1.2735472917556763,1.0343693621872798,-0.019761207468569634,-1.4142492221530776
1687008245.838286,0.90462327003479,-0.0649389997124672,-0.42123618721961975,0.06923860311508179,-0.02488948404788971,0.34959614276885986,5.714908599853516,1.8194396495819092,-1.4272644519805908,1.1350058398507368,0.06498472541233936,-1.7141696228448267
1687008245.85356,0.9480822086334229,-0.06891736388206482,-0.31046849489212036,0.053428471088409424,0.07070263475179672,0.27027690410614014,3.7552835941314697,2.1628098487854004,-2.0816128253936768,1.2543319971570197,0.06897203355493971,-1.963453292356943
1687008245.9269009,0.9789634943008423,-0.0017796584870666265,-0.20402838289737701,0.09717798233032227,0.14516650140285492,0.1552918553352356,2.708768367767334,2.021052360534668,-2.6868715286254883,1.3653249170964892,0.0017796594176986964,-2.150418338258899
1687008245.940692,0.9844557642936707,0.12638026475906372,-0.12196314334869385,0.15323960781097412,0.13573521375656128,0.06600922346115112,1.8306806087493896,1.538480520248413,-3.1353116035461426,1.4475354923926214,-0.1267191249057054,-2.2885749505057915
1687008246.0152411,0.9560397863388062,0.28709980845451355,-0.05968283861875534,0.10838305950164795,-0.050176531076431274,-0.034280724823474884,-0.4825398623943329,1.3307794332504272,-3.6239404678344727,1.508450082737651,-0.2911977960987044,-2.3380962597478696
1687008246.021704,0.8934155106544495,0.4489649534225464,0.015471681021153927,0.10478401184082031,-0.10597789287567139,-0.16805946826934814,-1.7677762508392334,1.0743935108184814,-3.486560821533203,1.5881120494857175,-0.4656066403127873,-2.2792077177063708
1687008246.0769181,0.8010201454162598,0.5895455479621887,0.10393696278333664,0.13461828231811523,0.07715672254562378,-0.19236159324645996,-1.288971185684204,0.935585081577301,-3.3040449619293213,1.6998311215830673,-0.6304961205689241,-2.1625712766870593
1687008246.169558,0.6952362656593323,0.6997321248054504,0.16438333690166473,0.17962652444839478,-0.1347753405570984,-0.26637303829193115,-1.119145393371582,0.4086422026157379,-2.996828317642212,1.802974761930714,-0.775022463563814,-2.0550913058233933
1687008246.185694,0.5922275185585022,0.7790807485580444,0.2056703269481659,0.25614601373672485,-0.1686679720878601,-0.22231754660606384,-0.659242570400238,-0.14973613619804382,-2.439469814300537,1.9050482697659723,-0.8931981687257504,-1.9286420985418427
1687008246.222146,0.5133323669433594,0.8274426460266113,0.22765971720218658,0.1426277756690979,-0.30057185888290405,-0.23904263973236084,-0.8499507308006287,-0.32548782229423523,-1.6948593854904175,1.988226522529207,-0.9745382239735331,-1.810466618793821
1687008246.316597,0.45956653356552124,0.8535376787185669,0.245504230260849,0.13160476088523865,-0.19946962594985962,-0.17516113817691803,-0.0886901468038559,-0.42608410120010376,-0.9454659819602966,2.061434565644024,-1.0227377179257964,-1.7056334577886398
1687008246.324984,0.4323267936706543,0.8703417181968689,0.23579423129558563,0.06945845484733582,-0.059367597103118896,-0.07635512948036194,0.2489498257637024,-0.30740591883659363,-0.6701427698135376,2.07010670313011,-1.055895763570252,-1.671741633148305
1687008246.3788729,0.41987431049346924,0.8859212398529053,0.19710147380828857,0.08035454154014587,-0.18934237957000732,-0.03271856904029846,0.6824648380279541,-0.4489900469779968,-0.12928014993667603,2.009690018757146,-1.0884764125285458,-1.716512484990065
1687008246.4443312,0.42077577114105225,0.8887983560562134,0.1816197633743286,0.09520027041435242,0.004848122596740723,-0.01595495641231537,0.2550487518310547,-0.27601194381713867,0.0017718037124723196,1.9782698497642526,-1.0947164730900736,-1.7360575499086806
1687008246.45878,0.42827266454696655,0.890701413154602,0.15242509543895721,-0.00604674220085144,-0.09266680479049683,0.01912948489189148,0.21419228613376617,-0.20746272802352905,0.16701316833496094,1.912723510532731,-1.0988857786619517,-1.7914721889238119
1687008246.493062,0.43164554238319397,0.8860286474227905,0.16922137141227722,0.016993463039398193,0.06547915935516357,0.023481979966163635,-0.4747202694416046,-0.000986610073596239,0.03700203076004982,1.944419965824273,-1.0887079770628214,-1.7562178250761404
1687008246.552814,0.43519386649131775,0.8842464685440063,0.1694532185792923,-0.08080852031707764,0.0208590030670166,0.022822827100753784,0.006273831706494093,-0.0867413729429245,-0.029740847647190094,1.9421090187177399,-1.0848780715482287,-1.7522904768906242
1687008246.616535,0.43391937017440796,0.8835826516151428,0.17605629563331604,-0.014912992715835571,0.007042348384857178,0.10433922708034515,-0.20338645577430725,0.014414804987609386,-0.014592255465686321,1.9562369042768666,-1.0834586219212474,-1.7340688746875923
1687008246.6740398,0.43374037742614746,0.8818845748901367,0.18479564785957336,0.0386107861995697,0.020962953567504883,-0.009685739874839783,-0.12526199221611023,-0.0180598683655262,-0.03038879483938217,1.973557099214899,-1.0798446018231957,-1.7165034897398292
1687008246.771119,0.43515458703041077,0.8811488747596741,0.18497970700263977,0.04796925187110901,-0.008269786834716797,-0.003232240676879883,-0.11754429340362549,-0.11494806408882141,0.046897802501916885,1.9727429073762512,-1.0782865083291495,-1.7135704096427176
1687008246.787534,0.43500787019729614,0.8795129060745239,0.19293944537639618,0.01534011960029602,0.032169461250305176,-0.01537284255027771,-0.06189638748764992,-0.01476882304996252,-0.017881326377391815,1.9882575733533685,-1.0748376344101538,-1.6937683475935101
1687008246.8226628,0.43710723519325256,0.8791573643684387,0.1897893249988556,-0.019443601369857788,-0.02439039945602417,-0.017548084259033203,-0.033897869288921356,0.015586507506668568,-0.01941823773086071,1.9804284942093187,-1.0740909852488831,-1.699743189806168
1687008246.91699,0.4362454414367676,0.8795850872993469,0.18978950381278992,0.010974407196044922,0.026024043560028076,0.04519592225551605,0.00854027085006237,-0.015705902129411697,0.001814014744013548,1.9811502999199115,-1.0749893906600099,-1.6984668516126713
1687008246.925219,0.435657262802124,0.8792974352836609,0.19245462119579315,0.00014898180961608887,-0.004495859146118164,-0.015528947114944458,-0.07273900508880615,0.011798959225416183,-0.01399324368685484,1.9867742181073662,-1.0743849946285646,-1.6930075753624338
1687008247.044102,0.43571609258651733,0.8785586953163147,0.19566860795021057,0.005522340536117554,-0.016742289066314697,0.0024515241384506226,-0.07539333403110504,0.022396832704544067,0.011792080476880074,1.992879610956631,-1.0728362323417546,-1.686655246214068
1687008247.059078,0.4347297251224518,0.8794474005699158,0.19386272132396698,-0.012061208486557007,0.03583592176437378,-0.009597539901733398,0.2739802300930023,-0.00797678716480732,-0.055670250207185745,1.990267582635327,-1.074699975738675,-1.6886781372240984
1687008247.125383,0.43203213810920715,0.8846052885055542,0.17556144297122955,0.011601895093917847,0.0200883150100708,-0.011071696877479553,0.4772818088531494,-0.021843601018190384,-0.05586499348282814,1.9567751373077966,-1.0856468987598251,-1.7282450223296884
1687008247.139334,0.431018203496933,0.888046383857727,0.15999126434326172,0.014828413724899292,-0.07905584573745728,0.04720783233642578,0.0985303521156311,0.07913805544376373,0.04138991981744766,1.9262258357495388,-1.0930783589187003,-1.7619145528814415
1687008247.2152529,0.43221089243888855,0.8858792781829834,0.16855843365192413,0.017618268728256226,0.029220938682556152,-0.012186288833618164,-0.030398428440093994,0.031153572723269463,0.04811013862490654,1.9426447600033012,-1.0883859066690642,-1.7464990695979883
1687008247.221766,0.4362129271030426,0.8854479193687439,0.16031478345394135,0.04446956515312195,-0.034083545207977295,0.022439852356910706,0.051012273877859116,-0.005501911044120789,0.1354057639837265,1.9229886778326977,-1.087456927062406,-1.7691264267530595
1687008247.310975,0.4435564875602722,0.8820059895515442,0.15913225710391998,0.005494415760040283,-0.022570013999938965,-0.024473443627357483,0.2534255385398865,-0.04658329859375954,0.23769591748714447,1.915257596739745,-1.0801022362509638,-1.776982972922216
1687008247.327507,0.46261507272720337,0.8750439286231995,0.14242759346961975,0.08253571391105652,-0.1281871795654297,-0.03250326216220856,0.5505689978599548,-0.1603822112083435,0.63925701379776,1.8694620907061184,-1.0655265166687715,-1.8259038128325946
1687008247.3615298,0.501227617263794,0.8591488003730774,0.10312237590551376,-0.014884233474731445,-0.14552581310272217,0.058971747756004333,1.1118348836898804,0.26717114448547363,1.2012932300567627,1.7737045943123573,-1.0336039801202033,-1.9399394183756256
1687008247.4583921,0.5559428930282593,0.8264402747154236,0.08901850134134293,-0.0359843373298645,-0.1792234182357788,0.0003064870834350586,0.3365948796272278,0.6866102814674377,1.5046459436416626,1.729570203211538,-0.9727555660171131,-2.020017836712266
1687008247.474155,0.6246514320373535,0.775973379611969,0.08761409670114517,0.06008678674697876,-0.13650792837142944,-0.10058403015136719,0.2628730535507202,0.4267555773258209,1.916265606880188,1.710148029791058,-0.8882567604064001,-2.078208389936853
1687008247.512183,0.6990839838981628,0.7080986499786377,0.09938929229974747,0.053693175315856934,-0.10864180326461792,-0.1349421739578247,-0.1258416473865509,0.2985715866088867,2.1590371131896973,1.7120206516047107,-0.7868018841728135,-2.099899350632165
1687008247.611827,0.7671788334846497,0.6330723166465759,0.10323025286197662,0.17059600353240967,0.12338227033615112,-0.16832421720027924,0.058268677443265915,-0.3042767345905304,2.0500051975250244,1.704551202375977,-0.6855156988903853,-2.1145180232703176
1687008247.631372,0.8290106058120728,0.5497044920921326,0.10279422998428345,0.05294746160507202,-0.08789718151092529,-0.14841794967651367,-1.1357824802398682,-0.40961718559265137,1.9823589324951172,1.6941629162401135,-0.582010469898147,-2.1002338126155573
1687008247.661601,0.8820744156837463,0.45877182483673096,0.10711256414651871,0.08856761455535889,0.019331783056259155,-0.1629902422428131,-1.2161954641342163,-0.8629844784736633,2.050684928894043,1.691637249039985,-0.4766124811073282,-2.0455947624274335
1687008247.757637,0.9245522618293762,0.3734835684299469,0.07558658719062805,0.09784770011901855,0.364568829536438,-0.07480835914611816,0.05119878426194191,-1.344340443611145,1.5484850406646729,1.6523697125263812,-0.38276151315747026,-2.01306606147301
1687008247.773158,0.9535279273986816,0.3009069561958313,-0.015489792451262474,0.001123189926147461,0.07656502723693848,-0.10362029075622559,0.5314404368400574,-2.002835273742676,1.6528159379959106,1.5545530370379546,-0.30564354916767444,-2.0516694242742872
1687008247.812899,0.9690173268318176,0.2239340990781784,-0.10420779138803482,0.0407789945602417,0.10704435408115387,0.08763675391674042,-0.09803659468889236,-1.7528676986694336,1.452360987663269,1.4636683748182997,-0.2258492218621487,-2.055578111452525
1687008247.909422,0.9680190086364746,0.15488988161087036,-0.19735416769981384,0.02577078342437744,-0.12783603370189667,0.12086188793182373,-1.536223292350769,-2.1663286685943604,1.765904426574707,1.3696782937605902,-0.15551599076479072,-2.008958579247763
1687008247.926012,0.9567878246307373,0.1069103255867958,-0.27042078971862793,0.08799678087234497,0.06682625412940979,0.1678970456123352,-2.340614080429077,-1.8992034196853638,1.3576018810272217,1.2953467598575736,-0.10711504479372165,-1.8804863094534578
1687008247.963063,0.9317824840545654,0.08576667308807373,-0.35273995995521545,0.07920384407043457,-0.08401189744472504,0.35678359866142273,-3.295226573944092,-1.8288532495498657,1.3996779918670654,1.2089040968074611,-0.0858721723350883,-1.7281922188389887
1687008248.059103,0.9113810658454895,0.10797932744026184,-0.39714640378952026,0.08185940980911255,0.08132123947143555,0.10393351316452026,-2.9125564098358154,-1.3586914539337158,0.6269118189811707,1.1598445133355149,-0.10819026818856292,-1.551461211163537
1687008248.074874,0.885471761226654,0.1432056427001953,-0.4420769214630127,0.09797251224517822,-0.08729740977287292,0.24336174130439758,-3.8152318000793457,-1.2597436904907227,0.8152619004249573,1.10774424793508,-0.14369969087769838,-1.392777297522981
1687008248.1455169,0.8659381866455078,0.2022484540939331,-0.4574350118637085,-0.03181642293930054,-0.05468067526817322,0.11606541275978088,-3.4889729022979736,-1.2490984201431274,0.5862108469009399,1.0848020937765253,-0.20365327260299343,-1.2026685550213532
1687008248.270886,0.8496595621109009,0.2442953884601593,-0.46733126044273376,0.034831464290618896,-0.03566189110279083,0.21754491329193115,-3.503145933151245,-0.7223721742630005,0.9024489521980286,1.0679363789854532,-0.24679300270685894,-1.0348538383032626
1687008248.288615,0.8441678881645203,0.29082953929901123,-0.45033201575279236,-0.0025998353958129883,-0.004010021686553955,0.15527284145355225,-3.254951000213623,-0.6184486150741577,0.7751976251602173,1.0807383400164992,-0.295093747573274,-0.8568535003428508
1687008248.328228,0.8471860289573669,0.3223184049129486,-0.42235860228538513,0.11504852771759033,0.006127089262008667,0.08011925220489502,-3.0850110054016113,-0.4212321937084198,0.8797017931938171,1.1083150802601556,-0.32817757500096306,-0.6890310043968246
1687008248.34099,0.8549948334693909,0.343119740486145,-0.3889124393463135,0.029236793518066406,0.052220314741134644,-0.04785507917404175,-2.1555607318878174,-0.2507495582103729,0.6381155252456665,1.1438989912418085,-0.3502362650599858,-0.5462627534308971
1687008248.343966,0.8601304292678833,0.35462766885757446,-0.3666265606880188,0.02581024169921875,-0.015409469604492188,0.01541513204574585,-2.161421537399292,-0.0706743448972702,0.7737718820571899,1.1678713562451208,-0.36251583351706396,-0.4332249054254585
1687008248.380152,0.8686379194259644,0.3643871545791626,-0.3356935977935791,0.033690571784973145,0.015892446041107178,-0.06065332889556885,-2.0481860637664795,-0.4716106951236725,0.5427356958389282,1.2020167894669582,-0.3729746336774092,-0.31297563362387104
1687008248.443614,0.8770921230316162,0.3667369782924652,-0.31018298864364624,0.007673501968383789,0.07239577174186707,0.0392632782459259,-2.0516414642333984,-0.07123050093650818,0.7209603190422058,1.230874178488299,-0.3754991704256414,-0.19852355037133315
1687008248.502471,0.8846917152404785,0.36614149808883667,-0.28855010867118835,0.01424938440322876,0.05197986960411072,-0.007134586572647095,-1.5365582704544067,-0.19300487637519836,0.6613656878471375,1.2555165521682101,-0.37485918334374313,-0.09678154002595331
1687008248.6035051,0.8920488953590393,0.3618752360343933,-0.2707308828830719,0.01626110076904297,0.05661240220069885,-0.012548387050628662,-1.2951629161834717,-0.2836577296257019,0.3767140805721283,1.2761377382788976,-0.370278675959328,-0.016068299352069312
1687008248.620306,0.8977042436599731,0.3598018288612366,-0.2543027102947235,0.002442300319671631,0.09736678004264832,-0.015503078699111938,-0.9432598948478699,-0.00972435250878334,0.3087819814682007,1.2947475934704904,-0.36805549762960693,0.04985367141583312
1687008248.652514,0.8994162678718567,0.3597564995288849,-0.24824535846710205,0.013074636459350586,-0.0001373291015625,-0.01058940589427948,-0.6399378180503845,-0.0841439887881279,0.15171343088150024,1.3014939757260664,-0.36800691230575755,0.08418747525782655
1687008248.7461329,0.9005417227745056,0.3682050108909607,-0.23119240999221802,-0.0018752813339233398,-0.007990717887878418,-0.004311680793762207,-1.3355656862258911,-0.0723276361823082,-0.015371697023510933,1.3194974623018523,-0.3770776592339855,0.1374576655512379
1687008248.762651,0.9008536338806152,0.3850455582141876,-0.2005067616701126,0.011713624000549316,-0.010533779859542847,-0.012521088123321533,-2.120201587677002,-0.04731860011816025,0.09361644089221954,1.3517920002568542,-0.39525719607029647,0.23014796533845305
1687008248.802516,0.9013984799385071,0.4015699028968811,-0.16193316876888275,0.0034171342849731445,0.019191205501556396,-0.012993499636650085,-2.181830644607544,-0.07474765181541443,0.0832400992512703,1.3930457331434323,-0.41323039548970236,0.3470328563075058
1687008248.896918,0.9016860127449036,0.41361358761787415,-0.1260407716035843,0.007508993148803711,0.03533056378364563,-0.023876667022705078,-1.7225619554519653,-0.11513572931289673,0.03573283553123474,1.4319127822961932,-0.4264195159414767,0.45557947443026886
1687008248.91367,0.9014180898666382,0.42007437348365784,-0.10480132699012756,-0.0011341571807861328,0.02339187264442444,-0.0376545786857605,-0.9874568581581116,-0.17445701360702515,-0.012347477488219738,1.4550532297481056,-0.4335272798728448,0.5274396151520067
1687008248.951295,0.9006583094596863,0.42424753308296204,-0.09396035969257355,0.008826494216918945,-0.0011060535907745361,-0.009539887309074402,-0.6982804536819458,-0.11930188536643982,-0.007564972620457411,1.4668482521788244,-0.43813077704965026,0.5729757877862222
1687008249.0457258,0.8996583223342896,0.42805230617523193,-0.08594274520874023,0.0025938749313354492,-0.014157623052597046,0.0004631355404853821,-0.494900107383728,-0.0681651160120964,-0.014663029462099075,1.4755571276203288,-0.4423365728998372,0.6060055682160284
1687008249.062992,0.8989310264587402,0.4302017390727997,-0.08276189863681793,0.010691165924072266,-0.008753925561904907,-0.000444166362285614,-0.12392798066139221,-0.09188766777515411,-0.022996194660663605,1.478988129938029,-0.44471622510255115,0.6228973832694891
1687008249.103615,0.8985464572906494,0.4306211769580841,-0.08473450690507889,0.0030344128608703613,-0.01851174235343933,0.002962768077850342,-0.0888541042804718,-0.0732979103922844,0.00017657026182860136,1.4767726274288673,-0.44518093746516363,0.6271166689031982
1687008249.197103,0.8987396359443665,0.43001502752304077,-0.0857563242316246,-0.001477062702178955,-0.003013044595718384,0.007234759628772736,-0.12266160547733307,-0.07893076539039612,0.04344148933887482,1.4756659098449754,-0.44450941798019344,0.6330253523783708
1687008249.213851,0.9002220630645752,0.4267551302909851,-0.08649027347564697,0.00462418794631958,-0.010403752326965332,0.0025975704193115234,-0.15130697190761566,-0.13009408116340637,0.08187123388051987,1.475013721710043,-0.4409017243839649,0.6406922641777788
1687008249.2518811,0.9027693271636963,0.42185714840888977,-0.08392997086048126,0.004731953144073486,-0.002148836851119995,0.0074836015701293945,-0.406375527381897,-0.1294827163219452,0.19461795687675476,1.4780933511310168,-0.4354926832528994,0.6600471283724617
1687008249.341322,0.9068979620933533,0.412011981010437,-0.08821682631969452,0.013847887516021729,0.011068463325500488,-0.004785351455211639,-0.057342205196619034,-0.20201106369495392,0.25300756096839905,1.4738282433431755,-0.4246610585044964,0.6713557360525693
1687008249.355861,0.9097709655761719,0.4044444262981415,-0.09349765628576279,-0.0112571120262146,0.017217010259628296,0.004249155521392822,-0.1113026887178421,-0.11921533197164536,0.09380612522363663,1.468385322522116,-0.4163712699663059,0.6779116673894918
1687008249.438503,0.9104697704315186,0.40235888957977295,-0.09566866606473923,-0.011223435401916504,0.025757014751434326,0.006435394287109375,-0.08140666782855988,-0.044152192771434784,0.0009255842305719852,1.4661043400598437,-0.4140920584956805,0.6829507805646949
1687008249.531959,0.9092956781387329,0.4051426649093628,-0.09508442133665085,0.006552159786224365,0.032845646142959595,0.004310011863708496,-0.021632101386785507,-0.006587415933609009,-0.054902128875255585,1.4666056812260004,-0.41713487851556946,0.686049590310612
1687008249.5488,0.9075251221656799,0.4092589020729065,-0.09436969459056854,0.01257997751235962,0.018155068159103394,0.007150590419769287,-0.024286918342113495,0.0037594090681523085,-0.08462074398994446,1.4671829485199164,-0.42164169194687207,0.6869848362204989
1687008249.620801,0.9051792621612549,0.414870947599411,-0.09237338602542877,0.0021846890449523926,0.012390464544296265,0.001644730567932129,-0.07513922452926636,0.026816170662641525,-0.1261976808309555,1.4690985600940916,-0.42780095709116095,0.6887217141261119
1687008249.635243,0.902495801448822,0.421141117811203,-0.09023179113864899,0.010712265968322754,0.020753473043441772,-0.007607460021972656,0.051698751747608185,0.022015022113919258,-0.14663498103618622,1.4711471931252156,-0.434703068479059,0.6896051170818519
1687008249.6376991,0.89923095703125,0.4281684458255768,-0.08975473046302795,0.0076754093170166016,-0.02115538716316223,-0.007764048874378204,-0.04835217446088791,0.020225733518600464,-0.14519867300987244,1.4713130584335974,-0.44246507887655184,0.6870140550017457
1687008249.705102,0.8960788249969482,0.4350687861442566,-0.08808066695928574,0.005135953426361084,-0.007029116153717041,-0.006523735821247101,0.020651083439588547,0.03098907694220543,-0.16497084498405457,1.4728154152210453,-0.4501146750476141,0.687048897710843
1687008249.79896,0.89348304271698,0.4406309127807617,-0.08679109811782837,0.00554966926574707,-0.026019036769866943,-0.00654679536819458,-0.0810929387807846,0.04198242723941803,-0.14010582864284515,1.4739621961130347,-0.45630136187260334,0.6872865327442056
1687008249.816866,0.8912621736526489,0.44528916478157043,-0.0858447253704071,1.895427703857422e-05,-0.018317759037017822,-0.01336776465177536,0.04421251267194748,0.0027636531740427017,-0.1001601591706276,1.4747743826503759,-0.4614971941469027,0.6879387843360875
1687008249.892006,0.8902159333229065,0.4473508894443512,-0.08598250895738602,0.004101753234863281,-0.03943762183189392,-0.0017554163932800293,-0.036246638745069504,0.011876723729074001,-0.054036736488342285,1.4745088741378838,-0.46380112895748304,0.6875994191898094
1687008249.906172,0.8898771405220032,0.447978138923645,-0.08622413873672485,0.022568106651306152,-0.035609275102615356,-0.017779655754566193,0.024658121168613434,0.03285257890820503,-0.02426798641681671,1.4742034278384164,-0.46450258899182767,0.6867279572689895
1687008249.943779,0.8902783989906311,0.4467715322971344,-0.08831644803285599,-0.006168842315673828,-0.025644153356552124,-0.024949364364147186,0.1908668428659439,-0.0287941861897707,-0.0013428962556645274,1.4719188942058348,-0.46315341205813587,0.6809263589173209
1687008250.042357,0.8913074731826782,0.443376362323761,-0.09480967372655869,-0.002986311912536621,0.008650124073028564,-0.02138592302799225,0.1835000067949295,-0.052415888756513596,0.03454066812992096,1.4648233601416323,-0.459362035084407,0.6721757448726131
1687008250.058891,0.8904467225074768,0.442384272813797,-0.10677530616521835,-0.008366584777832031,0.09005594253540039,-0.010656170547008514,0.6756299138069153,-0.05180265009403229,-0.09379427134990692,1.451454086095439,-0.45825550476342936,0.6495087081759933
1687008250.091179,0.8842578530311584,0.44889187812805176,-0.12878069281578064,-0.014872968196868896,0.14969521760940552,0.0373958945274353,0.969460129737854,0.054394979029893875,-0.4794255793094635,1.4261760459962227,-0.46552487187655195,0.5978718027561295
1687008250.189241,0.8702495694160461,0.47016197443008423,-0.14701582491397858,0.015492677688598633,0.18201398849487305,0.032346129417419434,1.6401379108428955,0.2858853042125702,-0.8459559082984924,1.403441200416909,-0.4894743091415235,0.5276088648234319
1687008250.206787,0.8493914008140564,0.4926771819591522,-0.18921762704849243,0.030506610870361328,0.1791520118713379,0.07383076846599579,3.0651066303253174,0.43421587347984314,-1.1441984176635742,1.3516068990131231,-0.5151635435852918,0.3822473313050959
1687008250.2434912,0.8226457834243774,0.5133138298988342,-0.24446453154087067,0.055818021297454834,0.013389110565185547,0.07229971885681152,2.5854647159576416,0.46858301758766174,-1.2565968036651611,1.2819391360064554,-0.5390417107101585,0.2027944646301524
1687008250.370308,0.8017175197601318,0.5227742195129395,-0.2897518277168274,0.054193735122680664,0.10184431076049805,0.056231409311294556,3.3646063804626465,0.7498528957366943,-1.0665948390960693,1.223989649553758,-0.5501020635732445,0.029245789261024308
1687008250.378819,0.788314700126648,0.48998647928237915,-0.3721199631690979,0.043594539165496826,0.024265319108963013,0.05232638120651245,5.074426651000977,0.5128148794174194,-0.7921684980392456,1.1297618390166178,-0.5120742284607915,-0.2208299183661198
1687008250.45824,0.7926167249679565,0.3960828483104706,-0.4635483920574188,-0.007231593132019043,0.03249078989028931,0.3313158452510834,5.708009243011475,1.4754467010498047,-0.2598252594470978,1.0416037259207793,-0.4072468610640318,-0.5027037482505489
1687008250.4754539,0.8281779885292053,0.2623633146286011,-0.49526429176330566,0.08568614721298218,-0.09617981314659119,0.2550452649593353,6.417906284332275,1.5907272100448608,-0.2602808475494385,1.031836379261862,-0.26547050280861434,-0.7820841417045888
1687008250.582244,0.8692404627799988,0.12897947430610657,-0.47726887464523315,0.0885080099105835,-0.07943412661552429,0.27566975355148315,5.6663126945495605,1.8751637935638428,-0.6273052096366882,1.0686718070361478,-0.12933979290802225,-1.0606402594219164
1687008250.600028,0.9069854021072388,0.04031309112906456,-0.4192281663417816,0.047390758991241455,0.01046818122267723,0.3124167323112488,5.535898208618164,1.9522689580917358,-0.9415363669395447,1.1378256056373006,-0.04032401647539702,-1.3235345973166317
1687008250.66504,0.9429152607917786,-0.001386479358188808,-0.33302974700927734,0.17329561710357666,0.03748878091573715,0.22211363911628723,4.994107246398926,1.8117929697036743,-1.6313284635543823,1.23128105824957,0.0013864798284382734,-1.5898297567985713
1687008250.681076,0.9674584865570068,0.019365284591913223,-0.25228792428970337,0.07964545488357544,-0.08529850095510483,0.27804484963417053,3.8615949153900146,1.9128707647323608,-1.9469833374023438,1.3157034912699277,-0.019366495765175833,-1.8357344494831083
1687008250.754809,0.9820597171783447,0.09336242079734802,-0.16383618116378784,0.06109219789505005,-0.10650023818016052,0.1432216316461563,1.7780193090438843,1.992662787437439,-2.237293004989624,1.4054895611216698,-0.09349858670422,-1.9867982959161368
1687008250.76947,0.9780603051185608,0.19265809655189514,-0.07925376296043396,0.056287288665771484,-0.030380859971046448,0.030486702919006348,0.6959648728370667,1.8444113731384277,-2.3082690238952637,1.48994141365391,-0.19387027751974442,-2.0648740008391546
1687008250.881012,0.9537515044212341,0.3005504608154297,0.005277459044009447,0.019988298416137695,-0.06202501058578491,-0.10812163352966309,-1.0813236236572266,1.7024321556091309,-2.353255033493042,1.5763296392216943,-0.3052697313059603,-2.0619220963949716
1687008250.8994598,0.903903603553772,0.41176867485046387,0.11578013747930527,0.1108059287071228,0.11620074510574341,-0.15168404579162598,-1.7039836645126343,1.6376056671142578,-2.643223285675049,1.6981916628290885,-0.42439405147411424,-1.96702156134354
1687008250.963897,0.8322098255157471,0.5168930292129517,0.20062129199504852,0.17279523611068726,0.07992410659790039,-0.17950305342674255,-0.704878568649292,1.2425693273544312,-2.634336471557617,1.8073533229306047,-0.5432175371058005,-1.878311151656291
1687008250.968861,0.7480363845825195,0.613420307636261,0.25329339504241943,0.17109209299087524,-0.032090842723846436,-0.22123456001281738,-0.49788832664489746,0.7657382488250732,-2.4546945095062256,1.8972892879655832,-0.6603841470087805,-1.8050015113570301
1687008251.062502,0.6621506214141846,0.679219663143158,0.31657174229621887,0.13570106029510498,-0.1576436161994934,-0.15160894393920898,-1.575260043144226,0.6569689512252808,-2.23098087310791,2.0167679368495075,-0.7466988618795031,-1.6748475953162938
1687008251.0840712,0.59108567237854,0.7139032483100891,0.3754468858242035,0.08054530620574951,-0.20357286930084229,-0.16862910985946655,-1.18839430809021,0.2325090616941452,-1.5486958026885986,2.1366839423313255,-0.7950565751941753,-1.5329526806439275
1687008251.145238,0.5348406434059143,0.7386492490768433,0.4102964699268341,0.07905107736587524,0.048979103565216064,-0.14194005727767944,0.19296683371067047,0.1003410816192627,-1.238618016242981,2.2251757185933725,-0.8310643289607901,-1.4268237672009214
1687008251.160482,0.4968854784965515,0.7714167833328247,0.39751946926116943,0.07303047180175781,-0.3089989423751831,-0.10824313759803772,-0.34409645199775696,0.09065090119838715,-0.7746570706367493,2.2455508931128656,-0.8810646906398202,-1.4034965689022403
1687008251.237216,0.469461053609848,0.7809987664222717,0.41188326478004456,0.0667177140712738,0.010978400707244873,-0.143999844789505,0.34749454259872437,-0.17054864764213562,-0.44006112217903137,2.290957701021074,-0.8962634737407909,-1.3489882996408695
1687008251.243034,0.46831706166267395,0.7905587553977966,0.39458370208740234,-0.008264541625976562,-0.19625931978225708,-0.10486495494842529,-0.3484666347503662,-0.34852710366249084,-0.11504262685775757,2.2709532816061846,-0.9117208662468127,-1.3491338666632338
1687008251.2955441,0.4785720705986023,0.788301944732666,0.3867160677909851,0.07544416189193726,-0.033159494400024414,-0.11445337533950806,0.4280585050582886,-0.7041787505149841,0.2145007848739624,2.250434029683109,-0.9080442804979462,-1.347488902566425
1687008251.392626,0.49222806096076965,0.7839263677597046,0.37837985157966614,-0.06870508193969727,0.027307212352752686,-0.0346297025680542,-0.7563834190368652,-0.27454525232315063,-0.1863284558057785,2.226163667386431,-0.900964997836708,-1.345532207195128
1687008251.409713,0.49028345942497253,0.7905723452568054,0.36690253019332886,0.020809680223464966,0.20991593599319458,0.14683040976524353,1.2398673295974731,-0.34512683749198914,-0.10639034956693649,2.213239194110141,-0.9117430303368627,-1.3421646168089139
1687008251.51584,0.4886420667171478,0.8135024309158325,0.31534531712532043,0.028661370277404785,-0.1567336916923523,0.07492873072624207,0.4774532616138458,0.09927971661090851,-0.057522278279066086,2.1438959260056305,-0.9501494728551236,-1.422544155475582
1687008251.533386,0.48854976892471313,0.8102395534515381,0.3237766921520233,0.05086377263069153,-0.00871044397354126,0.06266751885414124,-0.38099953532218933,0.04660052806138992,0.014664897695183754,2.1560687296958907,-0.9445607628186714,-1.4078252583392712
1687008251.59372,0.48839256167411804,0.8091743588447571,0.3266647458076477,0.047633469104766846,0.029265642166137695,-0.03242945671081543,0.13631537556648254,-0.13892725110054016,0.012563997879624367,2.1603136994976855,-0.9427455739480436,-1.402286014657581
1687008251.608296,0.4899199903011322,0.8110194802284241,0.31972819566726685,-0.016470223665237427,-0.02378791570663452,-0.00904393196105957,0.022655600681900978,-0.03600842133164406,-0.007012300193309784,2.1490063069276815,-0.9458926387369179,-1.4102137112854765
1687008251.6856241,0.4914117753505707,0.8106489777565002,0.31837600469589233,-0.013140171766281128,0.002186894416809082,0.02195611596107483,-0.03630576282739639,-0.023049835115671158,0.006673751398921013,2.1456799971765306,-0.9452596380121507,-1.409833553571295
1687008251.691382,0.4904668629169464,0.8105601072311401,0.3200547397136688,0.022487938404083252,0.026247382164001465,-0.008927911520004272,0.07771530002355576,-0.03872635215520859,-0.016444018110632896,2.1489628962722467,-0.945107850512715,-1.405977868765729
1687008251.7792668,0.490401029586792,0.8113536834716797,0.31813910603523254,0.006882995367050171,-0.03040868043899536,-0.0061425864696502686,-0.10776649415493011,0.013078343123197556,-0.007127614691853523,2.146280016745614,-0.9464641999432669,-1.4087628079203518
1687008251.796499,0.4903236925601959,0.8092805743217468,0.32349324226379395,0.027925878763198853,0.018463075160980225,0.0002372264862060547,-0.022989114746451378,0.011024601757526398,0.021339179947972298,2.1539982985004738,-0.9429263618013172,-1.400733596313788
1687008251.833287,0.4919348955154419,0.808701753616333,0.32249289751052856,0.0017174780368804932,0.002577543258666992,-0.024214059114456177,0.014381425455212593,0.0008502604905515909,0.015131751075387001,2.1510703307460766,-0.9419416982217114,-1.4039908025793444
1687008251.927661,0.4922117590904236,0.8094518780708313,0.32018065452575684,-0.008294433355331421,-0.005267679691314697,0.0018561184406280518,0.062002915889024734,0.09245030581951141,-0.00022057362366467714,2.1475185542080104,-0.9432179981895593,-1.409260935287058
1687008251.944771,0.49234244227409363,0.8090430498123169,0.32101184129714966,0.015668481588363647,-0.007391929626464844,0.000643610954284668,-0.027663184329867363,0.020255206152796745,0.038454048335552216,2.1485827364688315,-0.9425220943106897,-1.4101918032759726
1687008251.982156,0.49246352910995483,0.8082366585731506,0.32285165786743164,0.007566958665847778,-0.024819910526275635,-0.011557042598724365,0.003338451264426112,0.09608215093612671,0.06162188574671745,2.151087635080938,-0.9411513785104755,-1.4124924093263447
1687008252.080367,0.4950202405452728,0.8056908249855042,0.32529550790786743,0.07059252262115479,-0.057979702949523926,0.07669728994369507,-0.07388505339622498,0.2288259118795395,0.20004154741764069,2.152171565624353,-0.9368408307800448,-1.4192449638203133
1687008252.097732,0.5047970414161682,0.7937599420547485,0.33930131793022156,0.012613296508789062,-0.00639110803604126,-0.0963507890701294,-0.32854726910591125,-0.09019620716571808,0.3434160053730011,2.162588199809029,-0.9169660964441376,-1.411293728018593
1687008252.133689,0.5173094868659973,0.7891873121261597,0.3310210406780243,-0.11757487058639526,0.12698113918304443,-0.033642321825027466,0.484941303730011,-0.09484732151031494,0.05967884510755539,2.1400312796129626,-0.9094846429947697,-1.427767963358363
1687008252.260446,0.5162783861160278,0.7962665557861328,0.3153037428855896,0.05424773693084717,-0.025407731533050537,0.06367883086204529,0.12589898705482483,0.10760697722434998,-0.050217028707265854,2.119064006770889,-0.9210983298962907,-1.4573053906523903
1687008252.278789,0.51511150598526,0.7946087718009949,0.3213367760181427,0.10381555557250977,-0.027564585208892822,0.04443168640136719,-0.12342824041843414,0.2322949320077896,0.25455212593078613,2.1285465753414856,-0.9183628776902183,-1.4576437065953751
1687008252.344633,0.5309212803840637,0.7849046587944031,0.31944915652275085,0.07019883394241333,-0.060462892055511475,-0.051687806844711304,0.23034855723381042,-0.12758609652519226,0.42103311419487,2.1124563656945132,-0.9025422009447295,-1.4729985024126468
1687008252.359112,0.5584179759025574,0.7727900147438049,0.30160456895828247,0.004661977291107178,-0.1229943037033081,-0.07424852252006531,0.267001211643219,-0.12326760590076447,0.9153026342391968,2.0660111910548142,-0.8832255500742341,-1.524210447236321
1687008252.43771,0.5959146618843079,0.744598388671875,0.3007641136646271,0.04190272092819214,-0.06904596090316772,-0.10363569855690002,-0.2957023084163666,0.038411129266023636,1.0288769006729126,2.038204843274164,-0.8399329805744169,-1.5584019914428335
1687008252.4430408,0.641071081161499,0.7061136364936829,0.30071908235549927,0.011211752891540527,-0.07389611005783081,-0.1675860583782196,0.13235870003700256,-0.19874346256256104,1.3407540321350098,2.0094103898755407,-0.7839946350499646,-1.5891164486331004
1687008252.52936,0.6978567838668823,0.6545895338058472,0.2907029688358307,0.08710098266601562,-0.12823772430419922,-0.15848559141159058,0.4194698929786682,-0.1748553365468979,1.9109874963760376,1.9655011201876806,-0.7136395536906517,-1.6456333512156915
1687008252.5456681,0.7738831043243408,0.5883306860923767,0.23446132242679596,-0.03001713752746582,-0.10694634914398193,-0.11112454533576965,2.2456469535827637,-0.3083494007587433,2.7160286903381348,1.8649732577869416,-0.6289928524736773,-1.7839515779894548
1687008252.581334,0.8586896657943726,0.4844149649143219,0.16731533408164978,-0.07299929857254028,-0.2223604917526245,-0.17192339897155762,1.1309130191802979,-0.3907402455806732,3.317115068435669,1.7632347094720209,-0.5056943253597759,-1.9361830627019523
1687008252.6782398,0.9321883916854858,0.33261922001838684,0.14279164373874664,0.16920632123947144,-0.021080493927001953,-0.09603869915008545,-1.105941891670227,-0.9812160730361938,3.3447375297546387,1.7227938119742365,-0.3390795729437375,-1.9606874348981045
1687008252.695743,0.980999231338501,0.16852928698062897,0.09611759334802628,0.1795080304145813,0.17139078676700592,-0.034060001373291016,-1.4538891315460205,-1.7099299430847168,3.197122097015381,1.668463861254483,-0.16933742052776524,-1.9169426180032132
1687008252.731485,0.9996868968009949,0.020968571305274963,0.013671440072357655,0.13422441482543945,0.32049262523651123,0.0414433479309082,-2.3062446117401123,-2.0805935859680176,2.451343297958374,1.5844711956908584,-0.020970108924283335,-1.8217055278168373
1687008252.8278131,0.9913074970245361,-0.07628759741783142,-0.10719138383865356,0.16913878917694092,0.24247106909751892,0.14248502254486084,-2.313082695007324,-2.3612616062164307,1.6445786952972412,1.4630835127827049,0.07636179029019881,-1.7153201164996907
1687008252.844428,0.9657964706420898,-0.1126585602760315,-0.2335493415594101,0.14775943756103516,0.08005054295063019,0.3059217929840088,-2.7978484630584717,-1.9121228456497192,1.0247124433517456,1.3335307501152456,0.11289823885201816,-1.5662399431407827
1687008252.880336,0.9408165812492371,-0.10519339889287949,-0.3221782445907593,0.09353113174438477,0.12635734677314758,0.10046800971031189,-2.59838604927063,-1.5779880285263062,0.18060161173343658,1.2408675201033108,0.10538837558150446,-1.4308001449429917
1687008252.978548,0.910089910030365,-0.06038638576865196,-0.4099876582622528,0.07188946008682251,-0.15395379066467285,0.3203881084918976,-4.1318583488464355,-1.2866181135177612,0.444533109664917,1.1475338470774483,0.06042314545187298,-1.2740167948619832
1687008252.9951549,0.8824594616889954,0.025434058159589767,-0.469700425863266,-0.012632131576538086,-0.07014226913452148,0.20033708214759827,-3.968797206878662,-1.3621677160263062,0.06210898235440254,1.0816727349901105,-0.025436800752884542,-1.081476559098095
1687008253.0649161,0.8619840145111084,0.12437119334936142,-0.4914422631263733,0.026275932788848877,-0.07775554805994034,0.23782595992088318,-4.48524284362793,-0.4528847336769104,-0.1539795696735382,1.0526302837323853,-0.12469407650355759,-0.8959921715928
1687008253.0697799,0.8547045588493347,0.22831277549266815,-0.46621182560920715,0.05211007595062256,-0.04493257403373718,-0.023946166038513184,-3.331961154937744,-0.3248137831687927,-0.09413847327232361,1.071441172138707,-0.23034432857499268,-0.7257054733328034
1687008253.1245708,0.8461170196533203,0.30040693283081055,-0.44027480483055115,0.013547956943511963,-0.11385291814804077,0.08469927310943604,-3.335939645767212,-0.25254279375076294,0.18428641557693481,1.0910036190016419,-0.3051192647840613,-0.5771197652706868
1687008253.219502,0.8459981083869934,0.3567574620246887,-0.3962465226650238,0.04613751173019409,-0.05086448788642883,-0.005303710699081421,-2.8978211879730225,-0.3219117224216461,0.15504896640777588,1.1327651637295302,-0.36479464731872785,-0.42358280135575466
1687008253.227332,0.8475518226623535,0.3968392312526703,-0.3523845374584198,-0.0011160969734191895,-0.03436654806137085,0.051267653703689575,-2.7269821166992188,0.04876354709267616,0.46155470609664917,1.1767715809466968,-0.4080707405977947,-0.2811337719447393
1687008253.279262,0.8554113507270813,0.4148677587509155,-0.31009089946746826,0.0063898563385009766,0.08972522616386414,-0.04852110147476196,-1.5905014276504517,-0.22110654413700104,0.46528059244155884,1.2230249219278617,-0.42779744784799245,-0.1580086767410526
1687008253.3680348,0.8670563697814941,0.4066909849643707,-0.28777754306793213,0.031518518924713135,0.011857658624649048,-0.06961372494697571,-1.368532419204712,-0.1407904028892517,0.7671371698379517,1.2503347374428426,-0.4188290381122524,-0.07424011651308121
1687008253.3871741,0.8783825039863586,0.39111584424972534,-0.2747228741645813,0.022923707962036133,0.02787533402442932,-0.047832608222961426,-0.989667534828186,-0.2562195360660553,0.6857117414474487,1.2676746510073058,-0.4018436900578203,-0.006424700825671186
1687008253.491252,0.8883662223815918,0.37845876812934875,-0.2599512040615082,0.0005651116371154785,0.06673172116279602,-0.014127075672149658,-1.0401053428649902,-0.12283572554588318,0.5168838500976562,1.2861264552605733,-0.38813065442355893,0.061314732822678804
1687008253.508206,0.8940737247467041,0.37116768956184387,-0.25073254108428955,0.0005796551704406738,0.0765252411365509,0.0028383731842041016,-0.5657482743263245,-0.04542402923107147,0.30061355233192444,1.2973812203878756,-0.38026623879387733,0.10846416050310821
1687008253.574739,0.8952069878578186,0.3718520700931549,-0.24562302231788635,0.004207134246826172,0.03604593873023987,-0.020322322845458984,-0.38491612672805786,-0.12611985206604004,-0.05825531482696533,1.3030106432626685,-0.38100336904504023,0.12943216587623319
1687008253.590156,0.8979027271270752,0.3715214729309082,-0.23609888553619385,0.02517777681350708,-0.028000295162200928,-0.013183832168579102,-0.8238899111747742,-0.09114038944244385,0.38036078214645386,1.313671891863743,-0.3806472442493535,0.16419404244111402
1687008253.664834,0.9051562547683716,0.3580951392650604,-0.22904229164123535,0.02991771697998047,-0.02494990825653076,0.013420462608337402,-0.75179523229599,-0.19623449444770813,0.7403644323348999,1.3229569248513275,-0.3662269277324728,0.21478096576409086
1687008253.67977,0.9141126871109009,0.3357545733451843,-0.2273036688566208,0.0753130316734314,0.07864370942115784,0.004098236560821533,-0.48254311084747314,-0.2000894993543625,0.4485633671283722,1.3270788229083321,-0.34240617671452345,0.25783338750465074
1687008253.7226439,0.9160748720169067,0.32863351702690125,-0.22979791462421417,-0.04987907409667969,0.01037105917930603,-0.02076655626296997,-0.16788403689861298,-0.09000862389802933,0.05455419048666954,1.3250172843745451,-0.3348563572472245,0.27333876405660923
1687008253.818495,0.9154199361801147,0.3330998122692108,-0.2259446084499359,-0.04011470079421997,0.03465232253074646,-0.018592655658721924,-0.3172682225704193,0.05242592841386795,-0.12490911036729813,1.3288121603272016,-0.3395892353265655,0.2864315370148609
1687008253.836101,0.9132260084152222,0.3424852788448334,-0.2207307368516922,0.010693609714508057,0.006284892559051514,0.005963414907455444,-0.13366630673408508,0.03135020285844803,-0.1824539601802826,1.3336403972183473,-0.34956087452599727,0.29410450900776414
1687008253.873132,0.9113368391990662,0.3496396839618683,-0.2172955423593521,0.011072278022766113,0.0368807315826416,-0.007069572806358337,-0.06181849166750908,0.0053281886503100395,-0.11091626435518265,1.336730656358127,-0.35718647871267,0.3008971561415223
1687008253.968394,0.908003568649292,0.3570185601711273,-0.21924303472042084,-0.007139861583709717,-0.040490180253982544,-0.002741694450378418,0.011051586829125881,-0.04823223873972893,-0.11825426667928696,1.3338749762426838,-0.36507414702304847,0.29701318245597974
1687008253.985914,0.9063443541526794,0.3605518341064453,-0.220323383808136,-0.006396174430847168,0.022840559482574463,0.0028856992721557617,-0.03343261033296585,-0.04907051473855972,-0.09734752774238586,1.3323315604841377,-0.36885945061390957,0.2988689711466204
1687008254.02286,0.9046440720558167,0.3644150495529175,-0.22095473110675812,0.013339996337890625,-0.032276928424835205,0.011878907680511475,-0.18995963037014008,-0.0128302201628685,-0.06726059317588806,1.331241486117217,-0.373004588541282,0.3017163300048379
1687008254.118386,0.9030296206474304,0.3686002194881439,-0.22061584889888763,-0.00334089994430542,-0.0006192326545715332,0.004170015454292297,0.066778764128685,-0.04292190074920654,-0.09401124715805054,1.331183562046142,-0.37750275609293465,0.3045254270775636
1687008254.135631,0.9028541445732117,0.36968743801116943,-0.21951255202293396,0.0047386884689331055,-0.020215332508087158,0.006911933422088623,-0.14369440078735352,0.013499388471245766,-0.048989977687597275,1.332292224455645,-0.37867261762814886,0.3064116094537959
1687008254.1700149,0.9022840261459351,0.3722762167453766,-0.21747203171253204,0.009901702404022217,-0.0049665868282318115,-0.0106162428855896,0.011388343758881092,-0.020740430802106857,-0.015097989700734615,1.3342834205064618,-0.3814603096887292,0.31075127281494597
1687008254.2679992,0.9013760089874268,0.37279394268989563,-0.2203318029642105,0.007284939289093018,0.008492738008499146,0.005747556686401367,0.11988943070173264,-0.04197346046566963,-0.11196129024028778,1.3310579958542543,-0.3820181966464781,0.3053984354068755
1687008254.286079,0.8995043635368347,0.37682265043258667,-0.22112610936164856,0.008729338645935059,-0.021689563989639282,0.0033985525369644165,-0.06666615605354309,0.01933366432785988,-0.07904128730297089,1.3297452089747817,-0.3863636933671615,0.30323678943921617
1687008254.3229198,0.8975581526756287,0.38230380415916443,-0.21962113678455353,0.005685925483703613,-0.005747348070144653,0.0038619637489318848,-0.04717767611145973,0.01187814399600029,-0.13119477033615112,1.330824021710994,-0.3922882232945535,0.3029839565062933
1687008254.416723,0.8965976238250732,0.385151207447052,-0.21856659650802612,-0.002691924571990967,0.014858007431030273,-0.013611018657684326,0.07350178062915802,-0.012817524373531342,-0.047661926597356796,1.33168659231384,-0.3953716636918294,0.3035387365329785
1687008254.435786,0.8953951597213745,0.38684961199760437,-0.22048799693584442,0.0032254457473754883,-0.023110568523406982,0.01124437153339386,-0.08991474658250809,-0.02476908266544342,-0.022429272532463074,1.3293534117908283,-0.39721275213526297,0.3012759774279732
1687008254.504521,0.8945814371109009,0.3890736699104309,-0.21987740695476532,-0.002781391143798828,0.020365506410598755,-0.0069138407707214355,0.04763267934322357,-0.012627820484340191,-0.06034742668271065,1.3297857717238282,-0.3996258058108119,0.3046194741390077
1687008254.510427,0.8936529755592346,0.3889833092689514,-0.22377823293209076,0.005028843879699707,-0.010992467403411865,0.007561296224594116,0.12324142456054688,-0.028880558907985687,-0.014854110777378082,1.325433304398094,-0.39952774111489336,0.296917649332077
1687008254.566531,0.8924699425697327,0.3908035457134247,-0.2253226339817047,-0.008985936641693115,0.008107036352157593,0.00880056619644165,0.05865541473031044,0.004747796803712845,-0.06145436689257622,1.3234935217606205,-0.40150439678912625,0.292835126720389
1687008254.6587949,0.8921428322792053,0.3905583620071411,-0.22703637182712555,-0.002387523651123047,0.002736985683441162,-0.0017232298851013184,0.104063019156456,-0.015538744628429413,-0.008174769580364227,1.321601582626242,-0.4012380524155317,0.2877461571238466
1687008254.676711,0.8920177221298218,0.38964372873306274,-0.2290896773338318,-0.004856526851654053,-0.00028520822525024414,0.005899518728256226,0.07352019846439362,-0.025745218619704247,0.01437714509665966,1.3194074403586715,-0.4002447158831726,0.28236480026706184
