Timestamp,gravityX,gravityY,gravityZ,accelerationX,accelerationY,accelerationZ,rotationRateX,rotationRateY,rotationRateZ,attitudeRoll,attitudePitch,attitudeYaw
1687021248.1698909,0.9891607761383057,0.07729256898164749,-0.12484674155712128,0.003591179847717285,0.00023736059665679932,0.0014335587620735168,-0.00826873630285263,-0.005177538376301527,-0.022926343604922295,1.44524538930908,-0.07736973509434163,2.560685530277476
1687021267.584423,0.9797709584236145,0.043023932725191116,-0.19544202089309692,0.17742496728897095,0.0290738083422184,-0.016212686896324158,1.540483832359314,-0.5871905088424683,0.8426914811134338,1.373903462941439,-0.043037216935143556,1.0011088004481106
1687021267.6000562,0.9722534418106079,0.0070112766698002815,-0.233824223279953,0.49982279539108276,-0.0950545221567154,-0.011506646871566772,-1.5635449886322021,-1.0442657470703125,0.6496885418891907,1.3347812960238261,-0.007011334169257289,1.0080042793151716
1687021267.695823,0.964580774307251,0.04070010408759117,-0.26062870025634766,0.14264261722564697,0.01632196456193924,0.10213559865951538,-4.689276695251465,-0.27060699462890625,-0.4003180265426636,1.306899096951355,-0.04071135024484126,1.1712756735089205
1687021267.709598,0.9603802561759949,0.13595445454120636,-0.2432819902896881,-0.012305974960327148,0.009522795677185059,-0.10974544286727905,-3.621640682220459,0.23435719311237335,-1.0835473537445068,1.3226969139272209,-0.1363768014444538,1.3787649980522112
1687021267.763716,0.9535619616508484,0.21526707708835602,-0.2106645256280899,0.07979369163513184,0.04121789336204529,-0.052732765674591064,-0.3411136567592621,0.3153914213180542,-1.2470676898956299,1.3533650499192658,-0.21696531319648044,1.4599166751852652
1687021267.855918,0.9425196647644043,0.26063117384910583,-0.20911240577697754,0.15708965063095093,-0.06496778130531311,0.2691556215286255,0.46436941623687744,-0.06927254796028137,-0.6260942816734314,1.3524675354919558,-0.26367590507625305,1.4354340126400142
1687021267.8626971,0.9367282390594482,0.27681586146354675,-0.21427345275878906,0.09674942493438721,-0.44788220524787903,0.1069277673959732,-1.745182991027832,-0.22217704355716705,-0.11672600358724594,1.3459186422290308,-0.28047888166918966,1.4457227687974141
1687021267.950784,0.9351693391799927,0.3075343668460846,-0.17573022842407227,0.042827606201171875,-0.5930110812187195,0.03885875642299652,-5.651159763336182,-0.3016914129257202,0.2394963502883911,1.385049683983495,-0.31260073602331934,1.6388057846583632
1687021267.967416,0.9354538917541504,0.34517142176628113,-0.07604435831308365,0.14584499597549438,-0.14369440078735352,0.1922399401664734,-7.506091594696045,-0.5453673601150513,0.14310984313488007,1.4896832865914622,-0.3524214411210637,2.003020517039409
1687021268.042894,0.9367699027061462,0.3497300148010254,0.01228957250714302,0.058225154876708984,0.02305746078491211,-0.1419740915298462,-5.975423336029053,-0.709291398525238,0.11233487725257874,1.58391466824164,-0.35728291931528183,2.366218131709605
1687021268.056618,0.9436463713645935,0.3262220323085785,0.055771827697753906,0.04635900259017944,0.20132005214691162,-0.17611801624298096,-3.7645034790039062,-0.9392397999763489,0.42087194323539734,1.6298301208880421,-0.3323041977097749,2.621756158601671
1687021268.159704,0.9529371857643127,0.2991548776626587,0.049159519374370575,0.026478469371795654,0.12159094214439392,-0.05279124528169632,-2.0717132091522217,-1.10569429397583,0.40648871660232544,1.6223380015434685,-0.30380685073496383,2.763720160563599
1687021268.175149,0.9606583118438721,0.2764509618282318,0.026651840656995773,0.011646866798400879,0.05912032723426819,-0.0022531766444444656,-1.979805588722229,-1.0363129377365112,0.32904383540153503,1.5985325206412826,-0.280099183944288,2.866272784882941
1687021268.2434359,0.9647964239120483,0.2628864645957947,0.007657515816390514,-0.0036606192588806152,0.07504996657371521,0.058351874351501465,-1.5860495567321777,-0.7898430228233337,0.17577524483203888,1.578733084099436,-0.266012672770992,2.961660844929694
1687021268.2576652,0.9659006595611572,0.25870320200920105,-0.010414567776024342,0.009166419506072998,0.13701826333999634,0.0652698278427124,-0.509918749332428,-0.5550429821014404,0.028363410383462906,1.5600145094794133,-0.26167947444767076,3.0143970535252187
1687021268.342381,0.9654315114021301,0.25926244258880615,-0.02692604623734951,-0.00034368038177490234,0.07960477471351624,0.08986848592758179,-0.3922305703163147,-0.382355272769928,-0.059311047196388245,1.5429133880138146,-0.2622584440910001,3.0356116518732428
1687021268.355595,0.9638784527778625,0.26357191801071167,-0.03831930086016655,0.010624170303344727,0.1039360761642456,0.09138929843902588,0.0031749997287988663,-0.22842074930667877,-0.1346733123064041,1.531061924534409,-0.266723191392662,3.0485420727797496
1687021268.426575,0.9609388113021851,0.27300944924354553,-0.04541312903165817,0.043837130069732666,0.03170856833457947,0.10559368133544922,0.06115254759788513,-0.03745851293206215,-0.22291728854179382,1.5235723385054298,-0.27651994722604367,3.045831640114337
1687021268.440634,0.9571179151535034,0.28614887595176697,-0.04520898684859276,0.018330514430999756,-0.007233470678329468,0.08982563018798828,-0.04663862660527229,0.04083416238427162,-0.2792806923389435,1.5235969095469921,-0.2902052243445555,3.045077245525089
1687021268.546349,0.9532151818275452,0.2994627356529236,-0.04126489534974098,-0.04041922092437744,-0.0765775740146637,0.05377703905105591,-0.14956319332122803,0.1103135496377945,-0.29019758105278015,1.5275331203921445,-0.30412949214528,3.044451913279006
1687021268.563191,0.9497432112693787,0.31179550290107727,-0.02777431719005108,0.0074100494384765625,-0.06388592720031738,0.01802384853363037,-0.3287067115306854,0.23424667119979858,-0.2282329648733139,1.5415606316210757,-0.31708214700719084,3.05876780737784
1687021268.645185,0.9467494487762451,0.3217982053756714,-0.010557937435805798,0.006879150867462158,-0.1463525891304016,-0.05243045091629028,-0.2655453681945801,0.2837153375148773,-0.1277056187391281,1.5596450131658584,-0.32762810499515077,3.075324364414035
1687021268.661707,0.9461172819137573,0.32375863194465637,0.006532491184771061,0.04889315366744995,-0.2212042510509491,-0.09811580181121826,-0.6935903429985046,0.15131469070911407,0.06587136536836624,1.577700742510408,-0.329699387494064,3.0978943330541604
1687021268.726956,0.9485293626785278,0.3158113658428192,0.023555144667625427,0.038988709449768066,-0.12083455920219421,-0.08411741256713867,-1.030540108680725,-0.06024061143398285,0.2241603434085846,1.5956245561936415,-0.32131167157059864,-3.136973021284334
1687021268.7415972,0.9528456926345825,0.3017497956752777,0.032125916332006454,-0.014002978801727295,-0.07915455102920532,-0.13242197036743164,-0.722214937210083,-0.16868817806243896,0.2950330376625061,1.6044993207596514,-0.30652745663097636,-3.0902230946627083
1687021268.817083,0.9571720361709595,0.28785642981529236,0.030989861115813255,-0.0026737451553344727,-0.07569816708564758,-0.0725700855255127,-0.545560896396637,-0.2265407294034958,0.26440563797950745,1.6031615004085524,-0.29198778205470377,-3.0599357858382086
1687021268.822441,0.961407482624054,0.27385830879211426,0.0264060590416193,0.04634392261505127,-0.01726648211479187,-0.034890055656433105,-0.6414836645126343,-0.3155291974544525,0.2824277877807617,1.5982554675883123,-0.27740243584985547,-3.02964917214662
1687021268.8790169,0.966103732585907,0.2575068771839142,0.018265636637806892,0.03336209058761597,0.033737629652023315,-0.009751321747899055,-0.6619974374771118,-0.3976374864578247,0.3672281503677368,1.5897005697851445,-0.26044117349482,-2.9949234312266304
1687021268.964308,0.9708183407783508,0.2397611141204834,0.005115065723657608,-0.004403054714202881,0.07322719693183899,0.027737021446228027,-0.5341387987136841,-0.4283117651939392,0.3145504295825958,1.5760650968961747,-0.24211977947677746,-2.966247978899045
1687021269.0630789,0.973902702331543,0.22690711915493011,-0.005155809223651886,-0.014643728733062744,0.07697170972824097,0.08685129880905151,-0.7822818160057068,-0.3188348710536957,0.21613310277462006,1.5655024088745368,-0.22890078419426682,-2.9286286907998367
1687021269.079927,0.9754492044448853,0.21996773779392242,-0.010619373992085457,-0.03582841157913208,0.10661613941192627,0.021987080574035645,-0.18257081508636475,-0.14241404831409454,0.07638739794492722,1.559910106274966,-0.22178139274564723,-2.9027597390858553
1687021269.1454139,0.9757965207099915,0.21811100840568542,-0.015761733055114746,-0.008404731750488281,0.06678584218025208,0.02549678273499012,0.26781418919563293,-0.05048066005110741,-0.0138506218791008,1.5546450469920334,-0.21987846300046843,-2.9075745475176515
1687021269.159523,0.9756538271903992,0.2182779312133789,-0.021315088495612144,0.007729291915893555,0.008254095911979675,0.033247411251068115,0.20223155617713928,-0.06562747806310654,-0.0093458853662014,1.5489528227647678,-0.22004949902417195,-2.921194879030291
1687021269.2442908,0.9755426049232483,0.21837981045246124,-0.025035077705979347,0.015103638172149658,-0.019969746470451355,0.014506461098790169,0.0070116822607815266,-0.05817257985472679,0.010763975791633129,1.545139236589146,-0.22015390077695296,-2.9254830559071214
1687021269.258023,0.9756250977516174,0.2177707999944687,-0.027045372873544693,0.0022647976875305176,-0.0169040709733963,0.02658754587173462,0.0031175194308161736,-0.03536650910973549,0.012830722145736217,1.5430823545729269,-0.2195298765259743,-2.9256237683144484
1687021269.329627,0.9759572148323059,0.21629883348941803,-0.02687663398683071,-0.002690613269805908,-0.01732414960861206,0.03021823987364769,-0.05450773984193802,-0.00015721376985311508,0.022482484579086304,1.543264543118211,-0.21802195549917683,-2.923253941889823
1687021269.343792,0.9764360189437866,0.21429382264614105,-0.02550991252064705,-0.0016741156578063965,-0.012877777218818665,0.004803657531738281,0.10359042137861252,0.035068683326244354,0.033414293080568314,1.5446767341126082,-0.21596880058602547,-2.9250274578828375
1687021269.4168491,0.9769202470779419,0.21225959062576294,-0.023934021592140198,0.004097878932952881,-0.012369394302368164,0.00379234179854393,0.09076734632253647,0.05950354412198067,0.026621434837579727,1.5463017633096043,-0.2138866684313274,-2.9316856483896396
1687021269.422107,0.9772278070449829,0.2111673504114151,-0.020839301869273186,0.016867101192474365,0.0037527531385421753,-0.010960103943943977,-0.001774840522557497,0.06190118566155434,0.020189102739095688,1.5494746407770088,-0.21276909224435123,-2.932450650684846
1687021269.477078,0.9775756001472473,0.20973652601242065,-0.018882347270846367,0.01113283634185791,0.019633635878562927,-0.022438526153564453,0.05101101100444794,0.02762896567583084,0.01787741295993328,1.5514832418885742,-0.2113054834269883,-2.9342600414398987
1687021269.602215,0.9777644276618958,0.20884115993976593,-0.019022973254323006,0.0012698769569396973,0.03362102806568146,-0.031117497012019157,0.05351225286722183,0.001964349066838622,0.00134876964148134,1.5513432019224611,-0.21038983930933125,-2.935702134380661
1687021269.619269,0.9775987267494202,0.20945139229297638,-0.0207567997276783,0.0005506277084350586,0.016638129949569702,-0.03409862518310547,0.08446373045444489,-0.01687707006931305,-0.02020905166864395,1.549567082414185,-0.2110138743523903,-2.9396155059959233
1687021269.692391,0.9770658612251282,0.21170194447040558,-0.022907258942723274,0.0072634220123291016,0.005842670798301697,-0.0247154850512743,-0.022017616778612137,-0.02522483840584755,-0.04420599713921547,1.5473556722810933,-0.2133160506765338,-2.940514906440685
1687021269.697437,0.9763815999031067,0.21449372172355652,-0.025909675285220146,0.003919243812561035,0.009123876690864563,-0.016433537006378174,0.10280642658472061,-0.0417996421456337,-0.05331907048821449,1.5442661300881797,-0.2161734509983292,-2.942801545756636
1687021269.845714,0.9757838845252991,0.21675433218479156,-0.02938450686633587,0.0038455724716186523,-0.007327407598495483,0.0009878277778625488,0.03752245381474495,-0.05044328793883324,-0.041010934859514236,1.5406916783793476,-0.21848852045527392,-2.9459014222839683
1687021269.861487,0.9753281474113464,0.21838362514972687,-0.03230686113238335,-0.0014206171035766602,-0.0016935020685195923,0.0004006586968898773,0.07588160783052444,-0.03830850496888161,-0.040130164474248886,1.5376843380412946,-0.2201578129089978,-2.948352977142589
1687021269.897194,0.9749459624290466,0.21981847286224365,-0.03406142070889473,0.004866600036621094,-0.01126129925251007,-0.00451284646987915,0.06263654679059982,-0.021333428099751472,-0.042808372527360916,1.5358738037428896,-0.2216283821940021,-2.950711696914583
1687021269.908364,0.9745329022407532,0.2213796079158783,-0.03573363646864891,0.008636713027954102,-0.01521804928779602,0.006436701864004135,0.13623468577861786,-0.003701526205986738,-0.033557482063770294,1.5341452977035943,-0.22322895785080146,-2.955213227725917
1687021269.911443,0.9742222428321838,0.22228124737739563,-0.038494985550642014,0.005681753158569336,0.000512346625328064,-0.010256882756948471,0.22208213806152344,-0.014704020693898201,-0.04244431480765343,1.5313033165557226,-0.22415362557055343,-2.9661638758898197
1687021269.952225,0.973832368850708,0.22354654967784882,-0.04095690697431564,0.0014941096305847168,0.008585453033447266,-0.013349175453186035,0.15834391117095947,-0.022060204297304153,-0.04458017274737358,1.5287636453558584,-0.22545158565067455,-2.974148273211805
1687021270.016911,0.9731184840202332,0.22583580017089844,-0.04515025019645691,-0.003590404987335205,0.022653624415397644,-0.021668076515197754,0.4032399356365204,-0.023641588166356087,-0.07584914565086365,1.5244320919552827,-0.22780091234968333,-2.987781788718188
1687021270.114919,0.9721133708953857,0.22898051142692566,-0.05063023790717125,0.0035030245780944824,-0.0016245096921920776,-0.023954808712005615,0.2510893642902374,-0.04676590487360954,-0.08767411857843399,1.5187606953462198,-0.23103023662414585,-3.0056001921807565
1687021270.132186,0.9710031151771545,0.23247888684272766,-0.055735889822244644,0.008214354515075684,-0.008388280868530273,-0.01360011100769043,0.22806550562381744,-0.05995689705014229,-0.08440075069665909,1.513458920512796,-0.2346256271242393,-3.0171881012770454
1687021270.194868,0.9698179960250854,0.23569747805595398,-0.062446560710668564,0.0044097900390625,-0.005793288350105286,-0.023002739995718002,0.30598416924476624,-0.08365201950073242,-0.08468824625015259,1.5064951137017903,-0.23793620416068417,-3.031934847574833
1687021270.319488,0.9686405062675476,0.2387825846672058,-0.06869075447320938,0.004610717296600342,-0.009900718927383423,-0.02606642246246338,0.2202371507883072,-0.0745725929737091,-0.07907935976982117,1.500000246955537,-0.24111198235640244,-3.0431481358374586
1687021270.337892,0.9674180150032043,0.2410629391670227,-0.07740138471126556,0.007069230079650879,0.059001192450523376,-0.06688576936721802,0.8982011675834656,-0.04432414099574089,-0.09020224958658218,1.4909581844980273,-0.24346093303618943,-3.068894343719238
1687021270.40595,0.965796172618866,0.2401479035615921,-0.09781026095151901,-0.006079316139221191,0.15232346951961517,-0.08141954243183136,2.5580341815948486,0.03197817504405975,-0.17875820398330688,1.4698662242213996,-0.24251821336326593,3.129842093793431
1687021270.4114718,0.9631832838058472,0.23506492376327515,-0.13046960532665253,0.017712652683258057,0.008480638265609741,-0.01787644624710083,2.9295105934143066,0.07141532748937607,-0.2422598898410797,1.43615912831078,-0.23728535639558018,2.9793494862329983
1687021270.416074,0.9616385698318481,0.22079913318157196,-0.16278468072414398,9.226799011230469e-05,0.21424421668052673,-0.05141828954219818,4.127485752105713,0.15946431457996368,-0.2171458899974823,1.403107540114961,-0.22263374514018372,2.805979164316146
1687021270.465394,0.9607180953025818,0.1984165608882904,-0.19403958320617676,0.031118273735046387,-0.054892390966415405,0.09739036858081818,3.1983754634857178,0.19363738596439362,-0.20372594892978668,1.3715039116604315,-0.19974210221471017,2.6109019883177598
1687021270.557582,0.9610236287117004,0.17353571951389313,-0.21521814167499542,0.017446160316467285,0.18864691257476807,0.05825090408325195,4.1794281005859375,0.2640780806541443,-0.2982436716556549,1.350484587050187,-0.174418739456191,2.4336156102334576
1687021270.5649981,0.9624398946762085,0.135457843542099,-0.23528838157653809,0.020577073097229004,0.11016292870044708,0.09931716322898865,5.1864447593688965,0.4255511164665222,-0.35030874609947205,1.3310284195121966,-0.1358755434345134,2.1984520049607856
1687021270.615357,0.966704785823822,0.08961567282676697,-0.23968921601772308,0.0491948127746582,0.08543316274881363,0.17247414588928223,5.18268346786499,0.5794185996055603,-0.27597352862358093,1.3277531086305945,-0.08973606020999847,1.9394356924763567
1687021270.711076,0.9731962084770203,0.04702260345220566,-0.22511747479438782,0.029702842235565186,-0.007838044315576553,0.13330526649951935,4.815523147583008,0.6930331587791443,-0.2892220914363861,1.3434768410267535,-0.04703994802590186,1.6962846475146824
1687021270.727563,0.9807898998260498,0.007086437661200762,-0.19493821263313293,0.02954024076461792,0.04471711814403534,0.19071143865585327,5.175805568695068,0.8311188817024231,-0.24175328016281128,1.3745968779458748,-0.007086497109542315,1.454497487934847
1687021270.831956,0.9880910515785217,-0.020520783960819244,-0.15249580144882202,0.024726271629333496,-0.18634265661239624,0.27754151821136475,3.8846099376678467,0.9140269160270691,-0.37809887528419495,1.417670710832073,0.020522224788186674,1.222709922368981
1687021270.848875,0.9954288601875305,-0.01706618256866932,-0.09396664798259735,0.07833188772201538,0.09220043569803238,0.1546049863100052,3.8520424365997314,1.2085691690444946,-0.7071018815040588,1.4766770799800293,0.017067010542485935,1.0357932958023455
1687021270.917973,0.9993087649345398,0.01697535812854767,-0.03307376429438591,0.1061294674873352,0.0113449078053236,0.16069817543029785,2.933485746383667,1.2890121936798096,-1.0874824523925781,1.5377117590269196,-0.016976174014671146,0.8664083084438858
1687021270.93205,0.996464192867279,0.08012815564870834,0.025265870615839958,0.1440386176109314,0.056666821241378784,0.11458086967468262,2.0914411544799805,1.2598735094070435,-1.489760160446167,1.596146417470202,-0.0802141458807312,0.7353172521668532
1687021271.005869,0.9834688305854797,0.16431653499603271,0.0760859027504921,0.143133282661438,0.08467632532119751,0.026330947875976562,1.3743948936462402,1.161989450454712,-1.7563512325286865,1.6480073648001083,-0.1650650874731905,0.6585071803403633
1687021271.012017,0.9587643146514893,0.2604912221431732,0.11364508420228958,0.13487881422042847,0.108252614736557,-0.030301690101623535,1.3881332874298096,0.9683894515037537,-1.8902621269226074,1.6887786979862769,-0.2635309514962789,0.5962118229323625
1687021271.099697,0.9225473403930664,0.35994529724121094,0.13908958435058594,0.0883779525756836,0.03696626424789429,-0.04462242126464844,0.915286660194397,0.8368754386901855,-2.0363028049468994,1.7204361918446196,-0.36820925284828443,0.5514684552163508
1687021271.1938539,0.8749682903289795,0.4583672285079956,0.15597958862781525,0.10336410999298096,0.028845787048339844,-0.07692386209964752,0.9117851257324219,0.7108116745948792,-2.0051844120025635,1.7472119290902481,-0.47615719085025443,0.5235285789217013
1687021271.210188,0.8171663284301758,0.5527930855751038,0.16327467560768127,0.11523711681365967,-0.041288137435913086,-0.10951806604862213,0.39591339230537415,0.5146486759185791,-2.1568539142608643,1.7680052764836365,-0.5857123190513434,0.5074493679770932
1687021271.281666,0.7527851462364197,0.6359798908233643,0.16983523964881897,0.04183155298233032,-0.13366061449050903,-0.008977174758911133,0.29553645849227905,0.43805351853370667,-2.145380973815918,1.792690528052489,-0.6892776046312274,0.5118266962066685
1687021271.296047,0.6847556829452515,0.7106627821922302,0.16145609319210052,0.07319420576095581,-0.094573974609375,0.011639490723609924,0.6353887915611267,0.2696788012981415,-1.8131632804870605,1.802353419846617,-0.7904398446897241,0.5000986111021769
1687021271.368006,0.6140781044960022,0.7739951014518738,0.15440048277378082,0.05968892574310303,-0.00347214937210083,-0.10438229143619537,0.5266916751861572,0.22191783785820007,-1.7730002403259277,1.8171247593036997,-0.8851264879802556,0.49965711379402605
1687021271.382832,0.5486133694648743,0.8237168788909912,0.14322499930858612,0.04570114612579346,-0.2678394317626953,-0.050650015473365784,0.25040310621261597,0.10031524300575256,-1.6010160446166992,1.8261638365925241,-0.9679355174099212,0.5029248822627077
1687021271.45554,0.49198612570762634,0.8599361777305603,0.1358645260334015,0.07312312722206116,-0.31237465143203735,-0.03332555294036865,-0.18961602449417114,-0.04739023745059967,-1.3106286525726318,1.8402362035150637,-1.0351446345203885,0.5189608172595498
1687021271.461034,0.44181838631629944,0.8860846161842346,0.1401805281639099,-0.017944425344467163,-0.16275697946548462,-0.098539337515831,-0.10597412288188934,-0.188693568110466,-0.9906256198883057,1.8780307893878774,-1.088828788484717,0.5695016017333272
1687021271.5846338,0.4039100408554077,0.9040625691413879,0.13974185287952423,-0.06246402859687805,-0.18947815895080566,-0.03883551061153412,0.22027775645256042,-0.21335656940937042,-0.7951189875602722,1.9038788590314093,-1.1291812755765973,0.6117024269440661
1687021271.591433,0.37983858585357666,0.9165409207344055,0.12520156800746918,0.050672948360443115,-0.2680423855781555,0.05758346617221832,-0.14533041417598724,-0.31068116426467896,-0.3943227231502533,1.8891992138917546,-1.159343985497854,0.6097770371886967
1687021271.6702409,0.3663927912712097,0.9208937287330627,0.13308241963386536,-0.005735993385314941,0.007160961627960205,-0.02091515064239502,-0.10845264047384262,-0.314767986536026,-0.2617397904396057,1.919202525670167,-1.1703670099604626,0.6605324032713461
1687021271.6883821,0.35790467262268066,0.9253299236297607,0.1251758635044098,-0.050424724817276,-0.04015225172042847,-0.03519485890865326,0.08387166261672974,-0.31662845611572266,-0.2025355100631714,1.9072451907948018,-1.1819047518979737,0.665246834365889
1687021271.7938871,0.349506676197052,0.9300262928009033,0.11356139183044434,-0.022449761629104614,0.055020034313201904,0.028681039810180664,0.2832368016242981,-0.1926695853471756,-0.2521178424358368,1.8849550519648404,-1.1944844323036865,0.6548551510089293
1687021271.800753,0.3391566872596741,0.9349218606948853,0.10437390208244324,-0.017715007066726685,0.0023797154426574707,0.057811737060546875,0.031568557024002075,-0.2554960250854492,-0.26343396306037903,1.869343733887324,-1.208038817732439,0.6519971416445859
1687021271.882791,0.3322785496711731,0.9383826851844788,0.09501973539590836,0.030468672513961792,-0.05764549970626831,0.07397127151489258,0.19153757393360138,-0.0444522388279438,-0.07679876685142517,1.8493269130397374,-1.2179204576066087,0.6377054795082582
1687021271.899981,0.3316357135772705,0.9394413232803345,0.0864144116640091,0.04260134696960449,-0.0762518048286438,0.05575167387723923,-1.546728890389204e-05,-0.10498668998479843,0.039241623133420944,1.8256984897311346,-1.220996487768121,0.6147887936118535
1687021271.9660358,0.33213144540786743,0.9392107725143433,0.08701566606760025,0.0032719969749450684,0.12467765808105469,-0.031763672828674316,0.12480822950601578,-0.09372790902853012,-0.011941002681851387,1.8270290128944455,-1.2203243849367602,0.6220695391578687
1687021271.978732,0.3305904269218445,0.9407438635826111,0.07556905597448349,0.01184728741645813,-0.029931604862213135,0.008262626826763153,0.18260782957077026,-0.04892111197113991,-0.062069885432720184,1.795523388957789,-1.224817167051573,0.5920560728735433
1687021272.056386,0.3283824324607849,0.9421371221542358,0.06739673763513565,0.004152387380599976,0.017106473445892334,0.007722251117229462,0.1656995564699173,-0.06635523587465286,-0.047729361802339554,1.773223856302073,-1.228949438181344,0.571653026387427
1687021272.071295,0.3273240029811859,0.9429203867912292,0.06131970137357712,0.004890352487564087,-0.04411673545837402,0.024022694677114487,-0.022876929491758347,-0.07540766894817352,-0.01376646663993597,1.7559862438986567,-1.2312935230593887,0.5560481351701503
1687021272.145447,0.32684361934661865,0.9430989027023315,0.06113578379154205,0.00015223026275634766,-0.01682943105697632,-0.00357973575592041,0.032779231667518616,-0.07317043840885162,-0.004071095958352089,1.7557085924867097,-1.2318300891246354,0.5590167052047585
1687021272.158403,0.3276049494743347,0.9430214762687683,0.05818792060017586,0.004014402627944946,-8.928775787353516e-05,0.0022826269268989563,0.040872134268283844,-0.032251324504613876,0.002865239977836609,1.74657924500291,-1.2315972753168973,0.5519547286276599
1687021272.203506,0.32784610986709595,0.9430286884307861,0.05668992921710014,0.01274535059928894,0.007898986339569092,0.0059015750885009766,0.03543493524193764,-0.010691880248486996,0.0007845126092433929,1.7420194711767873,-1.2316189640682778,0.5483449372204577
1687021272.333084,0.3281137943267822,0.9430631995201111,0.05452897399663925,-0.002491176128387451,0.02367269992828369,-0.010095469653606415,0.08695276826620102,-0.00730851199477911,0.0005560797872021794,1.7354804135014588,-1.2317226602401201,0.5419485203284795
1687021272.3497481,0.32777830958366394,0.9433920383453369,0.05072289705276489,0.014277994632720947,0.01406639814376831,0.014050602912902832,0.06098867952823639,-0.028561335057020187,-0.008404592052102089,1.7243261012668551,-1.232712685814316,0.5309487939638922
1687021272.4508429,0.32656002044677734,0.9439788460731506,0.04756435006856918,0.0024194717407226562,0.014532387256622314,0.007870789617300034,0.09922003746032715,-0.0031452805269509554,-0.01764429733157158,1.7154319546540935,-1.2344863824979742,0.5218434328360093
1687021272.4654489,0.3256480097770691,0.9443320631980896,0.04679879546165466,-0.01496383547782898,-0.02180105447769165,-0.01292431727051735,-0.005044669844210148,0.008633436635136604,-0.02284824475646019,1.7135288416819203,-1.2355583839576354,0.5199148049727218
1687021272.4700341,0.32556143403053284,0.944463312625885,0.044710103422403336,-0.014526188373565674,-0.028172969818115234,0.006864551454782486,0.049048881977796555,0.00709404144436121,0.007138747721910477,1.7072749070707096,-1.2359575250684451,0.513516270455608
1687021272.503068,0.3260590434074402,0.9443584680557251,0.043272603303194046,0.008108466863632202,-0.007880866527557373,0.01712167263031006,-0.02630641497671604,0.013256152160465717,0.010153446346521378,1.7027393059301585,-1.2356386833551143,0.5079955913161234
1687021272.5999541,0.3273681700229645,0.9438340663909912,0.04480025917291641,0.01902163028717041,0.004423201084136963,0.0008540116250514984,0.016606030985713005,0.011969312094151974,0.04913846403360367,1.706801267915451,-1.2340479117969707,0.510718620493353
1687021272.6163402,0.3296523094177246,0.9430094361305237,0.04541342332959175,-0.002915799617767334,0.007643520832061768,0.006847858428955078,0.03228308632969856,0.01543346419930458,0.052499640733003616,1.7076962093291657,-1.2315611739390588,0.5106400814035603
1687021272.65152,0.3331051766872406,0.9418655633926392,0.043932244181632996,-0.017904341220855713,-0.02606368064880371,0.008527398109436035,0.06582817435264587,0.03215128183364868,0.08864285796880722,1.7019265279839182,-1.2281402555371381,0.5031158306983362
1687021272.749599,0.33851587772369385,0.9400725364685059,0.040871672332286835,-0.029006600379943848,-0.04238283634185791,0.034796591848134995,0.0971367359161377,0.06203309819102287,0.1659947782754898,1.6909525447774787,-1.2228430304497755,0.48909552786624383
1687021272.766537,0.34941911697387695,0.9360278248786926,0.041928067803382874,-0.021645039319992065,-0.11849254369735718,0.03776847943663597,-0.08793759346008301,0.08131954073905945,0.3459217846393585,1.690218974941797,-1.2111683296608464,0.4843547511708551
1687021272.839107,0.3713217079639435,0.927504301071167,0.043083447962999344,-0.036391228437423706,-0.14605587720870972,0.007194165140390396,0.034536249935626984,0.050777871161699295,0.5822010040283203,1.686307103063096,-1.1876801630528566,0.4769502817979423
1687021272.8456302,0.4016249179840088,0.9144526124000549,0.049738407135009766,-0.035795360803604126,-0.16535288095474243,0.05614221841096878,-0.2972509264945984,0.16610224545001984,0.7323402762413025,1.6940118904295702,-1.1541532670693373,0.47947107163131075
1687021272.928304,0.4401562809944153,0.8955609798431396,0.06506220251321793,0.04151800274848938,-0.11534857749938965,0.025864847004413605,-0.14297319948673248,0.19298392534255981,1.0443699359893799,1.7175497891605351,-1.109690407000814,0.4936327870947606
1687021273.02087,0.48224174976348877,0.872944712638855,0.07355605065822601,0.03664866089820862,0.010432302951812744,0.003867030143737793,-0.1044316217303276,0.28442126512527466,0.9587361812591553,1.7221591062443784,-1.0612065421352044,0.4841510153270417
1687021273.0399752,0.5266732573509216,0.8450950980186462,0.09181204438209534,-0.00857633352279663,-0.02057129144668579,-0.0952606275677681,0.14139963686466217,0.37710070610046387,1.1900020837783813,1.7433864831064723,-1.0067429677043027,0.4890853934150333
1687021273.0808868,0.5791575312614441,0.8109275698661804,0.08350426703691483,0.05872088670730591,-0.09881526231765747,0.0268777534365654,0.6454282999038696,0.32818612456321716,1.4826066493988037,1.7139917977676125,-0.9457355227613778,0.43140853553374786
1687021273.092705,0.6387996673583984,0.7644451260566711,0.08694053441286087,0.017496168613433838,-0.2735089063644409,-0.005519747734069824,-0.2719365060329437,0.17079207301139832,1.526873230934143,1.7060650605303274,-0.8701802257188814,0.40589982626516713
1687021273.1370568,0.7001028060913086,0.708940863609314,0.08519819378852844,-0.03221040964126587,0.013562679290771484,-0.2421501874923706,0.12524528801441193,0.0027832710184156895,1.6925036907196045,1.6918946988989274,-0.787995292736529,0.38247433990073954
1687021273.191245,0.7592212557792664,0.646515429019928,0.07483658194541931,1.0192394256591797e-05,0.005324602127075195,-0.0831984356045723,0.28774797916412354,-0.24434040486812592,1.8050193786621094,1.6690491218681682,-0.7030080478442687,0.35325914870900127
1687021273.3203192,0.8139587044715881,0.5770300030708313,0.06714128702878952,-0.023873746395111084,-0.013553440570831299,-0.03329729288816452,-0.3135491907596588,-0.210520401597023,1.7254626750946045,1.6530973365360766,-0.6150874829036207,0.3492266867104328
1687021273.336443,0.8658930659294128,0.49688807129859924,0.057717565447092056,0.04821521043777466,0.032820701599121094,-0.11968350410461426,-0.22519919276237488,-0.5084962844848633,1.9189515113830566,1.6373545586847025,-0.5200091471308715,0.3522088929514041
1687021273.405947,0.9096447825431824,0.41257867217063904,0.04822111502289772,-0.018058419227600098,0.03654852509498596,0.07136190682649612,-0.39203140139579773,-0.45685917139053345,1.8571187257766724,1.6237576806822818,-0.4252830749910011,0.371026062255224
1687021273.4115992,0.9486479163169861,0.31522178649902344,0.02650453895330429,0.04955160617828369,-0.051183730363845825,-0.015121575444936752,-1.0534378290176392,-0.704706072807312,1.983420968055725,1.598728340663341,-0.32069033432169153,0.39539089211688233
1687021273.502341,0.9728484153747559,0.23077845573425293,0.017525726929306984,0.10289615392684937,0.2541610598564148,0.03757369518280029,-1.3800253868103027,-0.5282907485961914,1.6798186302185059,1.588809236588143,-0.23287765892215803,0.45832333615309423
1687021273.519774,0.9871032238006592,0.15966014564037323,0.01166454330086708,0.1563752293586731,0.06546798348426819,0.021675825119018555,-2.794528007507324,-0.6778846383094788,1.2716816663742065,1.5826127210526597,-0.1603463721494477,0.5685078510898466
1687021273.589153,0.9947619438171387,0.10207860171794891,-0.005337129347026348,0.10884511470794678,0.13675189018249512,0.07816725969314575,-2.8407373428344727,-0.638359785079956,0.9820398092269897,1.5654311454086487,-0.10225671588264616,0.7160906535810587
1687021273.603538,0.9978885650634766,0.05914776399731636,-0.02683040127158165,0.12206077575683594,-0.05386827513575554,0.14739000797271729,-2.8867645263671875,-0.6634241938591003,0.8126670718193054,1.5439156316947706,-0.05918230514875229,0.8516873552686874
1687021273.643664,0.9982572197914124,0.030024046078324318,-0.05080188438296318,0.0914948582649231,-0.047373320907354355,0.09523540735244751,-3.7158870697021484,-0.5996727347373962,0.5993492603302002,1.5199496169914468,-0.030028558739568795,1.0204581043523904
1687021273.7406468,0.9971244931221008,0.01365717500448227,-0.07453911751508713,0.06780153512954712,-0.07719481736421585,0.18843060731887817,-3.6117491722106934,-0.5569014549255371,0.5226930379867554,1.4961810369592023,-0.013657599928852786,1.1987618041834818
1687021273.7467651,0.993755042552948,0.00811151135712862,-0.1112879291176796,0.026813745498657227,-0.09766536951065063,0.09863829612731934,-5.275575160980225,-0.8820351362228394,0.27708345651626587,1.459273701285622,-0.008111600137252154,1.4176140458037767
1687021273.831312,0.9874801635742188,0.04380626976490021,-0.1515381783246994,0.004936099052429199,0.06778120994567871,0.07503052055835724,-6.320492267608643,-0.9091010093688965,-0.19539225101470947,1.4185247733938513,-0.0438202926542704,1.7147099100618677
1687021273.919163,0.9796530604362488,0.103681281208992,-0.17184224724769592,-0.0064781904220581055,0.1502707153558731,0.08886487782001495,-5.993165016174316,-0.8108425140380859,-0.26432716846466064,1.3971515865014972,-0.10386794489793925,2.0174517185784304
1687021273.936864,0.9714593291282654,0.16573426127433777,-0.16970263421535492,0.0025396347045898438,0.07512572407722473,0.07985877990722656,-5.506836414337158,-0.6543526649475098,-0.2831641733646393,1.3978530516488872,-0.16650252932733672,2.296657344163639
1687021274.048001,0.9644695520401001,0.22065718472003937,-0.14528797566890717,-0.0005262494087219238,0.05213943123817444,0.034051313996315,-4.901065826416016,-0.45710933208465576,-0.2645113468170166,1.421280235317911,-0.22248821326353976,2.5586336294817693
1687021274.06395,0.9592335820198059,0.26019614934921265,-0.11031266301870346,0.010981202125549316,0.06802043318748474,-0.036995768547058105,-3.6572201251983643,-0.2541215717792511,-0.22989797592163086,1.4562984694041663,-0.2632253460865992,2.7760298953645948
1687021274.127799,0.955230176448822,0.2846249043941498,-0.08077163249254227,0.011261582374572754,0.025479495525360107,-0.0641869381070137,-2.533358573913574,-0.24747434258460999,-0.164902463555336,1.4864397489559018,-0.28861513125516053,2.9331904612124053
1687021274.134972,0.9525645971298218,0.2985762655735016,-0.058931443840265274,0.028911173343658447,-0.0136793851852417,-0.07432365417480469,-1.9652224779129028,-0.226570725440979,-0.10401266813278198,1.5090089881949977,-0.3032005104255068,3.0487387389784373
1687021274.225465,0.9508323669433594,0.3067948520183563,-0.04236564785242081,0.024570465087890625,-0.013246238231658936,-0.05294084921479225,-1.5949748754501343,-0.23223954439163208,-0.056223511695861816,1.526269398063694,-0.3118236625949725,-3.139959937879058
1687021274.2333798,0.9497052431106567,0.31179556250572205,-0.029036851599812508,0.03198397159576416,-0.10802972316741943,-0.03668283671140671,-1.8802447319030762,-0.27411624789237976,-0.010245035402476788,1.540231253972944,-0.3170822106183417,-3.053125030517808
1687021274.308868,0.9497179388999939,0.3126615881919861,-0.016686582937836647,-0.009303629398345947,0.030813753604888916,-0.02023976854979992,-1.0715880393981934,-0.2369135618209839,0.03248032182455063,1.553228093499975,-0.3179938170706482,-2.970413702231306
1687021274.3155541,0.9505035281181335,0.3101193308830261,-0.019204391166567802,-0.012027084827423096,0.045883506536483765,-0.015433132648468018,0.23987826704978943,-0.1454341560602188,0.07453835755586624,1.550594635608975,-0.31531854488084726,-2.9489272591413545
1687021274.403789,0.9516133666038513,0.30575236678123474,-0.030780620872974396,-0.0015554428100585938,-0.045559465885162354,0.017505407333374023,0.4262053966522217,-0.07426197826862335,0.10170533508062363,1.5384618784428061,-0.3107285371004979,-2.970543324075654
1687021274.421648,0.9533113837242126,0.2995738387107849,-0.03811349719762802,0.0005458593368530273,-0.025861680507659912,0.036251846700906754,0.2737467885017395,-0.026965482160449028,0.12040991336107254,1.5308374948819679,-0.30424593632304964,-2.9884685781487907
1687021274.486637,0.9552016258239746,0.2929937541484833,-0.04176926985383034,0.010817110538482666,-0.005518108606338501,0.019842322915792465,0.21326547861099243,0.001625417498871684,0.12336249649524689,1.5270959418523222,-0.2973565073301508,-3.00066541657055
1687021274.5003219,0.9568688273429871,0.28738102316856384,-0.042590752243995667,-0.007283985614776611,-0.0031555593013763428,0.019290510565042496,0.007770727854222059,0.035421375185251236,0.10296174883842468,1.5263151426762962,-0.2914913975381274,-3.0058174710252965
1687021274.576356,0.958115816116333,0.28357478976249695,-0.039993200451135635,-0.005067169666290283,0.02485114336013794,0.002380192279815674,-0.04538654536008835,0.05706106871366501,0.05763588100671768,1.5290790356888622,-0.2875198869884467,-3.00488850880024
1687021274.5826411,0.9586661458015442,0.2823876440525055,-0.03487590700387955,0.006070733070373535,0.027732044458389282,0.0004824995994567871,-0.13625021278858185,0.06714921444654465,0.02043711021542549,1.5344327478084572,-0.28628212825709376,-2.997908337443105
1687021274.670402,0.9587149620056152,0.2825317680835724,-0.03226792439818382,-0.0007683038711547852,0.05842587351799011,-0.002415355294942856,0.11357731372117996,0.05090632662177086,0.002635276410728693,1.5371515541430707,-0.28643238183538283,-2.9974490492757604
1687021274.761963,0.9584002494812012,0.28372305631637573,-0.03115065023303032,-0.0070146918296813965,0.03306472301483154,-0.01018548384308815,0.21469244360923767,0.08662588149309158,-0.036946557462215424,1.5383050071801272,-0.28767450045238896,-3.0052565760637555
1687021274.768713,0.9572029709815979,0.28789764642715454,-0.029622966423630714,-0.002429962158203125,0.0038046836853027344,-0.0027715004980564117,0.21089938282966614,0.1129026710987091,-0.09392088651657104,1.5398587768169087,-0.29203081705004924,-3.016517130531691
1687021274.8807821,0.9558554887771606,0.2925168573856354,-0.027826756238937378,0.01121610403060913,-0.0020199716091156006,-0.012746457010507584,0.23272696137428284,0.08723628520965576,-0.08885443210601807,1.541692660851688,-0.2968577767246992,-3.027505901004103
1687021274.896199,0.9548272490501404,0.2960204482078552,-0.026014095172286034,0.015799522399902344,-0.05755606293678284,-0.01390296220779419,0.0021817293018102646,0.06410663574934006,-0.06248913332819939,1.5435582464223088,-0.300523685893283,-3.0345955499781683
1687021274.971332,0.9543524384498596,0.29775485396385193,-0.023523010313510895,0.00487595796585083,-0.03106173872947693,-0.013601718470454216,0.014820692129433155,0.05186515301465988,-0.03491682559251785,1.5461531792058174,-0.30233998227627756,-3.034507678632196
1687021274.986155,0.9544486403465271,0.2976433038711548,-0.02088376134634018,0.0008124709129333496,-0.053105950355529785,-0.0057581644505262375,-0.1274157166481018,0.052979063242673874,-0.015000110492110252,1.5489193712779317,-0.3022231163224004,-3.032611163547634
1687021274.989783,0.9547602534294128,0.29686471819877625,-0.017437761649489403,0.008404970169067383,-0.011265933513641357,-0.01933598518371582,0.04345548897981644,0.05886118859052658,0.015515921637415886,1.5525343367313569,-0.3014076719414882,-3.028057000759484
1687021275.020948,0.9554091095924377,0.29476362466812134,-0.01754465140402317,0.003651559352874756,-0.0065250396728515625,-0.015719594433903694,0.19931970536708832,0.06835784018039703,0.01796356588602066,1.5524348949187554,-0.2992081300576822,-3.0371811616561706
1687021275.084327,0.9556078910827637,0.29407429695129395,-0.01827150210738182,0.0019420981407165527,0.013710767030715942,-0.011315345764160156,0.23340007662773132,0.051983218640089035,0.002875559963285923,1.5516783638673823,-0.2984868581270209,-3.047894826248759
1687021275.1820822,0.9557955861091614,0.2931050956249237,-0.023322371765971184,-0.0016484260559082031,0.0737161934375763,-0.05178147554397583,0.8872984647750854,0.056657686829566956,0.00366971455514431,1.5464001649974168,-0.297472957155325,-3.074419597698529
1687021275.19962,0.9559134840965271,0.2901746928691864,-0.04503488540649414,-0.023433685302734375,0.211168110370636,-0.056878626346588135,3.3489928245544434,0.17837773263454437,-0.013033964671194553,1.5237192524479761,-0.2944093884397022,3.1142789003733626
1687021275.231258,0.9554926156997681,0.27599674463272095,-0.1042090579867363,0.023587465286254883,0.20442622900009155,-0.04818057268857956,6.289721965789795,0.32166555523872375,-0.1402977705001831,1.4621625199503483,-0.2796265664866806,2.8531587298498886
1687021275.3364239,0.955856204032898,0.23997513949871063,-0.169560506939888,0.0358123779296875,-0.016906917095184326,0.058735862374305725,6.134402751922607,0.4117399752140045,-0.15322457253932953,1.3952314393802439,-0.24234024720113065,2.520176761056927
1687021275.3525782,0.9587839841842651,0.1915663182735443,-0.20984601974487305,0.022005021572113037,0.01737228035926819,0.00669039785861969,5.460964679718018,0.4587540030479431,-0.08507140725851059,1.3553271335942851,-0.1927577656812667,2.2361770825875005
1687021275.383784,0.9639379382133484,0.1320571005344391,-0.2310507744550705,0.01523369550704956,0.043754637241363525,0.09028835594654083,6.082993984222412,0.6203113794326782,-0.05500565096735954,1.3355400818812202,-0.13244396790274543,1.952314716522049
1687021275.476907,0.9720324873924255,0.0692560151219368,-0.2244020700454712,0.04798692464828491,-0.0426141694188118,0.1733155995607376,5.793120861053467,0.8731811046600342,-0.16782712936401367,1.343912623808408,-0.06931149469147338,1.6618132460885475
1687021275.4843721,0.98172527551651,0.025038162246346474,-0.1886494904756546,0.07955396175384521,-0.12298436462879181,0.20825695991516113,4.694936275482178,1.0871061086654663,-0.3288358151912689,1.3809493143606395,-0.025040779040133472,1.396605945215809
1687021275.538725,0.9909389019012451,0.013898381032049656,-0.13359147310256958,0.08379846811294556,-0.036695048213005066,0.19714422523975372,3.077993869781494,1.3016325235366821,-0.4612886607646942,1.436791235601685,-0.013898828407892147,1.2064621834865579
1687021275.632523,0.9973366260528564,0.02618945762515068,-0.06806976348161697,0.09717613458633423,0.09552984684705734,0.1003115251660347,2.8889901638031006,1.4661881923675537,-0.6233206391334534,1.502650468268351,-0.02619245224753126,1.0641126265135883
1687021275.648827,0.9982874393463135,0.05844647437334061,0.0024540808517485857,0.09164774417877197,0.22297130525112152,0.12452948093414307,3.418290853500366,1.6479418277740479,-0.9370541572570801,1.5732546126057383,-0.05847979999649527,0.9061369348689404
1687021275.681405,0.9902850985527039,0.12090449035167694,0.06868439167737961,0.13665270805358887,0.1640990972518921,0.09594261646270752,3.167327642440796,1.6148998737335205,-1.400534987449646,1.6400436247386085,-0.12120100676630476,0.7376663255297707
1687021275.784267,0.9690212607383728,0.21381545066833496,0.12361463904380798,0.14377164840698242,0.10793130099773407,0.025311104953289032,2.1048965454101562,1.5287452936172485,-1.9414888620376587,1.697677521659195,-0.21547907936065375,0.610061164742616
1687021275.801115,0.9290167689323425,0.33098867535591125,0.16545243561267853,0.19506776332855225,0.22522464394569397,-0.06338642537593842,1.9893834590911865,1.2910808324813843,-2.387590169906616,1.7470425949421173,-0.3373511052684578,0.5277106225721674
1687021275.866829,0.869057297706604,0.45845726132392883,0.18589261174201965,0.20322346687316895,0.07059535384178162,-0.08457435667514801,1.0594663619995117,0.91279536485672,-2.7052001953125,1.7815222367897756,-0.4762584971110462,0.4761973102014008
1687021275.8794231,0.7921525239944458,0.5780127644538879,0.1959478110074997,0.2176436185836792,-0.054941534996032715,-0.09914612770080566,0.21663637459278107,0.45344749093055725,-2.7235107421875,1.8132899044057842,-0.6162913141429639,0.46975180281358414
1687021275.923415,0.7042710781097412,0.677801251411438,0.21115835011005402,0.18993985652923584,-0.13414591550827026,-0.10034903883934021,-0.47546955943107605,0.08562861382961273,-2.5968689918518066,1.8620929225227192,-0.7447680018539653,0.5240572584781124
1687021276.019059,0.6126327514648438,0.754327654838562,0.2359466552734375,0.10846710205078125,-0.07200044393539429,-0.09716808795928955,-0.6225526332855225,-0.008369337767362595,-2.3712480068206787,1.9384232112408057,-0.8546293629126274,0.6284380066933601
1687021276.037324,0.5258293151855469,0.8110899329185486,0.25619572401046753,0.039737582206726074,-0.2061859369277954,-0.10630875825881958,-0.3775502145290375,-0.009996706619858742,-2.033402919769287,2.024169554637964,-0.9460131075076303,0.7375438268370931
1687021276.072959,0.45024362206459045,0.8535952568054199,0.2620220482349396,0.057645171880722046,-0.27901047468185425,-0.12600532174110413,0.19203141331672668,-0.07227809727191925,-1.5928064584732056,2.097842620313115,-1.0228483040290746,0.8270259057079046
1687021276.16778,0.3941044807434082,0.8890473246574402,0.23297306895256042,0.031203776597976685,-0.32467055320739746,-0.08300971984863281,0.8107560873031616,-0.1898624300956726,-1.0080089569091797,2.10467970582708,-1.0952600783908777,0.8437688477427177
1687021276.1828299,0.3563985228538513,0.9153456687927246,0.1874084770679474,0.041245460510253906,-0.1790330410003662,-0.03279128670692444,1.3413441181182861,0.008134094998240471,-0.6127104759216309,2.054901352082179,-1.1563655594900526,0.7908792564346884
1687021276.291191,0.3349847197532654,0.9340265393257141,0.1240144819021225,-0.02088254690170288,-0.2020472288131714,-0.03011190891265869,1.1596341133117676,0.09065844863653183,-0.34179002046585083,1.925360381638375,-1.2055240737742903,0.6479318761054803
1687021276.307743,0.3218633234500885,0.9441019296646118,0.07124146819114685,-0.027872204780578613,-0.003977537155151367,-0.004392743110656738,1.3079098463058472,0.05044559761881828,-0.2429814636707306,1.7886251068337888,-1.2348596537670815,0.4992959550054294
1687021276.382946,0.313016802072525,0.9496962428092957,0.009867772459983826,0.016847729682922363,-0.042683422565460205,0.08266150951385498,1.0901473760604858,-0.16368107497692108,-0.2102622091770172,1.6023106274060186,-1.2522645314484466,0.3035742668822028
1687021276.397196,0.2970663607120514,0.9543150663375854,-0.03216021507978439,-0.031181901693344116,0.089111328125,-0.06316149234771729,0.7323687076568604,-0.1700853556394577,-0.39642786979675293,1.4629569394736992,-1.2673591115476657,0.1662078299718005
1687021276.467531,0.2766166031360626,0.9588956236839294,-0.06326396018266678,-0.020146876573562622,-0.02479839324951172,-0.0011129379272460938,0.3933630883693695,-0.4910297989845276,-0.48460522294044495,1.3459569759966505,-1.2830842985612143,0.0622869809714769
1687021276.481744,0.2522951066493988,0.9629784822463989,-0.0949721708893776,-0.014288455247879028,-0.04047781229019165,0.07525776326656342,0.4850054085254669,-0.33413010835647583,-0.36524975299835205,1.2107700293996915,-1.2978413696266027,-0.05540577386570274
1687021276.525089,0.23710262775421143,0.9644436836242676,-0.11675011366605759,0.04166020452976227,-0.12733131647109985,0.2474415898323059,0.2011578232049942,-0.07792453467845917,-0.13387443125247955,1.113244537571226,-1.3033302805175482,-0.14628676227621043
1687021276.6538382,0.22844867408275604,0.966242790222168,-0.11910510808229446,0.0010130107402801514,0.08916181325912476,-0.06706744432449341,0.12688492238521576,-0.012600922025740147,-0.186217799782753,1.0902033015193473,-1.3102245080840027,-0.17027044402919858
1687021276.6709461,0.22037015855312347,0.966356635093689,-0.13263465464115143,0.014065966010093689,-0.00821143388748169,0.02905796468257904,0.29219818115234375,-0.059126969426870346,-0.14361301064491272,1.0290014173548165,-1.3106665964773292,-0.23038402225158758
1687021276.73696,0.2147691696882248,0.966060221195221,-0.14353413879871368,-0.009980857372283936,-0.026073038578033447,0.02874217927455902,0.21345065534114838,-0.015840746462345123,-0.06630344688892365,0.9816512439473888,-1.3095167450184348,-0.27675536497625486
1687021276.7504601,0.2123585343360901,0.9647785425186157,-0.15526078641414642,0.009931474924087524,-0.006679356098175049,-0.022412583231925964,0.2218131124973297,-0.045275334268808365,-0.040783900767564774,0.9394845986001851,-1.3046002617837111,-0.3196653958821575
1687021276.826061,0.20976732671260834,0.9642354846000671,-0.1620108187198639,0.02300553023815155,-0.00929480791091919,0.023201584815979004,0.028650932013988495,-0.04891303554177284,-0.03965245932340622,0.9131528491136243,-1.302543729550344,-0.3447326019616346
1687021276.83103,0.20909856259822845,0.9643369913101196,-0.1622704267501831,0.011772438883781433,-0.004650890827178955,-0.0009071081876754761,-0.013675397261977196,-0.00446789525449276,-0.011824289336800575,0.910832126977099,-1.302926966252072,-0.34591104673871015
1687021276.920628,0.2093975991010666,0.9640604853630066,-0.16352388262748718,-0.013764604926109314,0.004094362258911133,-0.024800121784210205,0.09511224925518036,0.015144244767725468,-0.023064827546477318,0.9077950048966938,-1.3018841280195104,-0.34888062849691814
1687021276.9360461,0.20911723375320435,0.9638009071350098,-0.1654011458158493,0.006321623921394348,-0.020914733409881592,0.010402336716651917,-0.025180431082844734,0.020083431154489517,-0.028389019891619682,0.9015984626308723,-1.3009089482410725,-0.3562404772531593
1687021276.974973,0.2079094648361206,0.963728129863739,-0.16733704507350922,0.01822584867477417,0.008271932601928711,-0.00017398595809936523,0.03816170245409012,0.01009506918489933,-0.016916653141379356,0.893101794294035,-1.3006359804997616,-0.36646752894732
1687021277.066859,0.20705942809581757,0.9641189575195312,-0.16613554954528809,0.0064110904932022095,0.006599366664886475,-0.02476722002029419,0.01788785494863987,0.026658331975340843,-0.019726555794477463,0.894619953915991,-1.3021043243407744,-0.36646286378255544
1687021277.082522,0.20580019056797028,0.964385986328125,-0.16615062952041626,-0.0030260682106018066,0.00518798828125,-0.0044427067041397095,0.001138879917562008,0.028926901519298553,-0.042988069355487823,0.8915960501759652,-1.3031121142033681,-0.37058561549935065
1687021277.121979,0.20438715815544128,0.964531421661377,-0.16704820096492767,0.014423921704292297,-0.020195484161376953,0.023005172610282898,-0.03625092655420303,0.026679016649723053,-0.02809939906001091,0.8855877235638702,-1.3036625214355018,-0.37818505995841717
1687021277.2201881,0.2033262699842453,0.9650701880455017,-0.16522081196308136,0.0045594722032547,0.021364688873291016,-0.001450955867767334,0.00916493684053421,0.01605175994336605,-0.014365345239639282,0.8884258159997694,-1.3057111463758257,-0.3764668496288284
1687021277.237436,0.20334650576114655,0.9651401042938232,-0.16478773951530457,0.00496654212474823,-0.0004641413688659668,0.005516454577445984,0.015382573939859867,0.011559185571968555,-0.011108499020338058,0.889758690730245,-1.3059780752606738,-0.37576698810709247
1687021277.370172,0.20333702862262726,0.9649274945259094,-0.16603899002075195,-0.0032637417316436768,-0.0027846693992614746,-0.0019145607948303223,0.030342573300004005,0.0013085901737213135,-0.0054725175723433495,0.8860328881749099,-1.3051670510573805,-0.38006617539417953
1687021277.430604,0.20332388579845428,0.9645722508430481,-0.16810613870620728,0.008605480194091797,0.0050626397132873535,0.014022842049598694,0.05889378860592842,-0.006973041221499443,0.003744682762771845,0.8799322093553757,-1.3038171284978013,-0.3864164429790552
1687021277.437762,0.20349213480949402,0.9642336368560791,-0.16983667016029358,0.003401815891265869,0.001769721508026123,-0.01629006862640381,0.020932825282216072,0.01885136589407921,-0.0031172181479632854,0.8753047682974672,-1.3025366179291322,-0.3918140533877549
1687021277.44297,0.2036917507648468,0.9643940329551697,-0.16868294775485992,0.020017430186271667,-0.0030750036239624023,0.009930416941642761,-0.031997859477996826,0.04627109318971634,0.01928236335515976,0.8791375997155886,-1.3031423771551458,-0.3893910803223516
1687021277.456699,0.20472212135791779,0.9641813039779663,-0.1686510294675827,-0.005015060305595398,0.015631258487701416,-0.02847731113433838,0.031156832352280617,0.03619919717311859,0.012263801880180836,0.8817079923914682,-1.302339369837962,-0.388298088520344
1687021277.481742,0.20565198361873627,0.9640259742736816,-0.16840751469135284,-0.012475654482841492,0.012093961238861084,0.004573822021484375,0.033890433609485626,0.03938326984643936,0.0024218906182795763,0.8846393573060819,-1.3017542711809769,-0.38680233199310177
1687021277.611141,0.20609819889068604,0.9637280702590942,-0.169563889503479,-0.001615077257156372,-0.012800276279449463,0.006752535700798035,-0.04563186690211296,0.024192512035369873,-0.0009738396038301289,0.8823463992343473,-1.3006357896729186,-0.39047470975243537
1687021277.617641,0.206769660115242,0.9639670252799988,-0.16737371683120728,0.002245277166366577,0.01099330186843872,0.00433349609375,0.008579441346228123,0.02723224274814129,0.02126275561749935,0.8903079516195433,-1.3015324990876398,-0.38350762467692073
1687021277.666174,0.2085151970386505,0.9633106589317322,-0.16897936165332794,0.00011827051639556885,-0.009041309356689453,-0.007885277271270752,-0.00035071512684226036,0.03302399814128876,0.03735404461622238,0.8897499286039839,-1.299076252719563,-0.38545128890561925
1687021277.823738,0.211146280169487,0.9629287719726562,-0.1678851842880249,0.004872411489486694,0.018730103969573975,0.027077019214630127,0.042681749910116196,0.04059944674372673,0.06165318936109543,0.8990422646088216,-1.2976570129912424,-0.3776599720326946
1687021277.843338,0.214008167386055,0.9618704319000244,-0.1703108698129654,0.0016596019268035889,-0.02287513017654419,-0.006736934185028076,0.007661627605557442,0.0653432309627533,0.03031923435628414,0.8986125607984611,-1.2937607579968695,-0.38096040777681894
1687021277.911411,0.21694748103618622,0.9619122743606567,-0.1663089543581009,0.007219448685646057,-0.03796207904815674,-0.010143756866455078,-0.09813906252384186,0.068356953561306,0.06414464116096497,0.9167642865023427,-1.2939136569411305,-0.3655614413099018
1687021277.916992,0.22078928351402283,0.9609708189964294,-0.16669413447380066,0.004201605916023254,-0.0074340105056762695,-0.025383517146110535,0.0625227838754654,0.08437719941139221,0.05441185459494591,0.9241080110379819,-1.290490320267946,-0.3618444008842597
1687021277.921516,0.2248150110244751,0.9604275822639465,-0.16442865133285522,0.007667914032936096,-0.01990652084350586,-0.010406598448753357,-0.10468413680791855,0.07813244313001633,0.09539098292589188,0.9393089285268043,-1.2885333606607967,-0.34999184919243814
1687021277.995319,0.23210209608078003,0.9595677852630615,-0.15924307703971863,0.009795546531677246,-0.0010107159614562988,-0.01818615198135376,0.0009491738164797425,0.07325397431850433,0.20521920919418335,0.9694665994381397,-1.2854626213344709,-0.32226510621577864
1687021278.0898,0.24662114679813385,0.9563499689102173,-0.15675696730613708,0.02146056294441223,-0.09772270917892456,0.012607157230377197,-0.10909482091665268,0.04660416394472122,0.39119407534599304,1.0045976358545405,-1.2742450604575952,-0.28829868257833197
1687021278.106,0.27094537019729614,0.9506807327270508,-0.15097923576831818,0.002034425735473633,-0.15289020538330078,0.01894490420818329,-0.08841719478368759,0.16235323250293732,0.6213175058364868,1.0624182086930107,-1.2554232445934346,-0.23332298561449258
1687021278.150765,0.3050991892814636,0.9416823387145996,-0.14194637537002563,0.03184539079666138,-0.13025051355361938,-0.01883554458618164,-0.10780416429042816,0.21649964153766632,0.7513583898544312,1.1353358910082885,-1.2275952545024782,-0.16677761318514825
1687021278.1623259,0.345954954624176,0.9281078577041626,-0.13758867979049683,-0.005470365285873413,-0.1122511625289917,0.006576672196388245,-0.10684946179389954,0.3346664011478424,0.9347326755523682,1.1922683122040245,-1.1892981281915764,-0.12120987495436951
1687021278.203032,0.393108606338501,0.9131556153297424,-0.10776098072528839,-0.0046045780181884766,-0.08905899524688721,0.022571086883544922,-0.46427643299102783,0.36037203669548035,1.0516014099121094,1.3032435840288823,-1.1509598095391602,-0.01934263535143264
1687021278.332639,0.4523673355579376,0.8880890011787415,-0.0816170871257782,-0.021291345357894897,-0.20972925424575806,0.07343830168247223,-0.6988494992256165,0.3799550533294678,1.3853126764297485,1.392294513297543,-1.0931710465051248,0.06026489271529904
1687021278.3377671,0.5204868912696838,0.851840615272522,-0.058830924332141876,0.0071163177490234375,-0.0629611611366272,-0.015357382595539093,0.0882578045129776,0.44679898023605347,1.7673780918121338,1.4582434640164528,-1.0194892482777824,0.11131110265879969
1687021278.4197001,0.5948014259338379,0.802381694316864,-0.04893605038523674,-0.021040499210357666,-0.14703208208084106,-0.047530051320791245,-0.06398046761751175,0.43738389015197754,1.8612987995147705,1.4887082862400676,-0.9312752817193446,0.12152706666527185
1687021278.437423,0.6687781810760498,0.7426053881645203,-0.03568144142627716,-0.06208866834640503,0.10708028078079224,-0.06905496120452881,0.5623330473899841,0.40995967388153076,2.001033067703247,1.5174936863684914,-0.8369522035289032,0.13154112417103833
1687021278.4728851,0.7437292337417603,0.6668193340301514,-0.047103941440582275,-0.035782456398010254,-0.09266167879104614,-0.0746307373046875,0.08672545850276947,0.2166106104850769,2.1016271114349365,1.5075460099212272,-0.7299324766727336,0.09555841581933625
1687021278.566661,0.8095902800559998,0.5855945944786072,-0.040528081357479095,-0.011341989040374756,-0.04114580154418945,-0.0992882251739502,-0.3893187940120697,-0.21693116426467896,2.28291654586792,1.5207780894869531,-0.6256133822047991,0.11568693800433556
1687021278.583043,0.8685119152069092,0.49343863129615784,-0.04696187376976013,0.07150578498840332,0.20416259765625,-0.14331525564193726,-0.19762907922267914,-0.6309516429901123,2.3224050998687744,1.5167772789716147,-0.5160387933893944,0.14329240301838037
1687021278.658741,0.9206650853157043,0.38474607467651367,-0.06592526286840439,0.02327406406402588,-0.13016852736473083,0.03145558387041092,-1.5812829732894897,-0.8798597455024719,2.603893280029297,1.4993122044889509,-0.3949327080880344,0.1916572432306195
1687021278.677274,0.959676206111908,0.26904064416885376,-0.08147720992565155,0.14481592178344727,0.04724344611167908,0.09313488751649857,-2.6571145057678223,-1.1755931377410889,2.646695375442505,1.4860987122511737,-0.2723968045778364,0.3144567364622932
1687021278.811156,0.9800455570220947,0.16985318064689636,-0.10325009375810623,0.262035071849823,-0.08008579909801483,0.24036550521850586,-5.545105457305908,-1.4985389709472656,2.2006876468658447,1.4658311828422552,-0.1706806896866966,0.5290113977727153
1687021278.818141,0.9832745790481567,0.11402306705713272,-0.14201992750167847,0.2733933925628662,0.1703091263771057,0.5210939645767212,-7.655197620391846,-1.933500051498413,1.6033576726913452,1.4273526545575705,-0.11427159856003692,0.8743551018419436
1687021278.901706,0.9733311533927917,0.12937970459461212,-0.18943968415260315,0.13074898719787598,0.21447709202766418,0.4467180371284485,-9.315678596496582,-1.9054677486419678,0.6772179007530212,1.3785692770450702,-0.12974340642290647,1.3071540496894563
1687021278.918602,0.9587829113006592,0.201507568359375,-0.2003248780965805,0.09495848417282104,0.1825561225414276,0.26459479331970215,-8.857194900512695,-1.6268422603607178,0.206889346241951,1.3648227975489935,-0.20289681571831433,1.7680166567456987
1687021278.922822,0.9475939869880676,0.26547810435295105,-0.1777268946170807,0.04035145044326782,0.15688514709472656,0.21743018925189972,-6.720448970794678,-1.2625455856323242,0.3134285807609558,1.3853943266864073,-0.2686997970370981,2.1629362280248507
1687021278.9533281,0.9451847672462463,0.2904798686504364,-0.1491551697254181,-0.016611218452453613,0.0566118061542511,0.019714772701263428,-4.673097610473633,-0.8074974417686462,0.4915587604045868,1.4142817022585812,-0.29472830453778703,2.4522692268072714
1687021279.0504642,0.948180615901947,0.2942001223564148,-0.11999940872192383,0.0636143684387207,0.022526592016220093,0.021946370601654053,-3.9735524654388428,-0.6117949485778809,0.4879121482372284,1.4449080407746815,-0.29861849856222955,2.6742471672289447
1687021279.065864,0.9522772431373596,0.29157182574272156,-0.09029773622751236,0.041283369064331055,-0.027259081602096558,0.015544839203357697,-3.5731823444366455,-0.44221994280815125,0.4924187660217285,1.4762560527120352,-0.29586963868012184,2.871728492196403
1687021279.104418,0.9574978947639465,0.2805677354335785,-0.06692817807197571,0.020422518253326416,0.10438099503517151,-0.03519897907972336,-2.259521484375,-0.3379947245121002,0.44908127188682556,1.5010107951843688,-0.2843855428986681,3.0270995127370024
1687021279.201974,0.9620481729507446,0.26714205741882324,-0.0556635744869709,0.011386215686798096,0.09912994503974915,-0.02633720636367798,-1.2918171882629395,-0.18321749567985535,0.331126868724823,1.5130013155671893,-0.2704260948377363,3.1178588643489875
1687021279.218518,0.9652465581893921,0.2563721239566803,-0.05071800947189331,-0.005316257476806641,0.1446593701839447,-0.053179141134023666,-0.33436429500579834,-0.06958448886871338,0.19107209146022797,1.51830050748473,-0.2592670090933896,-3.122617932181323
1687021279.2514591,0.9668986797332764,0.24963797628879547,-0.05280273035168648,0.002492249011993408,0.1451832503080368,-0.026787169277668,0.36639970541000366,-0.03135738894343376,0.09553711861371994,1.5162401103047878,-0.2523063805446858,-3.122813290863498
1687021279.349308,0.9673464298248291,0.24615100026130676,-0.060419514775276184,-0.009628593921661377,0.07780838012695312,-0.012807488441467285,0.5056559443473816,-0.017871761694550514,-0.010905565693974495,1.508418331198335,-0.24870705955633732,3.134085819994619
1687021279.35605,0.9668428301811218,0.24708206951618195,-0.06453946232795715,-0.0013735294342041016,0.03653307259082794,-0.00670391321182251,0.14780674874782562,-0.017174014821648598,-0.07030897587537766,1.5041424116753228,-0.2496678008721725,3.117909568590816
1687021279.439643,0.9657368063926697,0.25070860981941223,-0.06706339865922928,0.012732923030853271,0.023354530334472656,0.0015420988202095032,0.024670125916600227,-0.05464797466993332,-0.09962431341409683,1.5014648995188096,-0.25341216183103005,3.1141623805856664
1687021279.53738,0.9642199277877808,0.2557854652404785,-0.06966733932495117,0.0066661834716796875,-0.00023126602172851562,-0.006687693297863007,0.05520801618695259,-0.04881653934717178,-0.09918256849050522,1.4986691235893188,-0.258660107287665,3.1132440157373877
1687021279.552742,0.9627138376235962,0.2605140805244446,-0.07289982587099075,0.002831757068634033,-0.008515119552612305,0.003655374050140381,0.1301729381084442,-0.04526175558567047,-0.09580667316913605,1.4952173052656463,-0.2635546202388138,3.1082516432190164
1687021279.617515,0.9615294337272644,0.2639956474304199,-0.07594294846057892,0.013339221477508545,-0.031741589307785034,0.01182544231414795,0.07010471820831299,-0.03538213297724724,-0.07778559625148773,1.4919785382972912,-0.26716247202692023,3.1023703169960193
1687021279.632101,0.9606570601463318,0.2666151523590088,-0.07780945301055908,0.0024318695068359375,-0.0432417094707489,0.013112127780914307,-0.052721910178661346,-0.04176342487335205,-0.05607464537024498,1.489976681170874,-0.26987934402784475,3.102056103738061
1687021279.707024,0.9601444602012634,0.2681947946548462,-0.07870500534772873,0.0033870935440063477,-0.016668856143951416,-0.004104502499103546,0.026132069528102875,-0.022256212309002876,-0.04658912867307663,1.4890071411589316,-0.2715186716265337,3.103002463941479
1687021279.721143,0.9598655104637146,0.268993079662323,-0.07937759160995483,0.01041024923324585,-0.029872596263885498,-0.0005022212862968445,0.019289610907435417,-0.025919390842318535,-0.014067004434764385,1.4882874913900506,-0.2723474233383031,3.1015309485329605
1687021279.795382,0.9597873091697693,0.2685147523880005,-0.08190344274044037,0.0047817230224609375,-0.0156002938747406,0.013162493705749512,0.030438754707574844,-0.047437820583581924,0.009452036581933498,1.4856675714651149,-0.2718508312728101,3.0989620443078576
1687021279.800541,0.960110068321228,0.2667869031429291,-0.08374537527561188,-0.005749225616455078,-0.007585853338241577,0.003041572868824005,-0.0030765491537749767,-0.044584423303604126,0.028120461851358414,1.4837917668817895,-0.2700575407467541,3.09948223255054
1687021279.8551068,0.960464358329773,0.26496943831443787,-0.08543699234724045,-0.0009917616844177246,-0.008881151676177979,0.00912773609161377,0.0035715883132070303,-0.036583311855793,0.029839133843779564,1.482076000711898,-0.26817224095989534,3.099793072425093
1687021279.948703,0.9608724117279053,0.26310160756111145,-0.08661378175020218,0.005741417407989502,0.0014553368091583252,0.00650506466627121,0.046744756400585175,-0.007455518003553152,0.034554995596408844,1.480898512266959,-0.2662356865267935,3.098592630738501
1687021279.957551,0.9613037109375,0.2612625062465668,-0.08739010989665985,-0.0022736191749572754,0.013578832149505615,0.004641592502593994,0.11111367493867874,0.006862523965537548,0.022035006433725357,1.480137613224292,-0.26432990272265355,3.0954280546002493
1687021280.0087218,0.9615763425827026,0.26002922654151917,-0.08806625753641129,-0.007215440273284912,8.738040924072266e-05,0.009391844272613525,0.06108543649315834,0.016181811690330505,0.019160190597176552,1.4794658191590349,-0.2630524760614475,3.0906928929817195
1687021280.1376781,0.9618130922317505,0.2590818703174591,-0.08827292919158936,-0.00038743019104003906,0.005429267883300781,-1.4483928680419922e-05,0.036023180931806564,-0.00470997579395771,0.013968424871563911,1.4792750840063564,-0.26207148365484656,3.0877691007891994
1687021280.152662,0.9619748592376709,0.2587132155895233,-0.08759000152349472,1.5556812286376953e-05,0.00071677565574646,0.008564643561840057,-0.06983809173107147,0.00532144121825695,0.008341697975993156,1.4799944294160403,-0.2616898152389479,3.0895609594885998
1687021280.249749,0.9620936512947083,0.258552223443985,-0.08675577491521835,0.0031315088272094727,0.0013202428817749023,-0.0009213089942932129,-0.04777735099196434,0.006760169751942158,0.005876543000340462,1.4808656160444469,-0.26152317491233745,3.0924116129342925
1687021280.257114,0.9622257947921753,0.2585769593715668,-0.08520080149173737,0.005745828151702881,-0.018235772848129272,-0.0022626444697380066,-0.11891579627990723,0.014028557576239109,0.008154877461493015,1.4824811140203495,-0.26154876301385216,3.097449288332374
1687021280.340013,0.9624574780464172,0.2581530809402466,-0.08386059105396271,0.004736065864562988,-0.0030566155910491943,-0.005784869194030762,0.014041583985090256,0.012873810715973377,0.013229197822511196,1.4838840859556612,-0.2611099940266212,3.100197793085435
1687021280.356495,0.9628233313560486,0.25701195001602173,-0.08316273242235184,0.0035614967346191406,-0.006874591112136841,0.004091620445251465,-0.006671949755400419,0.014938026666641235,0.0241517536342144,1.4846363402668958,-0.25992900664131147,3.1002526449701993
1687021280.4606519,0.9631638526916504,0.2557027041912079,-0.08325672149658203,0.0024734139442443848,0.0033000409603118896,-0.012400694191455841,0.1029558777809143,0.02500663883984089,0.009714024141430855,1.4845697956304862,-0.2585745157746249,3.0969801879733745
1687021280.479362,0.9634166955947876,0.2550514340400696,-0.08232294768095016,0.005989372730255127,0.0006859004497528076,-0.0032789111137390137,0.03236914798617363,0.02931767702102661,0.007863260805606842,1.4855544393669036,-0.257900892399801,3.094963453169888
1687021280.5467582,0.9635194540023804,0.25482162833213806,-0.08183041960000992,0.0059323906898498535,0.0007478594779968262,-0.007754027843475342,0.019995523616671562,0.02042369544506073,0.0018356621731072664,1.486070973594741,-0.25766324732948304,3.0923720373343717
1687021280.5523992,0.9635554552078247,0.25464412569999695,-0.08195772767066956,-0.003823578357696533,0.030084878206253052,-0.00930517166852951,0.13278701901435852,0.007132568396627903,-0.007896260358393192,1.4859429563265227,-0.2574796862046423,3.089909730348227
1687021280.556292,0.963403046131134,0.25455376505851746,-0.08400409668684006,0.0011048316955566406,0.006554633378982544,-0.008693091571331024,0.16714133322238922,0.01227930560708046,-0.02361849881708622,1.4838211331600086,-0.25738625299111456,3.0807923243870623
1687021280.669019,0.9630644917488098,0.25523504614830017,-0.0858018696308136,0.01203310489654541,0.01838555932044983,-0.022199928760528564,0.25254905223846436,0.004837100859731436,-0.022143706679344177,1.4819383804493882,-0.25809080748931806,3.07224253180172
1687021280.686127,0.9626746773719788,0.2549481987953186,-0.09087880700826645,-0.007611751556396484,0.008800029754638672,-0.023974187672138214,0.3671223223209381,-0.02193787693977356,-0.023873696103692055,1.476672863178527,-0.2577941311923534,3.0545490032761755
1687021280.7566829,0.9620733261108398,0.25492414832115173,-0.09710047394037247,-0.007544577121734619,0.005482375621795654,-0.015951991081237793,0.3248227536678314,-0.047643594443798065,-0.03422733396291733,1.4702085974401733,-0.257769253288187,3.036741988089425
1687021280.769758,0.9612479209899902,0.25590988993644714,-0.1025300920009613,0.005869269371032715,-0.020054787397384644,-0.0019926950335502625,0.09942101687192917,-0.05799006298184395,-0.04489802196621895,1.464534567212389,-0.25878881564658573,3.0252811306053036
1687021280.8469281,0.9605311751365662,0.25654420256614685,-0.10754028707742691,0.017785966396331787,0.0003070235252380371,0.0011864304542541504,0.209451824426651,-0.07631145417690277,-0.019861377775669098,1.4593014538321494,-0.259445027994454,3.0183612342868322
1687021280.853708,0.960087776184082,0.25620394945144653,-0.11220984160900116,0.006403923034667969,-0.028313875198364258,0.006542608141899109,0.048774752765893936,-0.05680815503001213,-0.007634472101926804,1.4544495987647375,-0.2590930257056722,3.0120750435117882
1687021280.940504,0.9597004055976868,0.25611451268196106,-0.11567416787147522,-0.004057765007019043,-0.002330303192138672,0.004590094089508057,0.132315993309021,-0.04547427222132683,-0.015568960458040237,1.4508434347880104,-0.2590005019194671,3.0079763686543237
1687021280.9575028,0.9595921039581299,0.25445809960365295,-0.12014234066009521,0.012423336505889893,0.03460446000099182,-0.009038642048835754,0.5141900777816772,-0.014432733878493309,0.002914575394243002,1.446242964943411,-0.2572873136654461,2.9945246046466885
1687021280.9950309,0.9595991969108582,0.2468717247247696,-0.1349950134754181,-0.01593470573425293,0.1342623382806778,-0.04388386011123657,2.3255090713500977,0.05389714613556862,-0.025530913844704628,1.431034949961519,-0.24945073142855728,2.9320559417531844
1687021281.120098,0.9600561857223511,0.22095832228660583,-0.17166702449321747,-0.00392526388168335,0.20213741064071655,-0.04595392942428589,5.0062031745910645,0.2576342821121216,-0.07829345762729645,1.3938569126364315,-0.22279696526645906,2.7417039015145512
1687021281.136922,0.9613529443740845,0.1836332231760025,-0.20513267815113068,0.011455893516540527,-0.16507849097251892,0.05672559142112732,3.2607421875,0.18785519897937775,-0.0984601154923439,1.3605699161470532,-0.1846812595167155,2.518360692081667
1687021281.2066069,0.9624205231666565,0.15679332613945007,-0.22172649204730988,0.02692878246307373,0.06687001883983612,-0.026457786560058594,2.913454532623291,0.13175740838050842,-0.0011627909261733294,1.3443630593295437,-0.15744297926352796,2.3801614115683765
1687021281.219409,0.9641159772872925,0.11422424018383026,-0.23965197801589966,0.0028181076049804688,0.049197398126125336,-0.004931256175041199,4.058416843414307,0.15120266377925873,-0.01762492023408413,1.3271623701256385,-0.11447409179695377,2.2018321371104608
1687021281.297163,0.9660119414329529,0.0711079016327858,-0.2485247701406479,0.010489404201507568,-0.0189075767993927,0.06349658966064453,3.3436851501464844,0.20169609785079956,-0.015343723818659782,1.3189881910855399,-0.07116796629388869,2.023804382622112
1687021281.302668,0.969212532043457,0.026341872289776802,-0.24481219053268433,0.014460444450378418,0.10105373710393906,0.03849799931049347,4.383516311645508,0.32681822776794434,-0.020852206274867058,1.3233826596427885,-0.026344920497764514,1.8448820229718421
1687021281.390483,0.9743072986602783,-0.03169180452823639,-0.2229817658662796,0.020214736461639404,0.07905508577823639,0.08891791105270386,5.603665828704834,0.5040299892425537,-0.05630986765027046,1.3458091757012984,0.03169711186392932,1.595411088088173
1687021281.406781,0.9801849126815796,-0.07956062257289886,-0.18140392005443573,0.027856290340423584,-0.04991023242473602,0.14197511970996857,4.724157810211182,0.597367525100708,-0.14936597645282745,1.3877957936588612,0.07964479979132655,1.340050300890307
1687021281.443326,0.9864473938941956,-0.10013747215270996,-0.1299767792224884,0.026980280876159668,-0.03795459121465683,0.13449335098266602,3.707895517349243,0.7341859340667725,-0.36864250898361206,1.439788498447125,0.10030558664570437,1.1333933072301745
1687021281.5399342,0.9929094910621643,-0.09206364303827286,-0.07520024478435516,0.06533324718475342,0.023307502269744873,0.13280212879180908,3.0734007358551025,0.8100898861885071,-0.6776992082595825,1.4952033853786386,0.09219419367626554,0.9621295010766355
1687021281.554559,0.9980543255805969,-0.057716403156518936,-0.023582858964800835,0.07990270853042603,0.06159207969903946,0.09777098894119263,2.796565055847168,0.8478055000305176,-0.9917083382606506,1.5471718897119424,0.05774849532176959,0.8163429270695023
1687021281.5956311,0.9997081756591797,-0.0011575425742194057,0.024127105250954628,0.09275996685028076,0.1206643357872963,0.05473029613494873,2.6535449028015137,0.8582085371017456,-1.24976646900177,1.5949257916937607,0.001157542808140209,0.6790179686166289
1687021281.6909552,0.9955533146858215,0.07129990309476852,0.061561938375234604,0.08965170383453369,0.1106000617146492,0.013084053993225098,2.4760491847991943,0.7944470643997192,-1.414770245552063,1.6325545965119646,-0.07136045381532471,0.5580598736892534
1687021281.706987,0.9845908880233765,0.15280814468860626,0.08503195643424988,0.07288891077041626,0.03835390508174896,0.029073238372802734,1.9282914400100708,0.6909173727035522,-1.5872001647949219,1.6569453004212242,-0.1534091750079139,0.4511000268934934
1687021281.742859,0.9650877714157104,0.24264901876449585,0.09862442314624786,0.0927276611328125,0.12267681956291199,-0.018927820026874542,2.3121721744537354,0.6736583113670349,-1.717633843421936,1.6726349812818195,-0.24509554372395612,0.3569739361725624
1687021281.840787,0.9359112977981567,0.34040144085884094,0.09053636342287064,0.143327534198761,0.022681355476379395,-0.023321516811847687,2.254635810852051,0.42292970418930054,-1.9112335443496704,1.6672323139407734,-0.3473437869716695,0.24153647363193825
1687021281.847935,0.8960191607475281,0.43817824125289917,0.0717577412724495,0.1537548303604126,-0.05844813585281372,-0.03824950009584427,1.3209319114685059,0.18624435365200043,-2.0447189807891846,1.650710825260349,-0.45357098307565225,0.15711325433412124
1687021281.896632,0.845542848110199,0.531831681728363,0.047035086899995804,0.15541839599609375,0.0026378631591796875,-0.0837324857711792,0.8702191710472107,-0.08053398877382278,-2.0827839374542236,1.6263661466251156,-0.5607620400650225,0.10196285588433358
1687021281.9894671,0.7844849824905396,0.6196085810661316,0.02585615962743759,0.14315783977508545,-0.03707385063171387,-0.06128716468811035,0.19343800842761993,-0.2591586709022522,-2.109266519546509,1.603743805365783,-0.6682439110704746,0.07669837018659192
1687021282.005996,0.7144691348075867,0.6994804739952087,0.01615726202726364,0.1361168622970581,-0.03991931676864624,-0.04492008686065674,-0.3151373863220215,-0.4734271168708801,-2.0336105823516846,1.5934068326693809,-0.7746702527720196,0.08611743163551297
1687021282.079977,0.6376267671585083,0.7701820135116577,0.015856673941016197,0.047538578510284424,-0.04259735345840454,-0.03406047821044922,-0.4370027780532837,-0.4805661737918854,-2.1450324058532715,1.595659472532565,-0.8791264572412207,0.12008512399850337
1687021282.0863,0.5572295188903809,0.8302239179611206,0.01494723279029131,0.04218149185180664,-0.03351682424545288,0.0033785104751586914,-0.12238048017024994,-0.4301052987575531,-2.0055904388427734,1.5976140914206738,-0.9795092226036607,0.150924308574345
1687021282.137054,0.4791242182254791,0.8777245283126831,0.006284582428634167,0.026048511266708374,-0.16645145416259766,0.04803669452667236,-0.054070889949798584,-0.33339253067970276,-1.7791978120803833,1.5839123872278464,-1.0710925657011483,0.15842989149848982
1687021282.2306871,0.4055423438549042,0.9140693545341492,0.00357570918276906,0.0010129213333129883,-0.2070838212966919,0.06290674209594727,-0.1329180896282196,-0.297075092792511,-1.5555208921432495,1.5796132024939717,-1.1532072307728567,0.17153944642048458
1687021282.247289,0.3385992646217346,0.9409200549125671,0.004457342438399792,0.085106760263443,-0.14383149147033691,-0.07036006450653076,0.13045869767665863,-0.1946735978126526,-1.2778377532958984,1.5839596308890802,-1.2253370625736515,0.18308219523664407
1687021282.2841492,0.28754812479019165,0.9575992226600647,-0.017878470942378044,0.03586190938949585,-0.11665695905685425,-0.04971802234649658,0.5936935544013977,-0.3410940170288086,-0.9114503860473633,1.5087006873356852,-1.2785503111315109,0.1196070658901296
1687021282.377404,0.24988779425621033,0.966977059841156,-0.05011596530675888,0.05824826657772064,-0.14040839672088623,0.011251799762248993,0.5078451633453369,-0.4013667702674866,-0.6860114336013794,1.3728682561382564,-1.3130898487424636,0.0004173958066705252
1687021282.395454,0.22012612223625183,0.9715259671211243,-0.08764442801475525,0.005902349948883057,-0.035094261169433594,0.010221309959888458,0.8909274339675903,-0.2452065646648407,-0.5350357890129089,1.1918810257243153,-1.3315885586503604,-0.17003927880081834
1687021282.4697242,0.1967359483242035,0.9719855785369873,-0.1286037266254425,-0.006214633584022522,-0.13708573579788208,0.04170489311218262,0.6519476771354675,-0.28209346532821655,-0.4523327052593231,0.9918335446949469,-1.3335360777351295,-0.3627843037245466
1687021282.559912,0.17610770463943481,0.9709106683731079,-0.16223011910915375,-0.011236414313316345,-0.09310305118560791,0.028303667902946472,0.4982426166534424,-0.21721398830413818,-0.33804428577423096,0.8263921422435604,-1.3290053240522832,-0.5220584070583038
1687021282.5768352,0.15896408259868622,0.9703518152236938,-0.1820651888847351,-0.05213724076747894,-0.04255646467208862,-0.03264129161834717,0.3429025709629059,-0.3111410140991211,-0.2801991105079651,0.7177620952024879,-1.3266822730485175,-0.616676465921021
1687021282.64954,0.14344611763954163,0.9693745970726013,-0.19933855533599854,0.031175479292869568,-0.03309541940689087,0.01760639250278473,0.2911743223667145,-0.2595091462135315,-0.26109957695007324,0.6237664523921638,-1.3226712113890917,-0.6987642056391996
1687021282.655977,0.13231657445430756,0.9685713648796082,-0.21062196791172028,0.031074553728103638,-0.007618725299835205,0.230748251080513,0.19746001064777374,0.12351617217063904,-0.10415396094322205,0.5609102772575322,-1.3194214838373375,-0.7644082897659424
1687021282.660461,0.12961706519126892,0.9684780240058899,-0.21271967887878418,0.013464629650115967,0.018155217170715332,-0.07167363166809082,-0.024995431303977966,-0.06663459539413452,-0.01869031973183155,0.5472535601395548,-1.3190465473425634,-0.7802394156008252
1687021282.703251,0.12571606040000916,0.9687827825546265,-0.21367086470127106,0.017152026295661926,0.029019832611083984,0.03732502460479736,-0.034674022346735,-0.05597636103630066,-0.059362977743148804,0.5318190200699344,-1.3202729805236246,-0.7921453885959131
1687021282.79557,0.12279726564884186,0.9704891443252563,-0.20753681659698486,0.03775577247142792,0.012985467910766602,-0.018033921718597412,-0.08209645003080368,-0.022706374526023865,-0.040007591247558594,0.5342861075173704,-1.3272511030295702,-0.7879840663614046
1687021282.893474,0.12127134203910828,0.9710890054702759,-0.20561982691287994,0.010244198143482208,-0.024479448795318604,-0.005683928728103638,0.012912493199110031,0.012940035201609135,-0.03803212568163872,0.5328740706981879,-1.329751148151006,-0.7897576341856184
1687021282.908094,0.12021109461784363,0.9700640439987183,-0.21100908517837524,-0.01089709997177124,-0.023256361484527588,0.0016432106494903564,0.09065073728561401,0.015716468915343285,-0.04185928776860237,0.5178392739008355,-1.325494369036746,-0.8058896264674335
1687021282.975569,0.11784449219703674,0.9701961278915405,-0.2117363065481186,0.004653148353099823,0.026645362377166748,0.006688624620437622,-0.040134526789188385,-0.010513980872929096,-0.05089139938354492,0.5078676723875601,-1.3260387606874977,-0.8164058836589096
1687021282.9907598,0.11445754766464233,0.970944881439209,-0.21015645563602448,0.010832443833351135,0.023531556129455566,-0.0048857033252716064,0.029138201847672462,0.01457255333662033,-0.048403337597846985,0.49871116065292126,-1.3291480423947233,-0.8259368095439609
1687021283.065613,0.11289378255605698,0.9712391495704651,-0.2096410095691681,0.012899741530418396,-0.007845103740692139,0.005600467324256897,-0.008211035281419754,0.01300075463950634,-0.0336931049823761,0.4939789615277364,-1.3303809431709503,-0.8316485378292023
1687021283.196251,0.1133873239159584,0.9715306758880615,-0.20801766216754913,0.006592549383640289,-0.027011752128601074,0.014749780297279358,-0.11918016523122787,-0.003822167171165347,0.007799212355166674,0.4990619340064146,-1.3316084316345065,-0.8267132368115044
1687021283.212784,0.11405844986438751,0.9723637104034424,-0.20371446013450623,-0.0007160976529121399,0.04307818412780762,-0.011144578456878662,0.023053543642163277,0.011986090801656246,0.006429747678339481,0.5104074246983972,-1.3351501866829742,-0.8153403159948808
1687021283.285774,0.11418458074331284,0.9720214605331421,-0.20527054369449615,0.012066692113876343,0.02321767807006836,-0.0018064826726913452,0.031601760536432266,0.03020956926047802,-0.019353112205863,0.5076395694464773,-1.3336887140848006,-0.8192038642823127
1687021283.290341,0.114387147128582,0.9717974662780762,-0.2062167525291443,0.011833623051643372,0.006428182125091553,-0.004766583442687988,0.03220367804169655,0.02085503749549389,-0.0027787303552031517,0.5064397146558145,-1.3327371335991494,-0.8221094153778362
1687021283.2949739,0.11450918763875961,0.9712648391723633,-0.20864424109458923,-0.0033031031489372253,-0.016842782497406006,0.014933854341506958,0.03636965900659561,0.01852024532854557,-0.002357018878683448,0.5019406941350038,-1.3304887628643038,-0.8278355007296341
1687021283.336447,0.11432827264070511,0.9711740612983704,-0.2091652899980545,0.0016080737113952637,-0.0006997585296630859,-0.003908485174179077,-0.00480476301163435,-0.00015215342864394188,-0.009424249641597271,0.5002236805457287,-1.3301076742141171,-0.8298015225092368
1687021283.428196,0.11435142159461975,0.9714416265487671,-0.2079063206911087,0.008787065744400024,-0.009939491748809814,0.0028128325939178467,-0.04413321614265442,-0.014424211345613003,0.019529571756720543,0.5028540892368518,-1.3312328877050936,-0.8269609949430933
1687021283.4450788,0.11539656668901443,0.9722141027450562,-0.20367395877838135,0.019369125366210938,-0.011932909488677979,0.006530359387397766,-0.14115750789642334,-0.01332938577979803,0.027428241446614265,0.5154795781260324,-1.334510387159175,-0.8135810997153282
1687021283.523829,0.1167784333229065,0.972934901714325,-0.19940033555030823,-0.0032377541065216064,0.04520773887634277,-0.01472628116607666,0.023690395057201385,-0.016319938004016876,0.02873758226633072,0.5297998118165606,-1.337609464632109,-0.7976484610305552
1687021283.537586,0.11800267547369003,0.9725127816200256,-0.20073480904102325,0.006997354328632355,-0.00917959213256836,-0.0007575452327728271,-0.011907458305358887,-0.02215554565191269,0.021645985543727875,0.5314404240528244,-1.3357895023281845,-0.7948946210769129
1687021283.570179,0.11819494515657425,0.9725111126899719,-0.20062878727912903,0.006484664976596832,0.011741697788238525,-0.009957775473594666,0.013769852928817272,-0.019687505438923836,0.003357525449246168,0.5323829877234818,-1.3357825793620222,-0.7929834841869122
1687021283.699455,0.11785653233528137,0.9725748300552368,-0.20051893591880798,0.0020775943994522095,-0.0003306865692138672,-0.0014616698026657104,-0.005173388868570328,-0.01814056560397148,-0.00684584304690361,0.5313691072907963,-1.3360562581330342,-0.7931609245697946
1687021283.707135,0.11747965961694717,0.9727404117584229,-0.199936643242836,0.010190673172473907,0.0036389827728271484,-0.005950212478637695,-0.01603340543806553,-0.013310478068888187,-0.012967518530786037,0.5312403786064915,-1.3367691162479043,-0.7925719100838822
1687021283.792934,0.11715426295995712,0.9729036688804626,-0.19933165609836578,0.011980928480625153,-0.008304238319396973,-0.009194999933242798,-0.024964891374111176,-1.659872941672802e-05,-0.005395952146500349,0.5313525718142592,-1.3374743867703085,-0.7921945276336925
1687021283.808003,0.11711695045232773,0.9732977151870728,-0.1974211484193802,0.012399710714817047,-6.556510925292969e-07,-0.002194344997406006,-0.07707749307155609,-0.0045152101665735245,-0.0010587944416329265,0.5354297104414296,-1.3391846887605152,-0.787797442146027
1687021283.9123712,0.11738142371177673,0.9749496579170227,-0.1889309138059616,0.007588133215904236,-0.01729273796081543,0.0037959516048431396,-0.23101641237735748,-0.0194940697401762,0.009423207491636276,0.5559290402278382,-1.3464946020337047,-0.7659932783826506
1687021283.9282532,0.11905337125062943,0.9759567379951477,-0.1825779676437378,0.0005908608436584473,0.0025130510330200195,-0.005929172039031982,-0.04272405058145523,-0.016931932419538498,0.03918423131108284,0.5778280842163728,-1.3510682898216237,-0.7426400160252971
1687021283.99557,0.12151177227497101,0.9755895733833313,-0.1829204261302948,0.010522589087486267,-0.004627108573913574,0.006086289882659912,-0.031210847198963165,0.007875056937336922,0.049533676356077194,0.5863537604689875,-1.3493898485246618,-0.7334622230223873
1687021284.000706,0.12457398325204849,0.9756523966789246,-0.18050946295261383,0.013350255787372589,-0.006978750228881836,-0.0034962892532348633,-0.032770972698926926,0.0007329033687710762,0.07880400866270065,0.6040672440527497,-1.3496762235986466,-0.7152776374601647
1687021284.092099,0.12871302664279938,0.975399374961853,-0.17896611988544464,-0.01012168824672699,-0.03477144241333008,-0.003910526633262634,-0.048852335661649704,0.01489319745451212,0.08741754293441772,0.6234981777138613,-1.3485254831811624,-0.6957547426634483
1687021284.108119,0.13585728406906128,0.9748366475105286,-0.176737979054451,-0.010658890008926392,-0.06234586238861084,0.01816856861114502,-0.08858802914619446,0.02485155686736107,0.20574045181274414,0.6553578230337801,-1.345987042139406,-0.6639373297395514
1687021284.1787071,0.15245036780834198,0.9734007716178894,-0.1710253357887268,-0.0016782581806182861,-0.14779359102249146,0.016179099678993225,-0.13341760635375977,0.05551989749073982,0.46941065788269043,0.7280380952829812,-1.3396339967352706,-0.5914243784828908
1687021284.1926079,0.1805749535560608,0.9693124890327454,-0.1668107658624649,-0.029009371995925903,-0.11967271566390991,0.015001073479652405,-0.033772896975278854,0.0872245579957962,0.6421847343444824,0.824999644383461,-1.3224184373527303,-0.4952132159177963
1687021284.2344398,0.21759511530399323,0.962990939617157,-0.15906211733818054,0.011851310729980469,-0.16674160957336426,-0.0021317601203918457,-0.4663535952568054,0.09807534515857697,0.8539859652519226,0.9395662798969249,-1.2978874325640362,-0.3819076820201424
1687021284.295337,0.25962838530540466,0.9562278389930725,-0.13498669862747192,0.027587890625,0.023065924644470215,0.05150580406188965,-0.2893742024898529,0.21441198885440826,0.9760332703590393,1.0913378232174193,-1.2738273504096707,-0.23169315479249478
1687021284.3932118,0.3095795214176178,0.9462685585021973,-0.09346779435873032,0.023611396551132202,-0.13064062595367432,0.09183502942323685,-1.2957911491394043,0.3811817169189453,1.126344919204712,1.277580335220669,-1.2414952017630732,-0.05146447691764664
1687021284.409391,0.36993247270584106,0.9281705021858215,-0.04060816019773483,0.11517491936683655,0.08722537755966187,-0.026286419481039047,0.08173483610153198,0.4238303601741791,1.4806318283081055,1.4614622595035405,-1.189466432263957,0.12025071524598206
1687021284.476826,0.4445103704929352,0.8950943946838379,-0.03487588092684746,0.05046948790550232,-0.25367605686187744,0.05172151327133179,-0.5542739033699036,0.4557477533817291,1.8114646673202515,1.4924976309603428,-1.1086429225929675,0.12991350772428373
1687021284.490748,0.5215147137641907,0.8531383872032166,0.01330549642443657,0.030853450298309326,0.001872420310974121,-0.05706775188446045,-0.5187926292419434,0.5404872894287109,1.8723702430725098,1.596303968288099,-1.0219718962706916,0.21758064777871547
1687021284.567034,0.606561005115509,0.7942100167274475,0.036249782890081406,-0.027261078357696533,-0.16794365644454956,-0.13595080375671387,0.03925732523202896,0.3561374247074127,2.15647292137146,1.6304881265905935,-0.9177064119734254,0.23394086212473117
1687021284.572509,0.6873111128807068,0.7252628803253174,0.03996437415480614,-0.03556239604949951,0.038622498512268066,-0.07605147361755371,0.1627836525440216,0.3250279724597931,2.167423725128174,1.6288769046394325,-0.811416187517559,0.2080428149132803
1687021284.626205,0.7658516764640808,0.6413447260856628,0.046347130089998245,-0.0008065700531005859,-0.10002404451370239,-0.11385202407836914,-0.03743976354598999,0.0854342058300972,2.2057385444641113,1.6312397222844048,-0.6962496128027056,0.19934482126794356
1687021284.7226028,0.8385026454925537,0.5430247187614441,0.0451367050409317,0.008787333965301514,-0.11985284090042114,-0.1638500690460205,-1.0023101568222046,-0.2949710786342621,2.4627816677093506,1.6245745512720815,-0.5740350259842826,0.205833961829446
1687021284.738958,0.8986897468566895,0.4344024062156677,0.06042557954788208,0.08855390548706055,0.156036376953125,-0.09741294384002686,-1.4472377300262451,-0.7183870673179626,2.4893264770507812,1.6379326956189026,-0.4493747002605251,0.2794215016196702
1687021284.7713861,0.9482792019844055,0.31326985359191895,0.05126836150884628,0.1401759386062622,-0.02190333604812622,0.015122532844543457,-2.883568286895752,-1.2494354248046875,2.3495092391967773,1.6248083694321684,-0.3186342502501492,0.3766718093245293
1687021284.870563,0.9802834391593933,0.19593802094459534,0.02554480917751789,0.21365571022033691,0.07011418044567108,0.1849501132965088,-4.671792030334473,-1.7216212749481201,2.1457488536834717,1.596849026003764,-0.19721392326142886,0.5649066551441233
1687021284.877905,0.9935621023178101,0.10901939123868942,-0.030808135867118835,0.23432791233062744,0.1294601708650589,0.21116691827774048,-6.088381290435791,-2.147693634033203,1.2925615310668945,1.5397984979943176,-0.1092365101183846,0.8380087700481744
1687021284.926872,0.9895894527435303,0.09095756709575653,-0.1115330159664154,0.18808388710021973,0.12376406788825989,0.43820834159851074,-7.723014831542969,-2.2952475547790527,0.4547894299030304,1.458563596631521,-0.09108345375394954,1.1840460398747672
1687021285.025271,0.9747491478919983,0.14518535137176514,-0.1696617603302002,0.05787402391433716,-0.03161424398422241,0.39752113819122314,-8.455404281616211,-1.9127957820892334,-0.20303119719028473,1.3984659308401004,-0.14570030711567056,1.5884467826879067
1687021285.0432072,0.9573277235031128,0.23314259946346283,-0.17078709602355957,0.05471152067184448,0.07366587221622467,0.2838393449783325,-7.700756549835205,-1.456350326538086,-0.32287922501564026,1.394253777107548,-0.23530809085070425,1.9965985685380698
1687021285.106948,0.9459139108657837,0.2925300896167755,-0.14025993645191193,-0.0007541179656982422,0.05172345042228699,0.14140422642230988,-5.77231502532959,-0.9981703162193298,0.051119256764650345,1.4235891442793829,-0.2968715919788812,2.3375914720314466
1687021285.120317,0.9443730711936951,0.31151118874549866,-0.10545209050178528,0.05930417776107788,-0.01314079761505127,-0.09048610925674438,-4.228634834289551,-0.7604374289512634,0.4014630913734436,1.4595934000605344,-0.31678293443590905,2.5958939544796147
1687021285.1640801,0.9482987523078918,0.306236207485199,-0.08335931599140167,0.02280104160308838,0.03556069731712341,-0.1242976188659668,-3.008331298828125,-0.6448025107383728,0.4914834499359131,1.483117627793253,-0.3112367572806484,2.7810248819153376
1687021285.2630448,0.9532688856124878,0.293148010969162,-0.07309366017580032,0.016472935676574707,0.013141721487045288,-0.054149456322193146,-2.2646405696868896,-0.5766955018043518,0.5196577310562134,1.4942692123011427,-0.2975178372890412,2.920737539211592
1687021285.279653,0.9578274488449097,0.2786233723163605,-0.07025465369224548,0.025708377361297607,0.0476248562335968,-0.04211116582155228,-1.6799075603485107,-0.4680864214897156,0.3914918005466461,1.4975795158856502,-0.28236042095473207,3.023153905802093
1687021285.312354,0.9612091779708862,0.26656976342201233,-0.07083330303430557,0.011858940124511719,0.10218939185142517,-0.005582801997661591,-0.9368976354598999,-0.3136705756187439,0.29736632108688354,1.4972374217695805,-0.2698322433956865,3.094074077974384
1687021285.409604,0.963782012462616,0.2558644115924835,-0.07521554082632065,-0.002417445182800293,0.08272811770439148,0.006230480968952179,-0.24243077635765076,-0.172090083360672,0.21228212118148804,1.4929121237255851,-0.2587417701117847,3.1231419931763673
1687021285.425692,0.9656496047973633,0.24711044132709503,-0.08035703003406525,-0.0016146302223205566,0.07936663925647736,0.04025685787200928,0.13690966367721558,-0.0651068240404129,0.15131203830242157,1.4877721018860994,-0.2496970793009735,3.1261935475958857
1687021285.464257,0.9669536352157593,0.24083875119686127,-0.08364975452423096,-0.005253255367279053,0.03893117606639862,0.04014688730239868,0.11494799703359604,-0.006844677496701479,0.09156361222267151,1.484502613378581,-0.24322995174508022,3.119847680877171
1687021285.560669,0.9676224589347839,0.238136887550354,-0.08365197479724884,-0.009919881820678711,0.013053327798843384,0.03125321865081787,0.010815608315169811,0.03433791175484657,0.03329305723309517,1.4845596922790605,-0.24044710730483576,3.11653259985235
1687021285.577334,0.9677824974060059,0.23822127282619476,-0.08153142780065536,-0.0029847025871276855,0.050337716937065125,0.014301128685474396,0.09993749111890793,0.048619382083415985,-0.015138527378439903,1.4867491763593261,-0.24053397832536558,3.1136889785464468
1687021285.6126509,0.9675042629241943,0.24024289846420288,-0.07886070758104324,0.01565009355545044,0.020270466804504395,0.003756873309612274,0.02849780023097992,0.0515909343957901,-0.04533497989177704,1.4894667010551732,-0.2426160639391486,3.1104042795068927
1687021285.708076,0.9668555855751038,0.24343465268611908,-0.07700569182634354,0.003786444664001465,0.007007881999015808,-0.017049551010131836,0.08416976034641266,0.035834696143865585,-0.04770345985889435,1.4913185963880196,-0.24590546492273077,3.1086148108505647
1687021285.724021,0.9662554860115051,0.2456977367401123,-0.07734812796115875,0.0015177726745605469,-0.0020606517791748047,-0.02213924378156662,0.1754511594772339,0.035919830203056335,-0.06153478845953941,1.4909173012224324,-0.2482394331416936,3.1005764297121017
1687021285.861409,0.9654557704925537,0.24859808385372162,-0.07806394249200821,0.006071209907531738,-0.023714035749435425,-0.013336293399333954,0.07086212188005447,0.014958000741899014,-0.058125343173742294,1.4901147599945606,-0.251232638859622,3.0933606570804497
1687021285.877472,0.9648884534835815,0.2502453923225403,-0.07979686558246613,0.0011149048805236816,-0.025941163301467896,-0.018851280212402344,0.06468035280704498,-0.023062441498041153,-0.028521444648504257,1.4882834890088201,-0.2529337173768936,3.0897324286629475
1687021285.944512,0.9647555947303772,0.2495415061712265,-0.08352041244506836,-0.0010563135147094727,-0.02175825834274292,-0.015799105167388916,0.13604547083377838,-0.04686737433075905,0.005317678675055504,1.48444005900468,-0.25220674719599784,3.084549187555796
1687021285.9570332,0.9648334383964539,0.24778632819652557,-0.08773904293775558,0.006037354469299316,-0.03018072247505188,-0.0015401765704154968,0.07944407314062119,-0.058611467480659485,0.025737466290593147,1.4801087774942572,-0.2503946526984865,3.078497170534513
1687021286.073265,0.9650777578353882,0.24527393281459808,-0.09200845658779144,0.003885805606842041,-0.01683458685874939,-0.007189035415649414,0.08585403114557266,-0.060659971088171005,0.038715049624443054,1.4757457446046234,-0.24780225417396984,3.073504855931501
1687021286.091022,0.9655115604400635,0.24231627583503723,-0.0952380895614624,0.00023239850997924805,-0.008170127868652344,-0.000816047191619873,0.06217112019658089,-0.05090072751045227,0.047972530126571655,1.472474360515486,-0.24475257468353548,3.0713683280931656
1687021286.15491,0.9659244418144226,0.2394271194934845,-0.09830841422080994,-0.004117250442504883,-0.0058607906103134155,0.0063588619232177734,0.08407699316740036,-0.04417669028043747,0.046852339059114456,1.4693690665320753,-0.24177576017078678,3.068543930840257
1687021286.168556,0.966364860534668,0.23652587831020355,-0.10096676647663116,-0.0015517473220825195,-0.0007928311824798584,0.014418847858905792,0.09596782922744751,-0.022184131667017937,0.03941705822944641,1.4666930365964912,-0.23878870703653104,3.0634497138186054
1687021286.172155,0.9667189121246338,0.2346736341714859,-0.1018969938158989,0.013231098651885986,-0.009499624371528625,0.022062942385673523,-0.04328397661447525,-0.014675969257950783,0.03778800368309021,1.4657791133632017,-0.23688281580973056,3.062542404118342
1687021286.24502,0.967079222202301,0.2329709380865097,-0.10238354653120041,-0.00772857666015625,0.016327232122421265,0.007061824202537537,0.047267138957977295,-0.003993408754467964,0.03414546325802803,1.4653203886982693,-0.23513156342189567,3.062253107625318
1687021286.372658,0.9673761129379272,0.23162966966629028,-0.1026204526424408,-0.006606578826904297,0.00820799171924591,0.01810193806886673,0.04387271776795387,0.010695611126720905,0.002259370870888233,1.4651103448386744,-0.233752579770697,3.0596104524011936
1687021286.389075,0.9673703908920288,0.23207691311836243,-0.10165958851575851,0.004034519195556641,0.005014181137084961,0.006276845932006836,0.004236269276589155,0.032194335013628006,-0.008957596495747566,1.4660920479428823,-0.23421235816338754,3.0589091732048224
1687021286.4930449,0.9673984050750732,0.23276253044605255,-0.09980969876050949,0.010979890823364258,-0.006947651505470276,-0.004163756966590881,0.01593482680618763,0.025714773684740067,-0.011175344698131084,1.467986781318002,-0.23491727335155943,3.058790822904276
1687021286.5055661,0.9674807190895081,0.2328491061925888,-0.09880389273166656,0.007098019123077393,-0.020767182111740112,0.0023072436451911926,-0.01594933681190014,0.011297752149403095,0.001495709759183228,1.4690242414141355,-0.23500629680824386,3.0578684301703163
1687021286.510847,0.9676424860954285,0.2324012964963913,-0.09827238321304321,0.0024501681327819824,-0.009500890970230103,-0.008340828120708466,0.036245156079530716,0.014573972672224045,0.007637491449713707,1.4695847827750899,-0.23454584843136264,3.0572285780243535
1687021286.610368,0.9678555130958557,0.2314889281988144,-0.09832867234945297,0.0015352964401245117,-0.010862067341804504,-0.008162498474121094,0.04291939362883568,0.011839084327220917,0.007508062291890383,1.469549337505411,-0.23360791059031405,3.0550524892904667
1687021286.626775,0.9680858850479126,0.2306254357099533,-0.09808915108442307,0.005134880542755127,-0.01349283754825592,-0.0029851198196411133,-0.00917896069586277,0.00756817264482379,0.02468704804778099,1.4698181648284274,-0.23272039447288762,3.0547719984939
1687021286.76189,0.9684436321258545,0.229123055934906,-0.09807820618152618,0.005112767219543457,-0.013623148202896118,-0.008382439613342285,-0.013788004405796528,-0.004868878982961178,0.028247296810150146,1.4698664067642657,-0.23117668056510884,3.0554076282003906
1687021286.778915,0.9687584042549133,0.22752352058887482,-0.09869293123483658,0.0036078691482543945,-0.003692314028739929,-0.008271276950836182,0.035869963467121124,-0.005622819531708956,0.02478618547320366,1.4692709031169935,-0.2295337456907634,3.0547365120797907
1687021286.782809,0.969021737575531,0.22607022523880005,-0.09944385290145874,0.0038938522338867188,-0.007823735475540161,-0.003873467445373535,0.023834029212594032,-0.004137929528951645,0.01957271434366703,1.4685313859317455,-0.22804156279466867,3.052772822902785
1687021286.880044,0.9692772030830383,0.22479060292243958,-0.09985475987195969,0.0037300586700439453,-0.0023173987865448,-0.004515424370765686,0.012670588679611683,-0.0047307489439845085,0.01811916008591652,1.4681386533496783,-0.22672813786013518,3.0521745975509607
1687021286.894508,0.9695231318473816,0.22352972626686096,-0.10029662400484085,0.0013477802276611328,0.0020562410354614258,0.0042729973793029785,0.026456087827682495,-0.006189539562910795,0.02365986816585064,1.4677135672494468,-0.2254343307845624,3.05133117076742
1687021286.898745,0.9697555303573608,0.22249142825603485,-0.10035745054483414,0.0012068748474121094,-0.005984455347061157,0.0018618777394294739,-0.016189733520150185,-0.002359559293836355,0.025551777333021164,1.467676034546404,-0.2243692131029685,3.051815795799678
1687021286.9659019,0.9699962139129639,0.22145609557628632,-0.10032235085964203,0.006993472576141357,-0.005422130227088928,0.0029864907264709473,-0.022373858839273453,0.0001246372703462839,0.023376774042844772,1.467737240533663,-0.22330738684542162,3.0525434745466358
1687021286.971451,0.9702580571174622,0.22031275928020477,-0.10030750185251236,0.011828124523162842,-0.0001436173915863037,0.006908342242240906,-0.00871219765394926,-0.013909600675106049,0.030051056295633316,1.4677800043420373,-0.22213509317413635,3.053469201584652
1687021287.06425,0.9705806970596313,0.21894508600234985,-0.10018027573823929,-0.002196967601776123,-0.004070788621902466,-0.002541959285736084,-0.011030390858650208,-0.004715924151241779,0.029572751373052597,1.4679437001091207,-0.2207331918766105,3.054442169697951
1687021287.083781,0.9707838892936707,0.21798963844776154,-0.10029471665620804,0.003062427043914795,-0.006151854991912842,-0.002122335135936737,-0.009257524274289608,-0.004852543585002422,0.01872130110859871,1.4678484426304288,-0.21975410096580986,3.0546059523397355
1687021287.1454182,0.9709123969078064,0.21742716431617737,-0.10027205944061279,0.009418904781341553,-0.0016220808029174805,0.0008457303047180176,0.0017615710385143757,-0.005167063791304827,0.013382329605519772,1.467885065859357,-0.2191777988859275,3.05529795204078
1687021287.1580791,0.9710942506790161,0.21657846868038177,-0.10034701973199844,0.005880117416381836,-0.007258370518684387,-0.0040994808077812195,0.005859909579157829,0.012833774089813232,0.013388454914093018,1.4678278168983199,-0.21830838122647442,3.055174446988145
1687021287.203511,0.9712628722190857,0.21584607660770416,-0.10029371827840805,-0.00031572580337524414,-0.0005597919225692749,-0.003984928131103516,0.06035679578781128,0.012654455378651619,0.015425905585289001,1.467899868716884,-0.2175582544571289,3.053996848561554
1687021287.297461,0.9714314937591553,0.2148323506116867,-0.10083606094121933,0.0019419193267822266,-0.011447891592979431,0.00449196994304657,0.04253363236784935,0.008358332328498363,0.00806526280939579,1.4673652343868426,-0.21652017393053133,3.050442140086135
1687021287.312539,0.9716104865074158,0.2139180600643158,-0.10105597227811813,0.004173874855041504,0.00014756619930267334,-0.0034057646989822388,0.048356637358665466,0.004065316636115313,0.02030261978507042,1.4671602303469673,-0.21558411084110446,3.0488094283445144
1687021287.352567,0.9718303680419922,0.21259456872940063,-0.10173146426677704,0.0030993223190307617,-0.004571467638015747,0.006516516208648682,0.011056269519031048,-0.003752658609300852,0.019718656316399574,1.4664959296409625,-0.2142294690899789,3.0461965128728465
1687021287.478651,0.9719623327255249,0.21178579330444336,-0.10215472429990768,0.002845168113708496,0.004797443747520447,-0.0044126957654953,-0.0014015539782121778,-0.0106714628636837,0.0101822754368186,1.4660792544721968,-0.21340184721547548,3.0465452484066775
1687021287.495143,0.9720141887664795,0.21132370829582214,-0.1026177704334259,0.0007334351539611816,0.0030775368213653564,-0.004727885127067566,0.02757585607469082,-0.008087752386927605,0.0023447254206985235,1.465613646425753,-0.21292905656448569,3.0461627923938317
1687021287.600008,0.9719439148902893,0.21144728362560272,-0.10302940756082535,0.004237055778503418,0.0014128535985946655,0.0002918839454650879,0.009114735759794712,-0.0024031461216509342,-0.0005586527404375374,1.465187268501867,-0.21305548751664835,3.045248977338029
1687021287.6157122,0.9718608856201172,0.21173858642578125,-0.10321375727653503,0.004259049892425537,-0.0004195868968963623,0.003955245018005371,-0.0018526047933846712,0.003307115053758025,-0.010805297642946243,1.464990736185559,-0.21335353937651663,3.0447052281100935
1687021287.692274,0.9717437624931335,0.2123783379793167,-0.10300333797931671,0.0024842023849487305,-0.002280011773109436,-0.006356492638587952,0.021308552473783493,0.009195186197757721,-0.013201477006077766,1.465192207573801,-0.21400818090363252,3.044561615253362
1687021287.707862,0.971615731716156,0.21285322308540344,-0.10322994738817215,0.0019407272338867188,-0.0021445751190185547,0.00011098384857177734,0.03528846055269241,-0.005925620440393686,-0.010928736068308353,1.4649477580280428,-0.21449417315112376,3.0424760175345047
