Timestamp,gravityX,gravityY,gravityZ,accelerationX,accelerationY,accelerationZ,rotationRateX,rotationRateY,rotationRateZ,attitudeRoll,attitudePitch,attitudeYaw
1687015869.5442681,0.08674808591604233,0.3230666518211365,-0.9423919916152954,0.00025751441717147827,-0.006462067365646362,0.007836997509002686,0.061687469482421875,-0.030344108119606972,0.008522965013980865,0.09179227317101438,-0.32896811368137996,0.6939428993332719
1687015869.550785,0.08675892651081085,0.32146772742271423,-0.9429376125335693,-0.0004399716854095459,0.005985885858535767,-0.019983530044555664,0.03365960717201233,0.010348815470933914,-0.004720868542790413,0.09175085891354401,-0.3272790901275165,0.6940755367967534
1687015869.63575,0.08723459392786026,0.3223632872104645,-0.9425879716873169,0.001525774598121643,-0.020056188106536865,-0.012673258781433105,-0.056866295635700226,0.010032698512077332,-0.02216377481818199,0.09228508024004452,-0.32822499731176075,0.6938721985845867
1687015869.648236,0.08718843758106232,0.3249235153198242,-0.9417127370834351,-0.006469450891017914,0.025601357221603394,-0.013487458229064941,-0.049903638660907745,0.033658310770988464,-0.007989631965756416,0.09232176609645992,-0.3309308542256353,0.6935124579402813
1687015869.728574,0.08851756155490875,0.32522353529930115,-0.9414851665496826,0.01035938411951065,-0.006665825843811035,0.002718687057495117,-0.04432706907391548,0.009731494821608067,-0.0028366821352392435,0.09374350051635158,-0.33124811427559725,0.6934436000574856
1687015869.744114,0.08857176452875137,0.32738199830055237,-0.9407316446304321,0.00424744188785553,0.00020891427993774414,4.2557716369628906e-05,-0.0490751750767231,-0.006178140640258789,-0.00856986828148365,0.0938752574617294,-0.33353156560490793,0.692995899594425
1687015869.7809381,0.08983535319566727,0.32724741101264954,-0.940658688545227,0.011864468455314636,-0.0013502240180969238,0.0030518770217895508,0.025854282081127167,0.023398039862513542,0.006452090572565794,0.09521383149131937,-0.33338910935263244,0.6932757173183791
1687015869.8794332,0.0894964262843132,0.32793495059013367,-0.9404515027999878,-0.006137676537036896,-0.004601240158081055,0.005408167839050293,0.008663266897201538,0.022829098626971245,0.0010287631303071976,0.09487753791005614,-0.3341168193432321,0.6931239373291215
1687015869.894967,0.09000962227582932,0.3285028338432312,-0.9402043223381042,0.006395399570465088,0.008273899555206299,-0.008953392505645752,-0.013484068214893341,-0.001952857943251729,-0.009130730293691158,0.09544323713292742,-0.33471799621676007,0.693265719380622
1687015869.933552,0.09005681425333023,0.3286576271057129,-0.9401456713676453,-0.0021967217326164246,0.007478207349777222,-0.006509542465209961,0.02661687694489956,0.010378376580774784,0.014565744437277317,0.0954988897707538,-0.3348819012273157,0.6930978479042171
1687015870.058288,0.09088476002216339,0.32713067531585693,-0.9405984878540039,0.008434690535068512,-0.009122252464294434,-0.008803367614746094,-0.001830164808779955,-0.02200850285589695,0.007995525375008583,0.09632536475070627,-0.33326557836114346,0.6936060644135373
1687015870.0712218,0.09104666113853455,0.3276158571243286,-0.9404139518737793,0.007845543324947357,0.005468249320983887,-0.004593372344970703,-0.00560612790286541,-0.0084756501019001,0.0027707365807145834,0.09651471385531311,-0.33377904622029875,0.693923087187333
1687015870.1483068,0.09146331250667572,0.3274717628955841,-0.9404236674308777,-0.002107858657836914,-0.0037565529346466064,9.238719940185547e-06,-0.009586221538484097,0.021770138293504715,0.006969876121729612,0.09695263591283548,-0.333626553591685,0.694115586503039
1687015870.155271,0.09230196475982666,0.3278662860393524,-0.9402042627334595,0.012068144977092743,0.006575852632522583,0.009753823280334473,0.023828504607081413,-0.007461695000529289,0.00020671181846410036,0.09785866806377608,-0.33404411510682175,0.6943786637129643
1687015870.2369242,0.09176766872406006,0.3266586661338806,-0.9406768083572388,-0.0041364580392837524,-0.00031897425651550293,-0.0015686750411987305,0.04123749956488609,0.016074080020189285,0.013434899039566517,0.09724722222059491,-0.33276613348046974,0.6943920543200133
1687015870.2482262,0.09287289530038834,0.3257237374782562,-0.9408925175666809,0.004676535725593567,-0.006479382514953613,-0.015818357467651367,-0.0006330295000225306,0.0037483489140868187,-0.003260257886722684,0.09838852138136966,-0.33177712222198275,0.694931749354175
1687015870.3293219,0.09287182986736298,0.3257521986961365,-0.9408827424049377,-0.000830821692943573,0.008720457553863525,-0.011570870876312256,-0.0018684698734432459,0.012610815465450287,0.0024953659158200026,0.09838841248238658,-0.3318072037605235,0.6951594432655731
1687015870.3419662,0.09318513423204422,0.3257478177547455,-0.9408532977104187,-0.002456381916999817,0.005932480096817017,-0.006686985492706299,0.006813701242208481,0.010999870486557484,0.0014797693584114313,0.09872124852010478,-0.33180257041917366,0.6952900398610888
1687015870.38236,0.09365645051002502,0.32569393515586853,-0.9408251047134399,0.007997587323188782,-0.0028180181980133057,-0.002686798572540283,-0.015051783062517643,-0.010763215832412243,6.809423211961985e-05,0.0992202550777339,-0.33174559276918003,0.6954122477654014
1687015870.478207,0.09413471817970276,0.32539165019989014,-0.9408819675445557,0.004299715161323547,-0.0004405081272125244,0.0048621296882629395,-0.0078562768176198,0.017752403393387794,0.010010606609284878,0.09971760189174826,-0.3314258852074349,0.6955855846116062
1687015870.491284,0.09435055404901505,0.326132208108902,-0.9406039118766785,-0.004354231059551239,0.0027099251747131348,0.0005404353141784668,0.00030382629483938217,0.02244844287633896,0.0032047652639448643,0.09997407529614516,-0.3322091778744828,0.6959753978882935
1687015870.567268,0.09499529749155045,0.3254147171974182,-0.9407875537872314,0.008215144276618958,-0.010274946689605713,-0.009621381759643555,0.014984812587499619,-0.006801498122513294,-0.008471664972603321,0.10063314405228165,-0.3314502739460601,0.695994587777222
1687015870.574074,0.0950172170996666,0.3254221975803375,-0.9407827258110046,-0.005280286073684692,0.010500043630599976,-0.02111607789993286,-0.009225808084011078,0.022093622013926506,-0.0023820805363357067,0.10065671892621084,-0.33145818106609554,0.695845640603549
1687015870.6238708,0.09509647637605667,0.327070951461792,-0.9402027726173401,0.005703069269657135,0.00819513201713562,-0.005308091640472412,-0.0333506278693676,-0.026749372482299805,-0.008666541427373886,0.10080183746282691,-0.33320238093404086,0.6957664160607004
1687015870.723191,0.09528603404760361,0.3270557224750519,-0.9401888847351074,8.13901424407959e-05,0.005418002605438232,-0.014187335968017578,-0.006206093356013298,0.004680188838392496,-0.00024189765099436045,0.10100288290620343,-0.3331862823179627,0.6957645656906979
1687015870.737049,0.09577497839927673,0.327617883682251,-0.9399434328079224,0.00397171825170517,-0.0024836063385009766,0.007570385932922363,-0.03168584406375885,0.007622538134455681,0.003832405898720026,0.10154394446324895,-0.33378120053348204,0.6957437186174527
1687015870.771621,0.09597832709550858,0.32793736457824707,-0.9398112893104553,2.9958784580230713e-05,-0.004512101411819458,0.0009227395057678223,-0.0014363720547407866,0.005192314740270376,-0.0034856279380619526,0.10177227507868385,-0.3341193785670679,0.6957434988263543
1687015870.897831,0.09644528478384018,0.3282802104949951,-0.9396437406539917,0.0031030401587486267,0.0005008876323699951,0.0024031996726989746,0.012481840327382088,0.02104584500193596,-0.003947153687477112,0.10228208371608576,-0.33448231094023123,0.6956816363074245
1687015870.906488,0.09667762368917465,0.3277056813240051,-0.939820408821106,0.001405864953994751,-0.007484734058380127,-0.006468653678894043,0.01338842511177063,0.009610055014491081,0.0020012164022773504,0.10250762514702827,-0.33387411916065235,0.6955618211617417
1687015870.990166,0.09709056466817856,0.3280595541000366,-0.9396544098854065,-0.0012043565511703491,0.010304063558578491,-0.011807382106781006,-0.014169787988066673,0.016221707686781883,-0.0021373359486460686,0.10296045614485767,-0.3342487182760284,0.695737361594688
1687015871.002743,0.09750833362340927,0.3283838927745819,-0.9394978284835815,0.0004378184676170349,0.0010533332824707031,-0.010071873664855957,-0.010608120821416378,-0.003798428224399686,-0.004818939603865147,0.10341744450296085,-0.33459208459327106,0.6957598969221118
1687015871.077361,0.10445640236139297,0.3269595205783844,-0.939247727394104,-0.02857445925474167,0.03619962930679321,0.06151646375656128,0.1524440497159958,0.36494046449661255,-0.010133611038327217,0.11075769889658325,-0.33308445346646265,0.6947208807777506
1687015871.089822,0.11673261225223541,0.31910839676856995,-0.9405016303062439,0.02807328850030899,-0.027116239070892334,0.0010790228843688965,0.05594613775610924,0.06683126091957092,0.060665395110845566,0.12348587197520604,-0.3247885636370794,0.6967595223108115
1687015871.197393,0.12042136490345001,0.3169546127319336,-0.940764844417572,0.021363288164138794,0.031830787658691406,0.008437573909759521,0.1298138052225113,0.03774306923151016,-0.030337348580360413,0.1273113671692692,-0.3225168072171015,0.6983105807272466
1687015871.205567,0.11593200266361237,0.30563420057296753,-0.9450648427009583,0.005115963518619537,-0.03683537244796753,-0.003375709056854248,0.2641875743865967,-0.11873175948858261,-0.06288024038076401,0.12206112231701624,-0.3106044180586474,0.6936343584241488
1687015871.2879128,0.11312256008386612,0.2923387587070465,-0.9496006369590759,-0.008981339633464813,0.0055280327796936035,0.0021213889122009277,0.36234086751937866,-0.022928625345230103,0.05409404635429382,0.11856770169766744,-0.29667151995107277,0.6916038551603978
1687015871.300003,0.10880836844444275,0.27344992756843567,-0.9557122588157654,0.03438008576631546,-0.0008974969387054443,0.006646096706390381,0.414317786693573,-0.23711708188056946,-0.0632697343826294,0.1133624380333857,-0.2769778458060976,0.6892491096468276
1687015871.376594,0.09567485749721527,0.2532516419887543,-0.9626577496528625,0.004392273724079132,0.00395047664642334,-0.0008890032768249512,0.37650230526924133,-0.24273456633090973,-0.07058929651975632,0.09906085169110457,-0.25603999492471685,0.6823346199139529
1687015871.3893828,0.08614148944616318,0.23815515637397766,-0.9673994779586792,-0.003957666456699371,0.026478007435798645,-0.0137711763381958,0.32923373579978943,-0.139394611120224,-0.08112016320228577,0.0888101544209812,-0.2404659038970575,0.6771707288520505
1687015871.528314,0.08173118531703949,0.21934089064598083,-0.9722188711166382,-0.012883543968200684,-0.014476388692855835,0.0025533437728881836,0.3975963890552521,-0.0050568608567118645,0.006497431546449661,0.08386944947106628,-0.22113885226224972,0.6727926789182502
1687015871.5409698,0.08086606115102768,0.20504441857337952,-0.975406289100647,-0.0022680535912513733,-0.00878588855266571,-0.0035823583602905273,0.2340666949748993,-0.022724803537130356,-0.07078317552804947,0.0827158386262681,-0.2065090907272287,0.6694448005399201
1687015871.620959,0.08270189166069031,0.19663503766059875,-0.9769826531410217,0.0047614723443984985,-0.004450604319572449,-0.011542737483978271,0.16059930622577667,0.08457377552986145,-0.04033179581165314,0.08444899327817279,-0.19792477031728617,0.6663459910997354
1687015871.6340709,0.08695222437381744,0.18460054695606232,-0.9789596199989319,-0.01280977576971054,0.01762416958808899,-0.012754857540130615,0.2994164526462555,0.13629582524299622,-0.04345574602484703,0.08858857454026117,-0.1856654104074438,0.6628845991277756
1687015871.638548,0.08980387449264526,0.1677657812833786,-0.9817280173301697,0.0049989670515060425,0.0389297753572464,-0.0011363625526428223,0.38716739416122437,0.0419963113963604,-0.08638184517621994,0.09122143818360154,-0.16856288372804343,0.657756030600278
1687015871.67104,0.09451287984848022,0.15801775455474854,-0.9829027056694031,0.02597050368785858,-0.009015694260597229,0.006019771099090576,0.11301101744174957,0.07188062369823456,-0.06867501139640808,0.09586217917858277,-0.15868285832393367,0.6539629436068259
1687015871.798269,0.09432636201381683,0.15340934693813324,-0.9836503863334656,0.0026127099990844727,-0.016995787620544434,0.019661128520965576,0.058736108243465424,0.007742202375084162,-0.08072535693645477,0.09560187030991699,-0.154017549547121,0.6494427080328291
1687015871.806731,0.09294352680444717,0.1491609513759613,-0.9844351410865784,-0.009767875075340271,0.0524076372385025,-0.002259194850921631,0.19658656418323517,0.01667080447077751,-0.12135134637355804,0.09413401563515203,-0.14971968323443308,0.6433133465148749
1687015871.888713,0.09592945128679276,0.14273636043071747,-0.9851009249687195,-0.008191436529159546,-0.04617875814437866,-0.002737760543823242,0.004152094013988972,0.10919053107500076,-0.05083196982741356,0.09707425079518316,-0.14322553026463977,0.6390971853825415
1687015871.901361,0.09933477640151978,0.1467038094997406,-0.9841801524162292,-0.0009156018495559692,0.036249056458473206,-0.003917992115020752,-0.019328510388731956,0.06664484739303589,-0.05805066600441933,0.10059084407652047,-0.14723520105293508,0.6370370962311946
1687015872.0096722,0.10082513093948364,0.14314337074756622,-0.984552800655365,0.017857715487480164,0.03271414339542389,-0.017491817474365234,0.1654987782239914,-0.009391776286065578,-0.10548783093690872,0.10205127849265053,-0.14363677136841227,0.6327096151994983
1687015872.023322,0.10334640741348267,0.1381724774837494,-0.9850014448165894,-0.01638658344745636,-0.058369025588035583,-0.02081209421157837,-0.05675395578145981,0.11727757006883621,-0.031492896378040314,0.10453758266700867,-0.13861595322209086,0.6278954622611891
1687015872.0974932,0.107620969414711,0.14380678534507751,-0.9837363958358765,0.013365961611270905,0.015586495399475098,-0.008313775062561035,-0.07581064850091934,0.0318472720682621,-0.054861996322870255,0.10896686657015436,-0.1443071262279137,0.6266722480594409
1687015872.103667,0.11005325615406036,0.14314162731170654,-0.9835643172264099,0.009712964296340942,-0.008070826530456543,0.0002879500389099121,0.04639817029237747,0.03353855758905411,-0.04533826932311058,0.11142880098398124,-0.14363500220044714,0.6241585700581203
1687015872.190453,0.10923131555318832,0.14236952364444733,-0.9837679862976074,-0.012124396860599518,-0.0013325363397598267,-0.007580280303955078,0.021464327350258827,0.012253508903086185,-0.0758529007434845,0.11058067073313521,-0.14285490714758134,0.6205595861505483
1687015872.2021852,0.11222656071186066,0.14518514275550842,-0.9830190539360046,0.014253534376621246,-0.03509299457073212,-0.004499256610870361,-0.10159053653478622,0.03915321081876755,-0.03045313060283661,0.11367304021870608,-0.14570009644307033,0.6190037221286953
1687015872.275951,0.11117460578680038,0.14661553502082825,-0.9829263091087341,-0.02319243550300598,0.012411534786224365,-0.02316194772720337,0.0022287145256996155,0.03191083297133446,-0.02567342109978199,0.11262708882825008,-0.14714596582178374,0.6164525685595147
1687015872.28925,0.11347928643226624,0.14794661104679108,-0.9824633598327637,0.02992279827594757,0.0025508254766464233,0.002635478973388672,-0.029669519513845444,-0.041783805936574936,-0.04725521430373192,0.11499526501771079,-0.14849170681299137,0.615989304159534
1687015872.365734,0.11161847412586212,0.1484803557395935,-0.9825959801673889,-0.008026562631130219,0.0104093998670578,0.001226961612701416,-0.002240868518128991,0.03690265864133835,-0.02368989773094654,0.11311063121399875,-0.14903142002545625,0.613829306741039
1687015872.37213,0.11277730762958527,0.14920426905155182,-0.9823539853096008,0.01617470383644104,0.004161804914474487,0.00669175386428833,-0.0070803202688694,-0.03277166932821274,-0.04114525765180588,0.11430271986401795,-0.14976348941590875,0.6130465975811897
1687015872.493201,0.11093217134475708,0.1501278430223465,-0.9824233651161194,-0.014969654381275177,-0.009746983647346497,-0.00044101476669311523,-0.01264126691967249,0.03635893389582634,-0.013381135649979115,0.11244059961442207,-0.15069757677266568,0.6113625696918794
1687015872.5057101,0.11334490776062012,0.1524156630039215,-0.9817954897880554,0.011471971869468689,-0.015086576342582703,-0.00761491060256958,-0.05437943711876869,-0.00040422938764095306,-0.01511238981038332,0.114937734378028,-0.15301203800853116,0.6114872999075058
1687015872.574161,0.11124134808778763,0.15299758315086365,-0.9819455742835999,-0.020573630928993225,-0.0002571195363998413,-0.016086041927337646,0.007146418560296297,0.016465120017528534,-0.024798572063446045,0.11280573958460066,-0.15360086742126255,0.6096794716189083
1687015872.587399,0.11464645713567734,0.1567358374595642,-0.9809638261795044,0.026146382093429565,0.006640017032623291,-0.0018547773361206055,-0.05843982845544815,-0.016005026176571846,-0.021848656237125397,0.11634344614552497,-0.15738476236229346,0.6102828224221429
1687015872.66146,0.11181002855300903,0.15498527884483337,-0.9815691709518433,-0.023049674928188324,0.015730038285255432,-0.003690779209136963,0.06374160945415497,0.04665089398622513,-0.013539792969822884,0.11342060065183193,-0.15561254623114815,0.608000698128929
1687015872.6730509,0.11521796137094498,0.15750247240066528,-0.9807741045951843,0.03949088603258133,0.011686950922012329,0.017608821392059326,-0.026710037142038345,-0.043361373245716095,-0.041936613619327545,0.1169405650396784,-0.15816104796483704,0.6087151150761854
1687015872.731659,0.11219389736652374,0.15509425103664398,-0.981508195400238,-0.039256900548934937,0.0029562711715698242,-0.009580671787261963,0.04945135489106178,0.08236175775527954,-0.0056246123276650906,0.11381366777904622,-0.15572286411525835,0.6058808556490425
1687015872.8228621,0.11570674180984497,0.15704241394996643,-0.9807903170585632,0.022431060671806335,0.0054331570863723755,0.020096957683563232,-0.027340983971953392,-0.007197864353656769,-0.026317507028579712,0.11743019285971307,-0.15769519410022864,0.6066421077900779
1687015872.836766,0.11239328980445862,0.15589366853237152,-0.9813587069511414,-0.020794793963432312,0.003667488694190979,-0.014658749103546143,0.054524898529052734,0.01190427877008915,-0.010210376232862473,0.11403140235754856,-0.15653211535211733,0.6048167335019736
1687015872.9412909,0.11458946019411087,0.15623614192008972,-0.9810501933097839,-0.005672231316566467,-0.039933666586875916,-0.014280617237091064,-0.09510444849729538,0.03155512362718582,0.011415290646255016,0.11627597795480131,-0.15687884316622522,0.6052042069118805
1687015873.03082,0.11278288066387177,0.15743616223335266,-0.9810677170753479,0.001337587833404541,0.033893778920173645,-0.0172995924949646,0.08267242461442947,-0.026585500687360764,-0.02672710083425045,0.11445687763944767,-0.15809389744788874,0.6040670514348001
1687015873.044837,0.11441246420145035,0.15685932338237762,-0.9809714555740356,0.018888309597969055,-0.03700155019760132,0.0036612749099731445,-0.08730977773666382,0.004938692785799503,0.010996708646416664,0.11610722853817682,-0.15750980681818655,0.6041475905278334
1687015873.049399,0.11133690923452377,0.15675872564315796,-0.9813413023948669,0.002447865903377533,0.027506396174430847,-0.0029116272926330566,0.11164242774248123,-0.07163340598344803,-0.028387781232595444,0.11297075238043346,-0.1574079498352416,0.6027314244728131
1687015873.114369,0.1123645007610321,0.156393364071846,-0.9812824726104736,0.0003521665930747986,-0.0552428662776947,-7.128715515136719e-05,-0.13665544986724854,0.045818306505680084,0.020330622792243958,0.11401122434064893,-0.15703802006033518,0.6031224262114915
1687015873.125885,0.11083079129457474,0.15711484849452972,-0.9813416600227356,-0.0071015506982803345,0.010991215705871582,-0.007031142711639404,0.08810438215732574,-0.0321894995868206,-0.036744847893714905,0.1124614906710408,-0.15776853076080607,0.6020449497353499
1687015873.240684,0.11131379008293152,0.1589580476284027,-0.9809901118278503,-0.0006875768303871155,-0.045951470732688904,-0.025723755359649658,-0.17362065613269806,0.01702953316271305,0.00261594052426517,0.11298758285753395,-0.15963519324498704,0.6015916189919147
1687015873.254418,0.11189580708742142,0.17016533017158508,-0.9790419340133667,-0.007449403405189514,-0.005080506205558777,-0.0268021821975708,-0.2529897689819336,0.01901092380285263,0.031101109459996223,0.11379735105466265,-0.17099744291702956,0.6034158446638043
1687015873.393215,0.11966047435998917,0.17671126127243042,-0.9769618511199951,-0.024170979857444763,0.027664944529533386,-0.03414654731750488,-0.154498890042305,0.2840348780155182,0.07464419305324554,0.12187520368862839,-0.17764412196219007,0.6070264236398529
1687015873.407516,0.1327698826789856,0.1898832470178604,-0.9727880358695984,0.02723376452922821,0.024701088666915894,-0.013265430927276611,-0.2661188244819641,0.1767636239528656,0.011019212193787098,0.13564575813308724,-0.19104322310388808,0.6118891764244608
1687015873.4118872,0.14236882328987122,0.20407304167747498,-0.968548059463501,-0.02249579131603241,-0.04947100579738617,0.011577844619750977,-0.4023432731628418,0.26915907859802246,0.14110012352466583,0.14594685923162945,-0.20551672552941688,0.6148737724588749
1687015873.475422,0.1541091501712799,0.23502418398857117,-0.9596947431564331,0.0400131493806839,-0.0029838085174560547,-0.00043404102325439453,-0.8098087906837463,0.089004747569561,0.22294197976589203,0.1592221276988422,-0.2372434526084332,0.627367591790241
1687015873.485733,0.16452769935131073,0.25764745473861694,-0.9521283507347107,-0.043449223041534424,-0.05002114176750183,0.010996758937835693,-0.3824203908443451,0.2961966097354889,0.21129071712493896,0.17111016484048325,-0.26058667642369215,0.6428136841782787
1687015873.6012611,0.17561104893684387,0.2812066674232483,-0.9434424042701721,0.005297154188156128,0.10180419683456421,-0.01258176565170288,-0.41455596685409546,0.11142678558826447,0.06756804138422012,0.1840324580560188,-0.2850512918901436,0.6551412674128659
1687015873.609253,0.18642623722553253,0.3019774556159973,-0.9349090456962585,0.005391970276832581,-0.09464108943939209,0.018359363079071045,-0.5334144830703735,0.2503555715084076,0.19202880561351776,0.19682410901553007,-0.30676627513775395,0.6667637909039317
1687015873.68883,0.19139935076236725,0.3176397383213043,-0.9286932945251465,0.04799577593803406,0.011217653751373291,0.0024695396423339844,-0.243672713637352,-0.007444917224347591,-0.054363057017326355,0.203249515852657,-0.32323927752046655,0.6693927137314515
1687015873.700747,0.19191677868366241,0.3403921127319336,-0.9204896092414856,-0.02112516760826111,-0.056593894958496094,0.009204208850860596,-0.6175321340560913,0.045963626354932785,0.10011672973632812,0.20554959275950382,-0.3473338840413481,0.675698229568077
1687015873.7784019,0.19589798152446747,0.35541680455207825,-0.9139490723609924,0.028375685214996338,0.040853917598724365,0.003991186618804932,-0.07205279916524887,0.05254802480340004,-0.024206819012761116,0.21114747237485482,-0.3633599424888432,0.6799988559543901
1687015873.7909908,0.19611242413520813,0.3638628125190735,-0.9105733036994934,0.0026332885026931763,-0.06561452150344849,0.006032288074493408,-0.4251750707626343,-0.06018020957708359,0.05758871138095856,0.21213215177907369,-0.3724116293724541,0.6825038495813774
1687015873.836077,0.1972929984331131,0.3774523138999939,-0.9047680497169495,0.024920731782913208,0.1395764946937561,0.019300520420074463,0.031212029978632927,0.031409092247486115,-0.04237417131662369,0.2146983548750485,-0.38704354336558267,0.6876735416032598
1687015873.8411322,0.19554904103279114,0.37501516938209534,-0.9061590433120728,-0.02593235671520233,-0.03822317719459534,0.015656113624572754,-0.015611490234732628,0.06482892483472824,0.04402703046798706,0.21254060653398776,-0.3844131422233188,0.6888235930291144
1687015873.896267,0.19751189649105072,0.3755621016025543,-0.9055065512657166,0.015958547592163086,-0.001523435115814209,-0.014354288578033447,-0.026797300204634666,-0.007399465888738632,-2.9377406463027e-05,0.21475935179436756,-0.3850031968035753,0.6897345521376985
1687015873.956059,0.1970340460538864,0.37690621614456177,-0.9050520658493042,-0.009473040699958801,0.012192845344543457,0.012229859828948975,-0.03828652948141098,0.013952516950666904,0.037250619381666183,0.21435987309695562,-0.3864539024769234,0.690877078222676
1687015874.04979,0.1991589367389679,0.3778589367866516,-0.9041893482208252,0.007734969258308411,0.008768260478973389,-0.018311262130737305,-0.030704734846949577,0.013603199273347855,0.004702993202954531,0.21680060165895543,-0.3874826834384732,0.691839421407575
1687015874.0578609,0.1997854858636856,0.37870436906814575,-0.9036972522735596,4.3585896492004395e-05,-0.002956688404083252,-0.00806117057800293,-0.006756080314517021,0.02666556090116501,-0.001757569145411253,0.2175761028606367,-0.38839600635044064,0.6924078745427044
1687015874.104814,0.20077107846736908,0.380106657743454,-0.9028897881507874,-0.0053212642669677734,-0.0059916675090789795,-0.003528118133544922,-0.06021726503968239,0.0360247939825058,-0.02017599157989025,0.21880499679394957,-0.38991160167156635,0.6931563126352014
1687015874.19798,0.20198769867420197,0.3811456263065338,-0.9021801352500916,0.0013661682605743408,0.0054510533809661865,0.007297933101654053,0.007976881228387356,0.02512989193201065,0.012279020622372627,0.22025619160922297,-0.3910351560275702,0.69352359482469
1687015874.211893,0.20325620472431183,0.38189223408699036,-0.9015793204307556,0.00035706162452697754,-0.0012617409229278564,-0.015916407108306885,-0.06838463991880417,0.02671758085489273,-0.0021871370263397694,0.22173759711590235,-0.3918428314743511,0.6943900179676472
1687015874.34861,0.2032737284898758,0.38317790627479553,-0.9010297060012817,-0.007579773664474487,0.0018013417720794678,0.0004559755325317383,-0.009971448220312595,0.012357726693153381,-0.004436376504600048,0.22188696785957013,-0.3932343465185691,0.6948691857442514
1687015874.356312,0.20407328009605408,0.38302192091941833,-0.900915265083313,0.008298531174659729,-0.005107492208480835,-0.005868792533874512,-0.011431792750954628,-0.01503128744661808,0.020956531167030334,0.22275856248003803,-0.3930654739234045,0.6954000083091132
1687015874.442596,0.20382070541381836,0.3841646611690521,-0.9004857540130615,0.004232868552207947,0.013677716255187988,0.002765476703643799,-0.012092833407223225,-0.022131629288196564,0.01312730461359024,0.2225945233376851,-0.39430287710403666,0.695892465593694
1687015874.4545631,0.2036951184272766,0.38424617052078247,-0.9004794359207153,0.0014135092496871948,-0.0012048184871673584,-0.008761286735534668,-0.010345755144953728,-0.020170388743281364,0.005693289451301098,0.22246338175884015,-0.3943911633948772,0.6964247785092521
1687015874.5617619,0.20355887711048126,0.384667307138443,-0.9003304243087769,0.00020697712898254395,0.004614919424057007,0.0036171674728393555,0.012848113663494587,0.006521675735712051,0.010361211374402046,0.22235503695729106,-0.39484736475965987,0.6967007005865483
1687015874.575941,0.20347614586353302,0.38458704948425293,-0.9003834128379822,0.006133809685707092,-0.005223065614700317,0.009071767330169678,-0.02419237233698368,-0.009752191603183746,0.006616541184484959,0.2222549618541749,-0.3947604224246448,0.6969753195332613
1687015874.651383,0.20342108607292175,0.3852865695953369,-0.9000967144966125,0.0006957203149795532,0.008313894271850586,-0.009403407573699951,-0.00788503885269165,0.000576346181333065,0.012646470218896866,0.22226523859188038,-0.39551833707574213,0.6974214373188564
1687015874.658298,0.20317739248275757,0.38532763719558716,-0.9001342058181763,0.003762289881706238,0.003313720226287842,-0.01160895824432373,-0.008610439486801624,-0.01385896373540163,-0.007302403450012207,0.22199869609909514,-0.3955628469355288,0.6976933730134689
1687015874.663554,0.20348434150218964,0.3855604827404022,-0.8999651074409485,-0.002709224820137024,0.0019059181213378906,-0.02096378803253174,0.0014350482961162925,0.0180394034832716,0.010590244084596634,0.22236354067010466,-0.395815184339786,0.6982680534382424
1687015874.7046309,0.20329402387142181,0.38632288575172424,-0.8996811509132385,-0.004670381546020508,-0.007080942392349243,0.010002195835113525,-0.05838309973478317,0.0006272126920521259,-0.005659166723489761,0.22223018483929324,-0.3966416260076823,0.6991566478820537
1687015874.795906,0.20380090177059174,0.3872726857662201,-0.8991579413414001,0.00440526008605957,-0.0007370412349700928,-0.010616838932037354,-0.019817553460597992,0.006724076345562935,-0.003302069380879402,0.22289152306925406,-0.39767159554747145,0.6993733162043427
1687015874.8102431,0.20352113246917725,0.38794854283332825,-0.8989299535751343,-0.005202651023864746,-0.0008635818958282471,0.005802512168884277,-0.022741127759218216,0.014885421842336655,0.0003316140500828624,0.22265016756250247,-0.39840477017468345,0.6993685937976812
1687015874.854351,0.20379042625427246,0.3877811133861542,-0.8989412188529968,0.005071863532066345,0.0005703270435333252,-0.005737125873565674,0.018814438953995705,-0.005988168530166149,0.003292583394795656,0.22293241457786495,-0.3982231157092572,0.6995729069851825
1687015874.9499311,0.203611820936203,0.3878353536128998,-0.8989582657814026,-0.008238285779953003,-0.003466486930847168,-0.011915147304534912,-0.02490290440618992,0.014858612790703773,-0.0017855989281088114,0.22273934429392875,-0.39828197723332104,0.6998367458768586
1687015874.9634671,0.203830748796463,0.3885299861431122,-0.8986086249351501,0.00046916306018829346,0.00586390495300293,-0.014446794986724854,0.001888540224172175,-0.006539264693856239,0.0028764642775058746,0.22305489415382887,-0.3990357106275384,0.7004082083574098
1687015875.004847,0.20397011935710907,0.3886359632015228,-0.8985311985015869,0.0035798996686935425,-0.0011237859725952148,-0.005628347396850586,-0.011687012389302254,-0.0016120618674904108,-0.0001867036335170269,0.22322101112881398,-0.3991507215359469,0.700550369406902
1687015875.159121,0.204146146774292,0.38903746008872986,-0.8983173966407776,0.00042842328548431396,0.005264878273010254,-0.004972398281097412,-0.007993340492248535,0.009302637539803982,0.004142864141613245,0.22345871554443889,-0.3995865107160041,0.700866852910835
1687015875.172567,0.20390991866588593,0.38921037316322327,-0.8982961773872375,0.0005731135606765747,-0.008732497692108154,0.004848301410675049,-0.017694083973765373,-0.007459387183189392,-0.006970640271902084,0.223213736818076,-0.399774225246578,0.7008464217486311
1687015875.2172189,0.203785702586174,0.389419287443161,-0.8982338309288025,-0.003239452838897705,0.007492333650588989,0.00033038854598999023,0.0027023134753108025,0.011419584043323994,0.008604258298873901,0.2230972228535979,-0.40000103679859644,0.7009011896877975
1687015875.2217321,0.20396974682807922,0.3890225887298584,-0.8983639478683472,0.004160135984420776,-0.0008237659931182861,-0.004208683967590332,-0.0037390743382275105,-0.00450159190222621,0.0039252168498933315,0.2232607951128143,-0.39957037862982375,0.7012196973501351
1687015875.226289,0.2039974182844162,0.38964590430259705,-0.8980874419212341,-0.00021632015705108643,-0.0005163252353668213,-0.023650169372558594,-0.01509932056069374,0.004919074475765228,-0.010045992210507393,0.2233565690356814,-0.40024709204665987,0.7013861782821941
1687015875.275825,0.20412281155586243,0.3896040916442871,-0.898077130317688,-0.005209252238273621,0.007185459136962891,-0.01980006694793701,0.018248649314045906,0.01809746026992798,0.0012687804410234094,0.22349181919179903,-0.4002016637454199,0.7015248827269438
1687015875.371859,0.2043662667274475,0.38919806480407715,-0.8981978297233582,0.00437396764755249,-0.0054700374603271484,-0.0028489232063293457,-0.008730459958314896,-0.003302281489595771,-0.003903544507920742,0.22372049789040252,-0.3997608423566978,0.7018110812878379
1687015875.461209,0.20423448085784912,0.3894897401332855,-0.8981013298034668,0.002888306975364685,0.0012573301792144775,0.008040904998779297,-0.007266785949468613,-0.011100816540420055,0.009783505462110043,0.22360422220932044,-0.40007751045818124,0.7020692095674942
1687015875.474918,0.20458169281482697,0.3895903527736664,-0.897978663444519,0.004021197557449341,0.0012635290622711182,-0.003037571907043457,-0.009220968931913376,-0.0009546161163598299,0.006543304305523634,0.22400137368580653,-0.40018674409272315,0.7024588137096281
1687015875.545548,0.20467056334018707,0.38923585414886475,-0.8981121182441711,-5.02169132232666e-05,-0.010390639305114746,0.010645687580108643,-0.011610401794314384,0.025642551481723785,0.006029646843671799,0.2240632631226258,-0.3998018651981409,0.7029855716429435
1687015875.558372,0.20434650778770447,0.388678640127182,-0.8984271883964539,-0.0022438615560531616,0.011422038078308105,-0.03414422273635864,0.10489708185195923,0.003916837740689516,-0.0080910325050354,0.22364436437042454,-0.3991970494425338,0.7028877764221971
1687015875.643254,0.21414496004581451,0.37161216139793396,-0.9033528566360474,-0.03717353940010071,0.03881874680519104,0.16061604022979736,0.5915337800979614,0.3688850402832031,0.058436859399080276,0.23275920710742068,-0.3807449336741581,0.6960315601149106
1687015875.6565762,0.21946214139461517,0.3320022225379944,-0.9173935651779175,0.14749646186828613,0.06455844640731812,0.08821570873260498,1.1506567001342773,-0.13885673880577087,-0.10593264549970627,0.2348106841500234,-0.3384254030208506,0.6839144755764672
1687015875.694878,0.21074698865413666,0.29838311672210693,-0.9308884143829346,-0.04752373695373535,-0.09469354152679443,-0.01356959342956543,0.25786229968070984,-0.15080420672893524,0.07555925846099854,0.222640300253258,-0.3029981441662268,0.6687425287749336
1687015875.7941298,0.20811229944229126,0.28991085290908813,-0.9341525435447693,0.04097217321395874,0.059561192989349365,-0.002050459384918213,0.36231839656829834,-0.13713181018829346,0.02612459659576416,0.2192022385309293,-0.29413369267270456,0.6698513873024049
1687015875.808419,0.2005273699760437,0.2687370777130127,-0.9421088695526123,-0.002117350697517395,0.015061110258102417,-0.014861345291137695,0.4425565302371979,-0.08249545842409134,-0.18037904798984528,0.20971973819147519,-0.27208164579722255,0.659855714390062
1687015875.911257,0.1998264044523239,0.260672003030777,-0.9445207715034485,-0.0250522643327713,-0.054739415645599365,-0.006757855415344238,0.04095320776104927,0.040619101375341415,0.0011061278637498617,0.20848947256212946,-0.2637182001136843,0.6553054096281707
1687015875.9252,0.19861067831516266,0.2560177445411682,-0.9460489749908447,0.02851639688014984,0.0649355947971344,-0.0016896724700927734,0.29202115535736084,-0.023776043206453323,-0.13633795082569122,0.20693183691097938,-0.25890039883809773,0.6502602557451357
1687015876.0281901,0.1974520981311798,0.2366117686033249,-0.9513293504714966,-0.014575526118278503,-0.00412885844707489,-0.04462707042694092,0.4029436409473419,-0.0033968237694352865,-0.18122373521327972,0.20464825111780705,-0.23887710582050833,0.6402963461138009
1687015876.044364,0.1972392499446869,0.21678948402404785,-0.9560852646827698,-0.018574103713035583,-0.06800103187561035,0.020660459995269775,0.34748005867004395,-0.007924819365143776,-0.05373268574476242,0.20344470821270563,-0.21852454098114804,0.6292040940480964
1687015876.118463,0.1977926641702652,0.19993329048156738,-0.9596378207206726,0.05277189612388611,0.09250140190124512,-0.04088097810745239,0.4775661528110504,-0.1766914576292038,-0.1796657145023346,0.20326530937374673,-0.2012898354625599,0.6284940793865412
1687015876.126361,0.18643973767757416,0.16528645157814026,-0.9684630036354065,-0.06012749671936035,-0.049350202083587646,0.013812124729156494,0.7301681041717529,-0.13388071954250336,-0.10583184659481049,0.19018429632284664,-0.16604845807255486,0.6129805989083843
1687015876.2080421,0.17861773073673248,0.13976678252220154,-0.9739409685134888,0.015840262174606323,0.05905522406101227,-0.04844367504119873,0.4993276596069336,-0.21100522577762604,-0.10104148089885712,0.18138124894205343,-0.1402258780711872,0.6063057886427181
1687015876.221097,0.17225953936576843,0.12077974528074265,-0.9776189923286438,-0.044436678290367126,-0.09592318534851074,-0.0278589129447937,0.13606497645378113,0.008606931194663048,-0.05793016031384468,0.17441281856249502,-0.12107534339995119,0.597655131443461
1687015876.3007178,0.17305141687393188,0.1210690513253212,-0.9774433374404907,0.011137410998344421,-0.009512066841125488,-0.009418845176696777,-0.0817348062992096,-0.007608169689774513,-0.009173007681965828,0.17522916368647193,-0.12136678846749921,0.5966474274553957
1687015876.314642,0.17370493710041046,0.12321161478757858,-0.9770596027374268,0.007767826318740845,0.05118107795715332,-0.004645109176635742,0.04956262931227684,0.007303668651729822,0.017201540991663933,0.17594503900575337,-0.12352551344285442,0.5973186099090929
1687015876.388002,0.1724531054496765,0.11749795079231262,-0.9779847264289856,0.0065629929304122925,0.011988118290901184,0.014422774314880371,0.1396060585975647,-0.03511391952633858,0.05683150887489319,0.1745408659985881,-0.11777000273366386,0.5980360000748517
1687015876.3942761,0.17206445336341858,0.11529535800218582,-0.9783152937889099,-0.015860244631767273,-0.012878373265266418,-0.0005818009376525879,-0.022243382409214973,0.015346681699156761,0.06232201308012009,0.1740977668565839,-0.11555233874138045,0.6004584294755939
1687015876.480716,0.17091837525367737,0.11533128470182419,-0.9785119295120239,0.008341848850250244,0.010691046714782715,-0.0011175870895385742,0.0020621339790523052,-0.06518802046775818,0.03612596169114113,0.17292714192689615,-0.11558850249332299,0.6032062124967716
1687015876.574022,0.16557319462299347,0.11618102341890335,-0.9793301224708557,0.004272371530532837,-0.004990227520465851,-0.011835038661956787,-0.04997092857956886,-0.14006376266479492,0.09911524504423141,0.16748400704116073,-0.1164439915392549,0.6065839060777385
1687015876.588245,0.1596531867980957,0.11611519753932953,-0.980320394039154,-0.004089847207069397,-0.0031696557998657227,-0.006496012210845947,-0.05102367699146271,-0.10928642004728317,0.11615628749132156,0.16144083463911768,-0.11637772194161274,0.6118348813260066
1687015876.66195,0.1586313396692276,0.11881090700626373,-0.9801632761955261,0.004515618085861206,0.01711437851190567,-0.004989922046661377,-0.058108970522880554,-0.04774520546197891,0.10931842029094696,0.16045051926520246,-0.11909222432070807,0.618723681671209
1687015876.675339,0.15701904892921448,0.12101102620363235,-0.9801537394523621,-0.004995748400688171,-0.007088921964168549,-0.0064337849617004395,-0.08133400231599808,-0.025983180850744247,0.08229511976242065,0.15884868912584418,-0.12130833086819166,0.6236985334719711
1687015876.7520962,0.15562108159065247,0.12296484410762787,-0.9801335334777832,0.00534386932849884,-0.008951179683208466,0.004898548126220703,-0.048057492822408676,-0.061787426471710205,0.07158315926790237,0.15746099710311548,-0.12327685345006424,0.6275945653982322
1687015876.75955,0.15370860695838928,0.12422002851963043,-0.9802770018577576,2.3663043975830078e-05,-0.006803661584854126,0.008307456970214844,-0.052682336419820786,-0.03763015940785408,0.08066293597221375,0.15553475278308695,-0.12454173608477163,0.6319417532015738
1687015876.840049,0.15274444222450256,0.12595519423484802,-0.980206310749054,-0.004978343844413757,0.011236563324928284,-0.017092883586883545,-0.012474730610847473,-0.02451222762465477,0.10183347016572952,0.154585624648714,-0.1262906393079649,0.6368361263342796
1687015876.852318,0.15173567831516266,0.125406414270401,-0.9804333448410034,-0.0070213377475738525,0.002050235867500305,-0.012074589729309082,0.020671194419264793,-0.016936955973505974,0.07388538867235184,0.15354572253826942,-0.12573747479901065,0.6411100432862539
1687015876.9279199,0.15060736238956451,0.12585628032684326,-0.9805496335029602,0.007580474019050598,0.0021649450063705444,-0.00030052661895751953,-0.021455753594636917,-0.0348011739552021,0.002777661196887493,0.15240380683485694,-0.12619092196081624,0.6426514283586701
1687015876.940563,0.14921316504478455,0.12614397704601288,-0.9807258248329163,0.00921882688999176,0.0034641772508621216,0.00604015588760376,0.001793021452613175,-0.03184471279382706,0.012914983555674553,0.1509877155576918,-0.12648092923427426,0.6423925207670634
1687015876.98846,0.1496298909187317,0.12657500803470612,-0.9806067943572998,-0.0034507066011428833,-0.01277497410774231,-0.007659196853637695,-0.036704301834106445,0.0027558773290365934,0.04522272199392319,0.15142109116729696,-0.12691544853874978,0.6441216959151224
1687015877.080895,0.1486596167087555,0.12600620090961456,-0.9808275699615479,0.003027990460395813,0.003724008798599243,0.0049211978912353516,0.0383661687374115,-0.028421038761734962,0.02679145149886608,0.15042063507443562,-0.12634205876871643,0.645734045499602
1687015877.095234,0.14770963788032532,0.12346392869949341,-0.9812943339347839,-0.015064999461174011,-0.003957092761993408,-0.008039772510528564,0.053043559193611145,0.00905691646039486,0.03382139652967453,0.14940366954907858,-0.12377976574042171,0.6467064839291363
1687015877.1331549,0.1485857367515564,0.1228652074933052,-0.9812371730804443,-0.003322094678878784,-0.026963740587234497,-0.007593333721160889,-0.05671365186572075,-1.4710240066051483e-06,0.02990948036313057,0.15028519080653213,-0.12317645502001318,0.6480933131016456
1687015877.232112,0.14822416007518768,0.1258312612771988,-0.9809159636497498,0.00032013654708862305,0.010628074407577515,-0.012614309787750244,-0.04184762388467789,0.003735742997378111,0.03042573295533657,0.1499732996228806,-0.1261657011124597,0.6498419077456283
1687015877.24754,0.1480305939912796,0.12870407104492188,-0.9805724024772644,0.015635162591934204,0.02070997655391693,-0.0038636326789855957,-0.05029295012354851,-0.04220627248287201,0.04067451134324074,0.14983206718214406,-0.12906207804536876,0.6525009380731184
1687015877.2840981,0.1474384367465973,0.12862928211688995,-0.9806714057922363,0.010657861828804016,0.014452382922172546,-0.0005908012390136719,0.053285639733076096,-0.03590123727917671,-0.008291169069707394,0.14922673486555912,-0.1289866515748473,0.6534109217602933
1687015877.380974,0.14693224430084229,0.1262936145067215,-0.9810509085655212,-0.01798023283481598,-0.02788969874382019,0.00012439489364624023,-0.022211026400327682,0.025824088603258133,-0.008235309273004532,0.14866525482499005,-0.12663178245857934,0.6524074792173505
1687015877.39555,0.14644472301006317,0.12945324182510376,-0.9807118773460388,0.004983484745025635,0.017549917101860046,0.0029134154319763184,-0.03978855535387993,-0.02966713346540928,-0.00541082676500082,0.14822966103155827,-0.12981756854154955,0.6527867396582088
1687015877.434093,0.14700230956077576,0.13239693641662598,-0.9802353382110596,-0.0053244829177856445,-0.00762583315372467,-0.011448562145233154,-0.09674690663814545,0.042563389986753464,0.01999080367386341,0.14885702641074414,-0.13278681215401494,0.6539702700865927
1687015877.534267,0.14728105068206787,0.1351916790008545,-0.97981196641922,-0.022326841950416565,0.007722124457359314,-0.01290959119796753,-0.014896121807396412,0.03454754129052162,0.014314207248389721,0.14919862176734194,-0.13560692171871097,0.6545203827996556
1687015877.548331,0.1514880657196045,0.13266874849796295,-0.9795153737068176,0.010026201605796814,0.031256407499313354,0.000801384449005127,0.12966367602348328,0.08144012838602066,0.032534558326005936,0.15344049138216326,-0.13306104001246039,0.6552402047184441
1687015877.5820708,0.15555322170257568,0.12921251356601715,-0.9793402552604675,-0.009038329124450684,-0.01736558973789215,-0.01270991563796997,0.0076418109238147736,0.1063450276851654,0.03852666914463043,0.1575188431109999,-0.12957478726944258,0.6555632263053063
1687015877.683502,0.1553688943386078,0.12757956981658936,-0.9795835614204407,0.030330553650856018,0.04679785668849945,-0.010421931743621826,0.15416991710662842,-0.13242724537849426,-0.03555794432759285,0.1572968215828041,-0.12792821948973618,0.6554366713383959
1687015877.696796,0.15875905752182007,0.12242864817380905,-0.9796972870826721,-0.03992362320423126,-0.02692389488220215,0.006537497043609619,0.02362610399723053,0.30558356642723083,0.014437712728977203,0.16065257341929917,-0.12273656866569732,0.6535483883841035
1687015877.7353091,0.17830735445022583,0.12814120948314667,-0.9755953550338745,0.04007640480995178,-0.03339940309524536,0.012613236904144287,-0.2314937263727188,0.2934653162956238,0.09415651112794876,0.18077251756450188,-0.12849450312647576,0.6565700685966597
1687015877.831139,0.19127033650875092,0.13783535361289978,-0.9718112349510193,-0.10479879379272461,0.10477937757968903,-0.1409817337989807,-0.4137986898422241,0.14431841671466827,0.52739417552948,0.19433447756208339,-0.13827557046650452,0.6721076766564853
1687015877.8390431,0.2113807648420334,0.18286484479904175,-0.960145115852356,0.13471907377243042,-0.17486925423145294,0.06077682971954346,-1.4790294170379639,0.28008702397346497,0.30388036370277405,0.2166981660562831,-0.18389964583425922,0.7108607943243217
1687015877.95021,0.208653524518013,0.2222817987203598,-0.9523940682411194,-0.1407214105129242,0.085976243019104,-0.016935765743255615,-0.4452110230922699,0.009048571810126305,-0.14028096199035645,0.2156756352425228,-0.2241542007984161,0.71263602440288
1687015878.012807,0.21834696829319,0.25066623091697693,-0.9431283473968506,0.0908418744802475,-0.019022583961486816,0.016126394271850586,-0.6507335901260376,0.24020901322364807,-0.048856038600206375,0.22750539529599206,-0.25336840307654485,0.7246028480162392
1687015878.025559,0.216427281498909,0.2731809616088867,-0.9373000860214233,-0.0784420520067215,-0.03566265106201172,-0.03589022159576416,-0.5286145210266113,0.023217298090457916,-0.029793065041303635,0.22692775695917672,-0.2766982271463289,0.7227429238979836
1687015878.0301828,0.2237212359905243,0.29905420541763306,-0.9276397228240967,0.07173469662666321,0.018465936183929443,0.009762465953826904,-0.4665463864803314,0.0978575348854065,-0.07547520101070404,0.23665337438226286,-0.30370133443163255,0.7311158894183952
1687015878.0640779,0.22317346930503845,0.31801891326904297,-0.9214432239532471,-0.03175196051597595,-0.03681468963623047,-0.01028895378112793,-0.4721859097480774,0.03893403336405754,-0.005987468175590038,0.23762403925418513,-0.3236391781851189,0.7309320749974008
1687015878.0974069,0.2275233119726181,0.3379454016685486,-0.9132502675056458,0.0428013801574707,0.037954866886138916,-0.013766944408416748,-0.2655472159385681,0.05485023930668831,-0.061370763927698135,0.24416511410811867,-0.3447330173845581,0.7352433609172014
1687015878.157592,0.227197527885437,0.3474920392036438,-0.9097420573234558,-0.023630037903785706,-0.0285375714302063,-0.012133002281188965,-0.24212975800037384,0.01778436079621315,0.03194520249962807,0.24473245103700592,-0.35489513252202676,0.7374148028714308
1687015878.21761,0.22808940708637238,0.3580910861492157,-0.9053982496261597,0.03034868836402893,0.015840798616409302,0.005419611930847168,-0.17682980000972748,-0.07678785920143127,0.007568421773612499,0.24678644037255887,-0.3662225896657344,0.7414224234090304
1687015878.280546,0.22575312852859497,0.36137664318084717,-0.9046781063079834,0.0035559386014938354,-0.007449060678482056,0.0031278133392333984,-0.021827353164553642,-0.03616994991898537,-0.0004110748996026814,0.24454542863109835,-0.36974390404511903,0.7411143239489958
1687015878.431354,0.22527915239334106,0.36472007632255554,-0.9034537076950073,-0.0013106614351272583,-0.001545637845993042,0.0031088590621948242,-0.09220635890960693,0.00231130700558424,-0.005276537034660578,0.24436990174422601,-0.37333215377255,0.7425630516673136
1687015878.445966,0.22506210207939148,0.36646535992622375,-0.9028013348579407,0.0016071796417236328,0.01848331093788147,-0.002456843852996826,-0.0165003202855587,-0.005424199625849724,0.03199200704693794,0.24431320220438854,-0.37520725230763485,0.7431232070866499
1687015878.5195742,0.22558268904685974,0.36789003014564514,-0.9020916819572449,0.005832076072692871,-0.019364088773727417,-0.003380119800567627,-0.07259093225002289,0.013071632012724876,-0.016050221398472786,0.24504103160388474,-0.3767388924138576,0.7438611973657814
1687015878.525886,0.2248985916376114,0.371605783700943,-0.9007384777069092,-0.003096848726272583,-0.003060251474380493,0.009640395641326904,-0.061065658926963806,0.02853776328265667,-0.027899159118533134,0.24467978071716112,-0.3807380566324125,0.7441696783178645
1687015878.531289,0.2249884456396103,0.3726496696472168,-0.9002846479415894,-0.0015387535095214844,-0.010558634996414185,-0.0020743608474731445,-0.03992295637726784,-0.0016342548187822104,-0.008740310557186604,0.24489218900829604,-0.38186273772087603,0.7440708305759953
1687015878.604399,0.2252867966890335,0.3738148510456085,-0.8997268080711365,0.0015045702457427979,0.01055404543876648,-0.025245726108551025,0.0031680557876825333,-0.011013641953468323,-0.0005540201091207564,0.2453500863668667,-0.3831186684829854,0.7447898145736931
1687015878.699698,0.2249923199415207,0.37418192625045776,-0.8996478915214539,-0.00041347742080688477,-0.009008586406707764,-0.006068050861358643,-0.025904519483447075,-0.000991723034530878,-0.006060238927602768,0.24506271016782488,-0.38351445163191356,0.7450332350644497
1687015878.714301,0.22480283677577972,0.37598392367362976,-0.8989437222480774,0.0013934224843978882,0.006523340940475464,0.004809200763702393,-0.037926916033029556,0.002491780323907733,-0.0019132974557578564,0.24504872406332678,-0.3854583851660916,0.7452212009006715
1687015878.788022,0.22469547390937805,0.37615689635276794,-0.898898184299469,0.0019433051347732544,-0.004605412483215332,0.009570181369781494,-0.017202286049723625,0.0013903859071433544,0.005456068553030491,0.24494822159365237,-0.3856450690091287,0.7450765957895815
1687015878.794029,0.22494477033615112,0.37680062651634216,-0.8985661268234253,0.0008852928876876831,0.004531741142272949,-0.001626133918762207,-0.018013885244727135,0.010979630053043365,0.004269563592970371,0.24529625002186134,-0.38633991514162874,0.7455108418950762
1687015878.878242,0.2246660441160202,0.376965194940567,-0.8985668420791626,-0.0025591403245925903,-0.007260054349899292,-0.006279289722442627,-0.01438088808208704,0.0020868913270533085,-0.00828111544251442,0.2450041519189658,-0.38651758866320696,0.7456645527634588
1687015878.891725,0.22486476600170135,0.3772892355918884,-0.8983811140060425,-0.0028646737337112427,-0.0038914382457733154,-0.022028982639312744,-0.00807896163314581,0.005695119500160217,-0.006469100713729858,0.24526096916139992,-0.38686744871795586,0.7456955692880944
1687015878.940028,0.22514837980270386,0.37827885150909424,-0.8978938460350037,0.0015819370746612549,-0.001585155725479126,-0.011163771152496338,-0.020074104890227318,0.0010654802899807692,-0.011584633029997349,0.24568600312954295,-0.38793628586752843,0.7457608365478353
1687015878.9452581,0.22500364482402802,0.37909334897994995,-0.8975865244865417,-0.002957761287689209,-0.0009348094463348389,0.006168067455291748,-0.020412815734744072,0.014821328222751617,0.00999236386269331,0.24561504798731335,-0.3888163315126276,0.7455274530499911
1687015878.9970489,0.22503110766410828,0.3796161413192749,-0.8973586559295654,0.00491882860660553,0.006309151649475098,0.01132655143737793,-0.020708158612251282,-0.018365653231739998,0.009112056344747543,0.24570373532768106,-0.3893813418107999,0.7459264254794422
1687015879.055479,0.22490985691547394,0.3797484040260315,-0.8973331451416016,0.002736002206802368,-0.011797994375228882,0.0008335113525390625,-0.020241351798176765,-0.002686647465452552,0.011405637487769127,0.245583324462316,-0.3895243190426649,0.7462694127847527
1687015879.117923,0.2246861755847931,0.3810737133026123,-0.8968271613121033,-0.005356356501579285,0.004241228103637695,5.2869319915771484e-05,-0.02815759927034378,0.012238239869475365,-0.006842742208391428,0.24548169929211588,-0.3909573457735662,0.7464591229414798
1687015879.180674,0.22486481070518494,0.3814951777458191,-0.8966031670570374,0.0037423670291900635,-0.0040080249309539795,-0.0044435858726501465,-0.03289589658379555,0.010947938077151775,-0.018553193658590317,0.24572802947767386,-0.3914132602999931,0.7463842374930666
1687015879.2762709,0.22456839680671692,0.3825877010822296,-0.8962118625640869,-0.003346472978591919,0.0033833682537078857,-0.021985769271850586,0.008347549475729465,-0.011477741412818432,-0.010477490723133087,0.24551987240300868,-0.3925954712118844,0.7463769555837558
1687015879.290913,0.2244693487882614,0.38233983516693115,-0.896342396736145,0.00024680793285369873,-0.00531044602394104,0.006816089153289795,-0.015263193286955357,0.006514130160212517,0.010011738166213036,0.2453815656553547,-0.39232720986103736,0.7466515538786541
1687015879.324774,0.22470146417617798,0.3830614984035492,-0.8959760665893555,0.004973813891410828,0.0027264654636383057,-0.006566047668457031,-0.014774814248085022,-0.012742210179567337,0.012421966530382633,0.2457216633877382,-0.3931083223984463,0.7471461566978671
1687015879.42,0.2251511961221695,0.38354870676994324,-0.8956546783447266,-0.008018657565116882,0.005306243896484375,-0.0006923079490661621,-0.023903464898467064,0.04466382414102554,-0.012470534071326256,0.2462786682754269,-0.3936358347676285,0.7467773569312685
1687015879.437457,0.2267834097146988,0.3844587206840515,-0.8948523998260498,0.004799216985702515,-0.008253306150436401,0.007828474044799805,-0.042547810822725296,0.025600474327802658,-0.012534982524812222,0.2482053055064974,-0.39462142245961945,0.7465400956307409
1687015879.4742742,0.2266424298286438,0.385221928358078,-0.8945598602294922,0.00024048984050750732,-0.0007004439830780029,-0.0037250518798828125,-0.016274617984890938,0.007092923857271671,-0.010042063891887665,0.24813508843364876,-0.3954482952164958,0.7461752197201162
1687015879.5708299,0.22721603512763977,0.38563087582588196,-0.8942380547523499,0.0025813132524490356,0.0008894801139831543,-0.015872418880462646,-0.013878172263503075,0.005603151395916939,-0.0022353401873260736,0.24882339068875478,-0.39589150196418044,0.7465534898982832
1687015879.578656,0.22681553661823273,0.38578447699546814,-0.8942734599113464,-0.007943496108055115,-0.0011104345321655273,-0.01629471778869629,0.014375260099768639,-0.006773179396986961,0.0028674760833382607,0.24839321342201962,-0.39605796252267067,0.7468105850374782
1687015879.692389,0.2271873503923416,0.3860686421394348,-0.8940564393997192,0.008148938417434692,0.005014091730117798,-0.010743975639343262,-0.0031354245729744434,-0.008972151204943657,0.001631303341127932,0.24884175292194735,-0.39636600909169384,0.746758176977655
1687015879.706122,0.2269362509250641,0.3865758180618286,-0.8939010500907898,0.004982069134712219,0.009405016899108887,0.009104907512664795,-0.010820774361491203,-0.0031440898310393095,0.016858059912919998,0.24861936156581252,-0.396915862687682,0.7469362004874901
1687015879.777828,0.22680507600307465,0.3860214948654175,-0.8941738605499268,0.0009781122207641602,-0.004322916269302368,-0.004614591598510742,0.005421666894108057,-0.012980297207832336,0.004124022088944912,0.2484087620157046,-0.3963148943864286,0.7472504091572657
1687015879.791288,0.22666436433792114,0.38623061776161194,-0.8941192030906677,-0.007654979825019836,0.008727848529815674,-0.0010681748390197754,-0.012942647561430931,0.024455048143863678,-0.0028991997241973877,0.2482754654451726,-0.39654160009880207,0.7476569426738545
1687015879.870878,0.22694790363311768,0.38583996891975403,-0.8942159414291382,0.0022543519735336304,-0.012777864933013916,-0.010019898414611816,-0.018742168322205544,0.015888279303908348,-0.008776596747338772,0.24854761177203225,-0.3961181310441122,0.7478711685698399
1687015879.877223,0.22691766917705536,0.38586509227752686,-0.8942127823829651,-0.007847249507904053,0.003096669912338257,-0.027616441249847412,0.015685399994254112,0.010568526573479176,-0.003597813658416271,0.24851669568317333,-0.3961453561382459,0.7479151622556172
1687015879.958586,0.2271711826324463,0.38620492815971375,-0.8940017223358154,-0.002165094017982483,0.009287625551223755,-0.02202916145324707,0.0101620489731431,3.501446917653084e-05,-0.010143397375941277,0.24883936385898964,-0.396513738883095,0.7481149030082664
1687015879.965033,0.22754262387752533,0.38500460982322693,-0.8944248557090759,0.0062372684478759766,-0.011591553688049316,0.005554616451263428,0.01617240533232689,0.00952359102666378,0.017981115728616714,0.2491165289349317,-0.3952128130256322,0.74836930321365
1687015880.046669,0.2273598611354828,0.3855121433734894,-0.8942527174949646,-0.001850232481956482,0.0010387003421783447,0.0155448317527771,-0.024948887526988983,0.01552298292517662,-0.0040322416462004185,0.24897055974932272,-0.3957628147167191,0.7482565282969681
1687015880.141697,0.22772206366062164,0.3851146399974823,-0.8943318128585815,0.005493253469467163,-0.0003185272216796875,0.001707911491394043,0.0022489989642053843,0.0019298535771667957,0.0007187045412138104,0.24932981394311748,-0.39533204090787916,0.7483770453691204
1687015880.155438,0.22761183977127075,0.3848370909690857,-0.8944793343544006,-0.002102211117744446,-0.0034436583518981934,0.0033202767372131348,-0.004169796127825975,0.019326331093907356,-0.0029948740266263485,0.24917465183465864,-0.3950313101148302,0.7484440912914669
1687015880.227755,0.22783134877681732,0.3852085471153259,-0.894263505935669,-0.0032067149877548218,-0.0024723410606384277,-0.007698774337768555,-0.019928209483623505,0.004330160561949015,-0.014992347918450832,0.24946282734544192,-0.3954338012168651,0.7484385869207607
1687015880.242158,0.22783386707305908,0.38485053181648254,-0.8944169878959656,0.0015057176351547241,0.002875298261642456,-0.015266239643096924,0.0223504938185215,-0.011919205076992512,0.00507716741412878,0.2494244278917096,-0.39504587561726856,0.7485625250309191
1687015880.3795009,0.2277066558599472,0.38474684953689575,-0.8944939970970154,0.0015108585357666016,0.00450482964515686,-0.0012579560279846191,0.0045381635427474976,-0.009660134091973305,0.0058146631345152855,0.24927027705679494,-0.3949335432797697,0.7485432798956971
1687015880.3945332,0.2276705652475357,0.3850659728050232,-0.8943658471107483,0.0017758309841156006,0.011189490556716919,0.004869997501373291,0.0025111427530646324,-0.01284758374094963,0.010703028179705143,0.2492666350845918,-0.39527931158927515,0.7486436973215279
1687015880.439213,0.22729288041591644,0.38362646102905273,-0.8950802683830261,0.0029469728469848633,0.00034567713737487793,-0.002075493335723877,0.03461829945445061,-0.009581038728356361,0.012091866694390774,0.24867945839422503,-0.393720021168532,0.7485810732763805
1687015880.444696,0.22668461501598358,0.3829376697540283,-0.8955293297767639,-0.003921568393707275,0.00816035270690918,-0.011987149715423584,0.07150454819202423,-0.005116782151162624,0.002636380260810256,0.24792160734610985,-0.3929742771022319,0.7486630947071923
1687015880.44837,0.23230674862861633,0.3763381838798523,-0.8968852162361145,-0.01799708604812622,0.02193140983581543,-0.005000710487365723,0.19646507501602173,0.1780976951122284,0.0013858263846486807,0.2534452236197269,-0.3858407287295708,0.7448312724446433
1687015880.492161,0.2364548146724701,0.36565154790878296,-0.9002155661582947,0.0009261518716812134,-0.0017141997814178467,0.08626598119735718,0.39647889137268066,0.1341945081949234,-0.054652340710163116,0.2568623668072304,-0.3743327431997109,0.7416782598834394
1687015880.5549521,0.23323774337768555,0.3377190828323364,-0.9118914604187012,0.07244156301021576,-0.048107266426086426,-0.014912128448486328,0.8097338080406189,-0.20427870750427246,-0.3190661072731018,0.25040520288321994,-0.3444925384695909,0.7270447156834462
1687015880.616585,0.21722319722175598,0.3040812909603119,-0.9275498390197754,-0.059371039271354675,-0.11078295111656189,0.01698160171508789,0.5802164673805237,-0.28029802441596985,-0.018645605072379112,0.23004452879478343,-0.3089738926858325,0.7026393432176844
1687015880.744839,0.21026627719402313,0.2749502658843994,-0.9381846189498901,0.08891277015209198,0.1619240641593933,0.012372910976409912,0.9087372422218323,-0.3081291913986206,-0.1776236742734909,0.2204770265468543,-0.2785379878885251,0.6997848142595801
1687015880.758037,0.19230571389198303,0.2238936424255371,-0.9554528594017029,-0.048506900668144226,-0.01109457015991211,-0.00952821969985962,1.043074131011963,-0.17418019473552704,-0.1316799521446228,0.19861815045632464,-0.22580770974876216,0.6775170823296703
1687015880.8296452,0.18423080444335938,0.18355686962604523,-0.9655909538269043,-0.02166368067264557,0.02953210473060608,-0.0485844612121582,0.7963098883628845,-0.11524230986833572,-0.11768969893455505,0.18853001296836078,-0.18460358898101153,0.6631020484129557
1687015880.844059,0.18197233974933624,0.15762212872505188,-0.9705881476402283,-0.019435733556747437,-0.026732251048088074,-0.0063253045082092285,0.35015878081321716,0.010084718465805054,-0.0009673427557572722,0.18533508216177247,-0.15828221484976912,0.6536256989662723
1687015880.918299,0.1774451583623886,0.15277709066867828,-0.9721997380256653,0.005202531814575195,-0.01720277965068817,-0.015059113502502441,0.0063629173673689365,-0.1454358994960785,-0.003859469201415777,0.18053203237631116,-0.15337775203932458,0.652726963770942
1687015880.932199,0.1707213819026947,0.14501124620437622,-0.9745901226997375,0.00997316837310791,-0.006354659795761108,-0.015857815742492676,0.14464950561523438,-0.16802385449409485,0.003529204986989498,0.1734130272485781,-0.14552433727546352,0.6510478510925981
1687015881.04362,0.16502545773983002,0.1428391933441162,-0.9758911728858948,0.007414117455482483,0.017301782965660095,-0.004699647426605225,-0.04164943844079971,-0.11712800711393356,0.13218265771865845,0.16751755261993764,-0.14332943498551012,0.6549486698302579
1687015881.057293,0.16394653916358948,0.14601406455039978,-0.9756031036376953,-0.02261964976787567,-0.02469143271446228,0.012254714965820312,-0.1152404323220253,0.041019290685653687,0.14950750768184662,0.16649077626540204,-0.14653794588762287,0.6628221288569314
1687015881.1289601,0.1615438163280487,0.1457323282957077,-0.9760459661483765,0.0325327068567276,0.023319795727729797,-0.006726861000061035,0.06955830752849579,-0.1650204211473465,0.05544140189886093,0.16402151581973523,-0.14625315676023398,0.6676326680554474
1687015881.143492,0.15545527637004852,0.14189276099205017,-0.9775991439819336,-0.019392654299736023,-0.016679152846336365,-0.012360572814941406,0.014472242444753647,-0.0758696049451828,0.08341045677661896,0.15769703883498493,-0.14237325736282744,0.6708288404339601
1687015881.2188191,0.15435776114463806,0.14663639664649963,-0.9770728945732117,-0.0036772340536117554,-0.014434263110160828,-0.00916367769241333,-0.1829233318567276,-0.03584619611501694,0.07187171280384064,0.15668485512379948,-0.14716704484000173,0.6754682817237727
1687015881.232009,0.15435774624347687,0.1534378081560135,-0.9760279059410095,0.011795178055763245,0.032109037041664124,-0.004379749298095703,-0.06737464666366577,-0.010551495477557182,0.04162991791963577,0.15684985630323967,-0.154046350097729,0.6794618143545821
1687015881.309061,0.1534826010465622,0.15241096913814545,-0.9763267636299133,-0.0061437636613845825,-0.0040040165185928345,-0.0016394853591918945,0.01872815191745758,-0.007388192228972912,0.012001119554042816,0.1559279977869976,-0.1530072889902959,0.6803515295734678
1687015881.315771,0.15332695841789246,0.1537061333656311,-0.9761481881141663,0.00399114191532135,-0.017506197094917297,-0.0019401907920837402,-0.053541429340839386,-0.029309026896953583,0.004887550137937069,0.1558004617251433,-0.15431789460606957,0.6810399080750245
1687015881.397232,0.1517070233821869,0.15544597804546356,-0.9761257767677307,0.0026661306619644165,-0.003270089626312256,0.004064619541168213,-0.03238998353481293,-0.021221093833446503,0.016069764271378517,0.15418398146360304,-0.1560788979382554,0.681561550050915
1687015881.410596,0.15095674991607666,0.15719105303287506,-0.9759626388549805,0.00697171688079834,0.001836046576499939,-0.0036058425903320312,-0.041139885783195496,-0.01702120155096054,0.015335796400904655,0.15345863579912639,-0.1578457021685735,0.6827770495743097
1687015881.454986,0.150154709815979,0.15813082456588745,-0.9759345054626465,-0.012749344110488892,-0.008472651243209839,-0.01538318395614624,-0.028271492570638657,0.014914361760020256,0.03614161163568497,0.1526602754581083,-0.1587973763259857,0.6840680063079808
1687015881.549724,0.15060539543628693,0.160257488489151,-0.9755181074142456,0.01902654767036438,0.017873600125312805,-0.0049506425857543945,-0.014645295217633247,-0.037076666951179504,-0.007712197490036488,0.15317570083549617,-0.16095151176541692,0.685569094826194
1687015881.56459,0.14894115924835205,0.15979674458503723,-0.9758491516113281,0.0019072145223617554,0.008202522993087769,-0.008235931396484375,0.021593445912003517,-0.030785128474235535,-0.023579910397529602,0.15145838331050498,-0.1604847504175047,0.6846835233362732
1687015881.604618,0.14778925478458405,0.1591445952653885,-0.9761307835578918,0.00913211703300476,0.006321713328361511,0.010173141956329346,0.020559918135404587,-0.03806532174348831,-0.006058108527213335,0.15026192237518823,-0.1598241446626268,0.6838150835424457
1687015881.7010012,0.14852677285671234,0.15962770581245422,-0.975939929485321,-0.010007515549659729,-0.012761875987052917,-0.0007903575897216797,-0.034923095256090164,0.08177976310253143,0.022145500406622887,0.15102953746350067,-0.16031350806459937,0.6837913701211565
1687015881.7153912,0.1510305553674698,0.1591929942369461,-0.9756266474723816,-0.02217009663581848,-0.0329417884349823,-0.010640442371368408,-0.011522339656949043,0.07160133868455887,-0.0036452175118029118,0.15358454600595256,-0.1598731728993009,0.684367559689394
1687015881.787277,0.15191587805747986,0.16051842272281647,-0.9752719402313232,0.006256714463233948,0.01881811022758484,-0.012597322463989258,0.015762144699692726,-0.00921787228435278,-0.056914765387773514,0.1545259124408395,-0.16121586675595692,0.6831378967481164
1687015881.911298,0.1508973240852356,0.16079576313495636,-0.9753844141960144,0.0021025389432907104,-0.01479966938495636,-0.007769882678985596,-0.03636293113231659,-0.002409945009276271,-0.028347568586468697,0.15348869712810526,-0.1614968490997769,0.6806454622162121
1687015881.925847,0.1508845090866089,0.16332627832889557,-0.9749658703804016,0.014627546072006226,0.008212998509407043,0.0021570324897766113,-0.03137167915701866,-0.021037781611084938,-0.00340859591960907,0.15354071723542898,-0.16406127384260896,0.6800146541230845
1687015881.967531,0.14987075328826904,0.1654086709022522,-0.9747711420059204,0.01214703917503357,0.005199834704399109,-0.00516355037689209,-0.037611640989780426,-0.05237075686454773,-0.00987728126347065,0.15255509208872112,-0.16617237166214843,0.6802954407732188
1687015881.971987,0.1482609510421753,0.1652258038520813,-0.9750482439994812,-0.0013341009616851807,0.004192516207695007,0.0007288455963134766,0.012694315984845161,-0.00784181710332632,-0.017178470268845558,0.15089911113074492,-0.16598695573058353,0.6792965392484505
1687015881.975857,0.14862698316574097,0.16471682488918304,-0.9750786423683167,-0.006109908223152161,-0.027204617857933044,0.0030022263526916504,-0.019039643928408623,0.026295913383364677,-0.0152025381103158,0.15126136547433816,-0.1654709007554578,0.6780461311493066
1687015882.025803,0.14874300360679626,0.16641417145729065,-0.9747726917266846,4.5418739318847656e-05,0.004880964756011963,-0.0026442408561706543,-0.00700952485203743,0.011744312942028046,0.0055195181630551815,0.15142442758516286,-0.16719200921802035,0.6779416917374639
1687015882.087476,0.14880968630313873,0.16692185401916504,-0.974675714969635,0.008157476782798767,-0.005636453628540039,-0.00429767370223999,-0.02423214353621006,-0.01117929071187973,0.0034770737402141094,0.15150612044500794,-0.16770689120952517,0.6782312392203603
1687015882.146847,0.147783100605011,0.16708357632160187,-0.9748042225837708,-0.0016039162874221802,-0.0029600560665130615,-0.006808936595916748,0.024803487583994865,-0.01155177690088749,-0.017416756600141525,0.15045716063237102,-0.16787091788481057,0.6777186224164422
1687015882.242347,0.1499568670988083,0.168185293674469,-0.9742826223373413,0.010794475674629211,0.012585565447807312,-0.006598114967346191,-0.024673961102962494,0.037233516573905945,-0.00498844962567091,0.15271673142687103,-0.16898844639865304,0.6777318467450791
1687015882.3316622,0.15009905397891998,0.16907469928264618,-0.9741067886352539,-0.010374337434768677,-0.012366950511932373,0.0024576187133789062,-0.03858271986246109,0.022258028388023376,-0.0038413596339523792,0.152886471283687,-0.16989078264417293,0.6771269887649595
1687015882.34638,0.15283794701099396,0.16887834668159485,-0.9737148880958557,0.0007875263690948486,0.010168269276618958,-0.007226884365081787,0.04039749503135681,0.05294971540570259,-0.006008773110806942,0.1556934103082866,-0.16969155626103996,0.677566166991678
1687015882.416771,0.1588526964187622,0.1672440767288208,-0.9730340242385864,-0.002648487687110901,0.008552417159080505,-0.015842318534851074,0.027112625539302826,0.18667005002498627,0.08623387664556503,0.16182741767679235,-0.1680337116936977,0.6791561446160727
1687015882.428319,0.16860035061836243,0.16843612492084503,-0.9711864590644836,0.0025269389152526855,-0.0012761056423187256,-0.008519291877746582,-0.003728332929313183,0.21426023542881012,0.029254410415887833,0.17188932754970346,-0.16924291106009556,0.681158366692472
1687015882.506263,0.17853809893131256,0.1662837266921997,-0.9697803258895874,-0.011454373598098755,-0.010842457413673401,-0.0031658411026000977,0.01835983619093895,0.2530074417591095,0.0370020754635334,0.18206294643315754,-0.1670597200654614,0.6810207945254501
1687015882.5127559,0.18869592249393463,0.1683487594127655,-0.9674980640411377,-0.04363064467906952,-0.008573994040489197,-0.03611820936203003,-0.1539871096611023,0.23921261727809906,0.009860138408839703,0.1926169343471061,-0.16915427651534384,0.683035059171244
1687015882.6299639,0.1995275616645813,0.17936864495277405,-0.9633356928825378,0.04851929843425751,-0.03486791253089905,-0.008755981922149658,-0.33527836203575134,0.07836887240409851,-0.004580985754728317,0.2042337122415304,-0.18034464923310123,0.6878037706224254
1687015882.644314,0.20387257635593414,0.19107413291931152,-0.9601700901985168,-0.03875724971294403,0.03432868421077728,-0.0028883814811706543,-0.17518308758735657,0.1909252405166626,0.017968198284506798,0.2092223947559352,-0.19225631993759923,0.6895081189121798
1687015882.7484322,0.21477167308330536,0.20156395435333252,-0.955638587474823,0.0024219155311584473,-0.02984154224395752,-0.006321251392364502,-0.4116583466529846,0.15580880641937256,0.12483479827642441,0.2210684098528784,-0.20295438609500802,0.6973242553036261
1687015882.763084,0.223256915807724,0.22640268504619598,-0.9481024146080017,-0.025976046919822693,0.042045190930366516,-0.05070739984512329,-0.6259600520133972,0.08470116555690765,0.12080609798431396,0.23126455277451904,-0.22838287056807563,0.7100082731483401
1687015882.865967,0.2294246256351471,0.25402677059173584,-0.9395928382873535,0.030508816242218018,-0.016935735940933228,-0.04400390386581421,-0.612334132194519,0.12429890781641006,0.017972193658351898,0.23948837832946898,-0.25684133166467193,0.7217457433546539
1687015882.881545,0.2334105372428894,0.2776745855808258,-0.9318885803222656,-0.0523497611284256,-0.038767725229263306,0.010669708251953125,-0.49555420875549316,0.11041833460330963,0.049773599952459335,0.24542137067683925,-0.28137264199046885,0.7246787925841864
1687015882.925311,0.24226564168930054,0.30476105213165283,-0.9211015105247498,0.09033015370368958,0.11793789267539978,-0.02666759490966797,-0.43203893303871155,0.11613551527261734,-0.21637852489948273,0.257192222516064,-0.30968753857934217,0.7343408727159387
1687015882.9985309,0.24102947115898132,0.31569594144821167,-0.917736828327179,-0.06074689328670502,-0.08208388090133667,0.004864513874053955,-0.3457840085029602,0.12001556903123856,0.03971131145954132,0.2568342830898398,-0.3211900059443656,0.7343396516583518
1687015883.010179,0.24572692811489105,0.3333419859409332,-0.9102205038070679,0.037705063819885254,0.024034082889556885,-0.018093645572662354,-0.3006306290626526,0.022996168583631516,-0.015831509605050087,0.26367843569502925,-0.3398460732068702,0.7399189040532925
1687015883.015399,0.24650534987449646,0.3414607644081116,-0.9069948792457581,-0.03497275710105896,-0.030349314212799072,0.017315924167633057,-0.12446127086877823,-0.012674655765295029,0.04951513931155205,0.2653724884778648,-0.3484706298900825,0.7416610225335296
1687015883.043744,0.25104013085365295,0.351256787776947,-0.9019964337348938,0.08337149024009705,0.04585319757461548,0.0213964581489563,-0.14339621365070343,0.046324748545885086,-0.08400183916091919,0.2714465349724124,-0.3589130785167189,0.7451122566671621
1687015883.104842,0.249720498919487,0.3575008511543274,-0.899907112121582,-0.04995244741439819,-0.01303371787071228,0.01739978790283203,-0.2216329723596573,0.05688152089715004,0.07899679988622665,0.2706851041916567,-0.3655905337222773,0.7477220845164124
1687015883.2002048,0.25277984142303467,0.36346128582954407,-0.8966594934463501,0.05924713611602783,0.016192644834518433,0.0355907678604126,-0.0557759553194046,0.009631715714931488,-0.02510863170027733,0.2747815971187289,-0.37198060042173353,0.7512678241838295
1687015883.215044,0.25162047147750854,0.3679962158203125,-0.8951346278190613,-0.017382800579071045,0.01824951171875,-0.04766017198562622,-0.06902904063463211,-0.02290438860654831,0.01827872358262539,0.2740264943727393,-0.3768530800904689,0.7526951582466962
1687015883.289129,0.2509692311286926,0.36882224678993225,-0.8949774503707886,-0.006264060735702515,0.001279681921005249,0.006519198417663574,0.00862900074571371,-0.007576832547783852,0.02050805650651455,0.27339778541869303,-0.37774160824696285,0.7544754762960548
1687015883.302473,0.25041404366493225,0.36958062648773193,-0.8948200941085815,0.008024066686630249,-0.0034002065658569336,-0.003983616828918457,-0.022326873615384102,-0.02418368309736252,0.008577493950724602,0.2728681963965101,-0.3785576433055364,0.7557779149452898
1687015883.345636,0.25000354647636414,0.3706958591938019,-0.8944734930992126,-0.0024449825286865234,0.005402714014053345,-0.0037046074867248535,-0.019511068239808083,0.0004959187936037779,0.0007475997554138303,0.272543138265309,-0.3797581605556736,0.7564671283239542
1687015883.4459481,0.25056779384613037,0.3712363541126251,-0.8940913677215576,0.003536820411682129,-0.001225978136062622,3.314018249511719e-05,-0.04051835089921951,0.0244678296148777,-0.003974983934313059,0.27323914044430975,-0.38034016171130924,0.7572100698299423
1687015883.4593558,0.2501484751701355,0.37201789021492004,-0.8938839435577393,-0.0024525821208953857,0.00038811564445495605,-0.002997159957885742,-0.027932696044445038,-0.005382831208407879,-0.0037607322447001934,0.2728644829095127,-0.38118199054592855,0.7573989152447297
1687015883.527174,0.2506205439567566,0.37296414375305176,-0.8933572173118591,0.00952652096748352,-0.0015499889850616455,-0.007582724094390869,-0.02067202888429165,0.012073833495378494,-0.0026672384701669216,0.2735074176171043,-0.38220161470450514,0.758159383647334
1687015883.622319,0.25039565563201904,0.37347328662872314,-0.8932075500488281,-0.0021046698093414307,-0.008711934089660645,-0.018138885498046875,-0.009751560166478157,-0.012779761105775833,0.0007783592445775867,0.2733175775133182,-0.38275041176212404,0.7584429820254505
1687015883.6405768,0.2507028579711914,0.37485116720199585,-0.8925439119338989,0.006865471601486206,0.0033226311206817627,0.004604518413543701,-0.01862538978457451,-0.01148262433707714,0.02398940548300743,0.2738298454583834,-0.3842362305131743,0.7591750688502938
1687015883.706095,0.25052759051322937,0.3763478398323059,-0.8919631242752075,0.0018222630023956299,0.004374176263809204,-0.00970923900604248,-0.032853949815034866,-0.01835881732404232,0.008105780929327011,0.27381725044676836,-0.38585115378787505,0.7601222494162748
1687015883.711853,0.25045129656791687,0.3779350221157074,-0.8913132548332214,0.0009372234344482422,-0.0053153932094573975,0.010759055614471436,-0.06004278361797333,0.016501516103744507,-0.007981576025485992,0.2739277459276423,-0.3875648622054391,0.760748631782445
1687015883.7996511,0.2504520118236542,0.37903523445129395,-0.8908457159996033,0.006032973527908325,0.004402846097946167,0.010123670101165771,-0.022804688662290573,-0.007938490249216557,0.010262807831168175,0.2740651295309146,-0.3887535059803239,0.7606701116525136
1687015883.813477,0.25046220421791077,0.37954697012901306,-0.8906249403953552,-0.0026136934757232666,0.006439328193664551,-0.024902403354644775,-0.0008076885133050382,-0.005976095329970121,-0.003346743993461132,0.2741403381089498,-0.38930658705116583,0.7608020677213249
1687015883.856797,0.2504831850528717,0.38052695989608765,-0.8902007341384888,0.002248108386993408,-0.002444714307785034,-0.01179206371307373,-0.0319734625518322,0.002963870298117399,-0.011617656797170639,0.27428635838539706,-0.3903660541552027,0.7608193667801063
1687015883.8671079,0.2504100203514099,0.38119247555732727,-0.8899365663528442,-0.0015696883201599121,-0.0041477978229522705,-0.010805010795593262,0.00317595642991364,0.0003118058666586876,-0.008128182962536812,0.27428755459647164,-0.39108581290499944,0.7606734785701984
