Timestamp,gravityX,gravityY,gravityZ,accelerationX,accelerationY,accelerationZ,rotationRateX,rotationRateY,rotationRateZ,attitudeRoll,attitudePitch,attitudeYaw
1687006645.3281178,0.18583941459655762,0.005090022925287485,-0.9825669527053833,0.0016453266143798828,-0.0020840736106038094,-0.0012129545211791992,-0.015090624801814556,-0.007419475354254246,-0.0007792319520376623,0.18692853232314005,-0.005090044860411537,-2.8638253453931064
1687006645.343632,0.18572133779525757,0.005339621566236019,-0.9825879335403442,0.006264731287956238,-0.0006552021950483322,0.0037518739700317383,-0.006055895239114761,-0.0077138436026871204,0.0032575211953371763,0.18680861677304064,-0.005339646944430637,-2.863774126392881
1687006645.413261,0.18543928861618042,0.00577037176117301,-0.9826387763023376,0.0009162873029708862,-0.0006892275996506214,-0.0065732598304748535,-0.012950819917023182,0.0003757739905267954,0.0025670966133475304,0.1865220299908474,-0.005770403817916637,-2.8634978358924887
1687006645.507869,0.18556901812553406,0.005176326259970665,-0.9826176166534424,0.0024345219135284424,-0.003467370755970478,-0.004824399948120117,0.015025775879621506,0.0053464751690626144,0.006095385178923607,0.18665342919384353,-0.005176349239919975,-2.8633273025703647
1687006645.5244598,0.18510176241397858,0.005311574321240187,-0.9827049970626831,-0.0007756054401397705,-0.009126303717494011,-0.0017615556716918945,-0.028160974383354187,-0.004041966050863266,0.00012344657443463802,0.18617807532039657,-0.0053115992032600435,-2.8631348344321883
1687006645.632339,0.1848139762878418,0.006242742296308279,-0.9827536940574646,-0.0029750019311904907,0.004835109226405621,-0.0074349045753479,2.9561109840869904e-05,0.0014351794961839914,-0.003690599463880062,0.18588623537906826,-0.006242782689535351,-2.8629682059028387
1687006645.647779,0.18470734357833862,0.006038090214133263,-0.9827750325202942,0.0002749413251876831,-0.0021318700164556503,-0.0016457438468933105,-0.003567082341760397,-0.004956495948135853,0.004571658093482256,0.1857775007355464,-0.006038126815554651,-2.8628735820055273
1687006645.752362,0.18455444276332855,0.006309241056442261,-0.9828020334243774,-0.0004113912582397461,0.0024950485676527023,-0.0037854909896850586,-0.011791899800300598,-0.009239479899406433,0.0029167693573981524,0.18562223940220113,-0.006309283055172318,-2.8628424890490893
1687006645.76528,0.18434619903564453,0.00684100016951561,-0.9828375577926636,0.002757057547569275,0.006830843631178141,-0.008037686347961426,0.0099610211327672,0.00202000979334116,0.004900358617305756,0.18541101441619068,-0.006841053356927261,-2.862669836690909
1687006645.770798,0.1842755824327469,0.006565640214830637,-0.9828526973724365,0.008061453700065613,-0.003315548412501812,-0.008648157119750977,-0.021351538598537445,-0.0016608338337391615,0.006433540489524603,0.18533880672012235,-0.006565687192876819,-2.8623820447688937
1687006645.836046,0.1841433197259903,0.007414400111883879,-0.982871413230896,-0.002899453043937683,-0.0003343517892062664,0.0048899054527282715,-0.004655027762055397,-0.0016662490088492632,-0.00041970517486333847,0.18520535540862904,-0.007414467849053569,-2.862064051089065
1687006645.848991,0.18419642746448517,0.006905269809067249,-0.9828652143478394,0.0011825859546661377,0.00046469317749142647,-0.0078116655349731445,0.018261650577187538,0.0009035237599164248,-0.0027652843855321407,0.1852587061639536,-0.006905324684861452,-2.862181843693395
1687006645.92711,0.1844235211610794,0.006993486545979977,-0.9828220009803772,-0.0037289559841156006,0.001597182359546423,-0.0011410117149353027,-0.0032743564806878567,0.009211077354848385,-0.0005800274666398764,0.18548988068473074,-0.006993543651173707,-2.862208245724659
1687006645.9434562,0.18433621525764465,0.00711729284375906,-0.9828374981880188,0.002477124333381653,0.00449461629614234,-0.011074244976043701,8.3134975284338e-05,-0.004348584916442633,-0.0026610882487148046,0.1854012187352939,-0.007117352886505675,-2.8622974666141814
1687006646.016304,0.18437711894512177,0.0069903163239359856,-0.9828307032585144,-0.002156659960746765,-3.2337382435798645e-05,-0.004382431507110596,-0.0008969971677288413,0.004268161486834288,0.0013702719006687403,0.18544265554828682,-0.0069903733807447025,-2.862383178609427
1687006646.029015,0.18462608754634857,0.006780283059924841,-0.9827854633331299,0.007115840911865234,-0.006093667820096016,-0.008623838424682617,-0.005554777104407549,0.004698173142969608,0.00034016126301139593,0.18569570951319103,-0.006780335063857064,-2.8624008446672415
1687006646.075103,0.18456192314624786,0.00669378275051713,-0.9827980995178223,-0.0034248530864715576,0.0011492036283016205,-0.008367061614990234,0.007905416190624237,0.00808766670525074,-0.004014839418232441,0.18563032319946018,-0.006693832745547254,-2.862663460992498
1687006646.170305,0.18496166169643402,0.0065208240412175655,-0.982724130153656,0.0014396756887435913,-0.003636944107711315,0.003308236598968506,-0.010464359074831009,0.00540755083784461,0.0037288342136889696,0.18603685554470797,-0.006520870274706743,-2.862758413434173
1687006646.1855478,0.18475203216075897,0.006882765796035528,-0.9827610850334167,0.000245511531829834,-0.0012675602920353413,0.003757178783416748,0.004441753029823303,-0.00028122751973569393,0.002342858351767063,0.18582399919291057,-0.0068828200825872005,-2.862621637545121
1687006646.226754,0.18478511273860931,0.0064498563297092915,-0.9827578067779541,-0.0007641315460205078,0.004887392744421959,-0.0071713924407958984,0.012418498285114765,-0.0033163439948111773,-0.0017108056927099824,0.1858571177657788,-0.006449901167910989,-2.862668698111301
1687006646.288,0.18496617674827576,0.006506900303065777,-0.9827233552932739,0.0022896677255630493,0.009469020180404186,-0.0015295743942260742,-0.0006706283893436193,-0.006407652050256729,0.001599170733243227,0.18604142757897504,-0.006506946335541735,-2.8626284527690626
1687006646.380187,0.18480819463729858,0.006498186849057674,-0.9827530980110168,0.005484133958816528,0.002016188111156225,-0.011311173439025879,-0.0027267220430076122,0.009758002124726772,-0.0002440697862766683,0.18588066752032595,-0.006498232427262659,-2.8625558420142543
1687006646.3890538,0.18565408885478973,0.007032758090645075,-0.9825900197029114,0.007049143314361572,0.007218918763101101,-0.014602363109588623,0.013353356160223484,0.011396467685699463,-0.005869598127901554,0.18674215737139277,-0.007032815993201807,-2.861938185730304
1687006646.472497,0.18574818968772888,0.006103703286498785,-0.9825783967971802,0.0033539533615112305,0.00137307308614254,-0.02071744203567505,0.011638280004262924,0.006287192925810814,0.014508377760648727,0.18683677017680994,-0.006103741339369397,-2.8621465219913143
1687006646.4871712,0.18557484447956085,0.0011236579157412052,-0.9826294779777527,0.02504219114780426,0.06320736557245255,-0.02797532081604004,0.18703477084636688,-0.013671779073774815,-0.04572486877441406,0.18665696018524505,-0.0011236581060987104,-2.863875988868325
1687006646.560947,0.1804324984550476,-0.003383375471457839,-0.98358154296875,0.0164516419172287,0.0698353722691536,0.06036376953125,0.039647944271564484,-0.0994379073381424,-0.05215473845601082,0.18142719838138038,0.0033833819341945264,-2.866309297267014
1687006646.575465,0.17550809681415558,-0.0009158142493106425,-0.9844775795936584,0.010740667581558228,0.023651380091905594,0.013103067874908447,-0.006039871834218502,-0.09238576143980026,-0.030764561146497726,0.17642192945161198,0.000915814362127014,-2.8666182254220787
1687006646.61428,0.172893688082695,-0.0015756709035485983,-0.9849392175674438,-0.013302028179168701,0.0009042524034157395,-0.004501700401306152,-0.0012161770137026906,-0.03194443881511688,-0.001712536672130227,0.17376706264306555,0.0015756715529252165,-2.8672309644251706
1687006646.687294,0.171182781457901,-0.001940022804774344,-0.9852373600006104,-0.004144847393035889,0.004747609607875347,-0.010535895824432373,0.018367644399404526,-0.024482525885105133,-0.005002872087061405,0.1720303673215125,0.0019400239976545147,-2.8678574528591056
1687006646.771023,0.1703958362340927,-0.002932158065959811,-0.9853713512420654,0.010146141052246094,0.008028561249375343,-0.01305699348449707,0.0567425973713398,0.003757367143407464,-0.018054958432912827,0.1712321044774856,0.0029321623357846547,-2.8687323718465723
1687006646.78598,0.16998961567878723,-0.006064826622605324,-0.98542720079422,-0.010214850306510925,-6.923871114850044e-05,0.0016930699348449707,0.06747637689113617,-0.013186106458306313,0.003946214914321899,0.17082229832476975,0.0060648637615851675,-2.8698250021697658
1687006646.824627,0.16961227357387543,-0.008505169302225113,-0.985474169254303,0.002705216407775879,-0.0030305078253149986,0.0009160637855529785,0.03283020853996277,0.004008769523352385,-0.009443027898669243,0.1704424572375721,0.008505271510513857,-2.8702879418615472
1687006646.8887749,0.16900122165679932,-0.010361834429204464,-0.9855613708496094,0.0022023767232894897,-0.008849015459418297,-0.018878936767578125,0.03813628852367401,-0.015888240188360214,-0.02458549477159977,0.16982543165059022,0.010362020033018228,-2.871958207879393
1687006646.9807081,0.16866344213485718,-0.011638250201940536,-0.985605001449585,-0.011314824223518372,-0.02014584094285965,-0.015417337417602539,0.008225305937230587,-0.0010138633660972118,-0.00414580013602972,0.16948512169243027,0.011638512912415067,-2.873182812988314
1687006646.988519,0.16932114958763123,-0.012754501774907112,-0.985478401184082,0.02390088140964508,-0.014131518080830574,-0.0014600753784179688,0.005453843157738447,-0.005022808443754911,-0.01434530783444643,0.170154805253465,0.012754847160665817,-2.87348059151138
1687006647.068276,0.1682984083890915,-0.012917723506689072,-0.985651433467865,-0.02674265205860138,-0.00447732862085104,-0.033452510833740234,0.0030526486225426197,0.017010677605867386,0.006830018013715744,0.16911745343885642,0.012918082511011059,-2.8741068758199027
1687006647.082594,0.16916993260383606,-0.014304138720035553,-0.9854831099510193,0.03702206909656525,-0.016274508088827133,-0.004400312900543213,-0.018650071695446968,-0.020155776292085648,-0.00012309569865465164,0.17000496387930666,0.01430462661849247,-2.87397696152354
1687006647.188139,0.1676788330078125,-0.012998616322875023,-0.985755980014801,-0.034820571541786194,0.005216603167355061,-0.007301270961761475,0.03552728146314621,-0.0014465381391346455,0.011908466927707195,0.16848906489038173,0.012998982762529936,-2.8736150071618765
1687006647.203412,0.16835902631282806,-0.015608442015945911,-0.9856021404266357,0.020804166793823242,-0.00959911197423935,-0.0015499591827392578,-0.023295646533370018,-0.010843945667147636,0.005823143757879734,0.16918550951668743,0.015609075833301659,-2.873486888416746
1687006647.2752938,0.16716568171977997,-0.014893892221152782,-0.9858162999153137,-0.009069398045539856,-0.009352357126772404,0.002234816551208496,0.03328076750040054,-0.005002923309803009,0.00854895543307066,0.16797300546297506,0.01489444258278523,-2.8731071187880204
1687006647.289631,0.16761663556098938,-0.01641201786696911,-0.9857156276702881,0.005814746022224426,-0.008627686649560928,-0.008318185806274414,-0.005112869665026665,-0.004576373845338821,0.010386137291789055,0.1684345106457319,0.016412755108572683,-2.8731351633630444
1687006647.366457,0.16718223690986633,-0.016630569472908974,-0.985785722732544,0.003792479634284973,0.0024093464016914368,-0.013527631759643555,0.03996650129556656,-0.0016364215407520533,0.0025907319504767656,0.1679944360297757,0.016631336213605446,-2.872935662869797
1687006647.3801398,0.16754116117954254,-0.01850331760942936,-0.9856914281845093,0.004120200872421265,-0.008565807715058327,-0.013301491737365723,0.022052038460969925,0.017346501350402832,-0.0012024081079289317,0.16836415112923678,0.01850437350047605,-2.8732142111865655
1687006647.45644,0.16777202486991882,-0.01916351728141308,-0.9856395721435547,0.007047891616821289,-0.03062594123184681,-0.0008563995361328125,0.008020863868296146,-0.021909913048148155,0.009421540424227715,0.16860048586877416,0.01916469119963205,-2.873415463342219
1687006647.470407,0.16799241304397583,-0.0210040882229805,-0.9855645298957825,0.0017310678958892822,-0.0034862980246543884,0.004302322864532471,0.03861219435930252,0.00538242794573307,0.006836875807493925,0.16883038229677189,0.02100563260715768,-2.873659945668954
1687006647.514952,0.1682293564081192,-0.02190401591360569,-0.9855045080184937,-0.014848023653030396,0.015190117061138153,0.009033560752868652,0.044111087918281555,0.00965094193816185,-0.007715035229921341,0.1690741026110637,0.021905768306964644,-2.873958847768982
1687006647.609122,0.16873802244663239,-0.02307029440999031,-0.9853909015655518,0.008370727300643921,0.0052937716245651245,0.008584260940551758,0.018567025661468506,0.015807460993528366,-0.00914821494370699,0.16959476423038153,0.02307234185079642,-2.874294789586284
1687006647.6250072,0.168817400932312,-0.02243044786155224,-0.9853920936584473,0.014791592955589294,-0.004394538700580597,-0.026799678802490234,-0.05537324398756027,-0.013789312914013863,-0.01156250387430191,0.1696728334535822,0.022432329457158277,-2.8749958581633006
1687006647.662117,0.16901780664920807,-0.02148766815662384,-0.9853787422180176,-0.017192870378494263,0.014880580827593803,0.014248371124267578,0.03520685434341431,0.017316408455371857,0.0011428380385041237,0.169872662231721,0.021489322645509686,-2.875057048286349
1687006647.7594361,0.1694396585226059,-0.0209746565669775,-0.9853173494338989,0.00896608829498291,-0.036901965737342834,-0.041309237480163574,-0.060824424028396606,-0.007441313937306404,-0.013172185979783535,0.17029890793898309,0.02097619496524485,-2.875399624218849
1687006647.77474,0.16989833116531372,-0.021944329142570496,-0.9852172136306763,0.003975540399551392,0.01352144405245781,0.026431262493133545,0.054059240967035294,0.027054790407419205,-0.0025343880988657475,0.17076802982355616,0.021946090701677575,-2.875903785865187
1687006647.813251,0.169882670044899,-0.021293126046657562,-0.9852342009544373,-0.015631601214408875,-0.0006337836384773254,-0.02350902557373047,-0.012735458090901375,-0.008855451829731464,0.0037556651514023542,0.17074969446748375,0.021294736084376018,-2.8761674003163304
1687006647.909369,0.1702760010957718,-0.02266796864569187,-0.9851356744766235,0.017101913690567017,0.0030603911727666855,0.019879937171936035,0.022034507244825363,0.005259035155177116,-0.006051424890756607,0.171154160529486,0.022669911298861586,-2.8762648878393966
1687006647.925284,0.1697073131799698,-0.022528639063239098,-0.9852370023727417,-0.0012655556201934814,0.003638222813606262,-0.006889522075653076,0.018389437347650528,-0.0028779872227460146,-0.0009408192709088326,0.17057638282529627,0.022530544819899127,-2.8764106626650787
1687006647.963921,0.1701502948999405,-0.02370169758796692,-0.9851330518722534,0.009552448987960815,-0.004878047853708267,-0.011708378791809082,0.000523444265127182,-0.005084238946437836,-0.0023355167359113693,0.17103070882445268,0.023703917124162237,-2.876609898578692
1687006648.0608559,0.16969938576221466,-0.023541167378425598,-0.9852146506309509,0.0033963024616241455,-0.0018952693790197372,-0.0030055642127990723,-0.003500991500914097,-0.002335323952138424,0.0004211878404021263,0.17057235561915593,0.02354334216862387,-2.8767791824583058
1687006648.076665,0.16983254253864288,-0.024173811078071594,-0.9851763844490051,0.0009743273258209229,0.003086131066083908,-0.007774055004119873,0.024373028427362442,0.0023194379173219204,0.006888474803417921,0.17071011261901817,0.02417616650784026,-2.87676854285043
1687006648.112241,0.16960810124874115,-0.024656619876623154,-0.9852030873298645,-0.005911841988563538,-0.0041520074009895325,-0.004191994667053223,0.010830054990947247,-0.00272192619740963,0.009348968975245953,0.1704843386473314,0.024659119413907946,-2.876639084458883
1687006648.209547,0.1700003445148468,-0.026440812274813652,-0.9850892424583435,-0.009523674845695496,-0.005297502502799034,-0.003573477268218994,0.031410206109285355,0.01603720337152481,0.007677236571907997,0.17089035756604398,0.02644389411318244,-2.8766810651485777
1687006648.225313,0.17041327059268951,-0.0278264619410038,-0.9849796891212463,-0.0011475235223770142,-0.000844838097691536,-0.006460130214691162,0.014782053418457508,0.006214044522494078,0.0023222854360938072,0.17131604710209591,0.02783005435235172,-2.8765802040952613
1687006648.298068,0.17030183970928192,-0.028775202110409737,-0.9849717020988464,0.0028701424598693848,0.010540913790464401,-0.014616310596466064,0.0393020436167717,-0.0030188686214387417,0.0007499550702050328,0.17120757347044657,0.02877917490544737,-2.876237579087382
1687006648.4216409,0.17106671631336212,-0.03213128447532654,-0.984735369682312,0.008803874254226685,0.024623926728963852,0.005548357963562012,0.05852806940674782,0.01677294634282589,0.0017803986556828022,0.17200193756339371,0.032136815875643425,-2.8758145323967175
1687006648.4372602,0.17109894752502441,-0.0330081507563591,-0.9847007989883423,0.0008370727300643921,-0.014797668904066086,-0.022989630699157715,0.03027774579823017,0.0009464893955737352,0.00243760016746819,0.1720396332923759,0.033014148184925755,-2.8761342491776145
1687006648.476647,0.17230410873889923,-0.03671470656991005,-0.9843593239784241,0.010023146867752075,0.03805744647979736,-0.0014499425888061523,0.08511986583471298,0.02675527334213257,0.0022490485571324825,0.1732862927935345,0.03672295963940008,-2.876056194116111
1687006648.488223,0.17244915664196014,-0.03796781226992607,-0.9842864274978638,0.007833421230316162,-0.0068778060376644135,0.00838005542755127,0.024529311805963516,-0.003852793015539646,-0.0010186501313000917,0.1734418563871316,0.037976939019669545,-2.8763133787769113
1687006648.491375,0.17320139706134796,-0.038450632244348526,-0.9841355681419373,0.0014811903238296509,0.01022183895111084,0.0005235671997070312,0.008883284404873848,0.017286669462919235,0.004255940206348896,0.17420940928611472,0.0384601138353826,-2.8762455952794985
1687006648.531419,0.17397847771644592,-0.03917676582932472,-0.9839698672294617,0.0008719712495803833,-0.009071558713912964,0.00363844633102417,-0.010674215853214264,0.008035557344555855,0.002160631585866213,0.1750040649557223,0.039186795577124824,-2.8764401426981867
1687006648.596832,0.17488962411880493,-0.03852538764476776,-0.9838340282440186,-0.0062800198793411255,0.0011107996106147766,-0.009497880935668945,0.0026774092111736536,0.03844432905316353,-0.020313585177063942,0.1759256274574208,0.03853492450450226,-2.8762921876124223
1687006648.688892,0.1762031465768814,-0.03879736736416817,-0.9835889339447021,0.010503366589546204,0.002206757664680481,-0.005607783794403076,-0.0014287416124716401,0.021211635321378708,-0.006844647694379091,0.17726278185545555,0.03880710563651274,-2.876162408203943
1687006648.778022,0.17683713138103485,-0.03802649304270744,-0.9835052490234375,-0.002185046672821045,-0.01647793874144554,-0.006927490234375,-0.05195405334234238,0.03035302460193634,-0.00787888653576374,0.17790205435157722,0.0380356628869643,-2.8759983020636093
1687006648.795994,0.1796029955148697,-0.03646327182650566,-0.9830631613731384,0.00270901620388031,0.006632301956415176,0.0008243918418884277,-0.02511933445930481,0.06085376441478729,-0.008997813798487186,0.18070435619812475,0.03647135491562829,-2.875837386107301
1687006648.867338,0.18181170523166656,-0.03498164191842079,-0.9827109575271606,0.011990174651145935,-0.025412678718566895,-0.0051430463790893555,-0.0643884465098381,0.03149028494954109,0.01384624931961298,0.18294177742446713,0.03498878112257855,-2.875305458115917
1687006648.881668,0.1832391768693924,-0.03197311609983444,-0.9825482964515686,0.003284260630607605,-0.0021760910749435425,0.0003858208656311035,-0.02655717544257641,0.0480002835392952,0.01627505198121071,0.18437575400401623,0.031978564441696763,-2.8748939635920916
1687006648.956296,0.18358375132083893,-0.03090106137096882,-0.9825182557106018,-0.008046656847000122,-0.0070780981332063675,-0.0011700987815856934,-0.040742192417383194,-0.008209635503590107,-0.0029513060580939054,0.1847201642345698,0.03090598084423389,-2.8747875277054415
1687006648.970221,0.18366745114326477,-0.029807688668370247,-0.9825363755226135,0.0008113086223602295,0.0048595331609249115,-0.007423341274261475,-0.00684809684753418,-0.006250525824725628,-0.0005112513317726552,0.18479913492504496,0.02981210357468227,-2.874751962654593
1687006649.05302,0.18373934924602509,-0.028847679495811462,-0.982551634311676,0.009864166378974915,-0.006781626492738724,-0.006782472133636475,-0.03956644982099533,-0.005830190610140562,0.004371787421405315,0.1848670440650553,0.028851682788001466,-2.874659976488315
1687006649.067256,0.18360809981822968,-0.02771679311990738,-0.9826086759567261,-0.005400732159614563,0.006812220439314842,-0.0015221238136291504,-0.007601150311529636,0.00773257901892066,-0.001302343443967402,0.18472749025277518,0.02772034380988598,-2.8743565420050743
1687006649.102036,0.18380099534988403,-0.02665065973997116,-0.9826021194458008,0.008673369884490967,-0.008902354165911674,0.0020723342895507812,-0.0457950085401535,-0.008155041374266148,0.0007126709679141641,0.18491836954247332,0.026653814839278214,-2.874049649837945
1687006649.201319,0.18331368267536163,-0.025169596076011658,-0.9827322363853455,-0.005472511053085327,0.002601815387606621,-0.004801392555236816,-0.013441195711493492,0.006502997130155563,0.003809993853792548,0.1844153006833993,0.025172254909402572,-2.873623729896594
1687006649.216309,0.18393459916114807,-0.02517520636320114,-0.9826160073280334,0.005747392773628235,0.0019665565341711044,-0.0008891820907592773,-0.013097559101879597,-0.00010173069313168526,-0.001855481881648302,0.18504718053196523,0.02517786647499967,-2.873797071176798
1687006649.2572598,0.18352395296096802,-0.02387950010597706,-0.9827251434326172,0.0016719549894332886,0.004805978387594223,-0.0077075958251953125,-0.012637808918952942,-0.01150041539222002,0.007363449782133102,0.1846233579868504,0.023881769474423938,-2.873380714290565
1687006649.3525329,0.18356269598007202,-0.023146262392401695,-0.9827354550361633,0.0033269375562667847,-0.00023023784160614014,-0.00569838285446167,-0.011740945279598236,-0.0019060224294662476,0.0006087410729378462,0.18465955545920812,0.023148329238289744,-2.8731998099589617
1687006649.36713,0.1835256814956665,-0.022634286433458328,-0.9827542901039124,0.005362853407859802,0.003438694402575493,-0.012195050716400146,-0.008904234506189823,-0.0014366847462952137,0.0035882857628166676,0.18461969675145698,0.02263621893275364,-2.8729882600180927
1687006649.404159,0.18359462916851044,-0.022373929619789124,-0.9827473759651184,0.0016470551490783691,-0.004023808985948563,0.0015919804573059082,-0.023595696315169334,0.003674454055726528,0.0046767862513661385,0.18468876183567678,0.022375797276605894,-2.8729338626943735
1687006649.5025868,0.18359561264514923,-0.02166682295501232,-0.9827630519866943,-0.0004596412181854248,0.0008080229163169861,0.003881216049194336,-0.007802041247487068,-0.002773502841591835,-0.005360601469874382,0.18468685844276145,0.021668517839316906,-2.8728869032887063
1687006649.517391,0.18374580144882202,-0.021055549383163452,-0.98274827003479,-0.007049039006233215,0.009260471910238266,0.00037217140197753906,-0.0035682362504303455,-0.0006207807455211878,-0.005103339906781912,0.1848372352092348,0.021057105918800646,-2.8729128936405863
1687006649.586029,0.1838570237159729,-0.020641393959522247,-0.9827362298965454,0.006572633981704712,-0.0010871533304452896,-0.0010741353034973145,-0.01914280094206333,-0.003897267859429121,-0.00022223184350878,0.18494879247961113,0.020642860880496623,-2.8728743936513426
1687006649.682098,0.18378393352031708,-0.019921759143471718,-0.9827647805213928,-0.0019754767417907715,0.0043882764875888824,-0.004890859127044678,-0.005600184202194214,0.0020912049803882837,-0.0025594220496714115,0.18487169479083032,0.019923076450171627,-2.872775451605762
1687006649.689701,0.184245303273201,-0.020326433703303337,-0.9826700687408447,0.010105878114700317,-0.0024702288210392,-0.014293432235717773,0.00781335961073637,0.005240925587713718,-0.007811175659298897,0.18534270575858142,0.020327833177488753,-2.8730284594740176
1687006649.769165,0.18439528346061707,-0.02042406052350998,-0.9826399087905884,0.002036571502685547,-9.904243052005768e-05,-0.0011704564094543457,0.00562255410477519,0.009786764159798622,-0.0070294043980538845,0.1854957041286529,0.02042548063972873,-2.8732799945737577
1687006649.784213,0.18458528816699982,-0.020421713590621948,-0.9826043248176575,0.0020602047443389893,-0.009104078635573387,-0.01205509901046753,-0.007917843759059906,0.0022040342446416616,-0.003702850081026554,0.18568905540114486,0.02042313250113447,-2.8735871495225025
1687006649.85611,0.18477723002433777,-0.020237430930137634,-0.9825720191001892,-0.00010013580322265625,-0.006206080317497253,0.006757259368896484,-0.007035450078547001,0.0039927903562784195,-0.0007233055657707155,0.18588369921108847,0.02023881245981001,-2.8736894259609245
1687006649.870932,0.18477588891983032,-0.02017313428223133,-0.9825736284255981,-0.0002971440553665161,0.0022440217435359955,-0.0056923627853393555,0.0022568958811461926,0.0005531406495720148,-0.004642080515623093,0.1858820906078099,0.020174501898337135,-2.873748666072212
1687006649.94997,0.18499775230884552,-0.020162876695394516,-0.9825320839881897,0.0010679066181182861,0.0019591059535741806,-0.005367696285247803,0.005118240602314472,-0.0020910233724862337,-0.002419073600322008,0.1861078480792732,0.0201642431487076,-2.873783780239576
1687006649.9572458,0.18502791225910187,-0.020347634330391884,-0.9825226068496704,0.005310222506523132,-0.0003280583769083023,-0.00316464900970459,-0.00037883466575294733,0.0001573949120938778,-0.003868698375299573,0.18613924714731872,0.020349038736339628,-2.874065614843771
1687006650.006444,0.1850270926952362,-0.020157121121883392,-0.9825266599655151,0.004105567932128906,0.0025179293006658554,-0.009721815586090088,-0.0006321012042462826,0.006186525337398052,-0.005698423366993666,0.18613769201787822,0.02015848573854568,-2.8741644876296397
1687006650.101431,0.18504279851913452,-0.02003159187734127,-0.9825263023376465,0.008163988590240479,-0.006518734619021416,-0.011873722076416016,0.0024165967479348183,-0.00026675802655518055,-0.0028158179484307766,0.18615319484014548,0.020032931040152795,-2.8742100139887
1687006650.1160321,0.18500584363937378,-0.019697250798344612,-0.9825400114059448,-0.003121092915534973,-0.004274342209100723,0.0008658170700073242,-0.016743825748562813,0.006490391679108143,-0.004148929379880428,0.18611434069927732,0.019698524148010748,-2.874431234611487
1687006650.156034,0.1851116418838501,-0.019460560753941536,-0.9825248122215271,0.0011828988790512085,0.007253497838973999,-0.0060005784034729,0.01137897651642561,-0.0003561512567102909,-0.002227325923740864,0.18622115050545945,0.019461789426804762,-2.874518543777404
1687006650.244824,0.18498964607715607,-0.018855610862374306,-0.9825595617294312,-0.0009534060955047607,-8.05780291557312e-05,0.0027774572372436523,-0.020666129887104034,-0.004794486798346043,-0.0034178919158875942,0.18609480547471602,0.01885672746820085,-2.8743778972433867
1687006650.2610888,0.1850980818271637,-0.018361641094088554,-0.9825484752655029,0.00801713764667511,-0.0007881708443164825,-0.0031387805938720703,-0.012164032086730003,-0.005609503015875816,0.002619028091430664,0.18620342931257847,0.018362672543227695,-2.8745145047580145
1687006650.3400068,0.18507897853851318,-0.017198003828525543,-0.9825731515884399,0.005991578102111816,-0.00013601407408714294,-0.014451384544372559,-0.007559649180620909,0.00506133958697319,-0.0018962947651743889,0.18618008029922475,0.017198851476463425,-2.8741635737075626
1687006650.354886,0.18534104526042938,-0.017892641946673393,-0.9825113415718079,0.00093822181224823,-0.0003721602261066437,-0.016039013862609863,0.02092241495847702,0.007568616885691881,-0.003920163959264755,0.18644910761990072,0.017893596818062497,-2.8744815203321594
1687006650.392684,0.18550048768520355,-0.018042059615254402,-0.9824784994125366,0.003983139991760254,0.000723300501704216,0.009044051170349121,-0.003719326574355364,-0.0011546558234840631,-0.0013711859937757254,0.18661189859864008,0.01804303943399365,-2.8746231659353336
1687006650.491722,0.185191810131073,-0.01797063834965229,-0.9825380444526672,-0.003017142415046692,-0.0024914294481277466,0.0026491284370422363,-0.002126933541148901,-0.0038027255795896053,0.006045717746019363,0.1862974878798849,0.017971605170708966,-2.8743987213483977
1687006650.506164,0.18539740145206451,-0.018272418528795242,-0.9824937582015991,-0.000766068696975708,0.0027389414608478546,-0.008015275001525879,0.013499208725988865,0.006128024309873581,-0.004171033855527639,0.18650775657580415,0.018273434705084718,-2.8743251788048347
1687006650.544415,0.18532529473304749,-0.0181302260607481,-0.982509970664978,0.0024341046810150146,0.001833803951740265,-0.005359292030334473,-0.01432447787374258,-0.009270993992686272,0.002544326474890113,0.18643387884344964,0.01813121941449198,-2.874251984306451
1687006650.671071,0.18540357053279877,-0.017766859382390976,-0.9825018644332886,0.004568323493003845,0.007512921467423439,-0.011425137519836426,0.011822216212749481,0.003926389385014772,-0.0009066641796380281,0.18651232954199817,0.017767794628658486,-2.874034003642915
1687006650.685203,0.1852901577949524,-0.017642652615904808,-0.9825254678726196,0.0021945685148239136,-0.002834675833582878,-0.009265303611755371,-0.015876390039920807,-0.0017943468410521746,-0.00013148464495316148,0.18639647709891852,0.017643568292380164,-2.874043418516044
1687006650.758172,0.18510407209396362,-0.017226368188858032,-0.9825679063796997,0.00877407193183899,-8.381903171539307e-07,-0.011587917804718018,-0.004305976442992687,-0.0002160689327865839,-0.0011456828797236085,0.18620572362948226,0.017227219690573798,-2.873798319124622
1687006650.7732558,0.18493874371051788,-0.017270514741539955,-0.9825983047485352,-0.0009177625179290771,-0.0038934610784053802,0.005745887756347656,-0.011009729467332363,-0.0036244713701307774,0.00330945267342031,0.18603760079872583,0.017271372614956572,-2.8737318745028615
1687006650.854735,0.18467801809310913,-0.016463497653603554,-0.9826611876487732,-0.0010385066270828247,0.007628625258803368,-0.014042913913726807,0.014114798977971077,0.004111744929105043,-0.004723972640931606,0.18576970178234184,0.01646424058390769,-2.873613903795116
1687006650.868123,0.1859847605228424,-0.016877537593245506,-0.9824076890945435,0.003605678677558899,0.03796514868736267,0.022050023078918457,0.013586959801614285,0.06749817728996277,0.0032862829975783825,0.1871009814402968,0.016878338667748197,-2.8736773519742975
1687006650.937252,0.18655286729335785,-0.011075649410486221,-0.9823824763298035,0.008210286498069763,0.00750506017357111,-0.04329800605773926,-0.061641570180654526,-0.001485598273575306,0.00046772672794759274,0.18766388922539196,0.011075875812997493,-2.8720568922102814
1687006650.9513001,0.18478924036026,-0.009592617861926556,-0.9827313423156738,-0.00011213123798370361,0.029642634093761444,0.009754657745361328,0.018872534856200218,-0.03637868911027908,-0.01543054636567831,0.185866060805469,0.009592764822990473,-2.8722478271588674
1687006650.99543,0.18377436697483063,-0.009659779258072376,-0.9829210042953491,0.02357730269432068,0.06834505498409271,-0.007908463478088379,0.06997247040271759,-0.017085686326026917,0.009748443961143494,0.18483356607242674,0.00965992990948634,-2.871719441664546
1687006651.0906348,0.18183687329292297,-0.010944925248622894,-0.9832677841186523,0.025133326649665833,-0.010493705049157143,-0.011162757873535156,-0.043030425906181335,-0.051474906504154205,-0.011386536061763763,0.1828652247074389,0.010945143374143446,-2.8726140073704585
1687006651.10577,0.17944544553756714,-0.008475633338093758,-0.9837313890457153,-0.013475626707077026,0.012305558659136295,0.006695926189422607,0.001267309533432126,-0.04213004931807518,-0.01363803818821907,0.1804292763563545,0.008475734545278446,-2.8725981859860417
1687006651.146648,0.17699329555034637,-0.008956058882176876,-0.9841713309288025,0.0015802979469299316,-0.029496122151613235,-0.00432354211807251,-0.0304579958319664,-0.05874338746070862,-0.015594730153679848,0.17793788148006637,0.008956178276961555,-2.8738509500986713
1687006651.238833,0.17386366426944733,-0.008055459707975388,-0.9847368001937866,0.0004985034465789795,-0.002702021040022373,-0.013264298439025879,0.05212320759892464,-0.06527389585971832,-0.020604202523827553,0.1747574704260106,0.00805554643688752,-2.8745716120265987
1687006651.2515888,0.172006294131279,-0.010714536532759666,-0.9850375652313232,-0.015420615673065186,0.02185341715812683,0.0017001628875732422,0.049822550266981125,-0.03123541548848152,-0.02123969793319702,0.17287597564929566,0.010714741262164052,-2.8759853970247216
1687006651.294781,0.17072612047195435,-0.012573329731822014,-0.9852383136749268,-0.00982220470905304,0.004470878280699253,-0.024557828903198242,0.05363526567816734,-0.016651945188641548,0.0026971253100782633,0.17158025569679788,0.012573661018271563,-2.8767154480944526
1687006651.389092,0.17008547484874725,-0.014590254053473473,-0.9853212833404541,0.013294637203216553,-0.002636951394379139,0.011215448379516602,0.03574707731604576,-0.016338756307959557,-0.036805540323257446,0.17093477454657374,0.014590771944886746,-2.8774537872690042
1687006651.402847,0.16919158399105072,-0.015449690632522106,-0.9854620695114136,-0.025591135025024414,0.0036240965127944946,-0.018673062324523926,0.045319367200136185,-0.0027351530734449625,-0.0006639169878326356,0.17002986290444805,0.015450305289503717,-2.877841216024696
1687006651.445925,0.1700514405965805,-0.01831764541566372,-0.9852648973464966,0.015144452452659607,0.006873521953821182,0.021016299724578857,0.056216489523649216,-0.002111440757289529,-0.018981805071234703,0.17091083271097748,0.018318670351955505,-2.878363396368088
1687006651.5393438,0.16883447766304016,-0.020368903875350952,-0.9854339361190796,0.003147318959236145,-0.017335597425699234,-0.01976931095123291,0.006164906546473503,-0.009331271052360535,-0.0008313634316436946,0.16968260154525572,0.020370311791086865,-2.879399111254846
1687006651.554857,0.1695912629365921,-0.020979933440685272,-0.9852911233901978,-0.0034383386373519897,0.023100871592760086,-0.0037835240364074707,0.047263920307159424,0.00936474185436964,0.0036770354490727186,0.1704527983939971,0.020981472937638194,-2.8793280358089164
1687006651.593365,0.16930024325847626,-0.021896598860621452,-0.9853212237358093,0.005000874400138855,-0.007491862401366234,-0.009444952011108398,0.010925929062068462,-0.0025277817621827126,-0.005749556235969067,0.17016081880187467,0.021898349184893074,-2.879897736288807
1687006651.689291,0.16944465041160583,-0.02280069887638092,-0.98527592420578,0.01932181417942047,0.0017282795161008835,-0.006575882434844971,0.006636153440922499,0.004912912845611572,-0.0046675801277160645,0.17031085129857326,0.022802675614193788,-2.8800884342301623
1687006651.704959,0.16930194199085236,-0.022873718291521072,-0.985298752784729,-0.00992390513420105,0.019852444529533386,0.004326462745666504,-0.008966907858848572,-0.011543558910489082,0.01150226779282093,0.17016629931934046,0.022875713629412514,-2.880207998365106
1687006651.750798,0.16987651586532593,-0.02341906540095806,-0.9851870536804199,0.02522234618663788,-0.004092566668987274,-0.003185749053955078,-0.004606159403920174,-0.0023347025271505117,-0.011245520785450935,0.17075165759381652,0.023421206364329858,-2.8805472163788357
1687006651.808563,0.1691787987947464,-0.02173972688615322,-0.9853456020355225,0.022410541772842407,0.032237738370895386,-0.02087998390197754,0.017424574121832848,0.028826145455241203,-0.022973284125328064,0.17003698028817338,0.02174143945599314,-2.8802372583475306
1687006651.821543,0.1692693680524826,-0.02262069284915924,-0.9853101968765259,0.002392008900642395,-0.020332831889390945,-0.01984727382659912,-0.012837546877563,-0.011695092543959618,-0.0018243228551000357,0.170132243634353,0.02262262171255179,-2.881011642015083
1687006651.862269,0.16893963515758514,-0.022283460944890976,-0.9853744506835938,0.005163133144378662,-0.00840199925005436,0.02921295166015625,-0.0066543519496917725,-0.005412163212895393,-0.010699108242988586,0.1697963140277736,0.022285305668849613,-2.8811386821693246
1687006651.928143,0.16892702877521515,-0.022539017722010612,-0.9853708148002625,-0.007397502660751343,0.012590255588293076,-0.02740079164505005,0.018439194187521935,0.008098941296339035,-0.013345889747142792,0.16978450716937044,0.02254092704436933,-2.881828373533557
1687006651.988762,0.16929957270622253,-0.02271147072315216,-0.9853029251098633,0.019878879189491272,-0.0048611946403980255,-0.0014982223510742188,-0.0172077938914299,0.003915559034794569,-0.007594327442348003,0.17016325513398467,0.022713423613691983,-2.8817810122753884
1687006652.0795522,0.16916531324386597,-0.02176550403237343,-0.985347330570221,-0.00894804298877716,0.003760099411010742,-0.007191121578216553,-0.007729291915893555,0.013560019433498383,-0.008443542756140232,0.17002338089663802,0.02176722305233218,-2.8824361185040925
1687006652.094442,0.1698520928621292,-0.022268082946538925,-0.9852179288864136,0.004967838525772095,-0.00679994560778141,0.017749667167663574,-0.0035510589368641376,-0.0004378214944154024,-0.004283019807189703,0.17072232877516363,0.022269924111251223,-2.8827816730314373
1687006652.203271,0.16963987052440643,-0.02238927222788334,-0.985251784324646,-0.009483635425567627,0.008244341239333153,-0.0006490945816040039,0.01648838445544243,0.003242311766371131,-0.010330859571695328,0.17050739798305642,0.022391143230586722,-2.8832045973376093
1687006652.210463,0.17008648812770844,-0.02248741127550602,-0.9851725101470947,0.005450606346130371,-0.006183888763189316,-0.0050923824310302734,-0.009985610842704773,0.004178856965154409,-0.0012206508545204997,0.1709610916053319,0.02248930762291236,-2.883244138029353
1687006652.3186002,0.17020176351070404,-0.02283661440014839,-0.9851446151733398,-0.009633541107177734,0.005502596497535706,0.004752159118652344,0.033075395971536636,0.00361471064388752,-0.010270871222019196,0.17107946491101705,0.02283860058107329,-2.8838513098116376
1687006652.326148,0.17052718997001648,-0.02337937243282795,-0.9850755929946899,0.003926530480384827,-0.002240169793367386,-0.01648080348968506,5.548249464482069e-05,0.0013229716569185257,0.0052673425525426865,0.1714119906926403,0.02338150273238995,-2.8839440844417803
1687006652.410748,0.17065531015396118,-0.02370397001504898,-0.9850456118583679,0.0030354708433151245,-0.009682295843958855,-0.00305253267288208,0.011592385359108448,0.006636954843997955,-0.011037461459636688,0.17154337424868057,0.023706189876085436,-2.8841219036365966
1687006652.425201,0.17110158503055573,-0.02469654567539692,-0.9849438071250916,0.007365182042121887,-0.007942033931612968,-0.005946636199951172,-0.02190472185611725,0.005464897491037846,-0.0064321244135499,0.17200062429245774,0.02469905775682902,-2.8847062118643363
1687006652.5003371,0.1714019924402237,-0.02407957799732685,-0.9849068522453308,-0.005737334489822388,0.006013138219714165,0.0071541666984558105,0.03423360362648964,0.005264272913336754,-0.010008550249040127,0.17230300234889298,0.024081905994888866,-2.8846456503068314
1687006652.5078502,0.17150132358074188,-0.024639304727315903,-0.9848757386207581,0.0008161664009094238,-0.008853772655129433,-0.016497552394866943,-0.012759560719132423,0.0054971217177808285,-0.0024096190463751554,0.17240623418776957,0.02464179900409604,-2.8851757973351604
1687006652.59042,0.17184029519557953,-0.02435593120753765,-0.9848237037658691,0.0031627416610717773,0.008074767887592316,-0.0019469261169433594,0.012898665852844715,0.0016541802324354649,-0.005853086709976196,0.17274920755377443,0.02435833908826229,-2.88533744892309
1687006652.6055799,0.1718248575925827,-0.02462085708975792,-0.9848198294639587,-0.00039239227771759033,-0.0010291989892721176,-0.00903087854385376,-0.0092936335131526,-0.002665023086592555,0.004511537030339241,0.17273467172005047,0.02462334449536806,-2.8853713247054875
1687006652.679755,0.17185699939727783,-0.024133943021297455,-0.9848262667655945,-0.0008670240640640259,0.00017761066555976868,-0.011252224445343018,0.01976189762353897,0.008971215225756168,0.0003534104907885194,0.17276523215306205,0.024136286843424334,-2.8851385273866272
1687006652.693671,0.17205965518951416,-0.02476521208882332,-0.984775185585022,0.004576072096824646,-0.004577472805976868,-0.011013388633728027,-0.008041991852223873,0.0018177868332713842,0.007773976307362318,0.1729737184083229,0.024767744230202653,-2.884917065274953
1687006652.732592,0.17196375131607056,-0.024259576573967934,-0.9848045110702515,-0.00832851231098175,0.0034770704805850983,0.004076361656188965,0.009491994045674801,0.003880138974636793,0.002788538346067071,0.1728741618547258,0.02426195587106777,-2.884535972115116
1687006652.8301558,0.17212197184562683,-0.02505999244749546,-0.9847568273544312,0.002408042550086975,-0.010355690494179726,0.00013768672943115234,0.0024466458708047867,-0.004723380319774151,0.01160673052072525,0.17303827963622606,0.025062616218839193,-2.8842708304026736
1687006652.84502,0.17192555963993073,-0.024385975673794746,-0.984808087348938,0.005335777997970581,0.002336990088224411,-0.005639910697937012,-0.02690400741994381,-0.0052838874980807304,0.0030588493682444096,0.1728359230190409,0.024388392868300662,-2.8840393686007966
1687006652.883833,0.1716815084218979,-0.023126907646656036,-0.9848810434341431,0.004130229353904724,0.0043127890676259995,0.0005060434341430664,0.0021208524703979492,-0.006292426493018866,0.008184835314750671,0.17258288679581688,0.023128969224321044,-2.883526024517284
1687006652.979645,0.17177966237068176,-0.023883506655693054,-0.9848458170890808,-0.00797659158706665,0.013492237776517868,-0.037035226821899414,0.04124907776713371,0.020543448626995087,0.009427865967154503,0.17268565979809491,0.023885777166300474,-2.8834356347591172
1687006652.9948769,0.1730053573846817,-0.025577781721949577,-0.9845886826515198,0.039137572050094604,-0.02994898334145546,0.01197826862335205,0.00883867684751749,0.007494492456316948,0.00545442895963788,0.17393770655945684,0.025580571477214778,-2.8832005405442627
1687006653.034158,0.17220698297023773,-0.02614726684987545,-0.9847137331962585,-0.006694912910461426,0.006127702072262764,-0.020657360553741455,0.0354321151971817,0.010820070281624794,0.0032991329208016396,0.17312946944851157,0.026150247210777272,-2.8833665761791876
1687006653.129962,0.17362651228904724,-0.02858317270874977,-0.9843966960906982,0.012423887848854065,-0.005031973123550415,0.015143156051635742,0.054240379482507706,0.04168788343667984,0.023738961666822433,0.174582986482663,0.02858706547987638,-2.8827568143822706
1687006653.14523,0.17373156547546387,-0.030122971162199974,-0.984332263469696,-0.010142117738723755,-0.009671982377767563,-0.001141369342803955,0.01577017456293106,0.011787951923906803,0.0029519901145249605,0.17469769783046682,0.030127528787063342,-2.882269047963015
1687006653.218123,0.17439191043376923,-0.03126762807369232,-0.9841797351837158,0.007172390818595886,-0.0032935626804828644,-0.0019041895866394043,0.037895627319812775,-0.002268655924126506,-0.0019608763977885246,0.1753748175502237,0.0312727250204656,-2.8826165865134805
1687006653.225563,0.17522041499614716,-0.03307317569851875,-0.9839735627174377,-0.00494760274887085,0.02080507203936577,-0.014210641384124756,0.031227296218276024,0.019516445696353912,0.008466530591249466,0.17622706571937913,0.033079209113628126,-2.8822498641234784
1687006653.275327,0.17600873112678528,-0.03433653339743614,-0.9837895631790161,0.0006269961595535278,-0.008510183542966843,-0.005926012992858887,0.01972612366080284,0.02931998483836651,-0.003780348226428032,0.17703589792358093,0.03434328224251832,-2.882331597594863
1687006653.36971,0.17741258442401886,-0.0340610034763813,-0.9835469722747803,0.01847974956035614,0.006518855690956116,-0.026569604873657227,0.002403813414275646,0.007497421931475401,-0.002149361651390791,0.17846135925874837,0.03406759385957281,-2.88202291262903
1687006653.3777409,0.17782999575138092,-0.03443180397152901,-0.9834586977958679,0.0022237151861190796,-0.015922237187623978,-0.0014351606369018555,-0.004722450394183397,0.007373230066150427,0.001578531228005886,0.17888806762550521,0.03443861051494195,-2.8821242983690167
1687006653.492527,0.1785043179988861,-0.033864717930555344,-0.9833561778068542,-0.006018981337547302,0.0064293816685676575,0.001620948314666748,-0.0003488740185275674,0.006440857425332069,-0.0008054639911279082,0.17957026469471077,0.03387119398146919,-2.8820265031952514
1687006653.50612,0.17900684475898743,-0.03357010707259178,-0.9832749366760254,0.004144385457038879,-0.0059196725487709045,-0.01219320297241211,-0.029444575309753418,0.010998324491083622,0.004286833107471466,0.18007950768189027,0.033576416031970695,-2.8819109274670716
1687006653.5801558,0.17988811433315277,-0.03259105980396271,-0.9831470251083374,-0.004228949546813965,0.0022718124091625214,0.0029987096786499023,-0.01838926039636135,0.0290116798132658,-0.003420355264097452,0.18096991101244744,0.03259683234148288,-2.88149516158408
1687006653.5934548,0.18085338175296783,-0.03226163238286972,-0.9829807877540588,0.006768673658370972,0.002354368567466736,-0.002614915370941162,-0.01638074778020382,0.006022118963301182,-0.00016683805733919144,0.18194984027970498,0.032267229954608324,-2.8818157528218538
1687006653.6766791,0.181657612323761,-0.03181476145982742,-0.9828470349311829,-0.004381030797958374,0.006942901760339737,-0.017915844917297363,-0.009011871181428432,0.04688148945569992,-0.014729934744536877,0.18276541715790937,0.031820129588124024,-2.8816614962285576
1687006653.6886039,0.18359729647636414,-0.030734848231077194,-0.9825209379196167,0.0008356720209121704,-0.002514088526368141,-0.004875302314758301,-0.019801268354058266,0.026326680555939674,-0.008970250375568867,0.1847329914815006,0.030739689884569345,-2.8817021163740915
1687006653.7563539,0.18382270634174347,-0.02946748211979866,-0.9825176000595093,0.004501253366470337,-0.004330769181251526,0.0015910863876342773,-0.02623852714896202,-0.005374256521463394,-0.0030959155410528183,0.18495527402246079,0.029471748842625173,-2.8814936776338924
1687006653.8477259,0.18412990868091583,-0.02817271649837494,-0.9824981093406677,-0.00258086621761322,-0.001276778057217598,0.0016631484031677246,-0.03621614724397659,0.022744551301002502,-0.014322871342301369,0.18526095246413238,0.028176443982954755,-2.8815177582183553
1687006653.861788,0.184848353266716,-0.0272456556558609,-0.9823893308639526,0.010189473628997803,0.0037165693938732147,-0.009660840034484863,-0.006321900524199009,-0.0033850534819066525,-0.0022753956727683544,0.18598740222075177,0.02724902812670064,-2.881496652860919
1687006653.9397469,0.18461064994335175,-0.02631109207868576,-0.9824594855308533,-0.0018866658210754395,-0.003443581983447075,-0.0032888054847717285,-0.03584512695670128,-0.0054955193772912025,0.001206088112667203,0.1857407426828821,0.026314129083114354,-2.881281443422617
1687006653.953333,0.18446502089500427,-0.025687383487820625,-0.982503354549408,0.005323782563209534,0.004813326522707939,-0.004419863224029541,-0.006465134210884571,-0.00381240202113986,0.0019421856850385666,0.18558946459440165,0.025690209336313503,-2.88118622746461
1687006654.030345,0.18445132672786713,-0.02506665699183941,-0.9825219511985779,0.00396418571472168,-0.0003087446093559265,-0.006995260715484619,-0.02248511277139187,-0.0034430215600878,0.005102558992803097,0.18557257534673768,0.025069282150417174,-2.8809697641655614
1687006654.044316,0.18423624336719513,-0.024259287863969803,-0.9825825691223145,0.0022719204425811768,0.003614114597439766,-0.003486156463623047,-0.0028019561432302,-0.005818028934299946,-0.002604762092232704,0.1853499270295987,0.024261668233671454,-2.8807695485915126
1687006654.117573,0.18417838215827942,-0.023439103737473488,-0.9826133251190186,-0.006413504481315613,-0.0010665468871593475,0.005013227462768555,-0.03292936459183693,0.0026225941255688667,0.006679749581962824,0.18528738076098783,0.0234412505818833,-2.880527502822559
1687006654.134008,0.18433982133865356,-0.022622540593147278,-0.9826021790504456,-0.0038893967866897583,0.0012602005153894424,-0.0033749938011169434,-0.0038431191351264715,0.004154444672167301,-0.003107633674517274,0.18544814207383406,0.02262447122015654,-2.88038704009998
1687006654.1734638,0.18458659946918488,-0.02186906896531582,-0.9825729131698608,0.0015553534030914307,0.0009950101375579834,-0.00621187686920166,-0.017418716102838516,0.011722614988684654,-0.0033148941583931446,0.18569614471100573,0.021870812217735756,-2.8803727205823586
1687006654.298677,0.18504029512405396,-0.02136005461215973,-0.9824987649917603,0.003085315227508545,0.007123569026589394,-0.006057143211364746,-0.004634566139429808,0.0074336836114525795,0.0020247437059879303,0.18615582722774884,0.021361680064938212,-2.880307678916167
1687006654.312684,0.18543149530887604,-0.02050834335386753,-0.9824431538581848,0.005898430943489075,-0.003890490159392357,-0.00995790958404541,-0.04090438038110733,0.0041772592812776566,0.0038544018752872944,0.18655064977925329,0.02050978154155154,-2.8799702903649815
1687006654.3917909,0.18550874292850494,-0.018881719559431076,-0.9824612140655518,0.0036239326000213623,0.00867355428636074,-0.008642911911010742,-0.0034266894217580557,0.007008110638707876,-0.002897110767662525,0.18662322978958062,0.0188828418859668,-2.8795732053664427
1687006654.404532,0.18580970168113708,-0.018669141456484795,-0.9824084043502808,0.0010188966989517212,-3.816932439804077e-05,-0.0020276308059692383,-0.008903302252292633,0.0062518613412976265,-0.0036447932943701744,0.18692881545692908,0.018670226520517363,-2.879618581259118
1687006654.481468,0.186359703540802,-0.01859809271991253,-0.9823055267333984,-0.000599205493927002,-0.003420371562242508,0.009496688842773438,-0.008550211787223816,0.0077079893089830875,-0.0017646681517362595,0.1874884364606229,0.018599165174281184,-2.8797904656358555
1687006654.4950628,0.18640093505382538,-0.018515069037675858,-0.982299268245697,0.0015262961387634277,0.0016235541552305222,-0.0045018792152404785,0.0025823782198131084,0.003135962877422571,-0.006062144413590431,0.1875301320400087,0.018516126978082144,-2.8800092209143835
1687006654.5710192,0.1866273283958435,-0.017857711762189865,-0.9822684526443481,0.0049162358045578,0.001896984875202179,-0.0057381391525268555,-0.02091633528470993,-0.004451205022633076,-0.008557327091693878,0.1877583355551469,0.017858660683934057,-2.880090095031133
1687006654.5789561,0.18657127022743225,-0.01690472476184368,-0.9822959899902344,0.002713993191719055,0.002469874918460846,-0.006153106689453125,-0.0060024987906217575,-0.0035742265172302723,0.00018203596118837595,0.18769811491136446,0.01690552926896662,-2.8800162400468974
1687006654.627099,0.18652033805847168,-0.016933558508753777,-0.9823051691055298,0.0018799155950546265,0.0021782759577035904,-0.006342291831970215,9.71165718510747e-05,0.0005372504238039255,0.004329243674874306,0.18764636061088136,0.016934366964210204,-2.879870070841468
1687006654.719963,0.1865062266588211,-0.01648230291903019,-0.9823155403137207,0.0038318932056427,0.0029935017228126526,-0.008941173553466797,-0.010635334067046642,0.0034024566411972046,-0.004771443549543619,0.18763055193790887,0.01648304954342545,-2.8797522896285295
1687006654.7280688,0.18654145300388336,-0.015784401446580887,-0.9823203086853027,-0.0017880499362945557,-0.004784479737281799,0.0012717247009277344,-0.018354328349232674,-0.0041762785986065865,0.003559723263606429,0.18766427581644224,0.01578505760292006,-2.8795827291448037
1687006654.807609,0.18655811250209808,-0.015883944928646088,-0.9823155403137207,-0.007984504103660583,-0.0036168210208415985,-0.00015211105346679688,0.0011213240213692188,0.0021148184314370155,-0.00021191203268244863,0.18768153245034422,0.01588461324053422,-2.879579605550697
1687006654.820524,0.18658705055713654,-0.01533639058470726,-0.9823186993598938,0.0026219040155410767,0.0018170718103647232,-0.004955410957336426,-0.01234743557870388,-0.0010143073741346598,0.0026718920562416315,0.18770937522738576,0.015336992185325016,-2.87939216861759
1687006654.864215,0.18659386038780212,-0.015170634724199772,-0.9823200106620789,0.0018979460000991821,0.003634958527982235,-0.012659847736358643,-0.0022899636533111334,0.0008278898894786835,0.002905251458287239,0.18771583079239906,0.015171216696742077,-2.8792330716358947
1687006654.960963,0.18661466240882874,-0.01486545242369175,-0.9823207259178162,0.002411201596260071,6.43925741314888e-05,-0.002573072910308838,-0.010790595784783363,-0.004493016749620438,0.002720694523304701,0.1877361379173419,0.014865999872021352,-2.8790409106092425
1687006654.9736872,0.1863003820180893,-0.014285332523286343,-0.982388973236084,0.004327654838562012,-0.0033538611605763435,-0.007097721099853516,-0.0124220484867692,0.0009590063709765673,0.008698025718331337,0.18741460562357867,0.01428581831414007,-2.878811658741016
1687006655.018396,0.18616430461406708,-0.014199929311871529,-0.982416033744812,0.0010457634925842285,-0.0009978590533137321,-0.010870099067687988,-0.007920995354652405,-0.0012744981795549393,0.004713737405836582,0.1872758539119941,0.014200406165884423,-2.8786083865616505
1687006655.146563,0.18600788712501526,-0.014281774871051311,-0.9824444651603699,-0.0015291422605514526,-0.0040288046002388,0.002540290355682373,0.0012839543633162975,0.0008842602837830782,0.003116107080131769,0.1871168627166735,0.014282260344293446,-2.87850383380311
1687006655.1580691,0.18573154509067535,-0.01352127268910408,-0.9825074672698975,0.002745017409324646,-0.00045581068843603134,0.006631612777709961,-0.013071504421532154,-0.0028494030702859163,0.0022011115215718746,0.18683358512267814,0.013521684773982499,-2.8780590635958174
1687006655.230538,0.1855594664812088,-0.01326859649270773,-0.9825434684753418,-0.003094881772994995,0.004067513160407543,-0.005951404571533203,-0.0034873206168413162,-0.0006416421383619308,0.009696711786091328,0.18665780924519762,0.013268986052121148,-2.877897425575845
1687006655.243648,0.1854870468378067,-0.012686352245509624,-0.9825648069381714,0.007918089628219604,0.002462930977344513,-0.008600354194641113,-0.02179553173482418,-0.009574505500495434,0.006528282538056374,0.1865826814783004,0.012686692439147104,-2.87745638373652
1687006655.3222141,0.18529251217842102,-0.012094995938241482,-0.98260897397995,-0.0005391091108322144,0.0024208910763263702,-0.006770908832550049,0.00041181338019669056,0.003485990921035409,0.008501618169248104,0.1863833174792247,0.0120952910556132,-2.877000756962337
1687006655.334742,0.18542534112930298,-0.012090451084077358,-0.9825839996337891,0.004989072680473328,-0.004816318862140179,-0.0006923675537109375,-0.013667653314769268,0.000434008426964283,0.0062656947411596775,0.18651848674880145,0.012090745916742161,-2.8766945374430413
1687006655.408679,0.18508416414260864,-0.011351354420185089,-0.9826571345329285,-0.00013239681720733643,-7.751211524009705e-05,-0.003777801990509033,-0.005186817143112421,-0.003508535213768482,0.007463717833161354,0.18616964129449579,0.01135159824838167,-2.8763553424032957
1687006655.421382,0.18517416715621948,-0.01127865631133318,-0.9826409816741943,-0.0035793334245681763,-0.0030951565131545067,-0.002100229263305664,-0.00015326496213674545,0.003019760362803936,-0.0012400252744555473,0.18626108291341922,0.011278894983561012,-2.87615169863896
1687006655.464501,0.1851060390472412,-0.011171472258865833,-0.9826550483703613,0.003523096442222595,-0.0009440388530492783,0.00011110305786132812,-0.009839138016104698,-0.00042654736898839474,-0.002283118898048997,0.18619152074969922,0.011171704480225505,-2.876098306972406
1687006655.560374,0.1848374903202057,-0.010704771615564823,-0.9827107787132263,0.0008314251899719238,0.010262234136462212,-0.005722999572753906,-0.002561517059803009,-0.006671393755823374,0.0024009819608181715,0.18591728329378165,0.010704975700541384,-2.8758361715658225
1687006655.573123,0.18496905267238617,-0.01064916793256998,-0.9826866388320923,0.0033243894577026367,0.002088954672217369,-0.004846930503845215,0.0037614484317600727,0.009377790614962578,-0.001804815256036818,0.18605105166605326,0.010649368996802007,-2.8756711575370897
1687006655.6819181,0.18493473529815674,-0.010659498162567616,-0.9826930165290833,0.007387027144432068,-0.005606404505670071,-0.018176734447479248,-0.016039330512285233,-0.007693160325288773,0.003832430811598897,0.1860161449485798,0.01065970048757978,-2.875650134953735
1687006655.6948361,0.18480552732944489,-0.010657073929905891,-0.9827173352241516,-0.001303344964981079,0.0007540881633758545,0.0019739270210266113,0.005190412048250437,0.00428778026252985,-0.001842898316681385,0.185884661182026,0.010657275571211185,-2.8755722035806213
1687006655.768413,0.18486642837524414,-0.010807318612933159,-0.982704222202301,0.0002532005310058594,-0.003337610512971878,-0.005744874477386475,-0.005068217404186726,-0.0070434375666081905,0.0010164710693061352,0.18594692642731042,0.010807529318460348,-2.8755974852936097
1687006655.7812681,0.18459993600845337,-0.010274031199514866,-0.9827600717544556,-0.0007773041725158691,0.000935620628297329,0.0033136606216430664,-0.005673198960721493,-0.0016644736751914024,-0.0006171120330691338,0.1856746935375134,0.010274212183668316,-2.8753943399756783
1687006655.859822,0.18466101586818695,-0.010424938052892685,-0.982746958732605,0.0032356828451156616,0.0020630881190299988,-0.008997976779937744,0.008125215768814087,-0.004494259599596262,-0.0023002964444458485,0.18573714744015632,0.010425127253361794,-2.875566538569642
1687006655.871465,0.18457789719104767,-0.010661806911230087,-0.9827600717544556,0.005851775407791138,-0.002888031303882599,-0.0037053823471069336,0.003436232451349497,-0.004860621877014637,-0.002914621029049158,0.18565303283209242,0.010662008525326342,-2.8755864598168097
1687006655.9194841,0.1844567358493805,-0.01051408238708973,-0.9827843904495239,-0.004784509539604187,-0.0040733544155955315,-0.016406893730163574,-0.002055649645626545,0.007962675765156746,-0.0010161867830902338,0.1855294553485104,0.010514275822109327,-2.8755557072482216
1687006656.041878,0.18521761894226074,-0.010653422214090824,-0.9826397895812988,0.000512346625328064,-0.010144338943064213,-0.017360210418701172,0.004953036084771156,0.007167811505496502,-0.003377944463863969,0.1863040036786614,0.010653623964872454,-2.8756487999273217
1687006656.0539432,0.18538768589496613,-0.010083225555717945,-0.982613742351532,-0.0058680325746536255,-0.007113461382687092,0.016961276531219482,-0.02502044290304184,0.008595798164606094,-0.005869797896593809,0.18647595872324332,0.010083396190836511,-2.8756799145129457
1687006656.1311312,0.18684807419776917,-0.00434101140126586,-0.9823792576789856,0.019755929708480835,-0.0015489133074879646,-0.036114394664764404,-0.039810486137866974,-0.015487255528569221,-0.02866232953965664,0.18795451659745263,0.004341025263053188,-2.875581817915085
1687006656.145464,0.1837872415781021,-0.005700616165995598,-0.9829494953155518,0.0018359124660491943,-0.002493385225534439,0.10662204027175903,-0.018806710839271545,-0.03515319153666496,-0.02064468152821064,0.1848409770424761,0.005700646944930625,-2.8771253904556335
1687006656.21918,0.18278835713863373,-0.004841669928282499,-0.9831403493881226,0.03713656961917877,0.014790368266403675,-0.012510895729064941,-0.026491396129131317,-0.04482366144657135,0.00028596585616469383,0.18382401957009958,0.004841688669350204,-2.8767055665311503
1687006656.232068,0.18031629920005798,-0.002835386898368597,-0.9836046099662781,-0.007953017950057983,-0.022616304457187653,0.002601802349090576,-0.061243873089551926,-0.027324208989739418,-0.002437515649944544,0.1813087423493693,0.002835390613585166,-2.8772503305575885
1687006656.309012,0.1802525371313095,-0.0027138942386955023,-0.9836166501045227,0.005538448691368103,0.02676171436905861,-0.001490771770477295,0.0306777972728014,-0.013297338038682938,-0.010575470514595509,0.18124385782799288,0.002713897619740038,-2.877171714128094
1687006656.320744,0.17905814945697784,-0.002800890477374196,-0.9838345050811768,-0.008861631155014038,-0.005118454806506634,-0.017096281051635742,0.0017204463947564363,-0.006641300395131111,-0.00908130407333374,0.1800297657065399,0.002800894218592109,-2.87752091868393
1687006656.404242,0.17928948998451233,-0.0032766384538263083,-0.983790934085846,0.004258453845977783,-0.00436804536730051,0.014522135257720947,-0.0015783223789185286,-0.002846917137503624,-0.0163316261023283,0.18026516641944623,0.0032766443115170817,-2.8783147100536994
1687006656.412387,0.17873655259609222,-0.0032535672653466463,-0.9838916063308716,-0.008829951286315918,0.008960322476923466,-0.001337885856628418,0.02411581203341484,0.003141378052532673,-0.009047015570104122,0.17970314009614483,0.0032535730481060804,-2.878801433030672
1687006656.457526,0.17914679646492004,-0.004362060222774744,-0.983812689781189,0.003561928868293762,0.0005625891499221325,-0.004209160804748535,0.031831078231334686,0.0022627124562859535,-0.010596709325909615,0.18012088153456787,0.004362074228149299,-2.8796148987303902
1687006656.549443,0.17869818210601807,-0.005584199912846088,-0.9838880896568298,0.00950370728969574,0.004943300038576126,0.001389920711517334,0.04229428246617317,-0.021561838686466217,-0.025244493037462234,0.1796660138436775,0.005584228957402037,-2.8807644156293515
1687006656.562238,0.1778934746980667,-0.008817726746201515,-0.9840102195739746,0.004540577530860901,-0.0074329134076833725,-0.013288915157318115,0.049293555319309235,-0.01704706996679306,-0.01052700076252222,0.1788523964541224,0.008817841274598103,-2.882476854963828
1687006656.607816,0.17767716944217682,-0.010596059262752533,-0.9840317964553833,0.006694763898849487,0.004309406504034996,0.0102463960647583,0.036655571311712265,-0.00010714586824178696,-0.009365130215883255,0.17863570215479016,0.010596257648302701,-2.8832848109039038
1687006656.699549,0.1772540956735611,-0.012343422509729862,-0.9840877056121826,0.02208670973777771,-0.015305534936487675,-0.019757509231567383,0.009484981186687946,-0.013253484852612019,-0.0068129561841487885,0.17820938363131414,0.012343735724787313,-2.8841578901092415
1687006656.7129579,0.17711268365383148,-0.012879990972578526,-0.9841063022613525,0.017436861991882324,-0.0031112516298890114,-0.01941847801208496,0.001255414099432528,0.0020362548530101776,-0.0010913544101640582,0.17806689860038552,0.012880347145770197,-2.884238145743219
1687006656.756747,0.17707844078540802,-0.014389892108738422,-0.9840915203094482,0.004348531365394592,0.014160978607833385,0.04959756135940552,0.056049197912216187,-0.007574738003313541,-0.07165160775184631,0.17803580917119352,0.014390388478244122,-2.8853259180976587
1687006656.827433,0.17599152028560638,-0.015989700332283974,-0.9842618107795715,-0.012615680694580078,-0.0053573790937662125,-0.05267971754074097,0.005094671621918678,-0.012674959376454353,0.002720627700909972,0.17693577313093234,0.015990381855403954,-2.886004755160781
1687006656.840224,0.17689840495586395,-0.018466416746377945,-0.9840558767318726,0.032330095767974854,-0.002514451742172241,0.02024972438812256,0.0793149322271347,-0.006306629627943039,-0.020538754761219025,0.17786490867879853,0.01846746552814321,-2.8867390071638708
1687006656.9056811,0.1759791225194931,-0.02079021744430065,-0.9841743111610413,-0.0563349723815918,0.005622949451208115,-0.0012688040733337402,0.04531173035502434,0.023371193557977676,-0.0010956154437735677,0.17693897121711308,0.020791716243665787,-2.8879107314003463
1687006656.999343,0.17685860395431519,-0.02365984208881855,-0.9839518666267395,0.05907277762889862,-0.04431809484958649,-0.0712239146232605,-0.019216349348425865,-0.02866235561668873,-0.01617250218987465,0.17784414366899878,0.023662049811867196,-2.8891357070311883
1687006657.01271,0.17633382976055145,-0.02387235499918461,-0.9840409159660339,-0.046420514583587646,0.04094690829515457,0.042802512645721436,0.06701160967350006,0.038279660046100616,0.0016925809904932976,0.1773117401848649,0.023874623687581267,-2.8891634159479516
1687006657.0908442,0.1769101470708847,-0.024978017434477806,-0.9839100241661072,0.009643793106079102,-0.03619450330734253,-0.03403431177139282,-0.03636439889669418,-0.014271345920860767,-0.013593164272606373,0.17790229095428278,0.024980615367047567,-2.8899602614835405
1687006657.185154,0.17691195011138916,-0.025644488632678986,-0.983892560005188,0.002149924635887146,0.0200597383081913,0.015173077583312988,0.05838967487215996,0.023690683767199516,-0.010814089328050613,0.17790716110773586,0.025647300087998114,-2.8902513212512284
1687006657.197742,0.17708231508731842,-0.02620553784072399,-0.9838470816612244,-0.003055855631828308,-0.024285828694701195,-0.03670644760131836,-0.03806309401988983,-0.015027149580419064,0.006101244129240513,0.17808292820059593,0.026208537546238884,-2.890643572445214
1687006657.299103,0.17736193537712097,-0.026447873562574387,-0.9837902784347534,0.03136301040649414,0.0045057013630867004,0.010004878044128418,0.024981338530778885,0.00228144321590662,0.008614270016551018,0.17836830112323981,0.026450957278758062,-2.890224562605345
1687006657.312515,0.17681582272052765,-0.025897346436977386,-0.983903169631958,-0.016232341527938843,0.010363863781094551,-0.010786712169647217,0.001639441936276853,-0.0015198637265712023,0.004949094261974096,0.1778106202006919,0.025900241581616034,-2.889732054941424
1687006657.396807,0.17752401530742645,-0.02635710872709751,-0.9837634563446045,0.0058560967445373535,-0.004419900476932526,-0.0016033649444580078,-0.0063661979511380196,0.007524142041802406,0.010798994451761246,0.1785326205400316,0.0263601619591608,-2.8894569892498274
1687006657.402628,0.17730572819709778,-0.02588980458676815,-0.9838152527809143,0.002442792057991028,-0.003346068784594536,-0.004191339015960693,0.013274215161800385,0.0013195094652473927,0.0026026496198028326,0.17830852895300783,0.025892698504005145,-2.889146987197465
1687006657.5114431,0.17741724848747253,-0.025866134092211723,-0.9837957620620728,-0.002109020948410034,-0.003964833915233612,-0.006499648094177246,-0.023808615282177925,-0.004145385697484016,-0.0035829413682222366,0.17842177233530904,0.025869018855398298,-2.888974730800366
1687006657.524407,0.17718416452407837,-0.02540053054690361,-0.9838498830795288,-0.000228002667427063,0.001276351511478424,0.005944609642028809,0.0038942513056099415,-0.00011096312664449215,0.004505544900894165,0.1781827179792768,0.02540326261159371,-2.8888802388025505
1687006657.570756,0.17737913131713867,-0.025358937680721283,-0.9838158488273621,-0.00042298436164855957,0.009917011484503746,-0.0071051716804504395,0.002085388172417879,-0.0047023412771523,0.005142639856785536,0.1783806950866203,0.025361656257968324,-2.8885719927909195
1687006657.5768151,0.1774272620677948,-0.024868972599506378,-0.9838196635246277,-0.0006694644689559937,0.002484293654561043,0.0056855082511901855,0.007386721204966307,0.00040382612496614456,0.0015638172626495361,0.17842739876279481,0.02487153753155096,-2.8882988823018665
1687006657.581414,0.1770641952753067,-0.0242841187864542,-0.9838996529579163,0.0002886950969696045,-0.007744114845991135,-0.02229541540145874,-0.017578816041350365,-0.0012167077511548996,0.0012976343277841806,0.17805577964570626,0.02428650529031292,-2.8881330722045373
1687006657.657418,0.17735204100608826,-0.024794336408376694,-0.9838351011276245,0.017701059579849243,-0.00021485239267349243,0.008645892143249512,-0.005506307352334261,-0.003210349939763546,0.007593280635774136,0.17835059593232086,0.024796877433586224,-2.888022696867686
1687006657.7506208,0.17707182466983795,-0.02442009188234806,-0.983894944190979,0.010702818632125854,-0.006082259118556976,0.003349900245666504,-0.02239256724715233,-0.008013006299734116,0.006604515016078949,0.17806413295996276,0.02442252052790091,-2.8876816646739654
1687006657.76454,0.17702652513980865,-0.02287372760474682,-0.9839402437210083,-0.007303014397621155,0.004502110183238983,-0.004127383232116699,-0.007554899901151657,-0.0007087539415806532,0.0024001162964850664,0.1780115010573515,0.02287572306525912,-2.887347915800127
1687006657.806206,0.1772482693195343,-0.022970091551542282,-0.9838981032371521,0.02354210615158081,-0.017114780843257904,-0.0056954026222229,-0.02135961689054966,-0.008169244974851608,0.004677718039602041,0.17823727406431383,0.02297211117893485,-2.8871384224562315
1687006657.902669,0.1768980771303177,-0.02212541550397873,-0.9839804768562317,-0.005160421133041382,-0.009277207776904106,-0.01287621259689331,-0.012285827659070492,0.00031585292890667915,0.004964075051248074,0.17787794228245615,0.022127220223061756,-2.8870251425488824
1687006657.916085,0.1775941699743271,-0.022745350375771523,-0.9838409423828125,0.010180473327636719,-0.016835981979966164,0.00238037109375,-0.0034496369771659374,0.002930455608293414,-0.00039274065056815743,0.17858792162751214,0.02274731194875688,-2.887168151321747
1687006657.9564629,0.17716923356056213,-0.022545114159584045,-0.9839221239089966,0.0022893697023391724,-0.00894905999302864,-0.008250117301940918,-0.006868159398436546,-0.004626973997801542,0.0007465597009286284,0.17815520497094298,0.022547024967072338,-2.8870647146926713
1687006658.05021,0.17772163450717926,-0.02267349697649479,-0.9838195443153381,-0.015612289309501648,0.009703494608402252,-0.0009216070175170898,0.04189356416463852,0.019040627405047417,0.005849642679095268,0.1787171767491684,0.02267544101343391,-2.886832951693632
1687006658.0641289,0.1785455197095871,-0.024286815896630287,-0.9836318492889404,0.003873288631439209,-0.010091271251440048,0.00893092155456543,0.008225172758102417,0.009102154523134232,-0.0008624556940048933,0.1795615650534121,0.02428920385873053,-2.8866242071682873
1687006658.170444,0.17862428724765778,-0.02443670481443405,-0.9836138486862183,-0.0014697611331939697,0.0026318617165088654,-0.013654828071594238,0.023625124245882034,0.010594233870506287,-0.005364596378058195,0.17964230586177551,0.024439137621954002,-2.8867761765130577
1687006658.18398,0.17935164272785187,-0.025558030232787132,-0.9834529757499695,0.004562541842460632,-0.0004734974354505539,0.012688815593719482,-0.005637113004922867,0.009092300198972225,0.005344573874026537,0.180386933111063,0.02556081342896732,-2.886685387500236
1687006658.260273,0.179410919547081,-0.024836845695972443,-0.9834606647491455,0.0034351348876953125,0.008891375735402107,-0.012511014938354492,0.003865933045744896,0.0012651809956878424,-0.0037820793222635984,0.18044389405353248,0.0248393991189627,-2.8864934745084865
1687006658.273196,0.18002183735370636,-0.0246815737336874,-0.9833528995513916,-0.0051408857107162476,0.003349754959344864,0.000870048999786377,-0.011188738979399204,0.01543674897402525,0.006838606670498848,0.1810644231304428,0.02468408093943479,-2.886204382059465
1687006658.3823218,0.180457204580307,-0.02430739253759384,-0.9832824468612671,0.004906550049781799,-0.012161148712038994,-0.00826418399810791,-0.016635479405522346,0.011472810991108418,0.0018163514323532581,0.18150549361321275,0.024309786065337135,-2.8859787841972113
1687006658.396307,0.18097391724586487,-0.023378055542707443,-0.983210027217865,-4.693865776062012e-06,-0.010649079456925392,0.00472491979598999,-0.03354131430387497,0.013426329009234905,0.0021778754889965057,0.18202694100493672,0.02338018536014141,-2.885690450116797
1687006658.467515,0.18145763874053955,-0.021706977859139442,-0.9831591844558716,-0.006485119462013245,-0.011694543063640594,-0.001429438591003418,-0.04337557032704353,0.017480991780757904,0.016032304614782333,0.1825119896323945,0.021708683691662733,-2.8852041852587873
1687006658.4803848,0.18242105841636658,-0.02118252031505108,-0.9829922914505005,0.011121407151222229,-0.0001645609736442566,-0.008203387260437012,6.69785076752305e-05,0.01321141142398119,-0.0051886942237615585,0.18348991288321445,0.021184104164920916,-2.8850587998599413
1687006658.620322,0.18280433118343353,-0.020346594974398613,-0.9829387664794922,-0.0007059574127197266,-0.013772090896964073,-0.0006580352783203125,-0.031609900295734406,0.012499192729592323,0.0009464297909289598,0.18387660126441513,0.020347999571800696,-2.884970750894465
1687006658.63385,0.18352925777435303,-0.018917836248874664,-0.9828321933746338,0.012164697051048279,0.02497554011642933,-0.012376546859741211,0.00643899105489254,-0.002061018254607916,-0.013590767979621887,0.18460891357607226,0.018918964439733572,-2.8849722247304546
1687006658.681779,0.1836661547422409,-0.018328608945012093,-0.9828177690505981,0.0060615986585617065,0.0027188342064619064,-0.01615983247756958,-0.026615232229232788,0.0122755765914917,-0.001024708733893931,0.18474615012810952,0.018329635217181048,-2.8850701376534267
1687006658.692349,0.18397663533687592,-0.016722582280635834,-0.9827883839607239,0.0011429786682128906,-0.008301863446831703,-0.007018744945526123,-0.03553486987948418,-0.0024722993839532137,-0.0003863489837385714,0.1850567975329947,0.016723361523967674,-2.885112200681825
1687006658.701521,0.18412619829177856,-0.014257323928177357,-0.982799232006073,-0.003141731023788452,-0.00858511496335268,0.005244910717010498,-0.05019548162817955,0.013848261907696724,0.006800058297812939,0.18520182963124165,0.014257806798153047,-2.8844119076874835
1687006658.731818,0.18499863147735596,-0.012354381382465363,-0.9826611280441284,-0.002915516495704651,-0.005910423584282398,-0.002293705940246582,-0.07069095224142075,0.018380340188741684,0.0058327317237854,0.18608483260126185,0.01235469530374024,-2.8836778682657327
1687006658.7639232,0.18564988672733307,-0.008819528855383396,-0.9825763702392578,0.005863159894943237,0.009643470868468285,0.0009326934814453125,-0.06756661087274551,0.008890255354344845,0.006189328618347645,0.18674055640832826,0.0088196433386304,-2.882387941784608
1687006658.830256,0.18569715321063995,-0.007482694927603006,-0.9825785160064697,-0.0006385892629623413,0.007909909822046757,-0.001430213451385498,-0.03433338180184364,-0.0009668141137808561,0.016347290948033333,0.1867865998809334,0.007482764549441341,-2.8816386757924524
1687006658.889792,0.18599240481853485,-0.005244081374257803,-0.9825372099876404,0.007321193814277649,0.0035808426328003407,-0.01138979196548462,-0.044022008776664734,0.0072960867546498775,0.011068705469369888,0.18708439009827874,0.005244105350083438,-2.8807558156360176
1687006658.9464169,0.18619953095912933,-0.004464224446564913,-0.9825018048286438,0.0020633935928344727,-0.0035314131528139114,-0.009777247905731201,-0.01577727682888508,0.005767254624515772,0.010870100930333138,0.18729449110443774,0.004464239155521359,-2.8803319445320508
1687006659.042767,0.1864994317293167,-0.0030998457223176956,-0.9824501872062683,0.0038692057132720947,-0.0050483811646699905,-0.0008414387702941895,-0.03655250370502472,0.003323982236906886,0.00523032434284687,0.18759875858109817,0.00309985062644556,-2.879674401422711
1687006659.0558019,0.186733677983284,-0.002067029941827059,-0.9824084043502808,-0.00413176417350769,-0.003990743309259415,0.0029772520065307617,-0.012308331206440926,0.00537745701149106,-0.0012562040938064456,0.18783669041856724,0.0020670313883917857,-2.879513561417645
1687006659.094922,0.1869632750749588,-0.0009095200803130865,-0.9823665022850037,0.0008266270160675049,-0.000997860450297594,-0.004388868808746338,-0.03118850104510784,0.008075593970716,0.008828587830066681,0.18807007329322878,0.0009095201771729323,-2.8790777593049044
1687006659.191165,0.18724331259727478,0.0002277499297633767,-0.9823135733604431,-0.004275187849998474,0.0016032723942771554,0.00024265050888061523,-0.02788795530796051,0.0037619834765791893,-0.001201143255457282,0.18835506863332713,-0.00022774993395695845,-2.878621832928711
1687006659.1990151,0.18771176040172577,0.0013195531209930778,-0.9822232723236084,0.002870500087738037,-0.0014721739571541548,-0.0029909610748291016,-0.016288159415125847,0.004557203501462936,0.0017214762046933174,0.18883214568625342,-0.001319553472726113,-2.878390478315092
1687006659.282542,0.18807725608348846,0.0024936553090810776,-0.9821510910987854,0.0017115473747253418,0.0019161035306751728,-0.0134391188621521,-0.027611033990979195,0.009457064792513847,-0.0009728438453748822,0.18920469650013827,-0.0024936577826898264,-2.8781194967466406
1687006659.294589,0.18829813599586487,0.003139001317322254,-0.9821069240570068,0.004786565899848938,0.0033917282707989216,-0.005258798599243164,-0.007546688430011272,0.00186563516035676,-0.0010652554919943213,0.18942993752154705,-0.003139006480098365,-2.8781222809823
1687006659.335407,0.18824690580368042,0.004100976511836052,-0.9821131825447083,-0.00018234550952911377,0.0009954259730875492,0.002819359302520752,-0.034594107419252396,0.009123902767896652,-0.00351176830008626,0.1893784485043052,-0.004100988032525922,-2.877878545722111
1687006659.426753,0.18882493674755096,0.004707427695393562,-0.9819994568824768,-0.003766357898712158,-0.003349428065121174,-0.003031611442565918,-0.0005776396719738841,0.013386913575232029,-0.001890968531370163,0.1899675451401922,-0.0047074451413971026,-2.877819323624621
1687006659.440275,0.18936628103256226,0.005099150352180004,-0.9818933010101318,0.003565847873687744,0.002133485395461321,0.003164052963256836,-0.018116997554898262,0.003670015372335911,-0.0011167209595441818,0.19051921215369175,-0.005099172400839288,-2.8777674532102138
1687006659.485873,0.1893216222524643,0.005797899328172207,-0.9818980097770691,-0.0023556947708129883,0.01077311486005783,-0.002858459949493408,-0.0040567489340901375,-0.0021496128756552935,0.01005670428276062,0.19047447104001478,-0.005797931782672128,-2.877323566492445
1687006659.549808,0.1896672546863556,0.00558136124163866,-0.9818325638771057,0.005965679883956909,-0.0005154726095497608,-0.005487382411956787,-0.006518841255456209,0.00272237416356802,0.012237966991961002,0.19082624017500988,-0.005581390315582697,-2.876945248036624
1687006659.6417022,0.18948057293891907,0.006484738551080227,-0.9818630814552307,-0.0006225556135177612,-0.0005796165205538273,-0.009653031826019287,-0.01493203267455101,0.0020073154009878635,0.007330826483666897,0.19063717264128427,-0.0064847840487651425,-2.8762985970615027
1687006659.649018,0.18956801295280457,0.006769333500415087,-0.9818442463874817,-0.0011372417211532593,-0.0035650203935801983,-0.0015999078750610352,-0.0043763285502791405,0.0028949470724910498,0.010021017864346504,0.19072657983114574,-0.006769385123626219,-2.8759064865865724
1687006659.729837,0.18918992578983307,0.0065340506844222546,-0.9819187521934509,0.0021552592515945435,-0.006762961857020855,0.0005040168762207031,-0.004978468641638756,-0.008413100615143776,0.0009885078761726618,0.1903412195393275,-0.006534096947893208,-2.875678296179635
1687006659.7429872,0.1889483779668808,0.0067517394199967384,-0.9819638133049011,-0.003584623336791992,0.0024187620729207993,-0.004547417163848877,-0.0025078989565372467,-0.001722264103591442,0.002309369156137109,0.19009551273744305,-0.006751790574122599,-2.8754685048843687
1687006659.8207731,0.18897031247615814,0.00641997903585434,-0.9819617867469788,0.00467894971370697,0.0009194673039019108,0.0011879205703735352,0.0006181640783324838,-0.005181888118386269,0.005781265441328287,0.19011742563373107,-0.006420022920605452,-2.8754142651421626
1687006659.9106588,0.18874548375606537,0.00730854133144021,-0.981998860836029,0.0032558441162109375,0.00024452758952975273,-0.0017657876014709473,-0.03314703330397606,-0.014244714751839638,0.008041556924581528,0.18988964822363555,-0.007308606551383114,-2.8749354172100356
1687006659.923305,0.1884075552225113,0.00827405508607626,-0.9820560812950134,0.005867332220077515,0.001964561641216278,-0.011703073978424072,-0.018086858093738556,-0.004279963672161102,0.004198349080979824,0.1895469725680675,-0.00827414942713015,-2.874318311087215
1687006660.000136,0.18830302357673645,0.008388461545109749,-0.9820751547813416,0.004537537693977356,-0.0026664473116397858,-0.007274210453033447,-0.005422018468379974,-0.006290029734373093,-0.0008993405499495566,0.18944072081896687,-0.008388560329218177,-2.874251030685316
1687006660.012852,0.18797357380390167,0.009099469520151615,-0.9821319580078125,0.003280073404312134,0.0021614842116832733,-0.0029754638671875,-0.017836254090070724,-0.008264586329460144,0.004770396277308464,0.18910645630944956,-0.009099595505757117,-2.8738913273825895
1687006660.095376,0.18780352175235748,0.00966889038681984,-0.9821590185165405,-0.004255548119544983,0.0015462897717952728,-0.003909707069396973,0.00915936566889286,-0.00013883737847208977,0.0035282312892377377,0.1889343293085458,-0.009669041416760534,-2.873628951425213
1687006660.108675,0.1878076046705246,0.009777235798537731,-0.9821571707725525,-0.001635134220123291,-0.0017664022743701935,0.00016254186630249023,-0.016626957803964615,0.0024633370339870453,0.0034697747323662043,0.18893869470701125,-0.009777391402491942,-2.873595141207146
1687006660.176528,0.18780943751335144,0.011005454696714878,-0.9821438193321228,0.0027117878198623657,-0.0015908116474747658,-0.004138529300689697,-0.02878015860915184,-0.0011742745991796255,0.00121773942373693,0.18894299741393883,-0.011005676459816259,-2.873211614496974
1687006660.1825871,0.18803684413433075,0.011581887491047382,-0.9820936918258667,0.007092535495758057,0.0054621510207653046,-0.007148861885070801,0.008758959360420704,0.0028984975069761276,-0.007676153443753719,0.18917580091090583,-0.011582146221784353,-2.873333628934072
