Timestamp,gravityX,gravityY,gravityZ,accelerationX,accelerationY,accelerationZ,rotationRateX,rotationRateY,rotationRateZ,attitudeRoll,attitudePitch,attitudeYaw
1687013830.7387938,0.8319710493087769,0.5018091201782227,0.23666805028915405,-0.03032010793685913,-0.007897377014160156,0.04893063008785248,0.7725251913070679,0.4167444705963135,0.073787160217762,1.8479421689507212,-0.5256890634854596,2.91631711366144
1687013830.824233,0.8289285898208618,0.5082294344902039,0.23362451791763306,0.062352538108825684,-0.10182678699493408,0.10434234142303467,0.2247515469789505,0.07946097105741501,-0.016019023954868317,1.845509635217157,-0.5331276515604589,2.883764886826077
1687013830.842006,0.826860785484314,0.5104122161865234,0.23617959022521973,0.053784966468811035,-0.004644334316253662,0.05414938926696777,-0.043110620230436325,-0.01180680375546217,-0.039388395845890045,1.8490217867333136,-0.5356641129388378,2.885481349423589
1687013830.9112701,0.8269342184066772,0.5098686814308167,0.23709525167942047,0.0632178783416748,-0.0330924391746521,0.07299390435218811,-0.5562878251075745,-0.24033887684345245,-0.16369330883026123,1.8500218288175474,-0.5350321505262728,2.9011861316769942
1687013830.9257522,0.8235485553741455,0.5127125382423401,0.2426806539297104,-0.021561741828918457,0.04044920206069946,0.00031557679176330566,-0.33191603422164917,-0.08954811096191406,-0.22578005492687225,1.8573623281830014,-0.5383412506800137,2.93213615622759
1687013831.004198,0.8173254132270813,0.5201849341392517,0.24776387214660645,-0.0162084698677063,-0.009000182151794434,0.012566328048706055,-0.12046905606985092,0.10342071950435638,-0.2323240339756012,1.8651311917475448,-0.5470675020553334,2.945848555129521
1687013831.092334,0.8089795112609863,0.5299776196479797,0.25431546568870544,-0.001682579517364502,0.00490415096282959,-0.019757330417633057,0.055258166044950485,0.18678884208202362,-0.28297317028045654,1.8753800855148592,-0.558574179229379,2.951394004394651
1687013831.1118321,0.7987790703773499,0.5408313274383545,0.26354071497917175,0.0643344521522522,-0.07073843479156494,0.002450495958328247,-0.3890169858932495,0.017558628693223,-0.3079952001571655,1.8894802452079127,-0.5714251441093983,2.9660252958078583
1687013831.1798959,0.7917292714118958,0.5463031530380249,0.27334490418434143,0.00046116113662719727,-0.017601370811462402,-0.05958464741706848,-0.1687367707490921,0.02986784838140011,-0.16662749648094177,1.903233693972656,-0.5779441692536261,2.989784248758933
1687013831.185594,0.7895368933677673,0.5481017231941223,0.27607232332229614,0.01353311538696289,-0.030493080615997314,-0.058512598276138306,0.05786961317062378,0.03846533223986626,0.015834243968129158,1.9071714584700181,-0.580092991443383,2.99460068624
1687013831.277515,0.791566789150238,0.5485837459564209,0.2692173719406128,0.004652082920074463,-0.007247626781463623,-0.05995833873748779,0.4273277223110199,0.010191438719630241,0.12757249176502228,1.8986307102906668,-0.5806693793484625,2.9772423152471434
1687013831.2944322,0.7954676151275635,0.5480951070785522,0.25850164890289307,-0.00024062395095825195,-0.02542048692703247,-0.033922791481018066,0.34979191422462463,-0.03181646764278412,0.15497122704982758,1.8849994238597159,-0.5800850821754401,2.9524232710369405
1687013831.364238,0.8012090921401978,0.5443898439407349,0.2484034299850464,0.006896555423736572,0.004163801670074463,-0.01622563600540161,0.2967272996902466,-0.04151907190680504,0.23717382550239563,1.8714345744295404,-0.5756615567598973,2.9319202486977405
1687013831.379777,0.80744868516922,0.5396096110343933,0.23842884600162506,0.04330509901046753,-0.024060845375061035,0.001988649368286133,0.3283423185348511,-0.06319861859083176,0.20273488759994507,1.857923403756921,-0.5699733688791214,2.910188238385012
1687013831.455899,0.810520589351654,0.5379849076271057,0.2315780222415924,-0.0065351128578186035,-0.026205122470855713,-0.07364967465400696,0.24138204753398895,0.12214824557304382,0.012707495130598545,1.849096800740181,-0.5680447961480897,2.8880992963007013
1687013831.549701,0.8128506541252136,0.5353335738182068,0.2295464724302292,0.013900935649871826,-0.04476350545883179,-0.03644658625125885,-0.5555873513221741,-0.33040744066238403,0.07631749659776688,1.846026235778905,-0.5649026483209688,2.8974229727207805
1687013831.568569,0.8233519792556763,0.5205340385437012,0.22613202035427094,-0.03853154182434082,0.1515699028968811,-0.06174911558628082,-0.25492560863494873,-0.5484563112258911,0.354400634765625,1.8388353025451027,-0.5474762571981417,2.9231074694858066
1687013831.6319919,0.8364165425300598,0.5038328766822815,0.2157771736383438,-0.13272696733474731,0.16491413116455078,-0.015749692916870117,-0.38894784450531006,-0.1988082081079483,0.19282925128936768,1.8232696128562556,-0.5280302733836247,2.934445525036672
1687013831.6473,0.8366194367408752,0.5045303702354431,0.21334736049175262,-0.061625540256500244,0.23608559370040894,-0.0012960433959960938,0.2739579379558563,0.0786968246102333,-0.18859751522541046,1.8204858588058443,-0.5288379163069211,2.93690374921588
1687013831.733169,0.8266974687576294,0.5170862078666687,0.22179469466209412,0.020058393478393555,0.20529532432556152,0.032843902707099915,0.11487320065498352,0.4412374794483185,-0.22648392617702484,1.8329137043487644,-0.5434432239002334,2.9326783775285548
1687013831.738079,0.8157963752746582,0.530483603477478,0.23035579919815063,-0.018249869346618652,0.16043448448181152,-0.0044341981410980225,0.3887302279472351,0.38420620560646057,-0.33851924538612366,1.8460006747449007,-0.5591709578973746,2.918795013838451
1687013831.817103,0.7979574799537659,0.5553236603736877,0.2342643290758133,-0.08375447988510132,0.019215643405914307,0.007297545671463013,-0.06740202009677887,0.20487508177757263,-0.6946001648902893,1.8563528262702835,-0.588752117389773,2.9150404510656953
1687013831.82304,0.7754460573196411,0.5797573924064636,0.250130295753479,-0.029687941074371338,-0.016768932342529297,-0.023689836263656616,-0.26738110184669495,0.19021908938884735,-0.6619535684585571,1.8828225602929751,-0.6184308725901878,2.941726108310659
1687013831.8748941,0.7568063735961914,0.5980997085571289,0.2636672854423523,0.026091396808624268,-0.13662821054458618,0.023594558238983154,-0.3577861785888672,0.0830325335264206,-0.5036367774009705,1.9060402716919815,-0.6411278498832796,2.9714004115542036
1687013831.9965138,0.7450035810470581,0.6099894046783447,0.2699684202671051,0.06285780668258667,-0.12645351886749268,-0.002726048231124878,-0.014339067973196507,-0.07475842535495758,-0.2674713730812073,1.918450172120006,-0.6560472393414222,2.989810176817761
1687013832.017257,0.7430271506309509,0.6133166551589966,0.2678681015968323,0.0378718376159668,-0.20016956329345703,0.04280078411102295,-0.23955026268959045,-0.17195962369441986,0.016888324171304703,1.9168025858840838,-0.6602529222023653,2.9983677136693268
1687013832.0568051,0.7485784292221069,0.6058869957923889,0.2693164348602295,0.029757142066955566,-0.12142038345336914,-0.005949735641479492,-0.2299472540616989,-0.2503925561904907,0.20753736793994904,1.916148704242745,-0.6508803639655122,3.012285263809395
1687013832.06038,0.7608479261398315,0.5925458669662476,0.2645755112171173,0.018128633499145508,-0.08737295866012573,0.021954089403152466,-0.19703711569309235,-0.29179486632347107,0.32377591729164124,1.9054543117531324,-0.6342156082471401,3.018791659334509
1687013832.112599,0.7744516730308533,0.5770569443702698,0.2592877447605133,0.02967125177383423,-0.036712646484375,0.03598511219024658,-0.21865910291671753,-0.19759468734264374,0.3526303768157959,1.8938678317729378,-0.6151205137602778,3.0211079693653877
1687013832.1741428,0.786567747592926,0.5598527789115906,0.26053062081336975,0.0191115140914917,-0.016517698764801025,0.06956267356872559,-0.6371381282806396,-0.2411256581544876,0.27568644285202026,1.89064786911832,-0.5942080991476836,3.035612107438661
1687013832.274153,0.794744074344635,0.5430561304092407,0.27105751633644104,0.012919008731842041,0.0754285454750061,0.011779338121414185,-0.5359253287315369,-0.2791525721549988,0.1425342708826065,1.8994870605107723,-0.5740723856200833,3.0688567534938547
1687013832.290734,0.8012042045593262,0.5313354730606079,0.27523568272590637,-0.05723142623901367,0.056280553340911865,-0.020856380462646484,-0.41613078117370605,-0.16930587589740753,0.15378572046756744,1.90169339454314,-0.5601761934582054,3.092738590153059
1687013832.354498,0.8085702657699585,0.5212908387184143,0.27289173007011414,-0.010260999202728271,0.1048840880393982,-0.02041986584663391,-0.06565435975790024,-0.23072628676891327,0.21052037179470062,1.8962913683089575,-0.5483628571159771,3.1000798391425985
1687013832.53926,0.8212548494338989,0.5090336799621582,0.2577309310436249,-0.0250055193901062,0.019530832767486572,-0.013224154710769653,0.17665885388851166,-0.46463480591773987,0.3320266902446747,1.8748885454235633,-0.5340617420587331,3.093983911602131
1687013832.557685,0.8317407369613647,0.4986222982406616,0.2440967708826065,0.14427244663238525,-0.000514298677444458,-0.10171699523925781,0.14014776051044464,-0.49716392159461975,0.33244287967681885,1.8562580348881454,-0.5220086738628616,3.0868336450769607
1687013832.561654,0.8459624648094177,0.48604464530944824,0.21933528780937195,-0.06333929300308228,-0.04334133863449097,0.06734679639339447,-0.3183552920818329,-0.3887659013271332,0.18377165496349335,1.824483352616259,-0.5075581048190648,3.084041975129645
1687013832.592132,0.8518432974815369,0.4790615141391754,0.21180932223796844,0.08094173669815063,0.03261154890060425,-0.024004220962524414,0.0036356262862682343,-0.33166220784187317,0.1944538652896881,1.8145023189796061,-0.4995852599664934,3.0931758459618983
1687013832.603537,0.8585881590843201,0.4714074432849884,0.20149873197078705,0.006173253059387207,0.00011980533599853516,0.0019619762897491455,-0.21690984070301056,-0.2835802435874939,0.12796691060066223,1.8013108186231432,-0.4908859920152457,3.097593972232073
1687013832.606209,0.8663020730018616,0.46376755833625793,0.18558183312416077,-0.008101999759674072,0.06211143732070923,-0.03996717929840088,0.4017445147037506,-0.37997010350227356,0.2086496353149414,1.7818297055107128,-0.4822430158153288,3.0885422222636723
1687013832.653736,0.8724681735038757,0.45824170112609863,0.16974617540836334,0.012984037399291992,-0.05498236417770386,0.04972100257873535,-0.06624753773212433,-0.3077259063720703,0.1462676227092743,1.7629543158465937,-0.47601596782385197,3.081491738781549
1687013832.7129111,0.8772271275520325,0.4539887309074402,0.15609830617904663,-0.02517646551132202,0.015463173389434814,0.1267537921667099,-0.11802897602319717,-0.13751102983951569,0.05033230036497116,1.7468981922803266,-0.47123691579120797,3.0769745978158465
1687013832.806155,0.8787121772766113,0.45243942737579346,0.1521967351436615,-0.024860739707946777,0.04783537983894348,0.05311025679111481,0.12335994094610214,-0.07343270629644394,-0.0001449870760552585,1.742299140683762,-0.4694988607063781,3.07851257371239
1687013832.8124452,0.8793451189994812,0.451311320066452,0.15188933908939362,0.007083714008331299,-0.015794873237609863,-0.004107952117919922,0.0006432987283915281,-0.11454854160547256,0.028633197769522667,1.7418386575668265,-0.46823426933915185,3.0822715893797845
1687013832.8676438,0.8789035677909851,0.45209065079689026,0.1521281898021698,0.015826165676116943,-0.04140019416809082,0.063478484749794,-0.232404425740242,-1.1486466974020004e-05,-0.03247090056538582,1.7421867991516888,-0.46910781784936123,3.0830203239076726
1687013832.988511,0.8781067132949829,0.45220768451690674,0.15632276237010956,-0.025582969188690186,0.060747116804122925,0.021213173866271973,-0.09293711930513382,0.07662274688482285,-0.041257668286561966,1.7469731669849242,-0.46923901200052953,3.0925809374109012
1687013832.996721,0.8772934079170227,0.45226171612739563,0.16067364811897278,-0.025074660778045654,0.02977883815765381,0.010514751076698303,-0.0805673599243164,0.05483338609337807,-0.04095872864127159,1.7519358163651195,-0.4692996001343655,3.1003117856209315
1687013833.138605,0.8756846189498901,0.4539743959903717,0.1645706295967102,0.019899308681488037,-0.025263428688049316,0.023631200194358826,-0.012441299855709076,0.07953847199678421,-0.004738274030387402,1.7565631811662732,-0.47122082584504893,3.1018832748619105
1687013833.146368,0.8747223615646362,0.4548848569393158,0.16715343296527863,-0.0005007386207580566,-0.032262176275253296,0.025473445653915405,0.01213892176747322,0.10604845732450485,-0.024375824257731438,1.7596130978771423,-0.4722429015876464,3.0969398315534673
1687013833.197013,0.8736271262168884,0.45523515343666077,0.17186260223388672,-0.014206349849700928,0.003093212842941284,-0.0034208297729492188,-0.011016730219125748,0.1198233962059021,-0.02947191707789898,1.7650390078845026,-0.4726362878807922,3.098501488950695
1687013833.212726,0.8729143738746643,0.4548754096031189,0.17637738585472107,0.0037946105003356934,0.005558609962463379,0.008589625358581543,0.015251712873578072,0.11165060102939606,-0.006452617235481739,1.7701678105604555,-0.47223230837481706,3.098824310560086
1687013833.216251,0.871463418006897,0.4556970000267029,0.18136066198349,0.0061762332916259766,-0.018563151359558105,-0.0047097355127334595,-0.0925680473446846,0.0718473494052887,-0.015477138571441174,1.7759781156378198,-0.47315507178225574,3.100759007076197
1687013833.281349,0.8709328174591064,0.4557608962059021,0.18373431265354156,-0.011847615242004395,0.04716891050338745,0.03704513609409332,-0.022971482947468758,0.08190300315618515,-0.046508025377988815,1.7787103620247857,-0.47322686764520705,3.10182100262244
1687013833.380405,0.8694436550140381,0.4567905366420746,0.18817678093910217,0.01881629228591919,0.018948137760162354,0.010965734720230103,-0.03931206464767456,-0.018292222172021866,-0.05084198713302612,1.7839422919097663,-0.47438396741097427,3.106881803529576
1687013833.396342,0.8651180267333984,0.46155694127082825,0.19630683958530426,0.011514782905578613,-0.007699340581893921,0.051373884081840515,-0.3011540174484253,0.2031145542860031,-0.2727346420288086,1.7939311851829398,-0.47974947070510426,3.114990159648948
1687013833.4991422,0.8498655557632446,0.47733423113822937,0.2233400046825409,-0.04932844638824463,0.0719364583492279,0.11136150360107422,-0.46131423115730286,0.7043816447257996,-0.6278445720672607,1.8277801699812783,-0.4976185296549383,-3.1392876368486617
1687013833.5187411,0.8265243768692017,0.49989983439445496,0.2587623596191406,-0.01522970199584961,0.07891196012496948,0.13705065846443176,-0.27552884817123413,0.7657418847084045,-0.6327261328697205,1.8742030045230318,-0.5234831098214181,-3.116475384337525
1687013833.582068,0.7936380505561829,0.5248259902000427,0.307727575302124,-0.0026224851608276367,0.08840948343276978,0.1702387034893036,-0.4419122040271759,1.1193628311157227,-0.890620231628418,1.940691829444681,-0.5525106992603733,-3.077854955070536
1687013833.587069,0.749785840511322,0.5555838346481323,0.35937201976776123,0.057953476905822754,0.06375527381896973,0.10190120339393616,-0.1029106080532074,1.2953929901123047,-0.8653358817100525,2.0177468672505934,-0.5890649872505831,-3.0460028118237212
1687013833.679865,0.6964633464813232,0.5827399492263794,0.4187518358230591,0.08521384000778198,0.05797666311264038,0.05947387218475342,-0.22335562109947205,1.5921930074691772,-0.9015366435050964,2.1121378443179486,-0.6220962422583209,-3.0096519734181633
1687013833.696918,0.6319233179092407,0.609056830406189,0.47929370403289795,0.09576821327209473,0.010236382484436035,0.059722959995269775,-0.07024290412664413,1.8262425661087036,-0.9070364236831665,2.219695035962517,-0.6548708972131478,-2.969396822433075
1687013833.764018,0.550801157951355,0.6385499238967896,0.5374680161476135,0.15761858224868774,0.05337512493133545,0.13086682558059692,0.08893174678087234,2.188053846359253,-0.9541471004486084,2.343943404267957,-0.6926125554547746,-2.9299599863180315
1687013833.7787971,0.45022764801979065,0.6619865894317627,0.599223256111145,0.2889384925365448,0.12262028455734253,0.01083827018737793,-0.12108650803565979,2.344921827316284,-1.0790654420852661,2.497226759653477,-0.7234661276986388,-2.876922297690653
1687013833.8519921,0.33640092611312866,0.6800616979598999,0.6514223217964172,0.1691838502883911,0.025077760219573975,0.08667594194412231,-0.08009340614080429,2.54567551612854,-1.189907193183899,2.6649034928229276,-0.7478467783846867,-2.8050602847737993
1687013833.857119,0.211069256067276,0.6879914402961731,0.6943472623825073,0.1512354612350464,0.035916268825531006,-0.007671058177947998,-0.5216103792190552,2.5026652812957764,-1.3151519298553467,2.846486414960529,-0.7587177212046001,-2.7199245237461107
1687013833.9148412,0.08234691619873047,0.6771968603134155,0.7311797738075256,0.20145130157470703,0.041034579277038574,-0.020104825496673584,-0.4447830021381378,2.4489707946777344,-1.1193264722824097,3.0294432382756855,-0.7439463007999257,-2.6306593090957495
1687013834.009893,-0.04139400273561478,0.6627793908119202,0.7476699948310852,0.20716546475887299,-0.033201634883880615,0.2391921877861023,-0.9811517596244812,2.41456937789917,-1.0927133560180664,-3.086285111546779,-0.7245244254754105,-2.556187431356509
1687013834.028013,-0.14935635030269623,0.6388999819755554,0.7546519637107849,0.16134972870349884,-0.019606709480285645,-0.2605113983154297,0.03992709890007973,1.7695978879928589,-0.7582287192344666,-2.9462034635678997,-0.6930675208182883,-2.506135347129345
1687013834.131433,-0.2297954261302948,0.6224356889724731,0.7481763958930969,0.1226329356431961,-0.21952736377716064,-0.2850416898727417,-0.5184895396232605,1.2573654651641846,-0.49397581815719604,-2.843597689642121,-0.6718509252602086,-2.470361973590619
1687013834.1486402,-0.2763766646385193,0.611328661441803,0.7415477633476257,0.023965805768966675,-0.04801994562149048,-0.3165143132209778,0.06444016098976135,0.8136777281761169,-0.19090496003627777,-2.784837792052235,-0.6577384486419093,-2.453055587166348
1687013834.245841,-0.30139192938804626,0.6120148301124573,0.7311643362045288,-0.0345304012298584,-0.05625903606414795,-0.320168673992157,0.3093201816082001,0.44226276874542236,-0.049453482031822205,-2.7506064893821773,-0.6586057680156816,-2.4460972640834266
1687013834.262061,-0.3106093108654022,0.6217263340950012,0.7190117239952087,0.054658442735672,0.009544968605041504,0.036252379417419434,-0.26066598296165466,0.1467524766921997,-0.01593480259180069,-2.7338123074723875,-0.6709448696400456,-2.436389973764587
1687013834.336465,-0.3159145712852478,0.6153433918952942,0.722184419631958,0.06100127100944519,0.01374596357345581,0.014616668224334717,-0.007849388755857944,0.0729513168334961,-0.05655220150947571,-2.729229998908352,-0.6628215539973012,-2.4365672338627298
1687013834.3523688,-0.3174918591976166,0.6148103475570679,0.7219468951225281,0.03877481818199158,-0.03590703010559082,0.06749701499938965,-0.2951772212982178,0.024554932489991188,-0.0746622309088707,-2.7272770069254655,-0.6621454755987336,-2.434715655656223
1687013834.422359,-0.31612473726272583,0.602674663066864,0.7326997518539429,0.04422834515571594,-0.0036449432373046875,-0.1183655858039856,0.18454274535179138,-0.15194135904312134,0.05843104049563408,-2.734269842976059,-0.6468486178409018,-2.4429670574740108
1687013834.427997,-0.3086937367916107,0.6015390157699585,0.7367899417877197,0.03264695405960083,-0.13120198249816895,0.07128506898880005,-0.5351680517196655,-0.1322680562734604,0.06921817362308502,-2.744839537326381,-0.6454262826651738,-2.4476931574516314
1687013834.5232491,-0.30162835121154785,0.5958387851715088,0.7443093061447144,-3.784894943237305e-05,0.04995894432067871,0.042235374450683594,-0.07782026380300522,-0.09391685575246811,0.042310260236263275,-2.756572079948896,-0.6383096387471526,-2.4555849444150724
1687013834.530792,-0.2991596758365631,0.5899664163589478,0.7499623894691467,-0.06512874364852905,0.08048969507217407,0.017249643802642822,0.004812965635210276,-0.007671714294701815,-0.04295023903250694,-2.7620352870755807,-0.6310172734432433,-2.459729127430139
1687013834.535977,-0.3029913902282715,0.5975319743156433,0.7423957586288452,-0.08845752477645874,0.08249115943908691,-0.07381677627563477,0.6029845476150513,0.018869347870349884,-0.11405358463525772,-2.7541003519034355,-0.640419650717649,-2.4505215583333
1687013834.572448,-0.3101276457309723,0.6361011862754822,0.7065382599830627,-0.2162853479385376,0.15790528059005737,-0.0015822052955627441,1.7406052350997925,0.09299630671739578,-0.3297427296638489,-2.7279745018283728,-0.6894348209942295,-2.408990488324682
1687013834.632763,-0.3364008367061615,0.7153162360191345,0.6125009059906006,-0.1630193591117859,0.010880112648010254,-0.17808318138122559,3.370595693588257,0.5233154892921448,-0.22615700960159302,-2.639344626681586,-0.7970765464191331,-2.3094668149692548
1687013834.694622,-0.3424873650074005,0.8331018090248108,0.434332013130188,-0.24644094705581665,0.3219735026359558,0.07877537608146667,5.873533248901367,0.18668018281459808,0.10748599469661713,-2.4738798022122315,-0.9846920368824755,-2.1088655197310384
1687013834.758483,-0.34396860003471375,0.9279963374137878,0.14320845901966095,-0.26937374472618103,0.05781310796737671,0.13791944086551666,6.858738422393799,0.5857943296432495,0.16338463127613068,-1.9653104967459398,-1.1889986668024755,-1.5685526856376795
1687013834.849226,-0.34374773502349854,0.9131391048431396,-0.21912208199501038,-0.32145917415618896,0.24019640684127808,0.4425412118434906,7.701536178588867,0.49241310358047485,0.01682567410171032,-1.0032940678491644,-1.1509192974938591,-0.562235162902695
1687013834.869687,-0.3148557245731354,0.8103327751159668,-0.4941929280757904,-0.21467003226280212,-0.2993922829627991,0.18282198905944824,4.41375732421875,0.7952203154563904,0.34673288464546204,-0.5672609576744722,-0.944719795246394,-0.1075698819618177
1687013834.903428,-0.2947959899902344,0.6922551989555359,-0.6586942076683044,-0.06972122192382812,0.16138243675231934,0.03703582286834717,5.25351619720459,0.44271010160446167,0.45256736874580383,-0.4208113217108017,-0.7646094258268321,0.050638889712800485
1687013834.9946141,-0.2594349682331085,0.5260583758354187,-0.8099111318588257,-0.10051986575126648,0.13231247663497925,0.03737384080886841,4.133859634399414,0.8906694650650024,0.13377618789672852,-0.30999792861828945,-0.5539591542737214,0.17897770247203829
1687013835.011104,-0.21325020492076874,0.36443284153938293,-0.9064838886260986,0.005501776933670044,0.1656574010848999,0.10577893257141113,4.149518966674805,0.9288608431816101,1.2104426622390747,-0.23104872862325349,-0.3730236955793288,0.2659494562820549
1687013835.050651,-0.15533937513828278,0.19766178727149963,-0.9678840041160583,0.14291872084140778,0.0429692417383194,0.24721139669418335,2.6853442192077637,0.9917624592781067,0.18110203742980957,-0.15913668660659844,-0.19897207205561585,0.3363424415611488
1687013835.147548,-0.10092088580131531,0.11524445563554764,-0.9881972074508667,0.1713249385356903,0.1800588071346283,0.0483931303024292,2.007530927658081,1.388511061668396,0.8549844026565552,-0.10177341841150353,-0.11550109356460805,0.37141979063149
1687013835.166822,-0.02361895702779293,0.03015984036028385,-0.9992659687995911,0.3723890781402588,0.08719541877508163,0.06922757625579834,0.8714909553527832,1.222801685333252,0.3768078088760376,-0.02363190613160904,-0.030164413687407125,0.4060290388166154
1687013835.2030559,0.02660074457526207,-0.0039031084161251783,-0.9996384978294373,0.26151570677757263,0.14178143441677094,-0.04345226287841797,0.9162302613258362,0.8770301938056946,0.5948120951652527,0.026604085623287057,0.0039031182756802747,0.42578255907919693
1687013835.262754,0.0680476576089859,-0.044413480907678604,-0.9966930150985718,0.1248081624507904,-0.0033313557505607605,0.06821095943450928,0.6650858521461487,0.7429059147834778,0.058200277388095856,0.06816765576796181,0.0444280963592553,0.4413520574229072
1687013835.361199,0.1005859449505806,-0.0693264827132225,-0.9925100803375244,0.04664609581232071,0.012472152709960938,0.12060767412185669,0.6682578325271606,0.8668054342269897,0.3409191071987152,0.10100016374688196,0.06938213648729934,0.44794048249902746
1687013835.41611,0.14644190669059753,-0.10085363686084747,-0.9840646982192993,0.10473302006721497,-0.2468484789133072,0.17502844333648682,-0.12514103949069977,0.7998522520065308,0.40374043583869934,0.14772914857112185,0.10102539881803392,0.46396785944513774
1687013835.432139,0.17982956767082214,-0.11600452661514282,-0.9768338203430176,0.08602429926395416,0.08393046259880066,0.06428194046020508,0.7334994077682495,0.671223521232605,0.10311462730169296,0.18205593402333262,0.11626629772508909,0.4779848347735335
1687013835.539674,0.19950126111507416,-0.1282978504896164,-0.9714622497558594,0.08942387998104095,-0.018598586320877075,0.06869131326675415,0.0994129329919815,0.2395758032798767,-0.045324116945266724,0.20254581178398742,0.1286524589569268,0.47674320346000143
1687013835.5463362,0.20651455223560333,-0.12810291349887848,-0.9700213074684143,0.037992268800735474,-0.10851521790027618,0.07654297351837158,-0.1616028994321823,0.0610242560505867,-0.1454116404056549,0.209765135928989,0.128455891836639,0.47121553449356746
1687013835.631329,0.2136639803647995,-0.13004879653453827,-0.9682123064994812,0.0239764004945755,-0.0553608238697052,0.0194360613822937,-0.0008400377701036632,0.17375817894935608,-0.036054786294698715,0.21719773006015683,0.13041820107997246,0.46647130655494656
1687013835.6493769,0.2183143049478531,-0.11947338283061981,-0.9685375690460205,0.030846446752548218,0.02177126705646515,-0.09693789482116699,0.050054922699928284,0.08062521368265152,-0.029383832588791847,0.22170097352790707,0.11975945120370668,0.46727983359570857
1687013835.715241,0.22356142103672028,-0.11800304055213928,-0.9675203561782837,0.018977031111717224,-0.09148496389389038,-0.06202065944671631,-0.1343400478363037,0.03214804828166962,0.05443836376070976,0.22708094983359478,0.11827862758637676,0.46808063292028723
1687013835.732538,0.22334396839141846,-0.12009631097316742,-0.9673129320144653,0.0018910020589828491,-0.032094940543174744,-0.03267180919647217,-0.027648480609059334,-0.04963230341672897,0.017701121047139168,0.22691457301195664,0.12038689604117758,0.4678870112876584
1687013835.804469,0.22039037942886353,-0.11489814519882202,-0.9686209559440613,0.013603150844573975,0.015120834112167358,0.08901280164718628,-0.30565738677978516,-0.06847479194402695,0.03379540145397186,0.2237212771055238,0.11515246464474374,0.4704610692934606
1687013835.819298,0.2187400907278061,-0.11372683197259903,-0.9691331386566162,0.010507941246032715,0.07658684998750687,0.004838705062866211,0.16593635082244873,-0.005483661312609911,0.038385629653930664,0.2219872450763564,0.11397342014316907,0.47341655582992226
1687013835.8937979,0.21435502171516418,-0.10026130825281143,-0.9715964198112488,0.02563519775867462,-0.03364991396665573,0.02707737684249878,-0.5547573566436768,-0.138241708278656,0.07904516905546188,0.2171430040949151,0.10043005074932058,0.4771090278880954
1687013835.907958,0.20507092773914337,-0.07773584872484207,-0.975655198097229,0.055335551500320435,-0.04216780513525009,-0.030951857566833496,-0.9539609551429749,-0.4172949194908142,-0.15666347742080688,0.20717216606408692,0.07781435523475634,0.48347511802338494
1687013835.9896522,0.164470836520195,0.0036276441533118486,-0.9863752722740173,0.1459386944770813,0.1384010761976242,0.058778226375579834,-1.786547064781189,-1.0319616794586182,-1.0747804641723633,0.16522262070763774,-0.003627652018929455,0.47291707836538927
1687013835.9944758,0.10501600056886673,0.1597752720117569,-0.9815515875816345,0.18805955350399017,-0.27829039096832275,0.21620124578475952,-4.375198841094971,-1.2572860717773438,-0.9784319996833801,0.10658434621342834,-0.16046300234230562,0.4358944300273581
1687013836.0432181,0.028137747198343277,0.4166835844516754,-0.9086160063743591,0.18223518133163452,-0.2046475112438202,0.32090848684310913,-5.93557596206665,-1.1413764953613281,-1.8735109567642212,0.030957804276260863,-0.4297940262344623,0.392093905293308
1687013836.137691,-0.061483122408390045,0.6477326154708862,-0.7593828439712524,0.057042818516492844,0.15045452117919922,-0.09445327520370483,-4.311269283294678,-0.34824588894844055,-1.2822141647338867,-0.08078837267509381,-0.7046045739093661,0.27872810535172976
1687013836.155991,-0.11929383128881454,0.7757100462913513,-0.6197119355201721,0.31144776940345764,-0.1864309310913086,0.19519710540771484,-4.546469688415527,-0.7951488494873047,-0.9116489887237549,-0.19017261273217034,-0.8878394099253178,0.14690064924419027
1687013836.1916409,-0.16226449608802795,0.8996345400810242,-0.40537384152412415,-0.13488514721393585,0.034600019454956055,-0.15383031964302063,-4.840122222900391,0.4697493612766266,-1.6831145286560059,-0.3807508344508947,-1.1189317503398335,-0.06095094458835358
1687013836.286847,-0.24526198208332062,0.9469165802001953,-0.20783552527427673,0.2537916600704193,0.10558891296386719,0.06180882453918457,-4.139451503753662,-1.0029315948486328,-0.5725759267807007,-0.8678123695962046,-1.2435049259282478,-0.5625137032426489
1687013836.303931,-0.2874637544155121,0.9577909708023071,0.0009915662230923772,-0.12678179144859314,0.037921249866485596,-0.1221768856048584,-4.414444923400879,0.5762567520141602,-1.6138216257095337,-1.5742456737855313,-1.2792166801125018,-1.300456579966717
1687013836.343236,-0.34422922134399414,0.9037306308746338,0.25451380014419556,-0.07125237584114075,-0.059644877910614014,0.17604339122772217,-6.312005996704102,0.15659277141094208,-0.6496749520301819,-2.207461438818779,-1.1284052982616133,-1.9648444597154922
1687013836.410466,-0.39804863929748535,0.8155303597450256,0.42008060216903687,0.13832882046699524,0.36060190200805664,-0.01059579849243164,-2.1661159992218018,0.45079830288887024,-1.0239322185516357,-2.3831176364091333,-0.9536450714640081,-2.2115783298687703
1687013836.4641252,-0.4336659014225006,0.7538697123527527,0.493573397397995,0.10532721877098083,0.09242874383926392,-0.006802737712860107,-1.692805290222168,0.5354373455047607,-0.6024619340896606,-2.420713266900686,-0.853932076633345,-2.279082320718936
1687013836.55722,-0.45227932929992676,0.7158105373382568,0.5320326685905457,-0.10201144218444824,-0.08226555585861206,-0.00903773307800293,-0.810981035232544,-0.1263594925403595,-0.26865828037261963,-2.437042308907033,-0.7977841926906394,-2.3068885363517
1687013836.563956,-0.46730825304985046,0.6946871876716614,0.54683917760849,0.03563705086708069,-0.012649714946746826,0.01088482141494751,-0.526988685131073,0.3834537863731384,-0.05119512230157852,-2.4344557900091757,-0.7679849458180508,-2.3254076621617026
1687013836.647058,-0.4618051052093506,0.6880614161491394,0.5597387552261353,-0.005968272686004639,-0.058163344860076904,-0.13823002576828003,-0.06650284677743912,0.01580893248319626,0.336296409368515,-2.4517706599285676,-0.7588141724072346,-2.35570330818117
1687013836.6650681,-0.4542884826660156,0.6868797540664673,0.5672898888587952,-0.019954562187194824,-0.02750176191329956,0.04425168037414551,-0.678100049495697,-0.09772597253322601,0.10473841428756714,-2.466361117889316,-0.7571870348454306,-2.37825832493926
1687013836.733319,-0.43593594431877136,0.6684135794639587,0.6026470065116882,0.016563326120376587,0.10975426435470581,-0.03300589323043823,-0.22177717089653015,-0.8476249575614929,0.07329254597425461,-2.515354580708632,-0.7320738598406317,-2.423087521954869
1687013836.74897,-0.4225035011768341,0.662365734577179,0.6186781525611877,-0.08947470784187317,-0.1109740138053894,-0.00013262033462524414,-0.49450868368148804,-0.33056774735450745,0.02208109013736248,-2.5424266176728665,-0.723972109890459,-2.429047039776569
1687013836.857991,-0.40060606598854065,0.6465553045272827,0.6492156386375427,-0.25016599893569946,0.17311632633209229,0.06388849020004272,-0.1679404377937317,-0.45005178451538086,-0.1668451577425003,-2.588722221234545,-0.7030603080213602,-2.4420992264360186
1687013836.86545,-0.3864927291870117,0.6325547099113464,0.6711912155151367,-0.1781434714794159,-0.11407637596130371,-0.29161369800567627,-0.22215093672275543,-1.142153263092041,-0.14362451434135437,-2.619134058544569,-0.6848472626600238,-2.4459733812180326
1687013836.9456,-0.3780430555343628,0.6191012263298035,0.6883291006088257,-0.33226877450942993,0.05664950609207153,-0.18893957138061523,-0.3849128782749176,0.04824472591280937,-0.02623238041996956,-2.639349658382092,-0.6675976880297959,-2.4476642846409282
1687013836.962909,-0.37320801615715027,0.6099729537963867,0.6990346312522888,-0.20510020852088928,0.14289599657058716,-0.09011721611022949,-0.015579834580421448,-0.11864785850048065,0.045959122478961945,-2.6512015693697233,-0.6560264893950477,-2.4519572442024065
1687013837.032176,-0.380236953496933,0.606227457523346,0.698504626750946,-0.00440669059753418,-0.04049241542816162,-0.027056753635406494,-0.24471914768218994,-0.11606086045503616,-0.253129243850708,-2.643091025564903,-0.6513083963543321,-2.4399826180678645
1687013837.04605,-0.38059788942337036,0.6031695008277893,0.7009508013725281,-0.019060373306274414,0.08869463205337524,-0.025352656841278076,0.6107847094535828,-0.022046037018299103,-0.13338114321231842,-2.644159885284654,-0.6474689342284434,-2.4334340373029244
1687013837.129453,-0.3856968581676483,0.6055859327316284,0.696063220500946,0.07020607590675354,-0.08893841505050659,0.08843690156936646,-0.28190672397613525,0.019007211551070213,0.10517577826976776,-2.6355980708515845,-0.6505019304546668,-2.4306358818935174
1687013837.144061,-0.38437169790267944,0.6170216202735901,0.6866897344589233,0.007769554853439331,0.0009899139404296875,-0.021360814571380615,0.3604283332824707,0.129563108086586,0.04084678739309311,-2.6312978374297273,-0.6649523061292086,-2.426082233745316
1687013837.1798348,-0.37603896856307983,0.6230098009109497,0.6858963966369629,0.03677499294281006,0.08347225189208984,-0.12995761632919312,0.49229803681373596,-0.27708515524864197,0.16326338052749634,-2.6400981895461646,-0.6725846479124479,-2.4326363172157506
1687013837.274342,-0.3611663281917572,0.6568143963813782,0.6619320511817932,0.07868030667304993,-0.07061737775802612,-0.3139706254005432,1.4264404773712158,-0.48825812339782715,0.44370296597480774,-2.6421149767079486,-0.7165863065609284,-2.418669547552093
1687013837.280997,-0.3160896897315979,0.7094143033027649,0.6299354434013367,-0.006328552961349487,-0.3918330669403076,-0.09676289558410645,0.09840985387563705,-0.7786888480186462,0.5823928713798523,-2.6765212025304597,-0.7886668149035051,-2.399937420762214
1687013837.331701,-0.24006947875022888,0.7306119203567505,0.6391972303390503,0.2222776859998703,-0.0005550384521484375,-0.35555166006088257,1.4826958179473877,-2.099498748779297,0.8610154986381531,-2.782313897698002,-0.8192177021396738,-2.4549209472399234
1687013837.3996,-0.16956986486911774,0.7176284193992615,0.6754671335220337,0.06849560141563416,-0.22039014101028442,0.3984922766685486,-2.4716765880584717,-1.2529019117355347,0.6916061639785767,-2.895634591253029,-0.8003909368398027,-2.510956886131943
1687013837.485522,-0.08823616802692413,0.698961615562439,0.7096951007843018,-0.09618156403303146,0.1654793620109558,-0.24889492988586426,1.4128918647766113,-1.461773157119751,0.7075170278549194,-3.0178977091886803,-0.7739445167078608,-2.5666167528947184
1687013837.503467,-0.004702245816588402,0.7210018634796143,0.6929173469543457,0.12401069700717926,-0.437447726726532,-0.1287846565246582,-0.5778236389160156,-1.9567776918411255,1.1140189170837402,-3.1348066004694597,-0.8052470476712917,-2.62812292992996
1687013837.573738,0.10984702408313751,0.7033957242965698,0.7022591829299927,-0.0388326495885849,0.036655545234680176,-0.20427340269088745,0.44409680366516113,-2.1763882637023926,0.9231857061386108,2.9864304595700837,-0.7801636161807247,-2.698325381928886
1687013837.578395,0.21734747290611267,0.7040927410125732,0.6760282516479492,0.23914974927902222,-0.07279062271118164,0.05520361661911011,0.03918669372797012,-2.235365629196167,1.4358919858932495,2.8305237506886227,-0.7811447139430822,-2.775283237199392
1687013837.630783,0.3383302390575409,0.6899195909500122,0.6399561166763306,-0.04911518096923828,0.06735897064208984,-0.008242249488830566,0.444358766078949,-1.9620004892349243,1.2859212160110474,2.6552672885266273,-0.7613779322483393,-2.8639799525832865
1687013837.7312531,0.4506474733352661,0.6729998588562012,0.5865049958229065,0.10698497295379639,-0.0741228461265564,0.08041083812713623,0.23147624731063843,-2.254240036010742,1.6850539445877075,2.486443815137726,-0.7382571959980225,-2.962640275306464
1687013837.74817,0.5612207651138306,0.6469040513038635,0.5162814259529114,0.14024102687835693,0.032280027866363525,-0.06694066524505615,0.9604459404945374,-2.075673818588257,1.7824805974960327,2.3145117307616854,-0.7035175401722936,-3.0682114295068246
1687013837.814131,0.6738747358322144,0.6052662134170532,0.42372822761535645,0.18769747018814087,-0.010326027870178223,0.11765357851982117,0.4724181890487671,-2.2703962326049805,1.8601140975952148,2.1321190816670414,-0.6501002903949005,3.1046175935829092
1687013837.939101,0.7684270143508911,0.5466042757034302,0.3327818214893341,0.2176721692085266,0.052776217460632324,0.1815156638622284,0.21547216176986694,-2.1501083374023438,1.6935207843780518,1.9794814760078008,-0.5783037208104808,3.031890861452137
1687013837.957829,0.8354876637458801,0.4853441119194031,0.25768494606018066,0.21692627668380737,0.0515516996383667,0.22272276878356934,-0.2701280117034912,-1.7506359815597534,1.463914394378662,1.8699640847335466,-0.506756701052431,3.0042015099653794
1687013837.993894,0.8789954781532288,0.4307235777378082,0.20455943048000336,0.04178100824356079,0.1548020839691162,0.09271231293678284,-0.16632336378097534,-1.148845911026001,1.0630693435668945,1.7994460897540414,-0.4452943786798275,3.00541042521697
1687013837.9973779,0.9107763171195984,0.38045480847358704,0.16043899953365326,-0.02538508176803589,0.06671932339668274,0.06487226486206055,-0.302096962928772,-1.0270366668701172,1.0263253450393677,1.7451637338594095,-0.39028804993780913,3.0101230381999424
1687013838.000414,0.9367409348487854,0.33058467507362366,0.11502265930175781,-0.0334663987159729,0.0948914885520935,0.09629631042480469,-0.3882438838481903,-1.0267568826675415,0.922152578830719,1.6929749870307162,-0.3369230148444285,3.012939257776345
1687013838.081989,0.9534668326377869,0.2908084988594055,0.07956915348768234,-0.008307039737701416,0.24851346015930176,0.08679734915494919,-0.14385640621185303,-0.7923691868782043,0.5525019764900208,1.6540558634833875,-0.2950717456076278,3.034641655192416
1687013838.177998,0.9587612748146057,0.278512567281723,0.05663684755563736,-0.04875761270523071,0.07619333267211914,0.2617073059082031,-0.5500044822692871,-0.16901302337646484,-0.02661687321960926,1.6298006941306118,-0.28224505040663034,3.03881263871995
1687013838.1851258,0.9546780586242676,0.289745956659317,0.06809910386800766,-0.07525289058685303,0.18324610590934753,0.08964622765779495,0.03188754990696907,0.32890114188194275,-0.2724100649356842,1.642007719633961,-0.29396138235483954,3.062752601118617
1687013838.232559,0.9525794982910156,0.2950199842453003,0.07453752309083939,-0.014392733573913574,0.020257234573364258,0.1279923915863037,-0.14917592704296112,0.10056821256875992,-0.10851852595806122,1.6488852987923672,-0.29947643777559246,3.054456674467299
1687013838.324294,0.9510241746902466,0.2980284094810486,0.08205027133226395,-0.016881108283996582,0.07157006859779358,-0.052265167236328125,0.03901718556880951,0.121181420981884,-0.10111314803361893,1.6568589081222256,-0.3026265337739337,3.0644883040958417
1687013838.332693,0.9482004642486572,0.304896742105484,0.08918432891368866,-0.007816612720489502,-0.026973098516464233,-0.013668663799762726,-0.01331348530948162,0.2710293233394623,-0.15282174944877625,1.6645768357822734,-0.30982999365703817,3.0627061781358047
1687013838.384212,0.945438027381897,0.31196483969688416,0.09394174069166183,0.028835773468017578,-0.08576846122741699,0.09950913488864899,-0.40127551555633545,0.003203925210982561,-0.14015215635299683,1.6698344338422657,-0.317260391947439,3.0649068480839126
1687013838.479686,0.9430332779884338,0.3171755373477936,0.10043717175722122,-0.036218881607055664,0.12154516577720642,-0.011798873543739319,0.2527120113372803,0.1752779483795166,-0.17996713519096375,1.6769007182387365,-0.32274977299307683,3.074623249233326
1687013838.498695,0.9365339279174805,0.33015015721321106,0.117919921875,0.06377124786376953,-0.1536669135093689,-0.0403594970703125,-0.15914733707904816,0.24824421107769012,-0.24024900794029236,1.6960482032931545,-0.33646263357588685,3.0831215171035358
1687013838.5619268,0.9304887056350708,0.3426196873188019,0.12962546944618225,-0.1201707124710083,0.11752444505691528,0.22448527812957764,-0.12626732885837555,0.6350696086883545,-0.5960012674331665,1.7092145089086823,-0.34970394569656515,3.0867550144406803
1687013838.5769792,0.9146730303764343,0.36519408226013184,0.17322485148906708,0.10154718160629272,-0.15248644351959229,-0.32163190841674805,0.39015674591064453,0.6199073791503906,-0.2615845799446106,1.7579641152534684,-0.3738412771159036,3.1061470040714
1687013838.6209621,0.9042567610740662,0.38333410024642944,0.18808099627494812,-0.1324979066848755,0.06490811705589294,0.2479541003704071,-0.23156531155109406,0.8152526021003723,-0.51921147108078,1.775867554766705,-0.39340346256262504,3.0994361560690313
1687013838.7182941,0.883556067943573,0.4081743061542511,0.22961343824863434,0.09170931577682495,-0.02301192283630371,-0.13578715920448303,0.0813697874546051,0.6869329214096069,-0.5644704103469849,1.8250465676481877,-0.4204532798940932,3.1235682563559366
1687013838.737046,0.8602650761604309,0.4350125789642334,0.26591062545776367,-0.08861273527145386,0.09043920040130615,0.2829938232898712,-0.3691999018192291,1.2172333002090454,-0.891705334186554,1.8705835387725556,-0.4500522410127517,3.1363283871925978
1687013838.7723641,0.8178468942642212,0.4719298779964447,0.3292543590068817,0.06752896308898926,0.09053963422775269,0.144118994474411,0.1046527847647667,1.438130497932434,-0.9152567386627197,1.9535306941293322,-0.4914784607324494,-3.116155539581052
1687013838.865203,0.7648531198501587,0.510829746723175,0.3924953043460846,-0.04352450370788574,0.07210177183151245,0.261618435382843,-0.1226411685347557,1.8803631067276,-1.0514345169067383,2.044919826368784,-0.5361496853595135,-3.096957253548874
1687013838.881293,0.6927105188369751,0.5502186417579651,0.4662747085094452,0.05024003982543945,0.1290265917778015,0.18449747562408447,-0.06454693526029587,2.0883049964904785,-1.2139805555343628,2.163250741979781,-0.5826260307270271,-3.057654801765441
1687013838.919904,0.5989835262298584,0.5894696116447449,0.5419817566871643,0.1593477725982666,0.1437457799911499,0.21261107921600342,-0.14106497168540955,2.4210643768310547,-1.4053866863250732,2.3062767556372337,-0.630402090410771,-3.0038290218974413
1687013839.015594,0.48337993025779724,0.6255151033401489,0.6124334335327148,0.23192155361175537,0.10997378826141357,0.08170408010482788,-0.05614719167351723,2.6087987422943115,-1.4790618419647217,2.473424128156796,-0.6757915781027559,-2.9360918808412397
1687013839.030735,0.3454365134239197,0.6570225954055786,0.6700709462165833,0.3178630471229553,0.10771745443344116,0.08040201663970947,0.16937373578548431,2.749281406402588,-1.5277762413024902,2.6656044661022458,-0.7168624762083867,-2.8496337158620526
1687013839.071649,0.19576860964298248,0.6801334619522095,0.706464946269989,0.27461400628089905,0.08047133684158325,0.06811672449111938,0.11182299256324768,2.9229655265808105,-1.6687259674072266,2.8712657054162722,-0.7479446787224174,-2.748087232260593
1687013839.164178,0.03257403522729874,0.7030392289161682,0.7104043364524841,0.3443485498428345,0.10938435792922974,0.08683663606643677,0.09477543830871582,2.8267714977264404,-1.8606680631637573,3.09577193866596,-0.7796621833644226,-2.6300932056534085
1687013839.180047,-0.11542613059282303,0.6987674236297607,0.705975353717804,0.32784369587898254,-0.16023880243301392,-0.035092175006866455,-0.2798840403556824,2.4060068130493164,-1.5678638219833374,-2.9795277908435387,-0.7736729800745508,-2.519715034905349
1687013839.222575,-0.2456076741218567,0.6746885180473328,0.696040153503418,0.28674542903900146,-0.028250038623809814,-0.053858935832977295,-0.20079931616783142,2.19378662109375,-1.1988507509231567,-2.802368440217726,-0.7405426445955062,-2.4332695838476384
1687013839.316782,-0.3507471978664398,0.6557230949401855,0.6685835719108582,0.20794013142585754,-0.217734694480896,-0.20180195569992065,-0.10051994025707245,1.8849809169769287,-1.0145564079284668,-2.658449611788909,-0.7151399631047501,-2.3687435758062394
1687013839.3335361,-0.4289860725402832,0.638584315776825,0.6388905048370361,0.2060704231262207,-0.11647427082061768,-0.1546071171760559,0.21345871686935425,1.3528193235397339,-0.6331793665885925,-2.5502825314577797,-0.6926572181438003,-2.3250533525170325
1687013839.370177,-0.4877465069293976,0.6285651922225952,0.6058129668235779,0.2283622920513153,-0.13320374488830566,0.02928835153579712,0.13247758150100708,1.1146293878555298,-0.5206121206283569,-2.4637431969381582,-0.6797070659461878,-2.287947228415717
1687013839.4656749,-0.5295255184173584,0.6229279637336731,0.5758158564567566,0.20201081037521362,-0.14863890409469604,-0.10781353712081909,0.04443059489130974,0.7154016494750977,-0.6087207198143005,-2.398048795736054,-0.6724800336122994,-2.2572047280577436
1687013839.4822788,-0.5507316589355469,0.6191332936286926,0.5597932934761047,0.11652761697769165,-0.09250670671463013,-0.10781282186508179,-0.11300226300954819,0.3488157391548157,0.06968815624713898,-2.3643541006468496,-0.6676385428641799,-2.2502623282040193
1687013839.521554,-0.5654923319816589,0.5974295139312744,0.5685920119285583,0.0034804940223693848,0.03590196371078491,0.046947598457336426,-1.2744494676589966,0.45302265882492065,0.0827021598815918,-2.358927672479632,-0.6402918663286137,-2.281164522565098
1687013839.6148582,-0.5722867250442505,0.5365743041038513,0.6201422214508057,0.03478056192398071,0.09079098701477051,-0.4222051501274109,-1.6522939205169678,-0.09835190325975418,0.0026213712990283966,-2.3963057272634245,-0.5663722276132472,-2.366558766996569
1687013839.631475,-0.5600515007972717,0.558226466178894,0.6121482253074646,-0.2238229513168335,0.06704819202423096,-0.07635122537612915,1.1953688859939575,-0.14247222244739532,0.08016902953386307,-2.4006088143877284,-0.5922466838624597,-2.343053585553244
1687013839.669533,-0.559991717338562,0.5512133836746216,0.6185253262519836,-0.07169169187545776,-0.013966500759124756,-0.2106882929801941,-0.4558354318141937,-0.14273595809936523,0.4306735098361969,-2.4058208348081993,-0.5838177885192959,-2.366502716038635
1687013839.766995,-0.5472620129585266,0.618272602558136,0.564130425453186,-0.3911381959915161,0.2413617968559265,-0.3252541422843933,2.9620187282562256,0.243681862950325,0.4515056014060974,-2.37137107518444,-0.6665429996889011,-2.306495331455754
1687013839.784585,-0.5371986627578735,0.7019146680831909,0.4676893651485443,-0.3712027668952942,0.04520142078399658,-0.3924941122531891,4.008830547332764,-0.06007979437708855,0.6080566048622131,-2.287133302225243,-0.77808214351547,-2.1977231525687397
1687013839.8186932,-0.5081579089164734,0.8329756259918213,0.21892322599887848,-0.4636896252632141,0.09288197755813599,0.14258790016174316,7.789368629455566,0.37783923745155334,0.5933282971382141,-1.9775839472384242,-0.9844639731735614,-1.7936835849192936
1687013839.9143429,-0.4854588806629181,0.8715217113494873,-0.06913440674543381,-0.07568308711051941,0.1583397388458252,0.38798201084136963,5.003048419952393,1.0867881774902344,1.416371464729309,-1.4293370797782172,-1.0582971093933211,-1.1978590638071713
1687013839.9301171,-0.40860286355018616,0.8523129820823669,-0.3265063464641571,-0.15815430879592896,0.49477869272232056,-0.011506438255310059,8.031084060668945,-0.17751391232013702,1.374806523323059,-0.8966166822406042,-1.0203916883432032,-0.6091819417429193
1687013839.972913,-0.3907361626625061,0.6961567997932434,-0.6022383570671082,-0.04352894425392151,-0.1864216923713684,0.6942793130874634,4.7841949462890625,0.4203509986400604,0.35870683193206787,-0.5755357292672083,-0.770029999059818,-0.19186757141617122
1687013840.0658,-0.3266163766384125,0.5159579515457153,-0.7919022440910339,0.15387162566184998,0.6139858365058899,0.03946077823638916,8.648941993713379,0.6858839392662048,2.611368179321289,-0.39118884070600185,-0.5421255441482064,0.05788495293751572
1687013840.0837,-0.22487245500087738,0.2431405782699585,-0.9435650706291199,-0.4362298548221588,-0.513373851776123,0.6582714915275574,3.0997984409332275,2.1193387508392334,0.45921602845191956,-0.23395790438855166,-0.24560228500089565,0.30724412163710674
1687013840.118943,-0.13561169803142548,0.14584395289421082,-0.9799689054489136,0.41202467679977417,0.20420783758163452,0.19421756267547607,1.4577279090881348,1.5315405130386353,-0.32829657196998596,-0.13751034630808714,-0.14636598690797692,0.31225703348605927
1687013840.248743,-0.04385741800069809,0.06352563947439194,-0.9970160722732544,0.3829382359981537,0.108486607670784,-0.1288384199142456,1.9787850379943848,2.041890859603882,1.7756102085113525,-0.04396033855658229,-0.06356844369059121,0.35526089143296535
1687013840.268704,0.04859766364097595,0.013705779798328876,-0.9987244009971619,0.14248813688755035,-0.08772625029087067,-0.025170862674713135,1.2210479974746704,1.7051887512207031,1.2692803144454956,0.04862138515783818,-0.013706209203612311,0.4373395154207857
1687013840.337708,0.12975911796092987,-0.049994323402643204,-0.9902843832969666,0.35070961713790894,0.03688693419098854,0.18971675634384155,0.38934147357940674,1.3774783611297607,0.5329792499542236,0.1302898984373859,0.050015171328091586,0.4601949455020717
1687013840.427763,0.1879921704530716,-0.07705376297235489,-0.9791433215141296,0.12873448431491852,0.17469467222690582,-0.049314260482788086,0.9351950287818909,1.0862351655960083,0.9722467660903931,0.18968825944135756,0.07713021561887068,0.507226980347155
1687013840.434173,0.2164093554019928,-0.11173196882009506,-0.9698880910873413,0.1467040330171585,-0.142220139503479,0.19049972295761108,-0.08260609954595566,0.1891675889492035,-0.09771402180194855,0.2195320941033943,0.11196576039196149,0.511395888282801
1687013840.4386,0.2271897941827774,-0.1285071074962616,-0.9653345346450806,0.0038435161113739014,0.006528258323669434,0.10441839694976807,0.7628002166748047,0.33022305369377136,0.1289699822664261,0.23114196245082194,0.12886345338010796,0.5169772529560938
1687013840.514451,0.22900821268558502,-0.11809184402227402,-0.9662347435951233,0.048839062452316284,-0.025996990501880646,0.02226501703262329,-0.3241755962371826,-0.120843805372715,-0.11661621183156967,0.23271681811005096,0.11836806174575576,0.5119121499464059
1687013840.53062,0.22825336456298828,-0.11103413999080658,-0.9672496318817139,0.044665321707725525,-0.13475452363491058,0.10688281059265137,-0.6822988986968994,-0.1695723831653595,-0.023029662668704987,0.23174222941561046,0.11126356143565774,0.5101112027168161
1687013840.635946,0.2283281683921814,-0.10467959195375443,-0.9679403305053711,-0.0048937201499938965,0.07352105528116226,-0.029526710510253906,0.3513854742050171,0.16188864409923553,0.07933079451322556,0.23165592860745404,0.10487171888582592,0.5105781006530071
1687013840.656602,0.22916971147060394,-0.10588167607784271,-0.9676105976104736,0.024599194526672363,-0.03855811059474945,0.020528078079223633,-0.28106561303138733,-0.08537574112415314,0.049048058688640594,0.23255574134204535,0.10608051666506016,0.5143412121781752
1687013840.723443,0.22352376580238342,-0.08760363608598709,-0.9707536697387695,0.03999549150466919,-0.020627036690711975,0.009907782077789307,-0.42369168996810913,-0.18427187204360962,0.012004620395600796,0.22631337699166926,0.0877160731497751,0.5192952766920993
1687013840.739737,0.20458930730819702,-0.0627434104681015,-0.9768349528312683,0.07186941802501678,0.035643719136714935,-0.02345496416091919,-0.5902820229530334,-0.6296453475952148,-0.3112344443798065,0.20645676622417095,0.0627846537739531,0.5212744661071809
1687013840.811568,0.16091567277908325,-0.025384437292814255,-0.9866416454315186,0.14558760821819305,0.1670164316892624,-0.08757704496383667,-0.34923094511032104,-1.0637239217758179,-0.7480668425559998,0.16167089375042606,0.02538716419524086,0.49812985941215304
1687013840.815112,0.1045108214020729,0.012827552855014801,-0.994441032409668,0.1829342395067215,-0.07895923405885696,0.18465709686279297,-1.1964654922485352,-1.3077434301376343,-0.7418335676193237,0.10471066028080113,-0.012827904831646024,0.4633539022769106
1687013840.909432,0.04639405384659767,0.056473784148693085,-0.997325599193573,0.12505368888378143,0.004698615521192551,0.1315876841545105,-0.7462210655212402,-1.0270026922225952,-0.8005467653274536,0.046484953089992495,-0.056503844195724164,0.43238349873165466
1687013840.915312,-0.01659877598285675,0.1298338770866394,-0.9913968443870544,0.11906153708696365,-0.12466123700141907,0.006487727165222168,-1.4945372343063354,-1.1414716243743896,-0.29330018162727356,-0.016741253132434047,-0.13020143472361193,0.3982388892784786
1687013840.960734,-0.06235181540250778,0.23220573365688324,-0.9706661105155945,0.2927595376968384,-0.2968725562095642,0.20452237129211426,-4.016416549682617,-1.0223373174667358,-1.2920690774917603,-0.06414797517079802,-0.23434478311594886,0.35810832999949016
1687013841.059072,-0.13329197466373444,0.49315086007118225,-0.8596717119216919,-0.037606462836265564,-0.10031339526176453,0.051276326179504395,-6.780462265014648,-0.5912318229675293,-0.9855474829673767,-0.15382498715775592,-0.515707946899996,0.2801595325683058
1687013841.0778952,-0.21562643349170685,0.7528413534164429,-0.6218803524971008,0.18596334755420685,-0.08116477727890015,0.40342020988464355,-7.932079792022705,-1.2557814121246338,-1.460807204246521,-0.33376139254278353,-0.8523683258891057,0.04970274964655056
1687013841.1121511,-0.2670573890209198,0.8941448926925659,-0.3594234585762024,-0.11674690246582031,0.3204393982887268,-0.41950723528862,-2.862013339996338,0.5571386814117432,-1.7906173467636108,-0.6390163585462394,-1.1065178329528416,-0.29413289998649694
1687013841.209437,-0.3292185068130493,0.9052366018295288,-0.2686293125152588,0.1255289614200592,-0.11069631576538086,0.0256941020488739,-1.8873169422149658,-0.48115354776382446,-0.4411924183368683,-0.8863988308986371,-1.1319362453491333,-0.5527169639834768
1687013841.215318,-0.36549806594848633,0.9203117489814758,-0.1394190490245819,-0.02929261326789856,-0.09441441297531128,0.18418823182582855,-3.852410078048706,0.2645013928413391,-1.3674652576446533,-1.2063833352964908,-1.1688766758107327,-0.9203822546229434
1687013841.2612882,-0.41161787509918213,0.9110693335533142,0.02288264036178589,-0.10103169083595276,0.11491644382476807,-0.050852060317993164,-3.2976245880126953,0.3296734094619751,-0.6201900839805603,-1.6263311160375218,-1.1458705016420443,-1.372669945126601
1687013841.39143,-0.44826480746269226,0.879122257232666,0.16187191009521484,-0.009407222270965576,-0.028765320777893066,0.011650890111923218,-3.0648550987243652,0.14957605302333832,-0.6883416175842285,-1.917332233636876,-1.0740173132841935,-1.7172644337822331
1687013841.4130712,-0.4701182246208191,0.8400472402572632,0.2707568407058716,-0.13780713081359863,0.15702301263809204,-0.14532974362373352,-1.6752684116363525,0.09252199530601501,-0.4169866144657135,-2.0933318964185745,-0.9973702955404633,-1.9290591063723372
1687013841.4732342,-0.49127253890037537,0.8089335560798645,0.32292088866233826,-0.039946913719177246,0.012569189071655273,0.019883006811141968,-1.5254265069961548,0.05454549938440323,-0.4106614291667938,-2.152296829893271,-0.9423358087108866,-2.004594984170212
1687013841.489866,-0.505607008934021,0.7684478759765625,0.3922365605831146,-0.043129563331604004,0.10614019632339478,-0.150262713432312,-1.31071138381958,-0.2692238688468933,-0.32983601093292236,-2.2305894911929816,-0.8764120964298296,-2.1062125129348708
1687013841.560934,-0.5186238884925842,0.737049400806427,0.43334484100341797,-0.15332746505737305,-0.02876681089401245,0.015904486179351807,-1.2570438385009766,0.14554978907108307,-0.540995717048645,-2.2668511609914015,-0.8286940699286043,-2.1415507953059825
1687013841.565064,-0.5289539098739624,0.7041363716125488,0.4737085700035095,0.0479663610458374,0.04330021142959595,-0.1343684196472168,-0.2835509181022644,-0.3699479103088379,-0.2553887367248535,-2.301151513022729,-0.7812061146583238,-2.1803214883730275
1687013841.653123,-0.5283879637718201,0.6914485692977905,0.49265071749687195,0.061652183532714844,-0.1549038290977478,-0.02316838502883911,-0.6548933386802673,-0.1954164057970047,0.15372201800346375,-2.321207908197465,-0.7634923150585001,-2.200202213313499
1687013841.673085,-0.5105018019676208,0.6868190765380859,0.5173661708831787,0.051730990409851074,-0.07419383525848389,-0.10853737592697144,-0.217842698097229,-0.275932639837265,0.5327432155609131,-2.3628726380147174,-0.7571034986621435,-2.237881411404836
1687013841.709643,-0.4803372621536255,0.6924459338188171,0.5383260846138,-0.05561250448226929,-0.08851820230484009,0.05963534116744995,-0.7988897562026978,-0.36621353030204773,0.606674075126648,-2.413059525319095,-0.7648737493946312,-2.281461745254121
1687013841.8030329,-0.4440648555755615,0.6889734864234924,0.572819173336029,-0.07242986559867859,0.10361379384994507,-0.033009111881256104,-0.3192185163497925,-0.7291433811187744,0.4824221134185791,-2.4821408188385203,-0.7600717783110302,-2.3395523958895503
1687013841.822855,-0.4157681167125702,0.6806359887123108,0.603217601776123,-0.22479581832885742,0.1293157935142517,0.05381053686141968,-0.4874016344547272,-0.5361328721046448,0.10804586112499237,-2.5381175269660528,-0.7486304072830047,-2.379263141719804
1687013841.9207249,-0.4043947756290436,0.6686043739318848,0.6240458488464355,-0.19953283667564392,0.08534771203994751,-0.10004377365112305,-0.2203729748725891,-0.26121094822883606,-0.03243774548172951,-2.56660995271384,-0.7323303716280033,-2.3977377454401205
1687013841.939748,-0.39935553073883057,0.6599621772766113,0.6363687515258789,0.0014520883560180664,0.07105594873428345,-0.06718546152114868,-0.4735358953475952,-0.2600930631160736,-0.09273610264062881,-2.581159127493502,-0.7207684048951024,-2.401535928981888
1687013842.012667,-0.3822457492351532,0.6641897559165955,0.6424484848976135,0.09763887524604797,0.15622961521148682,-0.21912401914596558,0.7878944873809814,-0.7193608283996582,0.16853950917720795,-2.604870509267753,-0.7264094291992576,-2.400511482086967
1687013842.016896,-0.3366049826145172,0.6999927163124084,0.6298469305038452,0.1818351149559021,-0.26453739404678345,-0.4141029715538025,0.9859604239463806,-1.6043851375579834,0.6462536454200745,-2.650786994224931,-0.7753873190363307,-2.3900190810465736
1687013842.104495,-0.2527710497379303,0.71913743019104,0.6472618579864502,0.20337837934494019,-0.2763274312019348,-0.18481385707855225,-0.1589670032262802,-2.2533366680145264,0.9034615755081177,-2.7692821731376838,-0.8025601389466472,-2.425041272238195
1687013842.123785,-0.133042573928833,0.7468153834342957,0.6515874266624451,0.0428173691034317,-0.09157252311706543,-0.1267615556716919,0.8652920126914978,-2.4317617416381836,0.5326598882675171,-2.9401789786396435,-0.8432604350063873,-2.4895484942352315
1687013842.1630821,-0.03547259792685509,0.7404358983039856,0.671190619468689,0.0370137095451355,0.271664559841156,0.19897252321243286,-0.16587835550308228,-2.180166721343994,0.6766113638877869,-3.088791514223572,-0.8337186418032453,-2.5464026349450593
1687013842.165926,0.050694916397333145,0.7615188360214233,0.6461569666862488,-0.10236120223999023,-0.14265292882919312,0.08118361234664917,0.14214615523815155,-1.6019147634506226,0.7626897692680359,3.0632969932823992,-0.8656532666803555,-2.5933026080977886
1687013842.221724,0.14405705034732819,0.7508093118667603,0.6446184515953064,0.06237906217575073,-0.0067906975746154785,-0.20420414209365845,0.4796401560306549,-1.971063256263733,1.1248811483383179,2.921728811423538,-0.8492864878068913,-2.657995659432243
1687013842.281968,0.25863897800445557,0.752966046333313,0.6051018834114075,0.08903253078460693,-0.22644609212875366,0.06036442518234253,-0.14153030514717102,-1.962921142578125,1.6826766729354858,2.737665208869992,-0.8525577570886594,-2.771285200282438
1687013842.342904,0.37734246253967285,0.7268534898757935,0.573844313621521,0.09406262636184692,-0.03645402193069458,-0.019934892654418945,0.733160138130188,-1.9861284494400024,1.9033913612365723,2.5599145999784456,-0.8137292991431053,-2.880814347538959
1687013842.404957,0.5069934129714966,0.7013399600982666,0.5010790228843689,0.20217406749725342,-0.13903820514678955,-0.009715557098388672,0.47654733061790466,-2.3066117763519287,2.1874845027923584,2.350327521832338,-0.7772755395787962,-3.0264669867886953
1687013842.556356,0.6362919807434082,0.6467549204826355,0.4205247163772583,0.15501368045806885,-0.0041612982749938965,0.08974453806877136,0.5052379965782166,-2.372127056121826,2.241628646850586,2.1547952626341695,-0.703322003283235,-3.141011030994956
1687013842.578065,0.7458173036575317,0.5809606909751892,0.3259471654891968,0.31762880086898804,0.09318798780441284,0.1858021318912506,0.3509756922721863,-2.167529582977295,2.135782480239868,1.982815178621622,-0.619908538999307,3.0466845309152695
1687013842.614249,0.827024519443512,0.5053865313529968,0.24620100855827332,0.19441407918930054,0.18955981731414795,0.2653040885925293,-0.36804720759391785,-1.7149378061294556,1.5273733139038086,1.8601370440560863,-0.5298298596734177,3.0084113285730862
1687013842.618092,0.8675920367240906,0.45283761620521545,0.20548108220100403,0.0675734281539917,0.23391485214233398,0.19783928990364075,-0.4795604646205902,-0.9462153911590576,0.8963057994842529,1.8033519047425806,-0.46994540038681704,3.0184151959229304
1687013842.620788,0.8923231363296509,0.4152463376522064,0.17700177431106567,-0.0970810055732727,0.27893704175949097,0.14016732573509216,-0.19373533129692078,-0.7107354402542114,0.7371014356613159,1.7666150590117387,-0.42821358352444583,3.02358799971642
1687013842.6706781,0.9148710370063782,0.3781985640525818,0.14134062826633453,-0.026015937328338623,0.03421613574028015,0.018540993332862854,0.0905846357345581,-0.8606114983558655,0.7022252082824707,1.7240769049371456,-0.3878495472983108,3.0102617400922274
1687013842.764363,0.9323965907096863,0.34706807136535645,0.10089807212352753,-9.98377799987793e-05,0.18254932761192322,0.075142502784729,-0.042208295315504074,-0.8840140700340271,0.7576760649681091,1.6785905607262033,-0.3544430193860766,3.0052795907305727
1687013842.857386,0.9456682205200195,0.31808874011039734,0.06731313467025757,0.04284179210662842,0.013255923986434937,0.04331301897764206,-0.4430468678474426,-0.838772714138031,0.5328048467636108,1.6418569715377933,-0.3237128322650866,3.0155398807824683
1687013842.877852,0.9557681679725647,0.2923623323440552,0.03211867809295654,-0.012881815433502197,0.10859295725822449,0.14320480823516846,-0.137656569480896,-0.7447127103805542,0.38805627822875977,1.6043887780996702,-0.29669617793621644,3.0262033061357316
1687013842.941338,0.9602276086807251,0.27887940406799316,0.013757003471255302,0.024208366870880127,0.018758624792099,-0.006844758987426758,-0.05878283083438873,-0.34479230642318726,0.2010253369808197,1.5851221611161104,-0.2826270075718375,3.0349504736805715
1687013842.9590158,0.9623138904571533,0.2718956768512726,0.004959597252309322,-0.059787094593048096,0.05030897259712219,0.2100520133972168,-0.4079650640487671,-0.027211681008338928,0.06890672445297241,1.5759501057923888,-0.27536236416821214,3.052653612537441
1687013842.998616,0.9618567824363708,0.2734549045562744,0.007358078379184008,-0.01602548360824585,-0.02740687131881714,0.09277009963989258,-0.16387493908405304,0.06705321371555328,-0.2008686363697052,1.5784460465460735,-0.2769830292768575,3.0544301478462494
1687013843.1245441,0.958914577960968,0.28265297412872314,0.024300457909703255,-0.004858672618865967,0.0957956314086914,-0.03742301091551781,0.17747457325458527,0.23049363493919373,-0.14230838418006897,1.5961325345182755,-0.2865587268417159,3.0764962583646986
1687013843.1446118,0.9576519131660461,0.28651857376098633,0.028461094945669174,0.025593936443328857,-0.14401665329933167,0.09383809566497803,-0.549304723739624,0.13023999333381653,-0.08937593549489975,1.6005072476528022,-0.2905910716185876,3.072892160859142
1687013843.213114,0.9569786190986633,0.28807568550109863,0.034701474010944366,-0.03208249807357788,0.13457757234573364,-0.06511223316192627,0.4662586748600006,0.08915744721889496,-0.01822165958583355,1.607041938710795,-0.29221672716170316,3.0780608139398447
1687013843.217792,0.9552886486053467,0.2927052080631256,0.041798800230026245,0.03700554370880127,-0.054286569356918335,0.03351854905486107,-0.3872491717338562,0.14146220684051514,-0.09988516569137573,1.614523588815201,-0.2970547413652274,3.0813275616711415
1687013843.336606,0.95381098985672,0.2971065938472748,0.04441027343273163,-0.011412978172302246,0.040600985288619995,-0.009986523538827896,0.234304741024971,0.04501386731863022,-0.07939094305038452,1.6173235970980102,-0.30166097791326457,3.0733761089689327
1687013843.3590431,0.9523054957389832,0.30115920305252075,0.04916447773575783,-0.00995337963104248,0.07376453280448914,0.0346214696764946,0.004815184976905584,0.06921472400426865,-0.11612005531787872,1.6223773222784295,-0.3059080720848746,3.078027667504281
1687013843.420475,0.9500735998153687,0.3074752390384674,0.05309402942657471,0.018004894256591797,-0.00045308470726013184,0.060049884021282196,0.0030125353951007128,0.1296488642692566,-0.13115859031677246,1.6266223809826468,-0.31253859195979156,3.072790591156967
1687013843.424069,0.9456359148025513,0.31881648302078247,0.06425675749778748,-0.02592766284942627,0.05093458294868469,0.05717265605926514,0.006673317402601242,0.34284156560897827,-0.28149375319480896,1.6386428751830813,-0.3244805356828986,3.074525293242584
1687013843.515826,0.937367856502533,0.3381591737270355,0.08360568434000015,-0.050649166107177734,0.11684268712997437,0.15867340564727783,-0.13689392805099487,0.5797489881515503,-0.611151933670044,1.6597529023362205,-0.3449601605437409,3.078208044673845
1687013843.5355902,0.9201055765151978,0.37095943093299866,0.12567833065986633,0.035231947898864746,0.012143075466156006,0.057244062423706055,-0.10679399222135544,0.9211251139640808,-0.782564103603363,1.7065474567411254,-0.3800419485886269,3.0959152528451455
1687013843.640084,0.8993615508079529,0.4035358726978302,0.16824844479560852,-0.013314247131347656,0.03762632608413696,0.11196398735046387,-0.10222063213586807,1.0209850072860718,-0.7808948755264282,1.7557340859703172,-0.41537806277110617,3.104132287674074
1687013843.659513,0.8718283176422119,0.4388000965118408,0.21764689683914185,0.005826830863952637,0.05018320679664612,0.09763017296791077,0.0010337624698877335,1.157758116722107,-0.8439440131187439,1.8154401079221385,-0.4542629167665847,3.118849431988199
1687013843.72001,0.8357437252998352,0.47737208008766174,0.2713826596736908,0.02025914192199707,0.0637047290802002,0.1651560366153717,0.2384246587753296,1.5471209287643433,-0.8863077163696289,1.8847749011517034,-0.4976615746578749,3.1252742768756994
1687013843.736479,0.7882791757583618,0.518622636795044,0.3311293125152588,0.06027728319168091,0.033760905265808105,0.1512620449066162,0.09607789665460587,1.6746983528137207,-1.0459939241409302,1.9684804545578738,-0.5452391826583819,3.129244250539872
1687013843.811915,0.7274464964866638,0.5568110942840576,0.4009774923324585,0.037384986877441406,0.028424501419067383,0.14350184798240662,-0.15458187460899353,1.9214345216751099,-1.0930815935134888,2.0745698614750148,-0.5905417378148027,-3.1194562308857328
1687013843.816416,0.6524513363838196,0.5941076874732971,0.47047141194343567,0.13607710599899292,0.028664588928222656,0.08284270763397217,0.0341653972864151,2.077977180480957,-1.006650447845459,2.1955321164831427,-0.6361558743420719,-3.0844776671373184
1687013843.903801,0.5685886144638062,0.6250020265579224,0.534864068031311,0.12065088748931885,0.04397386312484741,0.07623517513275146,0.03656219691038132,2.282120943069458,-1.005303978919983,2.3256412779489337,-0.6751341360395722,-3.044473720041947
1687013843.923046,0.47394877672195435,0.6552918553352356,0.5881878733634949,0.15556776523590088,0.023831069469451904,0.06400316953659058,0.15925642848014832,2.2930972576141357,-1.001570224761963,2.4633385280329327,-0.7145689518135195,-3.0042391531144665
1687013843.989531,0.36558234691619873,0.6792538166046143,0.6363674402236938,0.2067137360572815,0.05737942457199097,0.0286409854888916,-0.032293301075696945,2.262568473815918,-1.2100390195846558,2.6201469136658937,-0.7467454612579385,-2.942076214920864
1687013843.993126,0.2462342083454132,0.692863404750824,0.6777235269546509,0.2324645221233368,0.07610338926315308,0.04046189785003662,-0.19970910251140594,2.3630611896514893,-1.3371754884719849,2.793096277005416,-0.765452545179912,-2.8584536170630153
1687013844.083854,0.1132722720503807,0.6984160542488098,0.7066711783409119,0.2619718313217163,0.1400085687637329,0.12487161159515381,-0.2850349545478821,2.571972608566284,-1.4832717180252075,2.982654714373115,-0.7731819147200293,-2.7604953699400023
1687013844.1035008,-0.029086755588650703,0.6991270780563354,0.7144054174423218,0.25703781843185425,0.048584043979644775,0.06586790084838867,-0.04689528048038483,2.5080175399780273,-1.4759644269943237,-3.100900494807102,-0.7741758764222121,-2.657823799593517
1687013844.1396642,-0.17421947419643402,0.6788612008094788,0.7132986783981323,0.24943004548549652,0.00821155309677124,0.0191994309425354,-0.47767916321754456,2.598240613937378,-1.4439581632614136,-2.902037965238713,-0.7462105865842698,-2.556630787891962
1687013844.2322311,-0.30588534474372864,0.659866452217102,0.6863018274307251,0.19486242532730103,-0.01272594928741455,-0.05094122886657715,0.24043206870555878,2.4447872638702393,-1.2597692012786865,-2.722319606514709,-0.7206409774500798,-2.4719568542327326
1687013844.2510939,-0.4202892482280731,0.633145272731781,0.649988055229187,0.25232040882110596,-0.10509949922561646,-0.07752400636672974,-0.4741191864013672,2.1587445735931396,-1.0728263854980469,-2.5676037531835343,-0.6856099874084784,-2.411619425815319
1687013844.292736,-0.5041822195053101,0.6137325763702393,0.607563316822052,0.125748872756958,-0.15393930673599243,-0.20535683631896973,0.1548762321472168,1.786089539527893,-0.5218855738639832,-2.448917752084497,-0.6607796398759069,-2.3774566936476136
1687013844.382168,-0.5667475461959839,0.6213825941085815,0.5409996509552002,0.05823326110839844,-0.03523153066635132,-0.27394044399261475,1.385755181312561,1.532976508140564,-0.2045406699180603,-2.3329551906210217,-0.6705061118432611,-2.332651775119394
1687013844.4013891,-0.60694420337677,0.6533835530281067,0.45244738459587097,-0.1341293454170227,-0.10029822587966919,-0.27594903111457825,1.7329562902450562,1.354451060295105,-0.27095410227775574,-2.2113799331177626,-0.7120453670123913,-2.2443995057164896
1687013844.5029988,-0.6398524641990662,0.6927664279937744,0.3326612114906311,-0.06752967834472656,0.14980864524841309,0.016383498907089233,3.4738919734954834,1.017052412033081,-0.4807533025741577,-2.0502392380913195,-0.7653180755294199,-2.0891948339291986
1687013844.5661511,-0.6704034805297852,0.7272731065750122,0.14708226919174194,-0.0008001327514648438,0.12740224599838257,0.4160585403442383,3.6200127601623535,1.0210076570510864,-0.9195520877838135,-1.7867681987268387,-0.8143405322348821,-1.7911560904456088
1687013844.585984,-0.7251215577125549,0.6866174936294556,0.05249090492725372,0.043419837951660156,0.04644531011581421,0.4007408618927002,-0.28692305088043213,1.4920215606689453,-1.9120148420333862,-1.6430593916209368,-0.7568261922909434,-1.674350108797457
1687013844.589067,-0.7798711061477661,0.6259344816207886,-0.002722938545048237,0.21811866760253906,0.00024050474166870117,0.1444007158279419,0.6132873892784119,0.9200045466423035,-1.597137451171875,-1.5673048170805488,-0.676329194886687,-1.6397148654722
1687013844.619276,-0.8225869536399841,0.567923367023468,-0.02852381207048893,0.3022165894508362,-0.11112099885940552,0.1728108525276184,-0.9910038709640503,0.8002034425735474,-1.3382973670959473,-1.5361344754542459,-0.6039806246504023,-1.672372782221052
1687013844.681191,-0.8418532013893127,0.5357741117477417,-0.06503283977508545,0.09102928638458252,-0.004463136196136475,-0.16867083311080933,0.8996217846870422,0.9040786027908325,-0.4226507842540741,-1.4936998215674342,-0.5654243013994936,-1.6635240215567677
1687013844.80942,-0.8392589092254639,0.5263175964355469,-0.13650819659233093,0.08851110935211182,-0.0499839186668396,-0.47465217113494873,3.1503467559814453,0.2654740810394287,0.5090682506561279,-1.4095551104635715,-0.5542639802366337,-1.5679446585325092
1687013844.8324099,-0.7932538986206055,0.5398051142692566,-0.281707227230072,-0.24696838855743408,-0.4307504892349243,-0.13763490319252014,6.228146553039551,0.43294236063957214,1.725623607635498,-1.2295598231590756,-0.5702055726590084,-1.2549981460743989
1687013844.891094,-0.7428637742996216,0.4877336025238037,-0.4585513770580292,-0.08942687511444092,-0.1934831440448761,0.022363603115081787,6.271399021148682,0.445685476064682,1.6641311645507812,-1.017771202739562,-0.5094917338687116,-0.8838509599208705
1687013844.908531,-0.6753052473068237,0.41325026750564575,-0.6108904480934143,-0.16496574878692627,-0.22169148921966553,0.26825428009033203,3.7958011627197266,1.4593592882156372,1.7940216064453125,-0.8354379934039312,-0.42602047324349474,-0.5735895085596019
1687013844.980097,-0.6165534853935242,0.39353278279304504,-0.6819046139717102,-0.00447922945022583,0.11220446228981018,-0.25106358528137207,2.739213228225708,0.20768311619758606,1.9290708303451538,-0.7351107969608761,-0.40447131353176546,-0.4482308959007243
1687013844.983525,-0.5523013472557068,0.3178042471408844,-0.7706904411315918,-0.1893368363380432,-0.3633212745189667,0.295592725276947,2.72544002532959,1.316618800163269,1.785652756690979,-0.6218013107571971,-0.3234127698874499,-0.24311707933587315
1687013845.072525,-0.4750277101993561,0.22732414305210114,-0.8501014113426208,-0.09755831956863403,0.3070385456085205,-0.13209158182144165,4.73362922668457,1.0739284753799438,2.384577751159668,-0.5095663175902665,-0.2293290075737111,-0.061885983425286395
1687013845.0920138,-0.3806774616241455,0.12376056611537933,-0.9163885712623596,-0.06124758720397949,-0.2789730429649353,0.3645239472389221,1.0832855701446533,1.947457194328308,2.0083751678466797,-0.39372030876044234,-0.12407869658082742,0.10529979820003987
1687013845.1296039,-0.28856056928634644,0.10142920911312103,-0.9520739912986755,0.06855934858322144,0.1437336653470993,-0.03745847940444946,0.43964627385139465,1.8986468315124512,0.6908716559410095,-0.29428582312845497,-0.10160393580229514,0.20820680432436298
1687013845.224403,-0.19265301525592804,0.0846404954791069,-0.9776097536087036,0.15504010021686554,0.11448661237955093,-0.04425609111785889,2.1557984352111816,2.0583841800689697,2.3636648654937744,-0.1945722080669783,-0.08474188446257522,0.2990624274074534
1687013845.243886,-0.07120349258184433,0.015906037762761116,-0.9973349571228027,0.15009143948554993,-0.13471105694770813,0.00479656457901001,0.7726585268974304,2.4949190616607666,1.606175184249878,-0.07127283104482197,-0.015906708106223112,0.3903769415723953
1687013845.378889,0.051540642976760864,-0.010893202386796474,-0.9986115097999573,0.45526477694511414,0.19132830202579498,0.10452276468276978,0.0639277771115303,2.3577537536621094,1.5849970579147339,0.05156655260700396,0.010893417798008271,0.4737155044779402
1687013845.4378219,0.15496952831745148,-0.002915498334914446,-0.9879149198532104,0.32298150658607483,0.0744638741016388,-0.038192808628082275,-0.3476208448410034,1.9582897424697876,1.7393826246261597,0.15559727011195093,0.0029155024504361636,0.5666816083194177
1687013845.456728,0.22032862901687622,-0.036967385560274124,-0.9747249484062195,0.21317355334758759,0.24373915791511536,-0.018378078937530518,0.7446973919868469,0.5823362469673157,0.8218728303909302,0.22230587574221725,0.03697581069378807,0.6256815216705262
1687013845.459764,0.22473447024822235,-0.06605201214551926,-0.9721787571907043,0.06028442084789276,0.1246304139494896,-0.024143874645233154,0.7287430763244629,-0.14547546207904816,-0.3170156180858612,0.22717532881379926,0.06610013337275088,0.6254416397057668
1687013845.522219,0.2223690003156662,-0.07524718344211578,-0.9720544815063477,0.012356936931610107,-0.16245430707931519,0.22705936431884766,-0.779204249382019,-0.12082063406705856,0.15595786273479462,0.22489214237986477,0.07531837648089632,0.6168207225522654
1687013845.538502,0.2194100171327591,-0.06903421133756638,-0.9731873273849487,-0.008014783263206482,0.05028107017278671,0.0066498517990112305,0.24408534169197083,-0.05582939088344574,-0.19491614401340485,0.22174755435380705,0.06908916086405659,0.6191785165571031
1687013845.613409,0.21920424699783325,-0.05935971066355705,-0.9738715887069702,0.03226056694984436,-0.013653676956892014,0.01320880651473999,-0.1695152372121811,0.05101326107978821,0.1538015753030777,0.22139568952289,0.05939462552804553,0.6139427630354908
1687013845.616565,0.22545261681079865,-0.07026521116495132,-0.9717170000076294,0.02236536145210266,-0.01948707550764084,0.052024006843566895,-0.07670813053846359,0.04568125680088997,0.02895224466919899,0.22798101089588932,0.0703231564654047,0.6189831786868468
1687013845.671781,0.22501873970031738,-0.05255126953125,-0.9729362726211548,0.015764936804771423,0.005233678966760635,-0.044992804527282715,-0.22660672664642334,0.02320275641977787,0.04903847351670265,0.22728182641129607,0.05257548818644263,0.6220054774005567
1687013845.801682,0.22535531222820282,-0.04904744029045105,-0.973041296005249,-0.0011884570121765137,-0.011072274297475815,-0.03915047645568848,0.013460737653076649,0.025035277009010315,0.03508630394935608,0.22758644137499892,0.04906712725104265,0.6266093411170206
1687013845.8251529,0.220264732837677,-0.04231175407767296,-0.9745219945907593,0.07087293267250061,0.035384178161621094,-0.10493052005767822,-0.19007360935211182,-0.3279067873954773,-0.12308768182992935,0.22228827324356007,0.042324388475744476,0.6259941809813178
1687013845.882536,0.1862601488828659,-0.021283432841300964,-0.9822698831558228,0.1236916184425354,0.0768558606505394,-0.10502558946609497,-0.6667943596839905,-1.0721538066864014,-0.7432775497436523,0.18739724706137492,0.021285040273288158,0.6119418760282378
1687013845.886938,0.11214996129274368,0.06359077990055084,-0.9916544556617737,0.2953360080718994,0.05620589107275009,0.08197122812271118,-2.1438770294189453,-1.8835209608078003,-1.1618655920028687,0.11261528692272565,-0.0636337126049634,0.5693895790707947
1687013845.9745378,0.01984615996479988,0.1288723647594452,-0.9914625883102417,0.22488954663276672,-0.0026669949293136597,0.1043013334274292,-1.1188526153564453,-1.7198210954666138,-1.3707473278045654,0.02001438113774467,-0.1292317746468179,0.5194038175764691
1687013845.9939919,-0.08949122577905655,0.2069057673215866,-0.9742593765258789,0.20825037360191345,0.0015139579772949219,0.024598121643066406,-1.2358732223510742,-1.875217318534851,-0.869452714920044,-0.09159860691458363,-0.20841123093142294,0.4493017547547324
1687013846.033004,-0.16270862519741058,0.21502697467803955,-0.9629586338996887,0.2926982641220093,-0.023330897092819214,0.14269191026687622,-0.33550992608070374,-1.3159101009368896,-1.2103428840637207,-0.16738640442262767,-0.21671945303204385,0.40203771441803793
1687013846.123209,-0.23239921033382416,0.27182090282440186,-0.9338650703430176,-0.16414621472358704,-0.18382355570793152,-0.006289958953857422,-2.0137085914611816,-0.6482712030410767,0.008463348262012005,-0.24390295767473893,-0.2752846767907279,0.3563000614236646
1687013846.140716,-0.27899083495140076,0.38345885276794434,-0.8804109692573547,0.27059853076934814,-0.2966058850288391,0.09005141258239746,-3.8419973850250244,-1.2367087602615356,-1.2151650190353394,-0.30687662575860225,-0.3935385416159257,0.25596910199015466
1687013846.180824,-0.3267780840396881,0.5760805606842041,-0.7492311596870422,-0.1702769696712494,-0.029037773609161377,0.06835341453552246,-5.75032901763916,-0.14536486566066742,-1.0461759567260742,-0.41127779338580256,-0.6139254585160168,0.12476371506898475
1687013846.274056,-0.3838895261287689,0.7184982299804688,-0.5799907445907593,0.17437103390693665,-0.06624603271484375,0.13225197792053223,-4.976893901824951,-0.8606020212173462,-1.166394591331482,-0.5846877473333446,-0.801640732802611,-0.10742093863057431
1687013846.292258,-0.42882582545280457,0.8198002576828003,-0.37952089309692383,0.10889479517936707,0.09362137317657471,0.08337825536727905,-4.483346939086914,0.04792381450533867,-0.7470524907112122,-0.846317474200625,-0.961062118748487,-0.4231239278742417
1687013846.331365,-0.44115468859672546,0.8677497506141663,-0.22889535129070282,-0.09777048230171204,0.01166003942489624,0.09744083881378174,-3.4195261001586914,-0.18410596251487732,-0.41413751244544983,-1.0921786849873762,-1.0506565852859977,-0.7047343209476598
1687013846.4230042,-0.47515732049942017,0.8751510381698608,-0.09130393713712692,0.07943582534790039,0.06712508201599121,-0.05824751406908035,-3.1729753017425537,0.16731838881969452,-0.7039631009101868,-1.3809551256469468,-1.0657479150697826,-1.0459140470394106
1687013846.441325,-0.4937436878681183,0.8671959638595581,0.06472056359052658,-0.0645906925201416,0.11701136827468872,0.005927570164203644,-3.675968885421753,-0.14032340049743652,-0.39646854996681213,-1.7011345064540602,-1.0495433845080548,-1.4030368530151454
1687013846.479367,-0.5089754462242126,0.8397475481033325,0.1891249418258667,-0.11671119928359985,0.11548322439193726,0.07089996337890625,-2.782705783843994,0.1456005722284317,-0.5007980465888977,-1.926565021456214,-0.9968180781094537,-1.6722782197296304
1687013846.571954,-0.5256871581077576,0.8061951398849487,0.27148211002349854,-0.030831456184387207,0.3048279285430908,-0.0006997287273406982,-0.9747684001922607,-0.095676489174366,-0.29544493556022644,-2.0475036175498236,-0.9376927426983451,-1.8203562736432077
1687013846.5905209,-0.5483390688896179,0.7730854153633118,0.31884709000587463,-0.13989341259002686,0.05789303779602051,0.0512852668762207,-1.1261924505233765,0.1236693486571312,-0.6602262854576111,-2.097485362451439,-0.8836911428880974,-1.8889594052337801
1687013846.660394,-0.5780407190322876,0.7376137375831604,0.3489917814731598,-0.09479564428329468,-0.10165786743164062,0.021461039781570435,-1.164107084274292,0.48391735553741455,-0.7468696236610413,-2.113968238455893,-0.8295295084246193,-1.9289995448553654
1687013846.6761951,-0.6028264760971069,0.7050566673278809,0.37349066138267517,-0.08972412347793579,-0.04369497299194336,-0.039842039346694946,-0.9226181507110596,0.5214458107948303,-0.3664745092391968,-2.12547834330384,-0.7825030478989506,-1.9691952665964063
1687013846.721184,-0.6117865443229675,0.6817733645439148,0.4011266231536865,0.10171568393707275,-0.08390337228775024,-0.28628891706466675,-0.6650522947311401,-0.30170831084251404,0.3641159236431122,-2.1511432169885136,-0.7501839849631702,-2.0308195947412324
1687013846.811901,-0.5898681282997131,0.7010180354118347,0.4007859528064728,-0.1554778814315796,-0.09889090061187744,-0.24328485131263733,0.6695131659507751,-0.32415229082107544,0.3137633502483368,-2.1675968741901044,-0.7768239892372244,-2.0264844033973715
1687013846.8297482,-0.5699456930160522,0.7164536714553833,0.40231382846832275,-0.1566016674041748,0.07993316650390625,-0.13919121026992798,0.6058707237243652,-0.5176734924316406,0.26756560802459717,-2.1854583803003775,-0.798705619704101,-2.021733982323252
1687013846.8691611,-0.563508927822113,0.7261075973510742,0.3939865529537201,-0.1509838104248047,0.06019306182861328,0.03168782591819763,0.005410534329712391,-0.06509781628847122,-0.07402353733778,-2.1809626562385507,-0.8126439058463548,-1.9999270497920656
1687013846.965818,-0.5681787729263306,0.7223396301269531,0.39420631527900696,-0.06292480230331421,0.0530816912651062,-0.050135910511016846,0.1649489402770996,0.01797204092144966,-0.1010494977235794,-2.1773536968586993,-0.8071795523727364,-1.9934946358439785
1687013846.970247,-0.5676062107086182,0.7184763550758362,0.4020138680934906,0.07323670387268066,-0.1526193618774414,-0.1750699281692505,-0.30836161971092224,-0.22235107421875,0.15740175545215607,-2.187045706672938,-0.801609309022278,-2.0041318252041416
1687013847.0229201,-0.5466139316558838,0.7233332991600037,0.4219031035900116,0.10650473833084106,-0.2009943723678589,-0.25034859776496887,-0.33315256237983704,-0.7681946158409119,0.4716666340827942,-2.2281344173644073,-0.8086175424172272,-2.027570678396616
1687013847.1158872,-0.49189406633377075,0.7474325895309448,0.44652530550956726,0.12023574113845825,-0.04096585512161255,-0.23738837242126465,1.0564101934432983,-1.751378059387207,0.7303102612495422,-2.307886169251964,-0.8441890326614552,-2.046031683390375
1687013847.122439,-0.41520956158638,0.7821500897407532,0.46458810567855835,0.1613186001777649,-0.3490598797798157,-0.1281166970729828,-0.3869217038154602,-1.7420029640197754,1.212624192237854,-2.4122605839140565,-0.8981090268248278,-2.071743393275435
1687013847.1728811,-0.3067018389701843,0.8024526238441467,0.5118634700775146,0.16061413288116455,-0.1990741491317749,-0.2913739085197449,0.09316097944974899,-2.2680678367614746,1.8053339719772339,-2.601771298101528,-0.9313940901054202,-2.1768376619029612
1687013847.236724,-0.17114825546741486,0.8202539086341858,0.5457944869995117,0.24593158066272736,-0.10263311862945557,-0.21638786792755127,-0.15074874460697174,-2.6128365993499756,2.0275278091430664,-2.8377274776070984,-0.9618547586973359,-2.3203059750721495
1687013847.253948,0.003656574757769704,0.8541095852851868,0.5200803875923157,0.19846132397651672,-0.03369015455245972,-0.023040592670440674,1.5153371095657349,-2.9825758934020996,2.444187879562378,3.1345619820332176,-1.023836440205397,-2.519715265769802
1687013847.320897,0.18573443591594696,0.8607351779937744,0.47395917773246765,0.24494482576847076,-0.10696643590927124,0.029153496026992798,0.08593592047691345,-2.586315393447876,2.907273530960083,2.768107072616409,-1.036712178607342,-2.7956821324470473
1687013847.450283,0.3694637417793274,0.8289176821708679,0.41999107599258423,0.16189312934875488,0.22114664316177368,0.33075663447380066,0.3738590180873871,-2.6271064281463623,2.8556621074676514,2.4201101103176175,-0.9771700124201467,-3.043008008653921
1687013847.458148,0.5180364847183228,0.7628535628318787,0.38690102100372314,0.2538597583770752,0.22141456604003906,0.13617020845413208,-0.8962156772613525,-2.7358336448669434,1.683197021484375,2.212285198548432,-0.8677150534756526,3.129531093464215
1687013847.534677,0.6286254525184631,0.7160127758979797,0.30357202887535095,0.28919070959091187,0.2701171636581421,0.38723912835121155,0.4527837038040161,-2.2238385677337646,2.3174421787261963,2.0206819322710365,-0.7980737836641333,3.043235814525871
1687013847.555499,0.721880316734314,0.6437475681304932,0.2539246082305908,0.12072509527206421,0.15834593772888184,0.2200896143913269,-0.9518575072288513,-1.8091293573379517,1.3852620124816895,1.90903327024296,-0.6993854625496558,3.0206382507606757
1687013847.6570048,0.7853244543075562,0.5806970596313477,0.214607372879982,0.0488123893737793,0.06946468353271484,0.08232864737510681,-0.34506115317344666,-1.2286322116851807,1.4233819246292114,1.8375555599526416,-0.6195846520530179,3.0302336821687854
1687013847.676701,0.8308010697364807,0.5280253291130066,0.17595180869102478,0.05509370565414429,0.045659422874450684,0.11239349842071533,-0.32970839738845825,-1.2159863710403442,1.2451790571212769,1.7794982040978464,-0.5562736412365946,3.034549235476596
1687013847.741559,0.8666508793830872,0.47995325922966003,0.13624019920825958,0.008318722248077393,0.10895982384681702,0.05385376513004303,-0.20496387779712677,-1.0565752983093262,0.9938849210739136,1.726723313350147,-0.5006014286251456,3.0403402279292453
1687013847.760991,0.897735059261322,0.431664377450943,0.08796419203281403,0.07064872980117798,0.03276747465133667,0.005831599235534668,0.17215287685394287,-1.1891899108886719,1.2187440395355225,1.6684691148703743,-0.4463370986966027,3.028900015620161
1687013847.830126,0.9235244989395142,0.3820372521877289,0.033911772072315216,0.024900734424591064,0.1759156882762909,0.1260460615158081,-0.1659051924943924,-0.9643983840942383,0.8880323171615601,1.6074997833043043,-0.39199975203798665,3.0187595304550854
1687013847.84614,0.9372591376304626,0.3485577404499054,0.007275696378201246,-0.025180280208587646,0.19935491681098938,0.06212127208709717,-0.36322954297065735,-0.5955808162689209,0.39954110980033875,1.5785589082321883,-0.3560319064442625,3.0437288898539068
1687013847.918789,0.9410293698310852,0.3382191061973572,-0.008452441543340683,-0.06613630056381226,0.029655098915100098,0.0793600082397461,-0.2791267931461334,-0.23041246831417084,0.09174845367670059,1.5618144457118113,-0.34502381841987534,3.0477959659852867
1687013847.934001,0.9418585896492004,0.33577173948287964,-0.012639258056879044,-0.046869635581970215,0.08172401785850525,0.10251349210739136,-0.8231039643287659,-0.31760793924331665,0.00030601932667195797,1.5573776462764084,-0.3424244245575249,3.088890983025417
1687013848.0121741,0.9397096037864685,0.34160587191581726,-0.015854211524128914,-0.031613290309906006,0.0662006139755249,0.03329497575759888,0.008587507531046867,-0.05710575729608536,-0.2033286690711975,1.5539265332527377,-0.34862503666255995,3.10344794563524
1687013848.028023,0.9370257258415222,0.3488866090774536,-0.0161574874073267,0.023957550525665283,0.017141282558441162,0.059370338916778564,-0.12708941102027893,-0.08592177927494049,-0.11595840752124786,1.5535546592655403,-0.3563828054848029,3.1099683782187033
1687013848.101416,0.9350994825363159,0.35399743914604187,-0.016583837568759918,0.002888917922973633,-0.02729138731956482,0.06547296047210693,-0.24731867015361786,-0.030635708943009377,-0.11670256406068802,1.5530633481549905,-0.36184186097001475,3.1198355722762905
1687013848.1048899,0.9338329434394836,0.3574907183647156,-0.012519614771008492,-0.0015665888786315918,-0.011482298374176025,0.03411078453063965,0.04024135321378708,0.08161146938800812,-0.07816242426633835,1.5573904329262822,-0.36557965597522274,3.1225096843890463
1687013848.160413,0.9329081177711487,0.3600609004497528,-0.0062367115169763565,-0.0008706450462341309,-0.006941884756088257,0.03492319583892822,-0.16706648468971252,0.05187612399458885,-0.05665207281708717,1.5641111898264786,-0.36833316092088936,3.1295455413491604
1687013848.2531672,0.9314231872558594,0.36393457651138306,-0.001612379215657711,0.0007056593894958496,0.024035483598709106,-0.008534729480743408,0.10237006098031998,0.1267295926809311,-0.10189944505691528,1.5690652365260067,-0.37248866744998216,3.128313158549472
1687013848.271656,0.9304338097572327,0.36644497513771057,0.0033337341155856848,0.014954984188079834,-0.005955994129180908,0.0031054019927978516,-0.02531803771853447,0.03267623856663704,-0.04115007817745209,1.5743793005125113,-0.37518533420574807,3.126827113205259
1687013848.376488,0.9294748306274414,0.36883965134620667,0.005795937031507492,-0.004777073860168457,0.00524488091468811,-0.031812191009521484,0.02615172043442726,0.07970349490642548,-0.07692138850688934,1.577031957789328,-0.3777603566493152,3.1288578674130223
1687013848.3963099,0.9286906719207764,0.370787113904953,0.007123034447431564,0.007634401321411133,-0.00286710262298584,-0.0030488967895507812,0.05939547345042229,0.0614851638674736,-0.024171292781829834,1.5784661515634708,-0.37985641256986064,3.1239840914929893
1687013848.4627209,0.9275667667388916,0.3735711872577667,0.00802352000027895,-0.009018242359161377,-0.008382558822631836,-0.005597353912889957,-0.06567566841840744,0.032045960426330566,-0.07704948633909225,1.579446184229824,-0.38285597724056525,3.124127003885996
1687013848.4789371,0.9267449975013733,0.37555164098739624,0.010241465643048286,-0.003893435001373291,0.025632530450820923,-0.011416435241699219,-0.014977872371673584,0.03174981474876404,-0.027884474024176598,1.5818468840728304,-0.38499191351863277,3.1277331457839637
1687013848.550554,0.9259106516838074,0.3775767683982849,0.01120144221931696,0.005165517330169678,-0.006177693605422974,0.012937904335558414,-0.0673610121011734,-0.0021843595895916224,-0.05271298810839653,1.5828934934194128,-0.38717795292236096,3.1286443893149185
1687013848.554605,0.9247592687606812,0.38033419847488403,0.012900534085929394,0.011718511581420898,-0.005791813135147095,-0.001425979658961296,-0.056570280343294144,-0.00556497648358345,-0.024521365761756897,1.5847455764868374,-0.3901576330639215,3.131875290421219
1687013848.613614,0.9245381355285645,0.3808557689189911,0.013348538428544998,-0.006798267364501953,-0.0021630525588989258,0.004672050476074219,-0.06489935517311096,-0.0025969722773879766,-0.04633365571498871,1.5852333855913627,-0.39072163765101114,3.134434508965999
1687013848.70357,0.9246415495872498,0.38060107827186584,0.013451484963297844,0.006098806858062744,0.005980432033538818,-0.0073937177658081055,0.004279889166355133,-0.03184877708554268,0.037721965461969376,1.5853430844437635,-0.39044619890085464,3.1367935056422764
1687013848.722187,0.9246087670326233,0.38066214323043823,0.013965320773422718,-0.001696169376373291,-0.01065167784690857,-0.017841100692749023,0.01161712035536766,0.04445788636803627,-0.014992309734225273,1.5858992109591876,-0.3905122281814273,3.136712035686741
1687013848.79313,0.9248735904693604,0.38002219796180725,0.01386425644159317,-0.0071947574615478516,0.009717851877212524,0.01825547218322754,-0.023338867351412773,0.010539336130023003,0.02372785471379757,1.585785638351541,-0.3898203103426782,3.135852495101307
1687013848.884441,0.9250678420066833,0.37951189279556274,0.014842547476291656,0.01354604959487915,-0.007197380065917969,-0.004481792449951172,0.036762066185474396,0.002707867417484522,0.015501417219638824,1.5868397712088098,-0.3892686785054931,3.1349545821278335
1687013848.891263,0.9254603981971741,0.37849321961402893,0.01631619967520237,-0.0070642828941345215,0.013001680374145508,0.02357030101120472,-0.10185124725103378,0.049300048500299454,-0.02452809177339077,1.5884248616343544,-0.38816785148822147,3.1367239695423876
1687013848.973083,0.924807071685791,0.3798879086971283,0.020422499626874924,0.000684201717376709,0.03666186332702637,0.004876613616943359,0.06738047301769257,0.0861130952835083,-0.01589851640164852,1.5928757217521674,-0.38967513115050284,3.137760426740328
1687013848.992611,0.92363041639328,0.38244402408599854,0.025366703048348427,-0.005310773849487305,-0.001966029405593872,-0.010352015495300293,-0.20159445703029633,0.07179266214370728,-0.09076489508152008,1.598253551839163,-0.39243995590732295,3.140212188692394
1687013849.0651631,0.9227892756462097,0.3843621611595154,0.02693934366106987,-0.021956145763397217,0.06409373879432678,-0.06839752197265625,0.15812543034553528,-0.11128758639097214,0.14613360166549683,1.5999814242807258,-0.394516800910681,-3.136541069466943
1687013849.082982,0.9043647050857544,0.4258635342121124,0.02765103429555893,-0.07909321784973145,0.47155165672302246,0.23338103294372559,1.0916237831115723,0.6568863987922668,-1.4819121360778809,1.6013618976974533,-0.43991608782512104,3.115564441829256
1687013849.151335,0.8790476322174072,0.4751278758049011,0.03909863159060478,0.15378916263580322,-0.12614408135414124,-0.1884974241256714,0.9989848136901855,0.6406499147415161,-0.8616766929626465,1.6152454320574072,-0.4951093403231635,3.049757408207034
1687013849.155882,0.8676695823669434,0.4962639808654785,0.029522676020860672,-0.09938955307006836,0.15553051233291626,-0.14135432243347168,1.7886735200881958,0.7392323017120361,-0.41366046667099,1.6048084566880227,-0.5192901415664423,2.9932528189552046
1687013849.242688,0.84388267993927,0.5365276336669922,0.0006230566068552434,0.05261707305908203,0.09187519550323486,0.08214056491851807,3.8615574836730957,1.1213350296020508,-0.9392191171646118,1.5715346480572039,-0.5663169234743948,2.837802419099328
1687013849.2633739,0.836707592010498,0.5439856052398682,-0.063247911632061,0.03296715021133423,0.11147105693817139,0.18083208799362183,5.782369613647461,2.270261764526367,0.09620611369609833,1.4953483959647036,-0.5751796969931576,2.544374375116746
1687013849.29991,0.8482248783111572,0.5131727457046509,-0.13102929294109344,0.020000338554382324,-0.11931276321411133,0.30780231952667236,5.834926128387451,1.8486653566360474,-0.11942704021930695,1.41753303077087,-0.5388773185624527,2.194280065290281
1687013849.394068,0.8560795783996582,0.4838007688522339,-0.18183688819408417,-0.01776176691055298,-0.1353205144405365,0.3546578288078308,3.7675724029541016,1.4710474014282227,-0.2537221908569336,1.3615003840238091,-0.5049923868392259,1.9178955337410508
1687013849.4134831,0.8618091940879822,0.4656447172164917,-0.20114624500274658,-0.03971147537231445,-0.2242201864719391,0.3353014588356018,2.3949029445648193,0.9870710968971252,-0.3382793366909027,1.3415011848960134,-0.484362980706006,1.743747769245505
1687013849.447376,0.8711860179901123,0.4527588188648224,-0.18985415995121002,-0.0753333568572998,-0.225372314453125,0.39712947607040405,-0.2900920510292053,0.7205979228019714,0.2602492570877075,1.3562250436965402,-0.46985702076014263,1.689329701939683
