Timestamp,gravityX,gravityY,gravityZ,accelerationX,accelerationY,accelerationZ,rotationRateX,rotationRateY,rotationRateZ,attitudeRoll,attitudePitch,attitudeYaw
1687009572.0043979,0.08784547448158264,0.33537817001342773,-0.9379790425300598,0.005629889667034149,0.0038552582263946533,-0.0044495463371276855,0.005911943502724171,-0.0008718282915651798,-0.002677805721759796,0.0933815986327556,-0.3420066294402183,0.3244747137785096
1687009572.020432,0.08799483627080917,0.3349423110485077,-0.9381207823753357,0.0010859891772270203,-0.006084859371185303,0.005640923976898193,-0.0061452072113752365,0.006540902890264988,0.006597517989575863,0.09352540355925378,-0.34154400290803183,0.3245631002752748
1687009572.0992,0.08842039108276367,0.33569538593292236,-0.937811553478241,-0.0008654370903968811,-0.0027790963649749756,-0.005242645740509033,-0.011121191084384918,0.00350809539668262,0.0009157306049019098,0.09400585417257612,-0.3423433474059123,0.324806226058083
1687009572.105974,0.08853564411401749,0.3359430730342865,-0.9377119541168213,0.0025593340396881104,0.008463084697723389,-0.0054642558097839355,-0.006863728165626526,-0.0047674113884568214,0.0024674879387021065,0.09413760709233045,-0.34260630262677144,0.32472941805349786
1687009572.158097,0.08854129910469055,0.3363616466522217,-0.9375613331794739,0.0017449632287025452,0.0036041736602783203,-0.0007320642471313477,-0.024494875222444534,-0.006425939500331879,0.0008342377841472626,0.09415861988163016,-0.34305076298560677,0.3250057588696125
1687009572.254596,0.08856058120727539,0.3368007242679596,-0.9374018907546997,0.0027175098657608032,0.012961268424987793,-0.018957972526550293,0.00756350252777338,0.0036646004300564528,-0.005033571273088455,0.09419492996664992,-0.343517037809582,0.32516579687475683
1687009572.271051,0.08894214779138565,0.3369743525981903,-0.937303364276886,0.005708135664463043,-0.0017081797122955322,-0.010877788066864014,-0.005544709041714668,0.007837774232029915,-0.00700424425303936,0.09460824326904946,-0.34370142972211315,0.32525951227807126
1687009572.3052092,0.08926272392272949,0.3363552391529083,-0.937495231628418,-0.0032336562871932983,-0.002294570207595825,0.002924978733062744,0.01714910753071308,0.014402909204363823,-0.0017072833143174648,0.09492788136086105,-0.34304394781022096,0.3251038479922834
1687009572.403799,0.08966106921434402,0.33543482422828674,-0.9377869367599487,0.0004268363118171692,-0.002396494150161743,0.003430306911468506,-0.0018100693123415112,0.01047261618077755,-0.0014871065504848957,0.09531947101916607,-0.34206676057926944,0.3248428319343364
1687009572.4117022,0.08988114446401596,0.3353479504585266,-0.937796950340271,-0.0016090348362922668,0.0014288127422332764,-0.003090500831604004,0.008936984464526176,0.005432850681245327,-0.005443565081804991,0.09555100344215267,-0.34197455737123733,0.32470358637320856
1687009572.4596,0.09028251469135284,0.3351304233074188,-0.9378361701965332,0.0037726759910583496,0.0033553242683410645,-0.006545543670654297,0.0033825174905359745,0.008496995083987713,-0.0013697276590391994,0.09597109719375545,-0.34174366710624154,0.3245227274454086
1687009572.553777,0.09034199267625809,0.334926575422287,-0.9379032850265503,0.0022178441286087036,0.0036965012550354004,-0.001671910285949707,-0.003169169183820486,0.0041647423058748245,-0.011536145582795143,0.09602710410184158,-0.34152730767155526,0.3239130155526223
1687009572.569694,0.09026025980710983,0.3352939486503601,-0.9377798438072205,0.0016586929559707642,0.006396114826202393,-0.006830692291259766,-0.009322180412709713,-0.0024104248732328415,-0.007884086109697819,0.09595330971828321,-0.3419172102237524,0.3235548312969151
1687009572.603692,0.09034589678049088,0.3353346586227417,-0.9377570748329163,0.0007796064019203186,-0.0009687840938568115,0.00044018030166625977,0.008668315596878529,0.010079623199999332,-0.00017470074817538261,0.09604610996869155,-0.34196044619897775,0.32340504186895774
1687009572.702234,0.09055664390325546,0.3352293372154236,-0.9377743601799011,0.0013623237609863281,-0.009423643350601196,-0.0018923282623291016,-0.007057251408696175,0.0030185175128281116,-0.0005309649859555066,0.0962670020155569,-0.341848652598597,0.3233608770720495
1687009572.717278,0.0906585082411766,0.3354954421520233,-0.9376693964004517,-0.004598923027515411,0.0038753151893615723,0.00212252140045166,-0.0006894111284054816,0.008935440331697464,-0.013495832681655884,0.09638535268746842,-0.34213109492323784,0.3230772877079418
1687009572.7561789,0.09107115864753723,0.3355170488357544,-0.9376216530799866,0.004631988704204559,-0.004248708486557007,-0.004257619380950928,0.0011183868627995253,0.002397201955318451,5.4797157645225525e-05,0.09682623562927656,-0.3421540412760454,0.32277827151231353
1687009572.854998,0.0910983607172966,0.335650771856308,-0.9375711679458618,0.0005306825041770935,0.008953750133514404,-0.0009053945541381836,0.003585983533412218,0.0021339040249586105,-0.012236889451742172,0.09686016146580247,-0.34229599184389015,0.32256637733583593
1687009572.870462,0.09107565879821777,0.33496686816215515,-0.9378179311752319,0.0022928938269615173,0.0035951733589172363,-0.006823182106018066,-0.007374477572739124,-0.009698698297142982,-0.0008637935388833284,0.09681084861063152,-0.34157006689823444,0.3218884094921099
1687009572.9388871,0.09071279317140579,0.33567705750465393,-0.9375991225242615,0.0036475807428359985,0.003098607063293457,0.0025405287742614746,0.0014133319491520524,-0.0015240362845361233,0.004826849326491356,0.09644988793586295,-0.3423239087515936,0.3222891661901018
1687009572.953823,0.09060673415660858,0.33646219968795776,-0.9373279213905334,-0.005126982927322388,0.004266589879989624,-0.0031628012657165527,-0.02492058090865612,-0.012332298792898655,0.00423129927366972,0.09636552270656447,-0.34315752448259995,0.3224442180326278
1687009573.027813,0.09054498374462128,0.3366923928260803,-0.9372512102127075,0.004029013216495514,-0.005851298570632935,-0.0015610456466674805,0.0017553707584738731,0.0010452927090227604,0.005505156237632036,0.09630807937274906,-0.34340199503697255,0.3229086457409722
1687009573.1232939,0.09042897820472717,0.3367447853088379,-0.9372435808181763,-0.008123055100440979,-0.001310795545578003,0.0046416521072387695,-0.0057671270333230495,0.0023417198099195957,0.005749434232711792,0.09618623357031347,-0.343457634419305,0.32282620123864353
1687009573.131641,0.09027540683746338,0.3371005952358246,-0.9371305108070374,0.012965582311153412,-0.00499299168586731,-0.0045351386070251465,-0.017431683838367462,-0.013340393081307411,0.000850682845339179,0.09603540163998968,-0.3438355174927975,0.32317409662447966
1687009573.242336,0.08981096744537354,0.33788982033729553,-0.9368908405303955,-0.006864175200462341,0.016114115715026855,-0.009169340133666992,-0.009328927844762802,-0.007143040187656879,-0.012893492355942726,0.09556863480132827,-0.3446739596472242,0.32294701559368505
1687009573.249336,0.0898774266242981,0.337761253118515,-0.9369308352470398,0.012753210961818695,-0.013038933277130127,-0.010609447956085205,-0.00954468734562397,-0.01599201187491417,0.003411911427974701,0.09563486424950798,-0.34453734409510056,0.3231740412474446
1687009573.332456,0.08900737017393112,0.3386703133583069,-0.9366857409477234,-0.003954857587814331,0.01171731948852539,-0.011434376239776611,-0.001431101467460394,-0.0053710611537098885,-0.008281495422124863,0.09473926231870022,-0.3455033233757733,0.3228731543438734
1687009573.348166,0.08891180902719498,0.33892959356307983,-0.9366009831428528,-0.002669118344783783,-0.004380643367767334,-0.008009552955627441,-0.005736012943089008,-0.015492759644985199,-0.002154627814888954,0.09464666248446946,-0.34577891685198603,0.3229363363833568
1687009573.417849,0.08812252432107925,0.339388370513916,-0.9365094304084778,0.0022552981972694397,-0.001558750867843628,0.0010694265365600586,-0.02399921603500843,-0.00835238117724657,-0.008530301973223686,0.09382053196167187,-0.3462666038251816,0.32278758885744496
1687009573.4313731,0.08746729791164398,0.3412669003009796,-0.9358880519866943,-0.003452390432357788,-0.004245966672897339,-0.002069711685180664,-0.05269322171807289,-0.02297162637114525,-0.006310624070465565,0.09318845576510033,-0.34826436983398273,0.32264537791670556
1687009573.513869,0.08676641434431076,0.3435095548629761,-0.9351325035095215,0.006968341767787933,-0.00030881166458129883,-0.0004448890686035156,-0.04198434203863144,-0.010558543726801872,-0.0041877515614032745,0.09252025863729484,-0.3506512942177025,0.32272317676726237
1687009573.52806,0.08647127449512482,0.34394070506095886,-0.9350013136863708,-0.001983337104320526,0.0022507309913635254,-0.016628265380859375,-0.015915190801024437,-0.009014442563056946,-0.008504868485033512,0.09222018884343496,-0.35111044320331836,0.32255712531255104
1687009573.632998,0.08620207756757736,0.3444034159183502,-0.9348558783531189,0.009211145341396332,-0.011227726936340332,0.0033525824546813965,-0.024388615041971207,-0.008317315950989723,-0.007199320942163467,0.09194894128163611,-0.3516032612548357,0.32233309781769104
1687009573.649475,0.08540398627519608,0.3450019657611847,-0.9347084164619446,0.00048775970935821533,-0.0021522045135498047,-0.00373762845993042,-0.030564086511731148,-0.012649480253458023,0.0014485626015812159,0.09111665704965467,-0.3522408688922195,0.3219395292086808
1687009573.7166018,0.08497072756290436,0.3463449776172638,-0.9342511296272278,0.0006310939788818359,-0.00038242340087890625,0.006959259510040283,-0.033856507390737534,-0.009689820930361748,0.0008546111639589071,0.0907010899157994,-0.3536721146550326,0.32220413946188836
1687009573.72932,0.08474187552928925,0.34785646200180054,-0.9337101578712463,0.0021264255046844482,-0.006379991769790649,-0.004903674125671387,-0.04078276827931404,-0.008244079537689686,0.0022539689671248198,0.09051025660599131,-0.35528381663027636,0.32245681706031415
1687009573.812372,0.08448653668165207,0.3489702343940735,-0.9333176612854004,0.0007185563445091248,-0.0026109516620635986,0.00021219253540039062,-0.022414103150367737,0.008159750141203403,-0.003805321641266346,0.09027676077830205,-0.3564720306103988,0.3225256623627201
1687009573.8262038,0.08444534242153168,0.34922611713409424,-0.9332256317138672,0.004971176385879517,0.0002459585666656494,-0.006776750087738037,-0.019519779831171036,-0.012679219245910645,-0.0005950141930952668,0.09024182379653407,-0.35674508287294115,0.32245010438564226
1687009573.8984442,0.0841958150267601,0.3501734733581543,-0.9328931570053101,0.0015280842781066895,-0.006957501173019409,-0.007551789283752441,-0.028529787436127663,-0.008993403986096382,0.004671386443078518,0.09000850512467715,-0.357756297919995,0.322903283182895
1687009573.912106,0.08441682159900665,0.35029706358909607,-0.9328267574310303,0.002070017158985138,-0.006470739841461182,-0.0052073001861572266,-0.014409706927835941,0.0022161072120070457,-0.0035810836125165224,0.09024987892449081,-0.35788824868398406,0.3229400061745015
1687009573.955751,0.08446425944566727,0.35079026222229004,-0.932637095451355,0.004113025963306427,-0.0022489726543426514,-0.003581106662750244,-0.006459149532020092,0.007296796888113022,0.007113971747457981,0.09031858643501553,-0.358414870453288,0.32329477661550127
1687009574.020231,0.0845687985420227,0.3509332835674286,-0.9325737953186035,-0.006718441843986511,0.010150730609893799,0.000872194766998291,0.005094930529594421,0.0035472437739372253,0.003024221630766988,0.09043586672239647,-0.35856760226979795,0.3234919960802444
1687009574.0339541,0.08490922302007675,0.3506791889667511,-0.9326384663581848,-0.0016725137829780579,0.001249551773071289,-0.00354921817779541,0.017409121617674828,0.005068175029009581,0.013996179215610027,0.09079165572905439,-0.35829626031060025,0.32399920384396536
1687009574.074095,0.08489873260259628,0.3505786657333374,-0.9326772093772888,-0.0011737421154975891,0.013373970985412598,-0.0025033950805664062,-0.0012196465395390987,0.004473580047488213,0.003445067908614874,0.0907767442325216,-0.358188924469566,0.32434838890787693
1687009574.1389298,0.08526603132486343,0.3501833379268646,-0.9327922463417053,0.00025950372219085693,0.012411296367645264,-0.009346425533294678,0.024527128785848618,0.0004596635699272156,0.0077996691688895226,0.09115612808260934,-0.35776682050303543,0.32481063063342736
1687009574.202358,0.08529447764158249,0.3499395549297333,-0.9328811168670654,0.004045747220516205,0.005620777606964111,-0.00597691535949707,0.0012876307591795921,0.005694461986422539,0.01192137598991394,0.09117773571672357,-0.35750658436627203,0.3252309525264885
1687009574.293342,0.08584185689687729,0.3493199646472931,-0.9330630898475647,0.002872757613658905,-0.00015309453010559082,-0.0028957128524780273,0.006012078374624252,0.003230238799005747,0.01486683264374733,0.09174180257823529,-0.3568452537831337,0.3257195891799911
1687009574.3095489,0.08595045655965805,0.3501357436180115,-0.9327473044395447,0.004824094474315643,-0.0201185941696167,-0.007911264896392822,-0.037849653512239456,-0.013788159936666489,0.02161075547337532,0.09188814513166448,-0.3577160030129647,0.32677626353876144
1687009574.3778539,0.08599864691495895,0.35046905279159546,-0.9326176643371582,-0.00605783611536026,-0.0033926069736480713,0.003494739532470703,0.008771157823503017,-0.000752163352444768,0.020321587100625038,0.09195208040453846,-0.3580718736127356,0.32766144176853645
1687009574.471775,0.08641327172517776,0.35076314210891724,-0.9324687719345093,0.001462109386920929,0.0007230937480926514,-0.0027424097061157227,-0.00021976267453283072,0.002527608536183834,0.025793449953198433,0.09240756514743717,-0.3583858907223865,0.3287959227717384
1687009574.487122,0.0867544487118721,0.3502844274044037,-0.9326170086860657,-0.001534104347229004,0.0035058557987213135,-0.006485104560852051,-0.0037423702888190746,0.005545679945498705,0.010681009851396084,0.0927556606241182,-0.35787476682585057,0.32958570562165357
1687009574.558635,0.08710823208093643,0.35014432668685913,-0.9326366186141968,0.005299016833305359,-0.002488046884536743,-0.0035052895545959473,-0.0014461928512901068,-0.00202036090195179,0.014457905665040016,0.09312978301908721,-0.35772518990823027,0.3305168054904002
1687009574.565155,0.08740609139204025,0.34975355863571167,-0.9327554106712341,0.002407163381576538,0.016365855932235718,-0.01075655221939087,0.029989538714289665,0.005962553434073925,0.01949787139892578,0.09343456145064315,-0.3573080493544797,0.3314488034885314
1687009574.652853,0.08807292580604553,0.3486870527267456,-0.9330918788909912,-0.0027610212564468384,-0.0054711103439331055,0.0027940869331359863,0.004609569441527128,0.007383260875940323,0.026175547391176224,0.09410944813177714,-0.3561698847135152,0.3325379622834163
1687009574.66857,0.0883447602391243,0.34850215911865234,-0.9331352710723877,-0.0016748160123825073,-6.768107414245605e-05,0.0010064244270324707,0.006386874243617058,0.0024048364721238613,0.018965039402246475,0.09439382990311374,-0.3559725938587767,0.3334679052846921
1687009574.7379,0.08877093344926834,0.3479401469230652,-0.9333045482635498,-0.00570206344127655,0.005941718816757202,0.0031287670135498047,0.02285284548997879,0.0024765643756836653,0.012410999275743961,0.09482936275546218,-0.35537307018553727,0.33425116372084507
1687009574.7549171,0.08906508982181549,0.34748488664627075,-0.9334461092948914,0.0039982870221138,0.0006901919841766357,0.0005085468292236328,-0.010670272633433342,-0.001113199396058917,0.020325712859630585,0.09512736575442587,-0.3548874986214272,0.33500412639633265
1687009574.7937741,0.08917602896690369,0.34751781821250916,-0.9334232807159424,0.003994151949882507,-0.009688198566436768,-0.007143735885620117,-0.0008043265552259982,-0.004116445779800415,0.022063294425606728,0.09524746080808334,-0.3549226197614971,0.33597086240383867
1687009574.889907,0.08951347321271896,0.34687885642051697,-0.9336286187171936,-0.0011650770902633667,0.014388233423233032,-0.008784651756286621,0.02358246222138405,-0.0029245037585496902,0.006689197849482298,0.0955847908849335,-0.35424127456269344,0.33688926230574484
1687009574.897842,0.0898502990603447,0.3458845019340515,-0.9339651465415955,0.0009547770023345947,0.010286182165145874,-0.006159365177154541,0.016687005758285522,0.0020156600512564182,0.02805454097688198,0.0959079051727653,-0.35318132070930747,0.337689621421243
1687009574.9819531,0.09002463519573212,0.34550800919532776,-0.9340876936912537,-0.0017067492008209229,-0.002337813377380371,-0.002313673496246338,0.011817592196166515,0.005343900993466377,0.015331687405705452,0.09608032484845201,-0.3527800678915217,0.3388487634270784
1687009574.99613,0.09047745913267136,0.34444117546081543,-0.9344378709793091,0.0012736544013023376,-0.005741775035858154,0.00021851062774658203,0.018482152372598648,0.01276000589132309,0.007242203690111637,0.09652465645937502,-0.3516434558128292,0.33938424981319776
1687009575.101085,0.09071937203407288,0.3441646099090576,-0.9345163106918335,-0.0007230117917060852,-0.002337157726287842,0.004523634910583496,-0.004139048047363758,0.00604289211332798,0.00798968505114317,0.09677305080935275,-0.35134888141504794,0.33975382804113374
1687009575.1174312,0.09079470485448837,0.34380465745925903,-0.9346414804458618,-0.008031010627746582,0.0065066516399383545,-0.0032399892807006836,0.0021310984157025814,0.0016542687080800533,-0.00721523305401206,0.09684002243391153,-0.35096553862589885,0.33988834599857404
1687009575.1875172,0.09095793962478638,0.3438279926776886,-0.9346170425415039,0.012893393635749817,-0.001390218734741211,-0.008299827575683594,-0.004455964080989361,-0.0010965100955218077,0.007601928897202015,0.09701556243200646,-0.3509904030898272,0.34011192219019704
1687009575.200727,0.09088291227817535,0.3439030945301056,-0.9345967173576355,0.0031417682766914368,0.015899181365966797,-0.007007896900177002,0.011438668705523014,0.01042130682617426,-0.004948084242641926,0.09693812857875292,-0.35107036754869775,0.3402789928933884
1687009575.2777061,0.09138616174459457,0.3435468375682831,-0.9346786141395569,0.0012041926383972168,0.0033159852027893066,-0.00802457332611084,0.012939759530127048,-0.0012779603712260723,0.014110495336353779,0.09746303687117666,-0.35069099876036797,0.34046432837020335
1687009575.2917519,0.09137313812971115,0.3434875011444092,-0.934701681137085,0.007656417787075043,-0.007717818021774292,0.0022829174995422363,0.00938359647989273,0.009853698313236237,0.01467128936201334,0.09744684400277441,-0.3506278374790192,0.34103313587338896
1687009575.335469,0.09170837700366974,0.3432316482067108,-0.9347628951072693,-0.017626933753490448,0.006316721439361572,0.012277543544769287,0.0030895257368683815,-0.0019970135763287544,-0.001431313343346119,0.09779573738083891,-0.35035541127871456,0.34117094650417623
1687009575.43232,0.091972216963768,0.34261971712112427,-0.9349614381790161,0.008674770593643188,-0.015547513961791992,-3.612041473388672e-05,-0.011072277091443539,-0.008844622410833836,0.009032245725393295,0.09805460034406492,-0.3497039633619373,0.341391572797217
1687009575.447212,0.091520756483078,0.34361183643341064,-0.9346415996551514,-0.008879132568836212,0.014481455087661743,-0.018056154251098633,-0.01581820845603943,-0.00930383987724781,-0.01612144336104393,0.0976095148591116,-0.35076022012647623,0.34142595938378156
1687009575.485104,0.09190928936004639,0.3431716561317444,-0.9347651600837708,0.016702793538570404,0.007795780897140503,-0.006793677806854248,0.0048539587296545506,-0.0010474189184606075,0.005412477999925613,0.09800837819612712,-0.3502915351016811,0.3413929813369112
1687009575.581142,0.09136544913053513,0.34408625960350037,-0.934482216835022,-0.004298783838748932,0.0031580328941345215,-0.0006984472274780273,-0.005695044063031673,0.001199312275275588,-0.009779191575944424,0.09746144009972171,-0.35126545362561234,0.34155365434274004
1687009575.596714,0.09136541187763214,0.3449094593524933,-0.9341787099838257,-0.00493960827589035,0.010711908340454102,-0.011423707008361816,-0.009705986827611923,-0.005599915515631437,-0.011237338185310364,0.09749286223252616,-0.3521423130854987,0.34097804365594614
1687009575.669105,0.09082579612731934,0.3455614745616913,-0.9339903593063354,0.013559602200984955,-0.007960736751556396,-0.006851315498352051,-0.028837470337748528,-0.009809308685362339,-0.01414397917687893,0.09694008851788122,-0.35283705784961855,0.34089898556949344
1687009575.763119,0.09036072343587875,0.3465946316719055,-0.9336525797843933,-0.007520735263824463,0.01337549090385437,0.0036599040031433105,0.007533897180110216,0.008000937290489674,-0.0022780653089284897,0.09648146575048129,-0.35393825604479956,0.34034957263281496
1687009575.777365,0.09053350239992142,0.3467482328414917,-0.9335787892341614,0.0069396644830703735,-0.011024326086044312,0.006592094898223877,-0.02539018541574478,-0.000112560810521245,-0.0009229824645444751,0.09667239514043142,-0.35410201164802596,0.3399399805347819
1687009575.850168,0.0899767279624939,0.34740549325942993,-0.9333882331848145,-0.005565091967582703,0.002036064863204956,-0.0020670294761657715,-0.02259768359363079,-0.006215904839336872,-0.01496330089867115,0.09610102114634139,-0.3548028262690415,0.33935873361429625
1687009575.863817,0.08966844528913498,0.34803640842437744,-0.9331828355789185,0.004707172513008118,0.004945158958435059,-0.006575405597686768,-0.02543523721396923,-0.022110359743237495,-0.01895451359450817,0.09579472649418933,-0.35547575998791553,0.33881384873331977
1687009575.937819,0.08864810317754745,0.3490750193595886,-0.932892382144928,0.005071401596069336,-0.00012174248695373535,-0.0065607428550720215,-0.0145846763625741,-0.013160452246665955,4.33456152677536e-05,0.09474052660041729,-0.35658384291267925,0.338397954126525
1687009575.9556599,0.08828172087669373,0.3501179814338684,-0.9325361847877502,-0.013284765183925629,0.015986144542694092,-0.0031784772872924805,0.00803625863045454,-0.011544091627001762,-0.01211857795715332,0.09438711512274728,-0.3576970509942505,0.3381630795337051
1687009576.026452,0.08803127706050873,0.35006028413772583,-0.9325815439224243,0.008343257009983063,-0.005852490663528442,-0.0011342763900756836,-0.0033765407279133797,-0.0034559820778667927,-0.013052549213171005,0.09411638059166676,-0.3576354651389683,0.3378343486874203
1687009576.032817,0.08743228018283844,0.35055312514305115,-0.9324527382850647,-0.004210829734802246,0.009630590677261353,-0.00036275386810302734,-0.0008908349554985762,0.0008365896064788103,-0.014127267524600029,0.09349255195173399,-0.3581616499327022,0.3372328992645303
1687009576.1196299,0.08728300034999847,0.3508186638355255,-0.9323668479919434,0.00411716103553772,-0.000202178955078125,-0.0010590553283691406,-0.02195759303867817,-0.0071938177570700645,-0.020289955660700798,0.09334240136837835,-0.35844519402834146,0.3362599128654958
1687009576.135611,0.08647232502698898,0.3525794744491577,-0.9317780137062073,0.0004875287413597107,0.010564476251602173,-0.013015687465667725,-0.01421094499528408,-0.003408843884244561,-0.01803259365260601,0.09253851562530098,-0.3603261601399772,0.33567342573911796
1687009576.174779,0.08661273121833801,0.3521576523780823,-0.9319244623184204,0.0015525668859481812,0.010452210903167725,0.0044800639152526855,0.020320622250437737,0.009030159562826157,-0.003025348298251629,0.0926734267435313,-0.3598754508637636,0.33482976117778346
1687009576.269748,0.08635371178388596,0.35238024592399597,-0.9318643808364868,0.005351632833480835,-0.009759336709976196,-0.013585448265075684,-0.015699341893196106,-0.0012183054350316525,-0.01549253799021244,0.09240378108366169,-0.36011326413339795,0.3343498247680708
1687009576.284655,0.0861537754535675,0.35274219512939453,-0.9317459464073181,-0.007662549614906311,0.008509665727615356,-0.0032668709754943848,0.006186293438076973,0.006783517077565193,-0.02447344735264778,0.09220270681020418,-0.36050005835212495,0.33322194333740307
1687009576.322902,0.08639544248580933,0.35235297679901123,-0.9318708181381226,0.008590541779994965,-0.009625285863876343,0.0014203786849975586,-0.0011414383770897985,0.0063309576362371445,-0.01620386727154255,0.09244754865093578,-0.36008412881363305,0.3324713227907128
1687009576.419539,0.08602844923734665,0.35340553522109985,-0.9315060973167419,-0.008117057383060455,0.007403820753097534,-0.008603096008300781,-0.025031015276908875,0.004177613649517298,-0.02625390514731407,0.09209290795990056,-0.3612090715419353,0.3314379469668738
1687009576.4358969,0.0862446129322052,0.35385996103286743,-0.9313135743141174,0.010465607047080994,0.00031179189682006836,-0.006705164909362793,-0.013150208629667759,-0.0031965903472155333,-0.024514995515346527,0.09234197343838108,-0.3616948890407205,0.3304948994948666
1687009576.4740992,0.08571000397205353,0.354678213596344,-0.9310516715049744,0.000395357608795166,0.0055055320262908936,-0.008096277713775635,-0.010963131673634052,-0.0019428629893809557,-0.01595626026391983,0.09179846531057,-0.3625698899790233,0.3297215930088822
1687009576.57014,0.08593330532312393,0.35521140694618225,-0.930827796459198,0.0017894953489303589,-0.0023213326930999756,-0.008732140064239502,-0.00889390055090189,0.005818565376102924,0.0026650279760360718,0.09205829080005556,-0.3631402006214412,0.32936054054404507
1687009576.585627,0.08567943423986435,0.3559781610965729,-0.9305582046508789,-0.0024427324533462524,0.003961414098739624,-0.007368981838226318,-0.011731365695595741,-0.0025416300632059574,-0.004232225939631462,0.09181429134783409,-0.3639605783242553,0.3291494295631961
1687009576.624197,0.08529294282197952,0.3564172387123108,-0.9304256439208984,-0.004909619688987732,0.009641140699386597,-0.0042209625244140625,0.0006078589940443635,-0.007643448188900948,0.0016304564196616411,0.09141538463168641,-0.3644304966545019,0.3290450971602981
1687009576.7202811,0.0850258469581604,0.35712262988090515,-0.9301795959472656,-0.0011330097913742065,0.0028780102729797363,0.005084991455078125,0.003622379619628191,0.002016813959926367,0.012020379304885864,0.09115467862080989,-0.3651855797746649,0.32917397997817494
1687009576.735042,0.08489978313446045,0.3575126528739929,-0.9300412535667419,-0.007888667285442352,0.00328141450881958,-0.006604194641113281,-0.01736665889620781,-0.004800612106919289,0.002035323530435562,0.09103373565946123,-0.36560315123329884,0.32939329805128426
1687009576.774396,0.08489937335252762,0.35776761174201965,-0.9299432635307312,0.0038152411580085754,-0.0010018348693847656,-0.005924046039581299,-0.0207980964332819,-0.008796063251793385,-0.004893089644610882,0.09104283878759122,-0.3658761696563498,0.3294664274022102
1687009576.8700619,0.08459389209747314,0.3585198223590851,-0.9296813607215881,0.005082033574581146,-0.0012199878692626953,-0.011526525020599365,-0.02020825259387493,-0.011482750065624714,-0.007227949798107147,0.09074246097231863,-0.3666818248821019,0.3294693669808084
1687009576.884973,0.08454514294862747,0.3583254814147949,-0.9297606945037842,0.003467559814453125,0.005032062530517578,0.002743542194366455,0.011850659735500813,0.006427097134292126,-0.0013205923605710268,0.09068276148960291,-0.3664736667768242,0.32922067013342526
1687009576.923297,0.0845949575304985,0.35873451828956604,-0.9295984506607056,0.002624303102493286,-0.004364341497421265,-0.007245421409606934,-0.014283739030361176,-0.0028870420064777136,-0.005262869875878096,0.09075164920321796,-0.3669118059195224,0.3292811482290647
1687009577.019549,0.08465451002120972,0.35886824131011963,-0.9295414090156555,-0.008055374026298523,0.009738355875015259,-0.005395114421844482,0.016934899613261223,0.003953021019697189,-0.007360908202826977,0.09082073072126745,-0.36705509691383703,0.3288845809570508
1687009577.033848,0.08488184213638306,0.3585719168186188,-0.9296350479125977,0.008013688027858734,-0.009054064750671387,0.00045108795166015625,-0.01399167813360691,-0.0029527335427701473,0.004337692633271217,0.09105415208442243,-0.3667376270304701,0.3288993755190328
1687009577.07461,0.08487777411937714,0.358533650636673,-0.9296501278877258,-0.0061576589941978455,0.004686594009399414,-0.0023871660232543945,-0.0043220072984695435,0.00019006291404366493,-0.010046705603599548,0.09104833937785986,-0.36669663673566605,0.3288097418278692
1687009577.1699061,0.08524376153945923,0.3587816655635834,-0.9295209646224976,0.010489888489246368,0.007902294397354126,-0.015074312686920166,0.011272531934082508,0.0014822285156697035,0.003941081464290619,0.09145139370677563,-0.3669623407045659,0.32875060981678067
1687009577.1839662,0.08519088476896286,0.35879990458488464,-0.9295187592506409,0.0017994940280914307,-0.00014203786849975586,-0.0075386762619018555,0.008336707949638367,0.007955396547913551,-0.0031934604048728943,0.09139519272462776,-0.36698186186613424,0.3288087846156375
1687009577.225276,0.08536124229431152,0.3585280478000641,-0.9296080470085144,-0.0013005584478378296,0.004264950752258301,-0.0010254979133605957,-0.006277921609580517,0.002516955602914095,-0.003663508454337716,0.09156820097710332,-0.36669064678682745,0.32835809121852366
1687009577.318949,0.08558230847120285,0.35870492458343506,-0.9295194745063782,0.0031780898571014404,-0.009339660406112671,-0.0017396807670593262,0.006291710771620274,0.007813539355993271,0.0008860363159328699,0.09181270552088888,-0.3668801305848448,0.3284332257312916
1687009577.332547,0.08579303324222565,0.3587278425693512,-0.9294912219047546,-0.009148113429546356,0.0023714303970336914,0.0029012560844421387,-0.0011263914639130235,0.012208287604153156,-0.006984337233006954,0.09204028252067799,-0.3669046768633324,0.3281101364074432
1687009577.372215,0.08626678586006165,0.35860270261764526,-0.929495632648468,0.006613478064537048,-0.0033017992973327637,-0.002785801887512207,-0.00679981242865324,0.0028601479716598988,-0.01033046655356884,0.09254520566010369,-0.3667706184042012,0.327755086874919
1687009577.469135,0.08618851006031036,0.35858917236328125,-0.9295081496238708,-0.003546886146068573,0.008247405290603638,-0.00782400369644165,0.011427483521401882,0.005260100122541189,-0.009259209036827087,0.09246047433325583,-0.3667561155519206,0.32742103245285686
1687009577.483643,0.08684617280960083,0.3578800857067108,-0.9297201633453369,0.0020057708024978638,0.0033870339393615723,-0.006528615951538086,0.008378163911402225,0.0007811959367245436,-0.0068289414048194885,0.09314081407461454,-0.3659966284468874,0.3271927809310865
1687009577.56024,0.08696212619543076,0.3574540317058563,-0.9298732280731201,0.0016609355807304382,-0.0013749003410339355,-2.7894973754882812e-05,0.01333435159176588,0.011621681973338127,0.0006438218988478184,0.09324918731609146,-0.3655403852329164,0.32703911834454974
1687009577.57429,0.08731815218925476,0.3574194312095642,-0.9298531413078308,-0.008216574788093567,0.011934846639633179,-0.003099679946899414,0.010194262489676476,0.01092588622123003,-0.006647047586739063,0.09363074099952605,-0.36550334101046605,0.3267380917017686
1687009577.613855,0.08764997124671936,0.3573201596736908,-0.9298601150512695,0.0048488229513168335,-0.004750549793243408,-0.006281852722167969,-0.013395752757787704,0.0014554194640368223,-0.006374472752213478,0.09398376588735455,-0.3653970494614503,0.32656865923331807
1687009577.706919,0.0876510962843895,0.35743507742881775,-0.9298158288002014,-0.002766437828540802,0.0021230578422546387,0.006826937198638916,0.0035421743523329496,0.009663991630077362,-0.0013423636555671692,0.09398941301262319,-0.36552008283705817,0.3262899151143683
1687009577.715396,0.08830660581588745,0.35687193274497986,-0.9299700856208801,0.004527881741523743,-0.005004227161407471,-0.0023723840713500977,0.0059430585242807865,0.009165004827082157,0.0051765888929367065,0.09467252613149914,-0.3649171686769852,0.32618505279175497
1687009577.7671819,0.08855323493480682,0.35651519894599915,-0.9300834536552429,0.00292322039604187,0.007971495389938354,-0.016022443771362305,0.007101533468812704,-0.0019454369321465492,-0.004038348328322172,0.09492385080364577,-0.36453532290223273,0.3262517185814567
1687009577.859793,0.08892788738012314,0.35653024911880493,-0.9300419688224792,-0.009826302528381348,0.034491509199142456,-0.008388817310333252,0.018688105046749115,0.0053834933787584305,-0.015503589063882828,0.09532726195504439,-0.3645514320517297,0.32612625370082243
1687009577.8667831,0.089228056371212,0.3555702567100525,-0.930380642414093,0.020253777503967285,-0.024027258157730103,-0.0020839571952819824,-0.0011661614989861846,-0.0016592361498624086,0.022620560601353645,0.09561246512119013,-0.36352413725347227,0.32638081182709966
1687009577.914149,0.08886968344449997,0.3562076985836029,-0.9301710724830627,-0.013094522058963776,0.009133517742156982,0.0036269426345825195,0.011625179089605808,0.014386397786438465,0.0006441548466682434,0.0952521021511551,-0.36420624003745417,0.32656677716681537
1687009578.013053,0.08989172428846359,0.3550655245780945,-0.9305095076560974,0.0030190646648406982,0.0016392171382904053,-0.0007343888282775879,0.004562076181173325,-0.005691173020750284,0.0043851640075445175,0.09630599072506764,-0.36298416351531904,0.32663248659373784
1687009578.026524,0.08959265798330307,0.35543590784072876,-0.9303969740867615,0.0018380284309387207,-0.002667933702468872,-0.005363523960113525,-4.6612927690148354e-05,0.0015540453605353832,0.0010275833774358034,0.0959990946600191,-0.36338040211795175,0.3268968290939551
1687009578.0637321,0.09000223129987717,0.35517728328704834,-0.9304561614990234,-0.00214211642742157,-0.0011886358261108398,-0.003320634365081787,0.0012926465133205056,0.0017867169808596373,-0.006084454711526632,0.09642914792166264,-0.3631037154428182,0.32665249925026796
1687009578.162044,0.09015083312988281,0.35496753454208374,-0.9305218458175659,0.007642760872840881,0.0016914308071136475,-0.011342167854309082,0.017225230112671852,0.008729222230613232,-0.007191464304924011,0.09658060116074545,-0.36287933943849604,0.32652092742749933
1687009578.175839,0.09044898301362991,0.35389018058776855,-0.9309031963348389,-0.0072885602712631226,0.018637925386428833,-0.007039308547973633,0.0328897200524807,0.008388692513108253,-0.007034271024167538,0.09685857267505896,-0.361727201063211,0.32583805311949293
1687009578.278189,0.09061740338802338,0.35308945178985596,-0.9311908483505249,0.008595265448093414,-0.004792302846908569,-0.0026317834854125977,0.005639990791678429,-0.00036405189894139767,-0.0039403438568115234,0.09700801129224536,-0.3608711967172055,0.32562737418141646
1687009578.292551,0.09043606370687485,0.3533663749694824,-0.9311034083366394,-0.008694715797901154,0.003490954637527466,-0.010196030139923096,0.010896004736423492,0.0061705466359853745,-0.004254729952663183,0.09682413408119121,-0.3611672071039275,0.32542701163752547
1687009578.3702068,0.09093181788921356,0.3529200255870819,-0.9312244057655334,0.0013075768947601318,-0.0030054450035095215,0.0011096596717834473,0.008123166859149933,0.00040595652535557747,-0.015235409140586853,0.09733899631283449,-0.3606901214348465,0.32502684449780617
1687009578.385468,0.09008035063743591,0.352973997592926,-0.9312866926193237,0.0019606873393058777,-0.0010452568531036377,0.00933539867401123,-0.02495267242193222,-0.00889575481414795,-0.014203301630914211,0.09642678502020552,-0.36074780218145924,0.3238869838167581
1687009578.4591842,0.08902715891599655,0.3545626997947693,-0.9307843446731567,-0.0017773881554603577,0.0096951425075531,-0.008745074272155762,-0.041685670614242554,-0.02859879843890667,-0.020846158266067505,0.09535737849939,-0.36244634925871094,0.3232156259541438
1687009578.466783,0.08826538175344467,0.35551828145980835,-0.9304923415184021,0.012488417327404022,0.004924863576889038,-0.0098610520362854,-0.011175607331097126,-0.013377855531871319,-0.007248456124216318,0.09457580201718141,-0.3634685175018412,0.3227706990593502
1687009578.514606,0.08817015588283539,0.3556872606277466,-0.9304367899894714,-0.0008288249373435974,0.013209253549575806,-0.0030654072761535645,0.02987249195575714,0.008759671822190285,0.0037647802382707596,0.09447998024645642,-0.36364930550221664,0.3227960344539035
1687009578.61273,0.08872392773628235,0.3552298843860626,-0.9305588603019714,0.0014555379748344421,0.00010156631469726562,-0.0039504170417785645,-0.005149317905306816,0.009851744398474693,-0.004705802537500858,0.09505742535060852,-0.3631599893203954,0.3227108764850597
1687009578.625229,0.08868711441755295,0.35510122776031494,-0.9306114912033081,-0.004763752222061157,-0.0012651383876800537,-0.0033942461013793945,-0.003311825916171074,-0.0007669881451874971,-0.013126318342983723,0.09501288422962428,-0.36302234083598334,0.32241772142995984
1687009578.6653662,0.0884602963924408,0.3547334671020508,-0.9307733178138733,0.0006815716624259949,0.0040464699268341064,0.002703249454498291,0.015866439789533615,0.0037530174013227224,-0.017584117129445076,0.09475496179176204,-0.3626289714497464,0.321416055874794
1687009578.761003,0.08820337057113647,0.3546527326107025,-0.9308284521102905,0.002067647874355316,-0.00029784440994262695,-0.009814858436584473,0.0003706600982695818,-0.008338620886206627,-0.004177498631179333,0.09447582635248657,-0.36254263443398393,0.32093648059598023
1687009578.774147,0.08818481862545013,0.35440292954444885,-0.9309253692626953,-0.0005993545055389404,0.014997124671936035,-0.0072460174560546875,0.0024315917398780584,-0.0019448157399892807,-0.010108890011906624,0.09444630215869573,-0.36227548657531145,0.3205569817556621
1687009578.813606,0.08847016096115112,0.3533187806606293,-0.9313102960586548,0.010300002992153168,0.0036911368370056152,-0.008798956871032715,0.03142440691590309,0.0021229851990938187,0.0074890777468681335,0.09471114848646274,-0.36111633633460444,0.3206082983911268
1687009578.912284,0.08891503512859344,0.35129135847091675,-0.9320346117019653,-0.004137188196182251,0.01701006293296814,-0.006335139274597168,0.11751526594161987,0.030247919261455536,-0.0009839021367952228,0.09511102258074859,-0.35895002660883174,0.3206452774079432
1687009578.925364,0.09084131568670273,0.3408045172691345,-0.9357350468635559,0.0015354156494140625,0.008270829916000366,2.0384788513183594e-05,0.3457815647125244,0.031992822885513306,0.013719210401177406,0.09677689525928136,-0.34777251680011956,0.31959776385839966
1687009579.029684,0.09126606583595276,0.32206761837005615,-0.9423072338104248,0.039929017424583435,-0.017227500677108765,0.00358659029006958,0.4651263952255249,-0.0540519617497921,0.08720148354768753,0.0965526741916194,-0.3279126657954592,0.31883739277721845
1687009579.088084,0.09034571796655655,0.30497270822525024,-0.9480661153793335,-0.005995109677314758,0.044957131147384644,-0.003548264503479004,0.46316176652908325,0.031132178381085396,0.05333113297820091,0.0950078442437672,-0.3099097633459407,0.3169319648663992
1687009579.100449,0.09029911458492279,0.2929307520389557,-0.9518601298332214,-0.008893460035324097,-0.0016862154006958008,-0.012922585010528564,0.22595803439617157,-0.006780317053198814,0.011205652728676796,0.09458289763956719,-0.2972906110283503,0.3165480990732707
1687009579.106396,0.0906096026301384,0.2850355803966522,-0.9542245864868164,-0.0037107840180397034,2.9146671295166016e-05,-0.013533532619476318,0.09796295315027237,0.011174803599715233,-0.0002488697646185756,0.0946724021115172,-0.289043562311731,0.3162365394941138
1687009579.14297,0.09103324264287949,0.2799617648124695,-0.9556852579116821,0.006714574992656708,-0.013100773096084595,-0.005481064319610596,0.11871816962957382,0.00809112936258316,-0.0025700144469738007,0.0949678815666634,-0.2837542750507169,0.31552172672642503
1687009579.207197,0.0907638818025589,0.2747272253036499,-0.9572287201881409,-0.003804035484790802,0.0010906457901000977,-0.0025795698165893555,0.1178092285990715,0.010821402072906494,-0.007029211148619652,0.09453679013869372,-0.27830601290620605,0.3142808082099934
1687009579.267205,0.09149211645126343,0.26946744322776794,-0.9586535096168518,0.0018306523561477661,0.0020474791526794434,0.008946478366851807,0.11411476135253906,0.009988897480070591,0.0037053918931633234,0.09514996136309373,-0.2728399781355779,0.313532629690587
1687009579.361281,0.09154059737920761,0.263875275850296,-0.9602031707763672,-0.00467228889465332,-0.002232789993286133,0.0028667449951171875,0.11734756827354431,0.01076947059482336,-0.008217314258217812,0.09504734951342018,-0.2670376880643201,0.3126416503996097
1687009579.37403,0.09170012921094894,0.2595288157463074,-0.961371898651123,-0.0017037689685821533,0.008873313665390015,0.005088329315185547,0.10499751567840576,0.0031617956701666117,-0.01539812795817852,0.09509694764088197,-0.26253427687797887,0.3116024046201111
1687009579.4493299,0.09156794100999832,0.25699859857559204,-0.9620639681816101,0.005737379193305969,-0.0017190277576446533,-0.004534542560577393,0.03155232593417168,-0.005668980069458485,0.0015776592772454023,0.09489278722636767,-0.25991519779391214,0.31103064772346145
1687009579.463151,0.09160960465669632,0.256531298160553,-0.9621846675872803,-0.0035816356539726257,0.012084424495697021,-0.009754359722137451,0.03290308266878128,0.0018206278327852488,-0.00023741798941046,0.09492386252703916,-0.25943169911846076,0.3107316292460814
1687009579.568681,0.09193836897611618,0.2545528709888458,-0.9626786708831787,0.0029408037662506104,-0.0064754486083984375,-0.005094766616821289,0.036296747624874115,-0.00036742561496794224,-6.218196358531713e-05,0.09521388268462651,-0.2573853194707727,0.3105737388673543
1687009579.583205,0.09163253009319305,0.2548005282878876,-0.9626423120498657,-0.0017734989523887634,-0.0050904154777526855,0.007777810096740723,-0.017559783533215523,-0.003710136516019702,-0.003603453980758786,0.0949026098625633,-0.2576414096718418,0.3103834262680162
1687009579.659484,0.09156449884176254,0.2541154623031616,-0.9628298282623291,0.003894507884979248,-0.005397170782089233,-0.0026547908782958984,0.013452772982418537,0.0008668610826134682,0.009072327055037022,0.09481421148353958,-0.2569330396933904,0.31039258461242125
1687009579.666946,0.0916999876499176,0.25399115681648254,-0.9628497362136841,0.0029655545949935913,0.0007543265819549561,-0.006510615348815918,-0.006142854690551758,0.003704281523823738,-0.00032783253118395805,0.09495172228951983,-0.2568045270673794,0.3106559678738732
1687009579.748114,0.09191551059484482,0.25371673703193665,-0.9629015326499939,0.002826318144798279,0.0042788684368133545,0.003901958465576172,0.02021516114473343,-0.004937853664159775,-0.011201252229511738,0.09516845269358201,-0.25652078981476906,0.3104019817511052
1687009579.7614741,0.09150709956884384,0.2540023922920227,-0.9628651142120361,0.006255976855754852,-0.0013168156147003174,-0.006388425827026367,-0.030807944014668465,-0.00851607695221901,0.007348129525780678,0.09475168327293018,-0.25681612739435006,0.31048227272826806
1687009579.837681,0.0914921909570694,0.2546095550060272,-0.9627061486244202,-0.008072368800640106,0.015471041202545166,-0.013749480247497559,0.024295255541801453,0.00038394099101424217,0.001817809883505106,0.09475188228291477,-0.25744392767747176,0.310717769940469
1687009579.931773,0.09184062480926514,0.2536879777908325,-0.9629162549972534,0.007936611771583557,-0.012950032949447632,0.004923701286315918,-0.008929452858865261,-0.002079838188365102,0.009027918800711632,0.09508994177053622,-0.2564910609231976,0.3110572777396515
1687009579.945445,0.09165815263986588,0.25412753224372864,-0.9628177285194397,-0.0010056719183921814,0.00560760498046875,0.007907450199127197,-0.011213734745979309,0.006958220154047012,0.01133168675005436,0.09491179884238223,-0.2569455230069463,0.3114623162877331
1687009580.016241,0.09201008826494217,0.25481492280960083,-0.9626024961471558,0.0003361254930496216,0.0019294917583465576,-0.005766034126281738,-0.004640832077711821,-0.0022734496742486954,0.0022477104794234037,0.09529520322347103,-0.25765628924001405,0.31190379263445145
1687009580.0291429,0.09180127829313278,0.25449684262275696,-0.9627065658569336,0.003596685826778412,0.0034072399139404297,-3.147125244140625e-05,0.0018043728778138757,-0.002012548502534628,0.0009611377026885748,0.09507002679440456,-0.25732736684116464,0.31186295105305456
1687009580.107487,0.09180367738008499,0.2543944716453552,-0.9627333879470825,-0.0027686282992362976,0.010238736867904663,-0.0047653913497924805,0.029294896870851517,0.0043743327260017395,0.0016092844307422638,0.09506986397567742,-0.25722152903637624,0.31195523605251435
1687009580.115524,0.09200310707092285,0.25431036949157715,-0.9627365469932556,0.0029828697443008423,0.012947320938110352,-0.01141500473022461,-0.005635433830320835,-0.0022106878459453583,-0.0079969372600317,0.09527482592381767,-0.2571345648537527,0.3119950498502253
1687009580.2015262,0.09190480411052704,0.2547024190425873,-0.9626423120498657,0.002516604959964752,-0.006045162677764893,-0.004215598106384277,-0.027923740446567535,-0.002963386243209243,-0.005654487293213606,0.09518290194354728,-0.25753994940616354,0.3118647234936106
1687009580.214398,0.09191010147333145,0.2553665339946747,-0.9624658226966858,0.0017941370606422424,-0.011225879192352295,0.000750124454498291,-0.041403815150260925,0.00722675584256649,-7.110368460416794e-05,0.0952057085011905,-0.25822678733943977,0.3116416537701936
1687009580.253179,0.0923120453953743,0.25741371512413025,-0.9618818163871765,-0.0018426775932312012,-0.002179950475692749,-0.005449056625366211,-0.018857762217521667,0.015916917473077774,0.010094581171870232,0.09567723851026445,-0.2603447758627207,0.3122409833978036
1687009580.350169,0.09279404580593109,0.25852325558662415,-0.9615378379821777,0.0020546019077301025,0.006598234176635742,0.007466793060302734,-0.04641446843743324,-0.0006299242377281189,-8.13568476587534e-05,0.09620793711563375,-0.26149317162017394,0.3127110032515414
1687009580.3634849,0.09270716458559036,0.2611074149608612,-0.9608476758003235,-0.0006203502416610718,-0.00038045644760131836,-0.0009289979934692383,-0.046819400042295456,0.000166360754519701,0.003344200784340501,0.09618702113111416,-0.26416923155002336,0.3132956435408116
1687009580.40314,0.09319229423999786,0.2632283568382263,-0.9602218866348267,-0.009680919349193573,0.0021677911281585693,-0.01261746883392334,-0.056012190878391266,-4.394003190100193e-05,0.019752468913793564,0.09674986652875309,-0.26636706641675173,0.31371127846790714
1687009580.498775,0.09363585710525513,0.26422786712646484,-0.959904134273529,0.00048036128282546997,-0.0020208358764648438,-0.007319927215576172,-0.016308318823575974,-0.0017174703534692526,0.0277236420661211,0.09723944579072501,-0.2674032458654463,0.3151305327830392
1687009580.51162,0.0934072956442833,0.2678963243961334,-0.9589090943336487,0.005378119647502899,0.005861639976501465,-0.014204919338226318,-0.06222028285264969,-0.002667419845238328,0.009949506260454655,0.0971036067592621,-0.2712088841832754,0.31613285223999393
1687009580.554204,0.09345588088035583,0.2706791162490845,-0.9581225514411926,0.007160589098930359,-0.006076425313949585,0.004082024097442627,-0.05762140080332756,-0.0034306817688047886,0.011083546094596386,0.09723304880313154,-0.2740984142927748,0.31714635385294304
1687009580.650412,0.09296000748872757,0.2731950283050537,-0.9574564695358276,0.005657561123371124,0.003568887710571289,-0.014253675937652588,-0.07880982011556625,-0.009325144812464714,-0.024848688393831253,0.09678721734477208,-0.2767128367615376,0.3172301202248177
1687009580.6634011,0.09302440285682678,0.27587035298347473,-0.9566828012466431,0.005074366927146912,0.010552376508712769,0.0012690424919128418,-0.02642766386270523,-0.0016437009908258915,0.007532820105552673,0.09693167962350113,-0.27949508341808255,0.3170150524998251
1687009580.735481,0.09315408766269684,0.2773200273513794,-0.9562509655952454,0.0021217986941337585,-0.0044013261795043945,-0.0015736818313598633,-0.0534672737121582,-0.010292049497365952,-0.01342279464006424,0.09710953061084975,-0.28100360316855433,0.31714764399034173
1687009580.747782,0.0930556133389473,0.28010672330856323,-0.9554479718208313,0.0025864988565444946,0.013930171728134155,-0.020198941230773926,-0.03209735453128815,-0.01595783606171608,-0.01237337663769722,0.0970885311039158,-0.28390527934591525,0.31738793255270087
1687009580.792966,0.09312675148248672,0.28074172139167786,-0.9552546739578247,0.007016696035861969,0.0022172629833221436,-0.006644070148468018,-0.02616068348288536,0.0061191474087536335,0.0006524771451950073,0.09718182371998707,-0.28456682837624486,0.31741639194258886
1687009580.8889189,0.09320968389511108,0.2817133367061615,-0.9549605250358582,0.0008760318160057068,-0.005407154560089111,0.0034987330436706543,-0.00573996314778924,0.011010308749973774,0.005755293183028698,0.0972975981130839,-0.285579299937636,0.31742848533085566
1687009580.9012508,0.09338515996932983,0.2826756536960602,-0.9546589255332947,-0.0007185116410255432,0.004616856575012207,-0.010078012943267822,-0.0193027313798666,0.0005737356841564178,-0.011973902583122253,0.09751020923128491,-0.2865823919653016,0.3175469774416646
1687009580.944251,0.09332972019910812,0.2831912040710449,-0.9545115828514099,0.00107642263174057,-0.004611462354660034,0.004377305507659912,-0.016019409522414207,0.0023506854195147753,-0.004989895503968,0.09746764472276194,-0.2871198896700765,0.3173155378126884
1687009581.038347,0.09314972162246704,0.2851005792617798,-0.9539605975151062,-0.0037331953644752502,0.0061134397983551025,-0.003162205219268799,-0.02839609608054161,-0.0006150994449853897,-0.009090631268918514,0.09733667603197248,-0.2891113605536854,0.31712428095163986
1687009581.051008,0.09297169744968414,0.2856867015361786,-0.9538025856018066,0.0002442672848701477,0.006793797016143799,-0.00895071029663086,-0.015453577041625977,-0.010925349779427052,-0.008145608007907867,0.09716781466752035,-0.28972292956881074,0.3168124716814188
1687009581.095917,0.0926516056060791,0.2864418923854828,-0.9536072015762329,0.004867330193519592,0.005458742380142212,-0.0022338032722473145,-0.02431102842092514,-0.009282534942030907,-0.010721351020038128,0.09685507996205862,-0.2905110525979069,0.31640138142098084
1687009581.188295,0.09214663505554199,0.28832510113716125,-0.9530884623527527,0.007691636681556702,-0.0019328892230987549,-0.010534524917602539,-0.051031943410634995,-0.0028980497736483812,-0.005204213783144951,0.09638257689629062,-0.292477201668067,0.3163784222583213
1687009581.201284,0.09174679964780807,0.29049399495124817,-0.9524682760238647,-0.001857258379459381,-0.0022401809692382812,-0.003128647804260254,-0.036041010171175,-0.005176384001970291,-0.01627790369093418,0.09602903893108532,-0.2947430650734636,0.3161449303218335
1687009581.2402291,0.09133230894804001,0.2910347580909729,-0.9523429870605469,0.0021735578775405884,-0.0009346604347229004,0.0006676316261291504,-0.009646642953157425,-0.008251180872321129,-0.002005424117669463,0.09561034280007802,-0.29530823871848266,0.3156508627501467
1687009581.338334,0.09076061844825745,0.29285919666290283,-0.9518382549285889,-0.0019391849637031555,-0.0020724236965179443,0.005793333053588867,-0.0497397780418396,-0.012185292318463326,-0.008720917627215385,0.09506556376873282,-0.2972157654523,0.31537317786474234
1687009581.351379,0.09005359560251236,0.294463187456131,-0.9514104127883911,-0.0022697672247886658,0.0026864707469940186,-0.005010426044464111,-0.03436765819787979,-0.013474083505570889,-0.013281447812914848,0.09437156882054205,-0.298893748145247,0.31507652714143797
1687009581.393384,0.08953618258237839,0.29573509097099304,-0.9510647058486938,0.0015435516834259033,0.008250534534454346,-0.005066275596618652,-0.022097276523709297,-0.004912553820759058,-0.0034058475866913795,0.09386644651695022,-0.30022495156621276,0.3147936106822369
1687009581.488323,0.08919430524110794,0.2970356345176697,-0.9506914615631104,0.002343185245990753,0.004722237586975098,-0.0054395198822021484,-0.0423402301967144,-0.0031194475013762712,0.002980679040774703,0.09354662490690227,-0.3015866520960113,0.31457589077818726
1687009581.501941,0.08893820643424988,0.298613578081131,-0.9502210021018982,-0.0007576495409011841,-0.002150505781173706,-0.0032854676246643066,-0.014899061992764473,-0.00690761674195528,-0.004551872611045837,0.09332550078745791,-0.3032396060904517,0.3147622031241981
1687009581.54176,0.08813711255788803,0.29922229051589966,-0.9501041173934937,-0.002947278320789337,-0.01328781247138977,0.0018314719200134277,-0.031943246722221375,-0.021803120151162148,-0.006909368559718132,0.09250100612424939,-0.3038774980615725,0.314406159765831
1687009581.6372828,0.08754299581050873,0.30007991194725037,-0.9498885273933411,-0.00036951154470443726,-0.0016942620277404785,-0.00599825382232666,-0.027261987328529358,-0.0020500104874372482,-0.0031815427355468273,0.09190172103291908,-0.30477642754471085,0.3143556826982479
1687009581.6509418,0.08772854506969452,0.3003450930118561,-0.9497876167297363,-0.002798110246658325,-0.005026489496231079,-0.0016283392906188965,-0.0036121862940490246,0.0013889293186366558,-0.00020499411039054394,0.09210514309039303,-0.30505441812497874,0.3144940072546882
1687009581.72696,0.08751600980758667,0.30036813020706177,-0.9497999548912048,-0.001990482211112976,0.00357171893119812,-0.005919039249420166,-0.006920275744050741,-0.00353667582385242,-0.004960468038916588,0.09188207681831442,-0.3050785702292741,0.3142233768447232
1687009581.818454,0.08738704770803452,0.30127307772636414,-0.9495251774787903,0.0019074082374572754,-0.003116309642791748,-0.009611785411834717,-0.034017764031887054,-0.013380961492657661,-0.012232761830091476,0.09177384139439718,-0.3060274793348648,0.31425278635722903
1687009581.8324342,0.08711747825145721,0.30171316862106323,-0.9494102001190186,0.0046946704387664795,-0.0034801065921783447,-0.0027077198028564453,-0.02218618057668209,-0.005099152214825153,-0.0016736609395593405,0.09150334010693238,-0.3064890611971244,0.3141342578867783
1687009581.9052649,0.08688773214817047,0.30324268341064453,-0.9489438533782959,-0.0030559301376342773,-0.00035569071769714355,-0.0027620792388916016,-0.012164440006017685,-1.864018850028515e-05,-0.006706502754241228,0.0913079698145773,-0.3080937481961804,0.313864744044183
1687009581.917067,0.08676981180906296,0.3035967946052551,-0.948841392993927,0.0003121122717857361,-0.004844963550567627,0.005802512168884277,-0.0233700443059206,-0.0075020333752036095,0.0015476986300200224,0.09119452049432045,-0.308465354811916,0.3137950546175701
1687009581.998672,0.0864100456237793,0.30423012375831604,-0.9486713409423828,0.00030566751956939697,0.0036007165908813477,-0.0007305145263671875,0.00537567213177681,0.003035206813365221,-0.004189282655715942,0.09083468472956234,-0.30913014937463495,0.313627873552578
1687009582.011242,0.08653188496828079,0.30463936924934387,-0.9485288858413696,-0.0038750171661376953,0.004351109266281128,-0.004748642444610596,-0.005522471386939287,0.0006147483363747597,-0.003706917632371187,0.09097564199858814,-0.30955978255693073,0.31345265075007833
1687009582.116393,0.08629485219717026,0.3057790994644165,-0.9481837153434753,0.002267181873321533,0.004599958658218384,-0.005948364734649658,-0.025523299351334572,-0.0007476361934095621,-0.008979110978543758,0.09076064854293424,-0.31075660528252697,0.3131051787503067
1687009582.128676,0.08591223508119583,0.3064568042755127,-0.9479996562004089,0.00037623941898345947,0.005448132753372192,-0.009153664112091064,-0.0030750264413654804,-0.005833297036588192,-0.00816105492413044,0.0903778750949009,-0.31146849240894825,0.3128466218518868
1687009582.206287,0.0858621820807457,0.3070351481437683,-0.9478170275688171,0.0018911361694335938,0.002931922674179077,-0.004239857196807861,-0.008748713880777359,-0.00013430998660624027,0.003932892344892025,0.0903428133154873,-0.3120761315807827,0.31284903083225224
1687009582.2194428,0.08605048060417175,0.30664122104644775,-0.9479274749755859,-0.002935841679573059,0.0012048780918121338,-0.0033664703369140625,0.016313228756189346,0.0034780013374984264,0.0019317932892590761,0.09052937238734984,-0.3116622439585444,0.31280019909025764
1687009582.299578,0.08595824241638184,0.30666473507881165,-0.947928249835968,-0.0017297044396400452,0.0018832683563232422,-0.0037624239921569824,0.008142385631799698,-0.004418271593749523,-0.009589307941496372,0.09043278496608544,-0.311686946671658,0.3127489382208757
1687009582.3118181,0.08578914403915405,0.30695977807044983,-0.9478480219841003,0.0017200261354446411,0.006699919700622559,-0.002682924270629883,-0.013276576064527035,-0.006850447505712509,-0.0017319840844720602,0.09026344678161953,-0.3119969395673184,0.31257917968053317
1687009582.3882961,0.08569483458995819,0.30720651149749756,-0.9477766156196594,-0.0013289675116539001,0.0009447634220123291,-0.0021744966506958008,-0.005248343572020531,0.0009438265115022659,0.005875668488442898,0.09017150694790865,-0.312256203242185,0.31260496245621117
1687009582.4012709,0.08576297760009766,0.3071243464946747,-0.9477971196174622,0.0029821619391441345,0.004765331745147705,-0.008989989757537842,-0.010882082395255566,-0.003531527006998658,-0.0019301899010315537,0.09024088289155816,-0.31216985279157206,0.31261957329439394
1687009582.476063,0.08553687483072281,0.3079589903354645,-0.947546660900116,0.001484006643295288,0.0037475526332855225,-0.008324861526489258,-0.016539525240659714,-0.006236144341528416,-0.012112786993384361,0.09002792085211703,-0.31304701070246105,0.31245052308040294
1687009582.483144,0.08536674082279205,0.30773690342903137,-0.9476341605186462,0.0003266334533691406,0.0005669295787811279,-0.003964900970458984,0.012742597609758377,-0.0003313838969916105,0.001133976737037301,0.08984156269957284,-0.3128135982150703,0.3122621769633036
1687009582.5314999,0.08523286879062653,0.3067761957645416,-0.9479576349258423,0.005282275378704071,0.004838794469833374,0.0009819865226745605,0.08138233423233032,0.005450250115245581,0.004018912557512522,0.08967098851461276,-0.31180405603945965,0.3123104200446768
1687009582.62612,0.08588874340057373,0.2984493672847748,-0.9505530595779419,-0.00610051304101944,0.020093142986297607,0.0065375566482543945,0.28543946146965027,0.021793004125356674,0.01755143329501152,0.09011189745139561,-0.3030675739268011,0.31166876012993994
1687009582.634717,0.08640452474355698,0.2880244553089142,-0.953717052936554,0.017324745655059814,-0.0722956657409668,-0.005450427532196045,0.14042656123638153,-0.013197027146816254,0.005272595677524805,0.09035099008339588,-0.2921632345020973,0.3120860535924665
1687009582.68449,0.08562149107456207,0.28191885352134705,-0.9556101560592651,0.015696890652179718,-0.025693237781524658,0.008695483207702637,0.09616514295339584,-0.02389964833855629,-0.031736355274915695,0.08936014988804701,-0.2857934866028671,0.3103997104984614
1687009582.745541,0.08535956591367722,0.27838486433029175,-0.9566690325737,-0.008439987897872925,-0.00496259331703186,-0.003276646137237549,0.010301187634468079,-0.007250986993312836,-0.01010416354984045,0.08899014882268375,-0.28211207982746256,0.3091585891909579
1687009582.839898,0.08572191745042801,0.27633169293403625,-0.9572317004203796,-0.004026345908641815,-0.0007579326629638672,-0.011411488056182861,0.09830103814601898,0.01524597778916359,-0.0024051647633314133,0.08931365735820111,-0.27997506441203973,0.30865037814270097
1687009582.8522692,0.08551912754774094,0.2715814709663391,-0.9586083889007568,-0.0005276575684547424,-0.005681782960891724,-0.002161264419555664,0.08539256453514099,0.005223437212407589,-0.006448841653764248,0.08897620273646027,-0.275035867671361,0.30771053106486834
1687009582.9280539,0.08551054447889328,0.2668783962726593,-0.9599291086196899,-0.005432404577732086,0.010480642318725586,-0.0028089284896850586,0.12389153987169266,0.008537298068404198,0.004556205123662949,0.08884555705924861,-0.2701524760215792,0.306941701081458
1687009582.935853,0.08606711030006409,0.2615862190723419,-0.9613350629806519,0.007057301700115204,0.010233879089355469,0.016587138175964355,0.11928519606590271,0.018207235261797905,0.011613516137003899,0.08929067413016364,-0.264665294131316,0.30689119719583613
1687009582.981864,0.08657066524028778,0.25665482878685,-0.9626182317733765,-0.001808077096939087,0.008222520351409912,-0.009793877601623535,0.12607745826244354,0.01644315756857395,0.011234215460717678,0.0896912223908355,-0.25955950245246656,0.3065772654594337
1687009583.106289,0.08728700131177902,0.251924604177475,-0.9638023376464844,-0.0010290443897247314,-0.008806288242340088,-0.016574859619140625,0.09253986924886703,0.003701796056702733,0.005515275988727808,0.09031885301113383,-0.254668483064522,0.3065233820765832
1687009583.119415,0.08743678033351898,0.2479199320077896,-0.9648267030715942,0.004711061716079712,-0.0018566697835922241,0.0015546083450317383,0.06464125961065292,0.0027174917049705982,0.004093747586011887,0.09037746488516332,-0.25053256106075456,0.30622369079834066
1687009583.201613,0.0876845121383667,0.2451867312192917,-0.9655023813247681,-0.0006483644247055054,0.0109015554189682,-0.007275879383087158,0.08150133490562439,0.008304537273943424,0.00686416681855917,0.09056904256372127,-0.247712290723845,0.3061954693082416
1687009583.213381,0.08847814798355103,0.24187222123146057,-0.9662657380104065,-0.0015488117933273315,-0.0025838613510131836,-0.003552377223968506,0.04768797755241394,0.008840898051857948,0.010160760954022408,0.09131246442975308,-0.24429490094718748,0.30641938635318067
1687009583.288053,0.0887022316455841,0.23923450708389282,-0.9669016599655151,0.0018434375524520874,-0.007056742906570435,0.009290575981140137,0.05537514388561249,0.001960265915840864,0.003980030305683613,0.09148256755020287,-0.24157738405276907,0.30651472098575505
1687009583.301118,0.0889400839805603,0.23837395012378693,-0.9670923352241516,-0.002788938581943512,7.517635822296143e-05,0.0028436779975891113,-0.00904068537056446,0.0025790072977542877,0.0008371006697416306,0.09170851654999461,-0.24069118810534132,0.3066815173999531
1687009583.405561,0.08900948613882065,0.23820063471794128,-0.9671286344528198,-0.0010272935032844543,-0.0051988959312438965,-0.0017586946487426758,0.00027562957257032394,-0.0018654533196240664,0.006374678574502468,0.09177625471318565,-0.24051273011013544,0.30671312487146085
1687009583.4187388,0.0890386700630188,0.23712752759456635,-0.9673895835876465,0.002071574330329895,-0.005117624998092651,-0.00572437047958374,-0.0033437837846577168,-0.0021731373853981495,0.004063053987920284,0.09178154293358867,-0.23940797877852707,0.3068010045041501
1687009583.498208,0.08924107253551483,0.23652298748493195,-0.9675189256668091,0.0033797919750213623,0.003345191478729248,-0.010523617267608643,0.033636294305324554,-0.002861386863514781,0.011703863739967346,0.09197678115541853,-0.23878573399126998,0.3071288944816011
1687009583.510788,0.08947646617889404,0.23623518645763397,-0.967567503452301,0.000794537365436554,-0.0011887997388839722,-0.006004214286804199,-0.015110871754586697,-0.001296779839321971,0.007127953693270683,0.09221342058216823,-0.23848954426106483,0.3075494971354638
1687009583.589288,0.0893552228808403,0.23683227598667145,-0.9674327373504639,0.0033114105463027954,-0.005921006202697754,-0.0009815096855163574,-0.01869131438434124,-0.009390836581587791,-0.0025730105116963387,0.09210192738443314,-0.23910406800370196,0.3075935987540198
1687009583.6018019,0.08927688747644424,0.23731960356235504,-0.9673205614089966,-0.0019965916872024536,0.0007327944040298462,-0.000773310661315918,-0.004515663720667362,-0.003982666879892349,0.0014725977089256048,0.09203225101993519,-0.23960569128265047,0.30756487094615576
1687009583.675556,0.08935786038637161,0.23799654841423035,-0.9671467542648315,0.0029425695538520813,0.006357729434967041,-0.008790135383605957,0.00964605063199997,0.00671622809022665,0.002751181134954095,0.09213171655718527,-0.2403026109209331,0.30764638759558277
1687009583.6836839,0.08934906125068665,0.23756317794322968,-0.967254102230072,0.0028445646166801453,0.0004434436559677124,-0.008102953433990479,0.007389998063445091,-0.008198983035981655,-0.00817137397825718,0.09211252319045701,-0.23985644255197713,0.30765166794582505
1687009583.766792,0.08924861252307892,0.23787742853164673,-0.9671861529350281,0.003921575844287872,-0.006325274705886841,-0.008125126361846924,-0.02510962262749672,-0.003425000933930278,0.0010614055208861828,0.09201598084338874,-0.24017996110130588,0.30757298482031475
1687009583.779208,0.08925043791532516,0.23859068751335144,-0.9670102596282959,0.001722477376461029,0.009151041507720947,-0.014694452285766602,0.005203587468713522,0.0019432217814028263,-0.007296326570212841,0.09203449835897942,-0.2409143667362197,0.30775914796941184
1687009583.81916,0.0896645113825798,0.23861458897590637,-0.9669660329818726,-0.0009193792939186096,0.00010918080806732178,-0.005140841007232666,-0.02196158654987812,0.00407401705160737,0.008639962412416935,0.09246326385222163,-0.24093897765942074,0.30798780761466193
1687009583.910132,0.08973746001720428,0.24017776548862457,-0.9665722250938416,-0.002411387860774994,-0.001698136329650879,-0.0007587075233459473,-0.03985736519098282,-0.001324476907029748,-0.00590482447296381,0.09257555255306253,-0.2425489787874237,0.3082083393292032
1687009583.919986,0.08999670296907425,0.2411966472864151,-0.9662943482398987,0.0067898184061050415,-0.0001535266637802124,0.0011759400367736816,-0.007283620070666075,0.008504362776875496,0.0120274368673563,0.09286800446412376,-0.24359871019248852,0.3082841907668154
1687009583.970986,0.08990519493818283,0.24267935752868652,-0.9659315347671509,-0.004379667341709137,0.008571892976760864,-0.008006393909454346,-0.026217497885227203,-3.4796539694070816e-05,0.005540975369513035,0.09280876725630398,-0.2451268253698868,0.3086265657546382
1687009584.02789,0.09009400755167007,0.2440321445465088,-0.9655730724334717,-0.0018676742911338806,0.0022142231464385986,-0.00996708869934082,-0.042950715869665146,-0.007060303818434477,-0.004269244149327278,0.09303688297313474,-0.2465215422058552,0.30894918440415836
1687009584.1241698,0.09022386372089386,0.24485452473163605,-0.9653527140617371,0.002488560974597931,-0.00478796660900116,-0.015619516372680664,-0.017671234905719757,-0.003458201652392745,-0.0029377304017543793,0.09319134724316504,-0.24736964861227087,0.30921732629415927
1687009584.1380901,0.09033887833356857,0.24551106989383698,-0.965175211429596,-0.0005713999271392822,-0.0037507861852645874,-0.004169881343841553,-0.028042074292898178,0.005189171526581049,0.01220506988465786,0.09332652231284441,-0.24804686035503332,0.30948077052395456
1687009584.214714,0.09038040786981583,0.24655599892139435,-0.9649049043655396,-0.008288100361824036,0.00841839611530304,-0.007308781147003174,-0.0101923244073987,-0.002341626910492778,0.018990270793437958,0.09339517540009633,-0.24912492326680857,0.3102309062356645
1687009584.2259212,0.09064429998397827,0.2476285994052887,-0.964605450630188,-0.012702390551567078,-0.015923872590065002,-0.01978480815887451,-0.02874767780303955,-0.010237721726298332,0.03790770471096039,0.09369519546383681,-0.25023186065660113,0.3117972967033632
1687009584.271937,0.09030146151781082,0.24931982159614563,-0.9642018675804138,0.025390692055225372,0.03217431902885437,0.010878562927246094,-0.0020400332286953926,-0.006288254167884588,0.01172650046646595,0.09338171608596561,-0.2519778410726589,0.31312741246074094
1687009584.367857,0.08940262347459793,0.24911634624004364,-0.9643382430076599,-0.0005506724119186401,0.03346119821071625,0.007718980312347412,-0.008296464569866657,-0.00836072489619255,0.007940750569105148,0.0924445352100289,-0.251767734275773,0.3133774638406141
1687009584.380505,0.08937335014343262,0.2498445063829422,-0.9641525745391846,0.009351037442684174,0.010058477520942688,0.0004379749298095703,-0.038561999797821045,-0.024998648092150688,0.0031649696175009012,0.09243213459575603,-0.2525196638896704,0.3137036579630281
1687009585.687207,0.08880920708179474,0.2535235583782196,-0.963243842124939,0.006130993366241455,-0.0032794177532196045,-0.01220470666885376,-0.04776841774582863,-0.01941240020096302,-0.001743702101521194,0.09193812934512324,-0.25632108836199546,0.3143353336505782
1687009585.748063,0.08866813778877258,0.2553679943084717,-0.9627695083618164,-0.00025869905948638916,-0.0005309581756591797,-0.005904138088226318,-0.07859783619642258,-0.011317722499370575,-0.00351463770493865,0.09183788426476165,-0.25822830707171324,0.31438464646495884
1687009585.760827,0.08806983381509781,0.2580351233482361,-0.962113082408905,0.003223508596420288,0.005896151065826416,-0.0002281665802001953,-0.025586947798728943,-0.009769360534846783,-0.003973566927015781,0.09128353265682529,-0.2609878852908897,0.3145847202625108
1687009585.765579,0.08753634989261627,0.2591826021671295,-0.9618533253669739,-0.0014615058898925781,0.0005983114242553711,0.000931084156036377,-0.031852345913648605,-0.003880667733028531,0.013522402383387089,0.09075799028446731,-0.2621757901513616,0.31490874653444967
1687009585.798733,0.08730294555425644,0.26223456859588623,-0.9610469341278076,-0.0044476985931396484,-0.0021027028560638428,-0.005337953567504883,-0.07453149557113647,-0.007258354686200619,-0.003423357615247369,0.09059284638730736,-0.2653370934379855,0.31542187545857614
1687009585.806412,0.08700921386480331,0.26372799277305603,-0.9606648683547974,0.0056269168853759766,-0.00020867586135864258,-0.010724902153015137,-0.022611044347286224,-0.006666600704193115,-0.007648462895303965,0.09032541980719104,-0.2668849779560564,0.3155830867189636
1687009585.809458,0.08665485680103302,0.2647886574268341,-0.9604050517082214,0.00030500441789627075,0.0024232864379882812,-0.002897500991821289,-0.03599444776773453,-0.00719834491610527,-0.005973001942038536,0.08998374509878565,-0.26798473866285166,0.31549830508223337
1687009585.829433,0.08638554066419601,0.2671160399913788,-0.9597846269607544,0.0049841031432151794,0.007999956607818604,-0.00698167085647583,-0.04803783819079399,-0.0043563079088926315,-0.0008696524892002344,0.08976326024308173,-0.27039906942972564,0.31553346721422854
1687009585.832201,0.08601757884025574,0.26717230677604675,-0.9598020315170288,0.00022511929273605347,-0.006292760372161865,0.004769682884216309,-0.01412474736571312,-0.0011000609956681728,-0.0016228610184043646,0.08938133861826032,-0.2704574799960007,0.3154462197375125
1687009585.891611,0.08604370057582855,0.2691496014595032,-0.9592471122741699,0.0018621981143951416,-0.002120763063430786,-0.005367755889892578,-0.03703516721725464,-0.003414969425648451,-0.004995155148208141,0.08945978736881698,-0.27250994695126934,0.31552685074526055
1687009585.953788,0.08586669713258743,0.26938220858573914,-0.9591976404190063,-0.003484480082988739,0.013790398836135864,-0.009231865406036377,0.028940562158823013,0.0025181095115840435,-0.009297092445194721,0.08928130753888809,-0.2727514705694858,0.31513512722466397
1687009585.963387,0.08579641580581665,0.27024462819099426,-0.9589613080024719,0.0005836039781570435,-0.001369476318359375,0.010963261127471924,-0.07941689342260361,-0.0024440698325634003,-0.005931922234594822,0.08923048938147972,-0.27364711271589515,0.3148948374242356
1687009585.968141,0.08557303994894028,0.27233490347862244,-0.9583897590637207,-0.00306876003742218,0.008472591638565063,-0.0048975348472595215,0.005731869488954544,-0.0026077653747051954,0.002905844245105982,0.08905219845106926,-0.27581881473971714,0.31471105502375
1687009585.9760141,0.08560919016599655,0.27257758378982544,-0.9583175778388977,-0.0008466020226478577,-0.0035803616046905518,-0.004328906536102295,-0.039149411022663116,-0.0016404164489358664,-0.009757619351148605,0.08909629932058007,-0.27607106153205996,0.3143892594010486
1687009586.046163,0.08565742522478104,0.27381470799446106,-0.9579604864120483,0.006032660603523254,-0.005427837371826172,-0.00502169132232666,-0.04053642600774765,-1.6509322449564934e-05,-0.006799580529332161,0.08917927912259048,-0.2773571042077957,0.3141866300234451
1687009586.052462,0.08538520336151123,0.275605708360672,-0.9574710726737976,9.454786777496338e-05,-0.0023665428161621094,0.0004093050956726074,-0.03413929045200348,0.009605934843420982,-0.004303598776459694,0.08894256315782774,-0.2792197462391012,0.3138377364852909
1687009586.0572882,0.0852598324418068,0.27724769711494446,-0.9570080637931824,-0.0020841509103775024,0.0025222301483154297,-0.009269952774047852,-0.01225551962852478,-0.0018434380181133747,-0.00950548518449068,0.08885539219789251,-0.2809283263017823,0.3134696900568435
1687009586.067029,0.08540628105401993,0.277312695980072,-0.9569761753082275,-0.0009793862700462341,-0.004226118326187134,0.0031951069831848145,-0.018941741436719894,0.005629214458167553,-0.008338754065334797,0.0890101659905611,-0.2809959677498924,0.3131754186457693
1687009586.0966759,0.08508729934692383,0.278874009847641,-0.9565507769584656,-0.0023541301488876343,-0.0023084282875061035,0.00017571449279785156,-0.03436068817973137,-0.0033718261402100325,-0.01746281050145626,0.08871870106593659,-0.2826214136804911,0.31248414907417427
1687009586.16214,0.08464790880680084,0.2812836170196533,-0.9558840394020081,0.0022203996777534485,-0.0032531917095184326,-0.005984246730804443,-0.07812632620334625,-0.00902846921235323,-0.023490142077207565,0.08832418098673356,-0.28513147487167256,0.3116721919041352
1687009586.167319,0.0842280164361,0.28256264328956604,-0.9555438160896301,-0.0011591538786888123,0.009185433387756348,-0.005622565746307373,0.003769208677113056,0.0002521143760532141,-0.016252538189291954,0.08791944525078872,-0.2864645737301146,0.31087765285680347
1687009586.1721969,0.08429873734712601,0.2822968363761902,-0.9556161761283875,0.003973379731178284,-0.0013367235660552979,0.002140223979949951,0.003791623516008258,0.003276489209383726,-0.003365300828590989,0.08798625828631768,-0.28618748785631715,0.3103243579568935
1687009586.1851978,0.08396494388580322,0.2831481993198395,-0.9553936123847961,-0.004344567656517029,-0.0014556944370269775,-0.005070805549621582,-0.013649329543113708,-0.001660301350057125,-0.012062918394804,0.08765995496594027,-0.28707505999163374,0.3098302690264391
1687009586.219475,0.08406039327383041,0.2837430536746979,-0.9552087187767029,-0.00236482173204422,-0.0008755922317504883,0.007225990295410156,-0.025711096823215485,0.0006943768821656704,-0.00867397990077734,0.08777599815658192,-0.28769535711529187,0.3094624545762568
1687009586.282816,0.08405503630638123,0.2856961488723755,-0.9546268582344055,-0.004221037030220032,0.0004214346408843994,-0.0021602511405944824,-0.053503092378377914,0.008624648675322533,-0.005561609752476215,0.08782365600859735,-0.2897327740789761,0.3093463865842427
1687009586.2948542,0.08414452522993088,0.2881501615047455,-0.9538811445236206,0.00019081681966781616,-0.010913193225860596,-0.0015479326248168945,-0.08484872430562973,0.0003042237367480993,-0.031130420044064522,0.08798505419110718,-0.29229448656773876,0.3086593116950815
1687009586.3001451,0.08374790102243423,0.29137858748435974,-0.9529348611831665,0.002861008048057556,0.009143292903900146,-0.002753615379333496,-0.05073917657136917,-0.006623635068535805,-0.020130963996052742,0.08765896177604965,-0.29566763259068335,0.3078867701262344
1687009586.3036141,0.08350270986557007,0.29214632511138916,-0.9527212977409363,0.0008784085512161255,0.011091619729995728,-0.005027115345001221,0.018122093752026558,0.004681306425482035,-0.004458794370293617,0.08742312520746758,-0.2964703093238771,0.30726711346154884
1687009586.579562,0.08343946933746338,0.29231008887290955,-0.9526765942573547,0.004405401647090912,0.0014368891716003418,-0.0022947192192077637,-0.014978823252022266,0.0008605581242591143,-0.004376836121082306,0.08736132436665103,-0.29664153086768014,0.3070074960124525
1687009586.5876799,0.08318934589624405,0.29297104477882385,-0.9524953961372375,-0.0008071288466453552,-0.00027695298194885254,-0.0012704133987426758,0.0008008492877706885,-0.0005843841936439276,-0.010890394449234009,0.0871172529865252,-0.2973327687584291,0.3064896013036027
1687009586.5930572,0.08320054411888123,0.29316455125808716,-0.9524348974227905,-0.0014744475483894348,0.0012690722942352295,0.0012935400009155273,-0.0062527102418243885,0.0068601276725530624,-0.004642486572265625,0.087134429837866,-0.2975351576157847,0.306122973500514
1687009586.597443,0.08303255587816238,0.2938631474971771,-0.9522342085838318,0.0029049664735794067,3.641843795776367e-05,-0.0025081634521484375,-0.021757323294878006,-0.005155433900654316,-0.012950949370861053,0.08697761555229272,-0.29826595002214656,0.3057757090746158
1687009586.642047,0.08249008655548096,0.2951795756816864,-0.9518741369247437,-0.005646809935569763,0.003007739782333374,-0.009475290775299072,-0.03519066423177719,-0.01637204736471176,-0.023028217256069183,0.08644473379105601,-0.29964344815171173,0.3051285485558631
1687009586.650707,0.08244568109512329,0.2953677177429199,-0.951819658279419,0.0023626908659934998,0.006969958543777466,-0.015908002853393555,0.012364871799945831,0.002306033158674836,0.002148507861420512,0.08640335377574328,-0.29984037698419275,0.30478163114098944
1687009586.681567,0.08266212046146393,0.29584720730781555,-0.951651930809021,0.0037484094500541687,-0.00017765164375305176,-0.0038533806800842285,-0.020393341779708862,0.004761201329529285,-0.002507496625185013,0.08664424380878293,-0.300342320517002,0.30475013823317704
1687009586.689345,0.08248499780893326,0.29703280329704285,-0.9512979388237,-0.0004689842462539673,-0.003667294979095459,-0.0010488629341125488,-0.04007925093173981,-0.01313248835504055,-0.011112703010439873,0.0864915266679876,-0.3015837012484705,0.30436810005595893
1687009586.693497,0.08233042061328888,0.29682841897010803,-0.9513751268386841,-0.0023743510246276855,0.0010842084884643555,0.003666996955871582,0.010544334538280964,0.0031071121338754892,-0.0016250582411885262,0.08632328053803032,-0.3013696552694898,0.3039828575701273
1687009586.69649,0.08241822570562363,0.2977532148361206,-0.951078474521637,0.0017492696642875671,-0.0017326772212982178,-0.0016803145408630371,-0.02909393236041069,0.0067102801986038685,0.0025335343088954687,0.08644170032457228,-0.30233824237108836,0.30426106971489136
1687009586.6991549,0.0824885219335556,0.2981606721878052,-0.950944721698761,-0.002532452344894409,-0.0003548562526702881,0.0007341504096984863,-0.007051347754895687,-0.003118382068350911,-0.005073052830994129,0.08652717117242921,-0.30276508436590965,0.3041549049327253
1687009586.7067308,0.08235041052103043,0.3005768656730652,-0.9501957297325134,-0.003111504018306732,0.0014098286628723145,-0.003173351287841797,-0.08646241575479507,-0.00540710287168622,-0.0104525713250041,0.0864507681713955,-0.30529743960004935,0.30397953818373413
1687009586.7631822,0.08232874423265457,0.30166319012641907,-0.9498533010482788,0.0013047009706497192,0.01651310920715332,-0.008505463600158691,0.01780504360795021,0.0065790750086307526,0.00468510203063488,0.08645914003368305,-0.30643661675080347,0.3036955943994415
1687009586.7668839,0.08243901282548904,0.30169183015823364,-0.9498346447944641,-0.0014758557081222534,0.008061617612838745,-0.005991160869598389,0.009916272014379501,0.010042072273790836,-0.00372469425201416,0.08657605630692562,-0.3064666618878361,0.30367969877274775
1687009586.7693892,0.08267731964588165,0.30202463269233704,-0.9497081637382507,-0.001622617244720459,0.0022966861724853516,0.0029765963554382324,-0.004318056628108025,0.006356789730489254,0.005260411649942398,0.08683657845618645,-0.3068157680301089,0.3036919606212111
1687009586.771848,0.08281286060810089,0.30260300636291504,-0.949512243270874,0.0013393759727478027,-0.0010282695293426514,0.0048406124114990234,-0.026060858741402626,0.0059249140322208405,0.007910056971013546,0.08699607677853688,-0.3074225211685208,0.30376113297133345
1687009586.777338,0.08310431987047195,0.30350497364997864,-0.949198842048645,0.0014141276478767395,-0.00872039794921875,-0.0008438825607299805,-0.034434325993061066,-0.0002668467350304127,-0.006443781778216362,0.08732938930066161,-0.3083690135447032,0.30382245835328753
1687009586.791722,0.0833873376250267,0.30457720160484314,-0.9488304853439331,0.000658087432384491,0.004352271556854248,-0.008902668952941895,-0.017521211877465248,0.007768797688186169,-9.414006490260363e-05,0.08765911993067023,-0.30949450808624057,0.3038043890256439
1687009586.845391,0.08373362571001053,0.3056008815765381,-0.9484707713127136,0.0019292384386062622,0.004137307405471802,-0.009903252124786377,-0.029057402163743973,0.0073977308347821236,0.006495319306850433,0.08805447835837621,-0.3105694493985323,0.304047322143245
1687009586.879243,0.08405310660600662,0.3059076964855194,-0.9483435750007629,0.0027541518211364746,0.004868060350418091,-0.006581902503967285,0.016727261245250702,0.004664528649300337,0.002915431745350361,0.08840049762018863,-0.31089169523856214,0.3041475298886594
1687009586.882402,0.08424064517021179,0.30598175525665283,-0.9483030438423157,0.004168801009654999,-0.0016909539699554443,0.00022876262664794922,-0.0253665279597044,-0.0007155891507863998,0.00718148285523057,0.08860047097500247,-0.3109694784166566,0.304361039373007
1687009586.885096,0.08421709388494492,0.306378036737442,-0.9481772184371948,-0.002567291259765625,0.009555250406265259,-0.004535794258117676,0.029231736436486244,0.004651745315641165,0.01066063717007637,0.08858752457515517,-0.31138573325230745,0.30445886322886534
1687009586.890604,0.08454444259405136,0.3054274022579193,-0.9484546780586243,-0.0009415149688720703,-0.0019300580024719238,0.007353663444519043,0.01048179529607296,0.008964557200670242,0.0065847355872392654,0.0889041699372608,-0.31038726029643704,0.3047459692250382
1687009586.893054,0.08494295179843903,0.30540403723716736,-0.9484266638755798,-0.001950383186340332,-0.001189500093460083,0.002351224422454834,0.004123986233025789,0.0013832480181008577,0.009715480729937553,0.08932364078887826,-0.31036269532440314,0.30509983112963585
1687009586.972869,0.08506336063146591,0.30446550250053406,-0.9487175345420837,0.001209847629070282,0.00797349214553833,-0.006757259368896484,0.021607816219329834,-0.0017522694543004036,0.008592424914240837,0.08942230513041337,-0.30937722623018454,0.3054189112574623
1687009586.999542,0.08529281616210938,0.3026713728904724,-0.9492708444595337,-0.003444656729698181,0.014467328786849976,-0.010293304920196533,0.09881401062011719,0.012026838026940823,-0.0015579464379698038,0.0896102432666203,-0.30749425902347205,0.3056826118663481
1687009587.11708,0.08597037941217422,0.29856741428375244,-0.9505085945129395,0.007794901728630066,-0.0017381608486175537,-0.006186962127685547,0.1129278764128685,0.007738970685750246,0.013119799084961414,0.09020128109394936,-0.30319126123385687,0.30554975353825253
1687009587.162612,0.08601773530244827,0.29256096482276917,-0.9523702263832092,0.011333361268043518,-0.019459128379821777,0.0075002312660217285,0.04633406922221184,0.01499714981764555,-0.0006111263064667583,0.09007523370179514,-0.29690389072969803,0.3048275470349168
1687009587.1695771,0.08648531138896942,0.2897059917449951,-0.9532002806663513,0.01095733791589737,0.01461532711982727,0.010191857814788818,0.10742898285388947,0.009356575086712837,-0.0038069861475378275,0.09048377034264918,-0.2939196320754501,0.30499711470347984
1687009587.178594,0.08644703775644302,0.2854200005531311,-0.9544958472251892,-0.0009367689490318298,0.0043444037437438965,0.0020575523376464844,0.07714670896530151,-0.008966771885752678,0.015090139582753181,0.09032184499603599,-0.2894446174632918,0.30498954503455156
1687009587.24317,0.08598891645669937,0.2827741801738739,-0.9553244113922119,0.014780141413211823,0.024278461933135986,-0.023374319076538086,0.12572205066680908,-0.00024074758403003216,0.019788220524787903,0.08976826899297194,-0.28668510082574766,0.3049186495970485
1687009587.304411,0.08596876263618469,0.2792559564113617,-0.9563605189323425,0.0028068870306015015,-0.011128485202789307,-0.005355119705200195,0.028519518673419952,-0.01109011098742485,0.0018528969958424568,0.08965062996911151,-0.28301913612321594,0.3049795506107557
1687009587.3953319,0.08588340878486633,0.27829304337501526,-0.9566488265991211,-0.003806367516517639,0.01710188388824463,-0.01498502492904663,0.04221775382757187,-0.009445609524846077,0.00013103021774441004,0.08953524599535816,-0.2820164886463718,0.30505035588967494
1687009587.4274879,0.08634354919195175,0.2750140428543091,-0.9575552940368652,0.004858247935771942,0.0024518072605133057,-0.0036873817443847656,0.08118854463100433,0.001812016824260354,0.013903368264436722,0.08992762784892881,-0.2786042942904311,0.30528601590037624
1687009587.454208,0.08634857833385468,0.2717363238334656,-0.9584901332855225,0.0036172568798065186,-0.0062486231327056885,0.004205465316772461,0.04795566573739052,0.009762972593307495,0.015571040101349354,0.08984559180903069,-0.2751967975780081,0.305549370069866
1687009587.479107,0.08660253882408142,0.2691349983215332,-0.959200918674469,-0.00911838561296463,0.0026698410511016846,0.005343496799468994,0.07293163239955902,0.010063732042908669,0.016663001850247383,0.09004199642779168,-0.2724947825329835,0.30594020844375514
1687009587.541696,0.0869506299495697,0.2666430175304413,-0.959865152835846,-0.005102470517158508,0.008381426334381104,0.0038409829139709473,0.05645807459950447,0.006684625055640936,0.010645522736012936,0.09033973378124562,-0.2699082553321899,0.3065893953474774
1687009587.61588,0.08730010688304901,0.26491832733154297,-0.9603108763694763,0.0028640925884246826,0.001530677080154419,-0.005631506443023682,0.016073811799287796,-0.006789816543459892,0.020379243418574333,0.09065897783350756,-0.2681192368170076,0.3072910555302903
1687009587.675149,0.08738724142313004,0.26384156942367554,-0.9605993628501892,0.0046385303139686584,0.006239026784896851,-0.012117922306060791,0.017142493277788162,0.0011772080324590206,0.014858842827379704,0.09072186755645334,-0.2670027311471111,0.30808524162944895
1687009587.6966782,0.08782967925071716,0.262139230966568,-0.9610249400138855,-6.110966205596924e-05,-0.0042504072189331055,-0.000950157642364502,0.03524715080857277,0.00899802427738905,0.0188206285238266,0.09113849633229788,-0.2652382932587103,0.3086549890597569
1687009587.754455,0.08815088868141174,0.26064884662628174,-0.9614008665084839,0.0030509158968925476,0.0025805532932281494,0.0012873411178588867,0.03246654197573662,9.001698344945908e-05,0.01600033976137638,0.091434384006141,-0.2636942328365536,0.3093899166730134
1687009587.8188372,0.08803290873765945,0.25984928011894226,-0.9616280794143677,-0.0005542561411857605,0.000923454761505127,0.0014230012893676758,-0.0023997374810278416,-0.0074641285464167595,0.01764923706650734,0.09129123749531715,-0.2628661157011943,0.31002215593595345
1687009587.880515,0.08796098083257675,0.2596856951713562,-0.9616788625717163,0.003057718276977539,0.003421604633331299,8.940696716308594e-06,0.016429033130407333,0.002600401174277067,0.01803239807486534,0.09121226852221404,-0.2626967322311663,0.3108536230293384
1687009587.8878741,0.08818966895341873,0.25908219814300537,-0.961820662021637,-0.002725176513195038,0.002743363380432129,-0.004304826259613037,0.02113998681306839,0.005099156871438026,0.019314313307404518,0.09143468432686219,-0.2620718492231624,0.3116862881409965
1687009587.9630508,0.08843394368886948,0.2583482265472412,-0.9619956612586975,0.0009368062019348145,0.0019362270832061768,-0.00899738073348999,0.00714325625449419,0.00391280697658658,0.012336097657680511,0.09166994369330415,-0.2613119965938517,0.31245227221606403
1687009587.997463,0.08853767067193985,0.25829535722732544,-0.96200031042099,0.007867380976676941,0.0008446872234344482,-0.0036063790321350098,0.007136554457247257,-0.003918839152902365,0.01176837831735611,0.09177642253659986,-0.2612572669842414,0.3131252846240749
1687009588.051214,0.08830025792121887,0.25822463631629944,-0.9620411396026611,-0.006268985569477081,-0.005325436592102051,0.007161378860473633,-0.013806012459099293,0.0012221266515552998,0.010568756610155106,0.09152783865824209,-0.26118406515820247,0.31352113871222864
1687009588.1115022,0.08879097551107407,0.2585847079753876,-0.9618992209434509,0.0017241835594177246,-0.0076233744621276855,-4.5359134674072266e-05,-0.004038425162434578,0.006693147122859955,0.012478376738727093,0.09204713314729437,-0.2615567804027844,0.31429668483887024
1687009588.1422892,0.08902279287576675,0.25913798809051514,-0.9617288708686829,-3.35201621055603e-05,-0.006193041801452637,0.006269335746765137,-0.024213379248976707,-0.00024074758403003216,0.0072885421104729176,0.09230234307207932,-0.2621295819359389,0.3151145980643
1687009588.169508,0.08911220729351044,0.2607799172401428,-0.9612767100334167,-0.0012673437595367432,0.012550801038742065,3.403425216674805e-05,-0.028271637856960297,0.006555639207363129,0.014721091836690903,0.09243774652735157,-0.2638299856702961,0.31565924464170797
1687009588.27074,0.08933045715093613,0.26117268204689026,-0.9611497521400452,-0.001332998275756836,-0.009890913963317871,-0.012818694114685059,-0.01928839460015297,-0.00518543878570199,0.0009334406349807978,0.09267501128653237,-0.26423684969279243,0.31621387138275037
1687009588.283546,0.0891963392496109,0.2618556320667267,-0.9609764218330383,0.00176132470369339,-0.0018000602722167969,-0.00801771879196167,-0.024629542604088783,-0.002639279467985034,-0.0038814214058220387,0.09255326470948505,-0.264944433536272,0.3162188487745917
1687009588.346549,0.08904469758272171,0.26209110021591187,-0.9609262943267822,0.0036677196621894836,-0.0005706846714019775,-0.009914159774780273,0.006137290969491005,-0.0013905230443924665,0.004733704961836338,0.09240160708543807,-0.265188409741959,0.3163887333750103
1687009588.398079,0.08912613242864609,0.26181668043136597,-0.9609935283660889,0.002808094024658203,0.0009396970272064209,-0.002171754837036133,0.003937875386327505,0.006347735412418842,0.006519620306789875,0.09247919090120832,-0.2649040571031951,0.31667658165941887
1687009588.4489489,0.08908798545598984,0.2624852955341339,-0.9608146548271179,-0.0013194233179092407,-0.003024846315383911,-0.0015265941619873047,-0.012467995285987854,-0.006390697322785854,0.005832258611917496,0.09245695120397886,-0.2655969092082387,0.31699691911927574
1687009588.4743981,0.0888293981552124,0.2638055682182312,-0.9604769349098206,-0.0020373985171318054,0.0009191632270812988,-0.003344416618347168,-0.019394345581531525,-0.001704598544165492,0.0008755836170166731,0.09222233590275009,-0.2669654272504246,0.31701180121335204
1687009588.565052,0.08896105736494064,0.26397863030433655,-0.9604172110557556,-0.0030693188309669495,-0.0010239183902740479,0.0008225440979003906,-0.018784701824188232,-0.0031948150135576725,0.005290372297167778,0.09236395644517864,-0.26714482482407764,0.3172718885720787
1687009588.577704,0.0890527218580246,0.26406314969062805,-0.9603855013847351,0.007749058306217194,-0.007501840591430664,-0.008684933185577393,-0.013243241235613823,0.0028158510103821754,-0.005841574631631374,0.09246162355907885,-0.26723245721551125,0.31737789038859304
1687009588.654985,0.08911900967359543,0.2665790319442749,-0.9596840143203735,-0.0033340826630592346,0.0032421350479125977,-0.01390296220779419,-0.06037924066185951,5.5662356317043304e-05,0.002671219874173403,0.09259730275426659,-0.26984186384879894,0.3174167537352657
1687009588.680851,0.08932775259017944,0.26801013946533203,-0.959265947341919,-0.007250703871250153,-0.014515876770019531,-0.014443159103393555,-0.0379813015460968,-0.008100357837975025,0.034758251160383224,0.09285317244240951,-0.27132702926243674,0.3189113730257582
1687009588.718154,0.08880861848592758,0.26972195506095886,-0.9588342308998108,0.017667226493358612,0.0001755356788635254,0.007158815860748291,-0.042568862438201904,-0.0036552755627781153,-0.0078511293977499,0.09235795103966968,-0.2731042785232388,0.3198529218667485
1687009588.773391,0.08805432170629501,0.27017298340797424,-0.9587768316268921,0.00450550764799118,-0.0054787397384643555,-0.0011078119277954102,-0.004176775924861431,-0.013562588952481747,0.0110657699406147,0.09158335442842391,-0.27357269572847687,0.31978460855275553
1687009588.819011,0.0884278193116188,0.27128252387046814,-0.9584290981292725,0.005444273352622986,-0.002712547779083252,0.003335714340209961,-0.022533990442752838,-0.004597945138812065,-0.005932321771979332,0.09200281857447946,-0.2747252604467624,0.3203128361653467
1687009588.8738241,0.08800355345010757,0.273335337638855,-0.9578847289085388,0.004312135279178619,-0.006260722875595093,0.0030050277709960938,-0.07413002848625183,-0.01656876504421234,0.004750216379761696,0.09161561382235352,-0.2768586996802904,0.32053999961042173
1687009588.937396,0.08771482855081558,0.27658912539482117,-0.9569767713546753,-0.004325531423091888,0.01914149522781372,-0.019112706184387207,-0.04307468235492706,-0.006455766968429089,-0.004269843455404043,0.09140287020176555,-0.2802429345647336,0.32066404414844024
1687009588.97982,0.08763070404529572,0.27747005224227905,-0.9567294716835022,0.0029149726033210754,-0.005665212869644165,0.00040012598037719727,-0.032991159707307816,-0.0050757164135575294,-0.005402885377407074,0.09133916575324531,-0.2811597482414509,0.3206865788732195
1687009589.037386,0.08717522025108337,0.27988550066947937,-0.9560672640800476,0.00686471164226532,-0.0023128390312194824,4.309415817260742e-05,-0.06880322098731995,-0.0018690042197704315,-0.0024447792675346136,0.09092961809944829,-0.2836748491608806,0.3204734706120329
1687009589.0735068,0.08715052902698517,0.2821265757083893,-0.9554105997085571,-0.008216798305511475,0.0061730146408081055,0.0001341104507446289,-0.02368793822824955,0.0029049781151115894,-0.0033220243640244007,0.09096613935148265,-0.2860099996351348,0.3203173940685008
1687009589.169369,0.08697038888931274,0.2842687666416168,-0.9547918438911438,-0.0027265995740890503,-0.0017217397689819336,0.002002537250518799,-0.05141410604119301,-0.0002375519834458828,-0.01365708652883768,0.0908376527319175,-0.2882436503650855,0.32015245928495856
1687009589.181106,0.08662597090005875,0.28578296303749084,-0.9543710350990295,-0.0023821741342544556,0.003569483757019043,0.001596987247467041,-0.019363585859537125,-0.001031084917485714,-0.005820868536829948,0.09051955645551137,-0.2898233612965274,0.3197075323790075
1687009589.2417321,0.08648744970560074,0.2878291606903076,-0.9537684917449951,-0.0020147785544395447,0.02091720700263977,-0.012143373489379883,-0.018429791554808617,-0.00259604724124074,-0.003209239337593317,0.0904323844821541,-0.29195930962095207,0.319609090528639
1687009589.282764,0.08657975494861603,0.28928810358047485,-0.9533185958862305,0.002089090645313263,0.012332409620285034,-0.013859748840332031,-0.012184413149952888,0.0039044625591486692,-0.008659930899739265,0.09057085921381751,-0.29348305094888233,0.31940974916137593
1687009589.3204908,0.08632431924343109,0.2913656532764435,-0.9527088403701782,0.0055793821811676025,0.0022897422313690186,-0.011951744556427002,-0.05692170187830925,-0.00828012079000473,-0.023119164630770683,0.09036258236904648,-0.2956541116093443,0.3189279969257747
1687009589.382415,0.08608507364988327,0.2934304177761078,-0.9520966410636902,0.005009911954402924,-0.0090523362159729,-0.010458290576934814,-0.06354089826345444,-0.00018100440502166748,-0.014268948696553707,0.09017113632860733,-0.2978132461177205,0.31831643670452653
1687009589.470501,0.08623761683702469,0.2947767972946167,-0.9516668319702148,-0.005442306399345398,-0.0027540624141693115,0.0007390975952148438,-0.02299906685948372,0.004387648776173592,-0.014121275395154953,0.09037062395179207,-0.2992219209843079,0.31773253775426896
1687009589.482113,0.08626271784305573,0.2956814765930176,-0.9513838291168213,0.002848617732524872,-0.003460407257080078,0.0024550557136535645,-0.019284667447209358,0.005374793894588947,-0.009456749074161053,0.09042352797968131,-0.3001688059600448,0.31722740703445795
1687009589.523872,0.0860927551984787,0.2964600920677185,-0.9511569142341614,-0.004107259213924408,0.002047628164291382,0.011215507984161377,-0.03307637944817543,0.008864067494869232,-0.014903312548995018,0.09026774448841055,-0.30098396320810833,0.31645236705292273
1687009589.5639,0.08617890626192093,0.29693612456321716,-0.9510005712509155,0.0002926737070083618,-0.0012055039405822754,0.006298482418060303,-0.0169055312871933,0.0012253224849700928,-0.0035764228086918592,0.09037235575698009,-0.30148247032702846,0.31588632871790356
1687009589.6392422,0.0863373875617981,0.2977358400821686,-0.9507361650466919,0.0008513480424880981,0.0024350881576538086,-0.0026482343673706055,-0.016926482319831848,0.01013670302927494,-0.009260540828108788,0.0905626906772955,-0.30232005586382965,0.31572966737447616
1687009589.736096,0.08663218468427658,0.2989433705806732,-0.9503303170204163,-0.00690498948097229,-0.00434190034866333,0.0025916695594787598,-0.017839770764112473,0.008602012880146503,-0.011933822184801102,0.09090880587259038,-0.3035851987764124,0.31533094090043884
1687009589.7781491,0.08675862103700638,0.29989513754844666,-0.9500188827514648,-0.0021638795733451843,-0.0008838474750518799,-0.012871742248535156,-0.011362428776919842,0.004153201822191477,-0.014397112652659416,0.09107043892941573,-0.30458271525024017,0.31501952420253854
1687009589.785973,0.08679737150669098,0.30002763867378235,-0.9499735236167908,-0.004720322787761688,-0.0007722377777099609,0.0039896368980407715,-0.010816702619194984,0.0074020810425281525,-0.00473003787919879,0.09111521598717434,-0.30472161294760636,0.3145134734122361
1687009589.817327,0.08662846684455872,0.300991028547287,-0.9496840834617615,-0.007862582802772522,0.0170021653175354,-0.00316619873046875,0.020406508818268776,0.0024444288574159145,-0.003993340767920017,0.09096644786490557,-0.3057317191332016,0.3140391153453116
1687009589.864841,0.08705630898475647,0.30123716592788696,-0.9495669603347778,-0.0005999952554702759,0.006303757429122925,0.000531315803527832,-0.026795845478773117,0.012859607115387917,-0.0027865958400070667,0.09142444018630984,-0.3059898130213982,0.31385583425510016
1687009589.9105859,0.08715678751468658,0.30161285400390625,-0.9494384527206421,0.006318569183349609,0.00312042236328125,-0.0010467171669006348,-0.01287159789353609,-0.00046409829519689083,-0.015379752963781357,0.09154168464600651,-0.30638382762536515,0.31337228916446613
1687009589.976958,0.08707699179649353,0.30291473865509033,-0.9490312337875366,0.0013477131724357605,-0.0006228387355804443,-0.007023453712463379,-0.035389602184295654,-0.0013957605697214603,-0.008401071652770042,0.09149736846397233,-0.3077496115595816,0.3128880861982374
1687009590.013639,0.08690299093723297,0.3035542964935303,-0.9488428235054016,0.0030475929379463196,-0.00040790438652038574,-0.006097972393035889,-0.014004550874233246,0.0010556790512055159,-0.014927481301128864,0.09133358068447656,-0.308420752846161,0.31231667651906975
1687009590.067428,0.08709115535020828,0.3036124110221863,-0.9488069415092468,0.0027983933687210083,-0.007210403680801392,0.00030535459518432617,-0.023260099813342094,0.0011440962553024292,-0.007135471329092979,0.09153367752410933,-0.3084817572772967,0.31196629770677864
1687009590.1094952,0.08709147572517395,0.3053090274333954,-0.9482623338699341,-0.00011636316776275635,-0.0015065371990203857,-0.0007122159004211426,-0.03325188159942627,0.008445152081549168,-0.00685270968824625,0.09158628918611954,-0.31026292398920113,0.3117085251416033
1687009590.16917,0.0874074175953865,0.3066890239715576,-0.9477878212928772,0.0005137398838996887,-0.0005671679973602295,0.0016056299209594727,-0.05048329010605812,0.007313397713005543,-0.004198670387268066,0.09196243104310323,-0.3117124548076437,0.31163892004263855
