Timestamp,gravityX,gravityY,gravityZ,accelerationX,accelerationY,accelerationZ,rotationRateX,rotationRateY,rotationRateZ,attitudeRoll,attitudePitch,attitudeYaw
1687001239.0642362,-0.06657177954912186,0.27623602747917175,-0.9587814211845398,0.001981295645236969,0.00878286361694336,-0.01010584831237793,0.014716126024723053,-0.003609822131693363,-0.001852196641266346,-0.06932247885392694,-0.2798755304680365,-2.122135822789097
1687001239.082928,-0.06682520359754562,0.2760251760482788,-0.9588245153427124,-0.002571798861026764,0.0022340714931488037,0.014961659908294678,0.008021870627999306,-0.00286759901791811,-0.006803545635193586,-0.06958240911452872,-0.27965615751060646,-2.1222849616627943
1687001239.124654,-0.06684829294681549,0.2756909728050232,-0.9589190483093262,0.008193470537662506,-0.009043633937835693,0.004298746585845947,0.003560543293133378,-0.007762488909065723,-0.010458734817802906,-0.06959953200917682,-0.2793084599740543,-2.1226287194452857
1687001239.214631,-0.06735605746507645,0.2756001949310303,-0.9589096307754517,0.003421686589717865,-0.0032918453216552734,0.01345980167388916,0.02490704320371151,-0.007901372388005257,0.007157543674111366,-0.07012715639243726,-0.27921402107427534,-2.1227213972417625
1687001239.229898,-0.06772128492593765,0.2741566002368927,-0.9592976570129395,-0.003140568733215332,0.0016154944896697998,-0.007087230682373047,0.030306603759527206,-0.0037921154871582985,0.006466187536716461,-0.07047773398532667,-0.2777125911678336,-2.1222798370765594
1687001239.2716908,-0.0672827884554863,0.2737102508544922,-0.9594559669494629,-0.005562707781791687,0.0041217803955078125,-0.00850057601928711,0.00743297953158617,0.0131373330950737,-0.011641977354884148,-0.07001136225245533,-0.27724847786770096,-2.122703344375811
1687001239.366722,-0.06690006703138351,0.273585706949234,-0.9595182538032532,0.0016381889581680298,-0.0001482069492340088,-0.011551082134246826,-0.01075674407184124,0.004916554316878319,-0.007305285427719355,-0.06960991060921838,-0.2771190123035784,-2.1232653356529907
1687001239.383957,-0.06713744252920151,0.2739357352256775,-0.9594017863273621,-0.00569278746843338,0.00430828332901001,0.00023430585861206055,-0.025302262976765633,3.684451803565025e-05,0.0016107112169265747,-0.06986455214011544,-0.2774829187860699,-2.1232665832841473
1687001239.420697,-0.0666327029466629,0.27556195855140686,-0.9589711427688599,0.002194806933403015,-0.017078101634979248,0.006670176982879639,-0.07185804843902588,0.02243109978735447,-0.0017368821427226067,-0.06937203407135005,-0.27917425194056844,-2.1233213688777473
1687001239.515698,-0.06637600809335709,0.27799278497695923,-0.9582871198654175,0.0011141225695610046,-0.0004048943519592285,0.00801551342010498,-0.03406612575054169,-0.0024565402418375015,0.0036682691425085068,-0.0691548069956965,-0.2817038934023789,-2.1235462780095817
1687001239.532483,-0.06560168415307999,0.2799842953681946,-0.9577605128288269,-0.0008198469877243042,-0.004349559545516968,-0.0021393299102783203,-0.06009805575013161,0.028805643320083618,0.005398258566856384,-0.06838805911726939,-0.28377774253579074,-2.1235983922061217
1687001239.570775,-0.06514598429203033,0.2821909189224243,-0.9571437835693359,-0.00209953635931015,-0.003809601068496704,-0.002588212490081787,-0.03631995990872383,-4.2384606786072254e-05,-0.005347595550119877,-0.06795809212464538,-0.2860770934034393,-2.1239521615993215
1687001239.665679,-0.06446226686239243,0.2849258780479431,-0.9563795328140259,0.001443430781364441,0.0028396248817443848,-0.014445602893829346,-0.08044068515300751,0.021713243797421455,-0.01129869557917118,-0.06730059314504803,-0.28892908810816487,-2.1245837607155016
1687001239.6822371,-0.0638662576675415,0.2869240343570709,-0.9558219909667969,-0.0015176907181739807,0.013857215642929077,-0.002201080322265625,-0.02329510636627674,0.012271006591618061,-0.0018013305962085724,-0.0667189765574119,-0.29101432111316367,-2.124892482118726
1687001239.7218862,-0.06304478645324707,0.2877693772315979,-0.9556223750114441,0.004542551934719086,0.0009574294090270996,0.0019480586051940918,-0.029101062566041946,0.015983186662197113,-0.0028317077085375786,-0.06587702647347214,-0.2918968727389075,-2.124694936303308
1687001239.8136392,-0.0627952292561531,0.29002389311790466,-0.9549570083618164,0.006948024034500122,-0.014114469289779663,0.013123512268066406,-0.047733936458826065,0.010741420090198517,-0.002063917927443981,-0.06566259527000895,-0.29425180001717105,-2.124918989559782
1687001239.820251,-0.06248979642987251,0.2920686900615692,-0.9543536305427551,-0.0026805251836776733,-0.0034487247467041016,0.0025867223739624023,-0.03481653705239296,0.012827474623918533,0.008345313370227814,-0.0653853175166713,-0.2963891278191053,-2.1247862679576404
1687001239.87308,-0.062118757516145706,0.29319706559181213,-0.9540318250656128,-0.00251750648021698,0.0022893548011779785,0.006644189357757568,-0.006806676741689444,0.00790209136903286,0.007374856621026993,-0.06502004828799676,-0.29756917201018873,-2.1245134574029096
1687001239.965183,-0.06179407984018326,0.2936351001262665,-0.9539182186126709,-0.007190946489572525,0.01221206784248352,-0.0202639102935791,-0.011084112338721752,0.007342827040702105,0.01139756292104721,-0.06468883841877775,-0.29802734912252166,-2.1241351080587534
1687001239.982568,-0.06144910305738449,0.29350215196609497,-0.9539813995361328,-0.005552276968955994,0.01580876111984253,-0.007917404174804688,0.01620776206254959,0.012018406763672829,-0.0009672287851572037,-0.06432445022752838,-0.29788828715003907,-2.1238544196893634
1687001240.020999,-0.0602567084133625,0.29163986444473267,-0.9546283483505249,0.003188803791999817,0.008134275674819946,-0.010718882083892822,0.03862578421831131,0.025749798864126205,-0.0229196660220623,-0.06303696495885214,-0.29594078236748406,-2.1238730629479496
1687001240.1165109,-0.05991598218679428,0.2909057140350342,-0.95487380027771,0.008661668747663498,-0.01418757438659668,0.01789259910583496,0.01976514607667923,0.015312337316572666,-0.005688214208930731,-0.06266538534391175,-0.2951733547472818,-2.1240296306609943
1687001240.133654,-0.05972001701593399,0.29073065519332886,-0.9549393653869629,0.0026063360273838043,-0.004613131284713745,0.006193697452545166,-0.009092400781810284,-0.005981100723147392,0.007105877622961998,-0.06245668264073989,-0.29499039858862414,-2.123867471537374
1687001240.1719332,-0.06029798835515976,0.29123055934906006,-0.9547507166862488,-0.001118674874305725,0.0025469064712524414,-0.0014412999153137207,0.003998766653239727,-0.02613670378923416,0.012305965647101402,-0.0630719732100066,-0.29551291607482894,-2.123524943370469
1687001240.266037,-0.06118428707122803,0.29050248861312866,-0.9549161195755005,-0.002048179507255554,0.005426466464996338,-0.009469866752624512,0.022808074951171875,-0.019743118435144424,0.013938484713435173,-0.06398547715312498,-0.2947519180552411,-2.122789708831298
1687001240.28156,-0.06100669130682945,0.2900906801223755,-0.9550526738166809,-0.005399599671363831,0.01564967632293701,-0.013407409191131592,0.00634720828384161,-0.00032521237153559923,0.000506298616528511,-0.06379115884615852,-0.2943216022969497,-2.1225606997809643
1687001240.320729,-0.06082330271601677,0.2894767224788666,-0.95525062084198,0.0021227076649665833,0.004148125648498535,-0.003367483615875244,0.012330932542681694,0.002364313928410411,-0.0010990547016263008,-0.0635867729126049,-0.2936801194066351,-2.1223686620658393
1687001240.416782,-0.06100354716181755,0.2891486883163452,-0.9553384780883789,-0.0003673359751701355,-0.005564093589782715,0.009873390197753906,0.008934869430959225,0.003308937419205904,-0.0001917155459523201,-0.06376885059944887,-0.2933374085277372,-2.122290778881569
1687001240.4294739,-0.0611850768327713,0.288471519947052,-0.9555315375328064,0.005002181977033615,-0.01230272650718689,0.011394023895263672,0.013135073706507683,-0.0010695657692849636,0.004852844402194023,-0.06394520331148333,-0.29263011218853274,-2.1220789187137763
1687001240.471163,-0.060913342982530594,0.2875685691833496,-0.9558210372924805,-0.0004727989435195923,0.001417607069015503,-0.002171456813812256,0.057393282651901245,0.009267627261579037,0.005482414737343788,-0.06364275055438298,-0.2916871971653359,-2.121933710364817
1687001240.5662742,-0.059204284101724625,0.27537107467651367,-0.959513247013092,0.00415053591132164,0.026829272508621216,0.002329409122467041,0.4655523896217346,0.007886777631938457,0.021370036527514458,-0.0616242887507177,-0.27897566412144753,-2.1210162693572157
1687001240.582182,-0.059860702604055405,0.24872125685214996,-0.9667235612869263,-0.00846819207072258,-0.009265080094337463,-0.01398932933807373,0.6367806196212769,0.05930282920598984,0.004436325281858444,-0.061842261057567766,-0.25135980156292914,-2.1183568180895755
1687001240.619876,-0.05266175419092178,0.22916413843631744,-0.9719622135162354,-0.0009729340672492981,-0.015647903084754944,0.0006029605865478516,0.1280425488948822,0.15765736997127533,-0.05340620130300522,-0.05412794167582519,-0.23121887936595495,-2.1208467357393674
1687001240.745806,-0.0504923090338707,0.21844880282878876,-0.9745412468910217,-0.01071072742342949,0.0005911290645599365,0.0036244988441467285,0.30758029222488403,0.04816509410738945,-0.007977200672030449,-0.05176507691688202,-0.22022459320368595,-2.1196461158478823
1687001240.7517362,-0.04745979607105255,0.20799022912979126,-0.9769788384437561,0.01511111855506897,0.00686877965927124,0.021702349185943604,0.19220875203609467,0.0446447916328907,-0.029597541317343712,-0.04853996209846889,-0.20951980767976497,-2.1200001856537285
1687001240.836318,-0.044869836419820786,0.19782254099845886,-0.979210376739502,-0.006231885403394699,0.005943328142166138,0.020897388458251953,0.24546277523040771,0.0952131599187851,-0.0120478430762887,-0.045790436564501893,-0.1991360701140936,-2.12073024188655
1687001240.853298,-0.0407756045460701,0.18223097920417786,-0.9824098944664001,-0.004008978605270386,0.00040146708488464355,0.003131389617919922,0.3417336046695709,0.10215349495410919,-0.02177130989730358,-0.04148188425553676,-0.18325494816996957,-2.1208953097247623
1687001240.923388,-0.03696298226714134,0.16443121433258057,-0.9856957793235779,-0.0010009221732616425,0.010434523224830627,-0.006217062473297119,0.38622403144836426,0.07851940393447876,-0.030394358560442924,-0.03748182041261672,-0.16518134154913194,-2.121153165033293
1687001240.937716,-0.03279406577348709,0.14485791325569153,-0.9889088869094849,-0.005825970321893692,0.01950976252555847,-0.008024096488952637,0.3967534899711609,0.0830686092376709,-0.07919492572546005,-0.03314971927044372,-0.1453693766780687,-2.1230053700517453
1687001241.013194,-0.03125268965959549,0.13150717318058014,-0.990822434425354,0.012362271547317505,-0.00907064974308014,0.0025107264518737793,0.19269850850105286,0.005712839774787426,-0.05649200826883316,-0.031531714953840516,-0.13188920355749212,-2.1264617590203967
1687001241.017685,-0.030549155548214912,0.12442992627620697,-0.9917579889297485,0.00502115860581398,-0.01226254552602768,0.0015083551406860352,0.08621833473443985,0.02926037646830082,-0.035464752465486526,-0.03079329764376396,-0.12475326934788215,-2.1287399780159917
1687001241.0741649,-0.029842711985111237,0.12169413268566132,-0.9921188950538635,0.006283102557063103,-0.009328402578830719,0.0086442232131958,0.007124385796487331,-0.006816800683736801,-0.0006226152181625366,-0.03007070684990838,-0.12199652012808807,-2.1295167185026886
1687001241.163396,-0.031113119795918465,0.12259822338819504,-0.99196857213974,0.002365516498684883,-0.001672305166721344,-0.0009208321571350098,-0.03803330659866333,-0.030113734304904938,0.0032695941627025604,-0.03135474591738423,-0.12290743534523375,-2.12958983925183
1687001241.169672,-0.032225243747234344,0.12341637909412384,-0.9918316006660461,-0.0031751878559589386,-0.004764027893543243,-0.009587407112121582,-0.018700353801250458,-0.03401393070816994,0.008223339915275574,-0.03247921276981588,-0.1237318498925922,-2.129431189249197
1687001241.222398,-0.033484622836112976,0.12429140508174896,-0.9916806221008301,-0.000145789235830307,-0.0029840171337127686,-0.007159709930419922,-0.020652251318097115,-0.021144874393939972,0.005415836349129677,-0.03375270972261322,-0.12461366531219156,-2.129083240823048
1687001241.3131151,-0.03306972607970238,0.12493518739938736,-0.9916136264801025,-0.006999894976615906,-0.0017204508185386658,0.001425027847290039,-0.011091369204223156,0.03409627825021744,-0.003936120308935642,-0.033337052052751795,-0.12526250710390052,-2.1288813688167867
1687001241.319052,-0.03188132867217064,0.12408048659563065,-0.9917598366737366,0.00031085312366485596,-0.003001987934112549,0.005965828895568848,0.0033966258633881807,0.01654125191271305,0.004548178985714912,-0.032135152189288675,-0.12440110293924016,-2.1285477127118066
1687001241.371581,-0.031948868185281754,0.12479567527770996,-0.9916679263114929,0.003094453364610672,-0.004419073462486267,0.01357954740524292,-0.03411739319562912,-0.008573820814490318,0.007391368970274925,-0.03220616438638047,-0.12512189694774353,-2.1283493411253525
1687001241.463536,-0.03216978907585144,0.1267034262418747,-0.9914188385009766,-0.006236620247364044,0.0014398843050003052,0.009393751621246338,-0.029084552079439163,0.008250432088971138,0.01571721024811268,-0.032436852286520976,-0.12704491545496074,-2.1279217572969413
1687001241.469658,-0.03169713541865349,0.12800946831703186,-0.9912663102149963,-0.0007583498954772949,0.0001033395528793335,-0.009527146816253662,-0.038895368576049805,-0.011847112327814102,0.021060308441519737,-0.03196551738326783,-0.12836166818531447,-2.127413056049597
1687001241.524864,-0.03305089846253395,0.13051937520503998,-0.9908947348594666,0.0008548088371753693,-8.723139762878418e-05,-0.014110147953033447,-0.07135018706321716,-0.038437843322753906,0.0227572750300169,-0.033342240089355143,-0.13089282306243633,-2.12638742396866
1687001241.612766,-0.03551322594285011,0.1358005404472351,-0.9900994896888733,0.00838305801153183,-0.018048450350761414,-0.002393186092376709,-0.19332195818424225,-0.09210919588804245,0.04558029770851135,-0.03585297116003735,-0.13622144616666323,-2.1250344727989097
1687001241.618907,-0.04005283862352371,0.14439606666564941,-0.988709032535553,-0.0003982558846473694,0.00265289843082428,0.010727465152740479,-0.12581269443035126,-0.07771001756191254,0.052739404141902924,-0.04048809921613976,-0.1449026231872232,-2.123292639020453
1687001241.67262,-0.04194198548793793,0.14721418917179108,-0.9882149696350098,-0.006611518561840057,0.0026576370000839233,0.02302032709121704,-0.048771437257528305,-0.035988934338092804,0.03575776517391205,-0.04241670909209421,-0.14775118256444314,-2.1211027865893173
1687001241.76178,-0.04296885058283806,0.1510455310344696,-0.9875924587249756,-0.0019378028810024261,0.005601212382316589,0.004606068134307861,-0.07089318335056305,-0.014708812348544598,0.037225961685180664,-0.043481263926401045,-0.15162585572744058,-2.1193536024505057
1687001241.768954,-0.045942552387714386,0.1563875526189804,-0.9866266846656799,0.011701788753271103,0.006530553102493286,-3.713369369506836e-05,-0.1314336210489273,-0.12464383244514465,0.040852658450603485,-0.04653167373301894,-0.15703213539026387,-2.1179517991148096
1687001241.822649,-0.051327526569366455,0.16095493733882904,-0.985626220703125,-0.01468203216791153,0.004816561937332153,-0.0103302001953125,-0.06738772988319397,-0.08737542480230331,0.026588497683405876,-0.05202905891158614,-0.16165813116269032,-2.1166970321379877
1687001241.916306,-0.05207609012722969,0.164778932929039,-0.984954833984375,-0.010607056319713593,-0.0053551048040390015,-0.01678466796875,-0.11603456735610962,0.007544028572738171,-0.001895606517791748,-0.052822368569766846,-0.16553388194978702,-2.1167314456175705
1687001241.9318419,-0.052210595458745956,0.16880884766578674,-0.9842650294303894,0.010203111916780472,-0.0033730417490005493,0.0022246241569519043,-0.08347215503454208,-0.011848444119095802,0.0009004464372992516,-0.05299559412855025,-0.16962105084218587,-2.1163374960351304
1687001242.032395,-0.05342726781964302,0.17161233723163605,-0.983714759349823,0.000570785254240036,-0.020199373364448547,0.016582250595092773,-0.07168394327163696,-0.037973254919052124,0.012328868731856346,-0.054258438350635416,-0.17246604786674027,-2.1158232419941725
1687001242.047975,-0.05510933697223663,0.17676383256912231,-0.9827092885971069,-0.008016306906938553,-0.007025048136711121,0.012326598167419434,-0.107620969414711,-0.009342808276414871,0.02083686925470829,-0.056020309351107384,-0.17769753164740804,-2.1152627306625
1687001242.123291,-0.05519907549023628,0.1814172863960266,-0.9818558096885681,-0.004356019198894501,0.0060979872941970825,-0.0008407235145568848,-0.07311099767684937,-0.0013420071918517351,0.018406735733151436,-0.05616000983775827,-0.18242745623339263,-2.1148617559790024
1687001242.137207,-0.055692173540592194,0.18430504202842712,-0.9812899827957153,-0.0018335022032260895,0.00406472384929657,-0.010256648063659668,-0.07620199769735336,-0.01604798249900341,0.012367485091090202,-0.05669322340877893,-0.1853647421286218,-2.1147819858059487
1687001242.213736,-0.056518856436014175,0.18983100354671478,-0.9801886677742004,-0.0021054521203041077,0.0012243092060089111,-0.01166313886642456,-0.15140268206596375,-0.03908552601933479,0.014806674793362617,-0.057597424443924385,-0.19099001882193078,-2.114609539471236
1687001242.2187319,-0.057020626962184906,0.19569948315620422,-0.9790048003196716,-0.003800947219133377,0.019022196531295776,-0.002501547336578369,-0.07433824241161346,-0.0012654413003474474,0.0069005489349365234,-0.058177736735743876,-0.19697068079278435,-2.114162403488639
1687001242.273436,-0.05687759071588516,0.19753287732601166,-0.978644847869873,-0.00017505884170532227,-0.003090113401412964,0.014228343963623047,-0.04244203492999077,0.0012132958509027958,-0.0032037505879998207,-0.058053420088508695,-0.1988405650806671,-2.1140162539930034
1687001242.3661098,-0.05684405937790871,0.19947302341461182,-0.978253185749054,0.001286771148443222,0.0004323720932006836,0.013256847858428955,-0.027793118730187416,0.004825207870453596,-0.004857307765632868,-0.0580424506715953,-0.20082011042546402,-2.1139542574264416
1687001242.382608,-0.056778695434331894,0.2009992152452469,-0.977944552898407,0.0005347579717636108,-0.0012463927268981934,0.009713351726531982,-0.019086046144366264,0.004799375310540199,0.006114648655056953,-0.057994113436889184,-0.20237784553625796,-2.1139737383465986
1687001242.4224849,-0.05678003653883934,0.20139044523239136,-0.9778639674186707,-0.004270415753126144,0.008387386798858643,0.0007216334342956543,0.014713795855641365,-0.0031737294048070908,0.007346361875534058,-0.05800024805246398,-0.20277725049759335,-2.1138628797237646
1687001242.519603,-0.05685965344309807,0.20183871686458588,-0.9777668714523315,-0.004404425621032715,0.014561429619789124,-0.014527380466461182,-0.00894160009920597,-0.013523039408028126,0.009734950959682465,-0.058087145815102735,-0.2032349177522627,-2.11355168036322
1687001242.533846,-0.05747641250491142,0.20313984155654907,-0.9774613380432129,0.00552019476890564,0.011749699711799622,-0.01817464828491211,-0.02474939078092575,-0.024029875174164772,0.004103695973753929,-0.05873409308555722,-0.20456355933809528,-2.1132053806886026
1687001242.570951,-0.05819811671972275,0.20360654592514038,-0.9773215055465698,0.002442464232444763,0.001730993390083313,0.006358981132507324,-0.015032782219350338,-0.01952926628291607,0.005217164754867554,-0.05947835149422563,-0.205040222589686,-2.1129210961181335
1687001242.665267,-0.058360449969768524,0.2039012759923935,-0.9772503972053528,0.002864193171262741,0.005128875374794006,0.004487335681915283,0.012890461832284927,0.0025877533480525017,0.0029289759695529938,-0.05964819192005782,-0.20534127316002038,-2.1129338761761614
1687001242.67096,-0.05845114588737488,0.20339323580265045,-0.9773508310317993,-0.0001426413655281067,0.0018069595098495483,0.003748595714569092,-0.007988720200955868,0.006279160734266043,-0.0015968000516295433,-0.059734543434199816,-0.2048223526023931,-2.112942304553218
1687001242.754833,-0.058682892471551895,0.20400385558605194,-0.9772096872329712,-0.0035424865782260895,-0.0008941143751144409,0.0026613473892211914,-0.02399798110127449,-0.005788820795714855,0.008227068930864334,-0.059979455143379067,-0.20544605920065165,-2.113080630216712
1687001242.767463,-0.05915875360369682,0.20593932271003723,-0.9767749309539795,-0.00559958815574646,0.0050286948680877686,-0.006776094436645508,-0.03877073526382446,-0.012231405824422836,0.002637360244989395,-0.060491497277363866,-0.20742351461447964,-2.1132101595657993
1687001242.811925,-0.059438735246658325,0.20910333096981049,-0.9760854840278625,0.0012874454259872437,0.007327347993850708,-0.011112391948699951,-0.088531494140625,-0.004872559569776058,-0.007198758888989687,-0.06081990629993582,-0.2106579252288005,-2.1134651141934855
1687001242.877388,-0.058786842972040176,0.2107038050889969,-0.975780725479126,0.0008491836488246918,0.012791693210601807,-0.0005071163177490234,-0.0016820221208035946,0.011422657407820225,-0.010778579860925674,-0.06017322751678279,-0.21229487203826586,-2.1140226738983787
1687001242.965726,-0.05848824605345726,0.21074256300926208,-0.9757903218269348,0.0008252449333667755,-0.007648065686225891,0.0071166157722473145,-0.024044452235102654,0.011076979339122772,-0.010515726171433926,-0.059867731689786874,-0.212334521044,-2.114451399078456
1687001242.971654,-0.05790313705801964,0.21181780099868774,-0.9755923748016357,0.005870625376701355,-0.0012770146131515503,0.011648893356323242,-0.0035925074480473995,0.003611738560721278,-0.005360112525522709,-0.059282228767306905,-0.2134345898741504,-2.1150096039997894
1687001243.050935,-0.05806086212396622,0.2118501514196396,-0.9755759835243225,-0.0005329251289367676,0.004275336861610413,0.0018211007118225098,0.0003601561766117811,0.0006843921728432178,0.0025790371000766754,-0.059444327944072485,-0.21346769665814075,-2.115080347673559
1687001243.066834,-0.057444971054792404,0.21230776607990265,-0.9755129218101501,-0.0064893923699855804,0.001757800579071045,-0.0066953301429748535,-0.009329156018793583,0.030962271615862846,-0.012039586901664734,-0.058819012992280525,-0.21393596030663115,-2.11547755076234
1687001243.114876,-0.05581465736031532,0.21377499401569366,-0.975287139415741,-0.008455395698547363,0.005371749401092529,-0.013131439685821533,-0.03063497692346573,0.051460351794958115,-0.014861738309264183,-0.05716659456212326,-0.21543765512228866,-2.1161843280912715
1687001243.2029672,-0.053894396871328354,0.21459843218326569,-0.9752143025398254,-0.0016628950834274292,0.019456133246421814,-0.00841301679611206,-0.0068243867717683315,0.026776712387800217,-0.003393634222447872,-0.05520800096304695,-0.216280671966805,-2.1166355973362396
1687001243.219719,-0.05384078621864319,0.21459290385246277,-0.9752184748649597,0.004387006163597107,0.0015020668506622314,0.011412322521209717,0.003774728160351515,-0.004754847846925259,-2.7931295335292816e-05,-0.05515295683445748,-0.2162750112242695,-2.1167386733256057
1687001243.259326,-0.05452556163072586,0.21462582051753998,-0.9751731753349304,0.0049497149884700775,-0.003398403525352478,0.01100081205368042,0.008963631466031075,-0.0220041424036026,0.00010602548718452454,-0.05585556404538011,-0.2163087083074224,-2.1165348237938564
1687001243.353884,-0.055084649473428726,0.21492813527584076,-0.9750751852989197,-0.0004421249032020569,0.0028758347034454346,0.0030292868614196777,-0.0046975198201835155,-0.00819472037255764,0.007502956315875053,-0.056432737025705476,-0.2166182377595179,-2.1163598354128017
1687001243.3698568,-0.055706676095724106,0.21477070450782776,-0.9750745296478271,-0.0010865814983844757,0.001583680510520935,0.0018384456634521484,0.02046196162700653,-0.025514453649520874,0.012143779546022415,-0.057068649326790184,-0.21645704212372943,-2.1161234870764574
1687001243.412493,-0.05628415197134018,0.21434302628040314,-0.9751354455947876,-0.007222965359687805,0.004208594560623169,-0.012413322925567627,0.0031280461698770523,-0.010324450209736824,0.0007534399628639221,-0.05765534798634681,-0.21601917212401175,-2.115905282493282
1687001243.4760408,-0.056523408740758896,0.21413567662239075,-0.9751671552658081,0.00014214962720870972,0.007086232304573059,-0.00902467966079712,-0.008432336151599884,-0.003506757551804185,0.001270359382033348,-0.05789800636163688,-0.21580690310880327,-2.115723777735532
1687001243.565712,-0.05667845159769058,0.21344439685344696,-0.9753097295761108,0.003913518041372299,-0.0027815401554107666,0.00768887996673584,0.013884952291846275,-0.005036211106926203,0.000783001072704792,-0.05804799648748143,-0.2150992487647442,-2.1154817560698937
1687001243.571597,-0.0563775971531868,0.21270763874053955,-0.9754880666732788,-0.0013006627559661865,0.0020445585250854492,0.006188809871673584,0.033279288560152054,0.015315665863454342,-0.001256713643670082,-0.057730024390117624,-0.21434518647076717,-2.1152968525406073
1687001243.623236,-0.055984873324632645,0.21030829846858978,-0.9760307669639587,0.006317473948001862,-0.0023920387029647827,0.011446475982666016,0.059657834470272064,0.00012992206029593945,0.00718311034142971,-0.05729695876825295,-0.2118903016021037,-2.1151148189759907
1687001243.7156549,-0.05576607957482338,0.20775751769542694,-0.9765894412994385,-0.0019884780049324036,0.004827931523323059,-0.0029332637786865234,0.06654736399650574,0.005367161240428686,0.009138137102127075,-0.05704094427069534,-0.209281896375298,-2.1147355221899797
1687001243.720738,-0.05610080063343048,0.2037915736436844,-0.9774056077003479,-0.0026303157210350037,0.005971014499664307,-0.0081443190574646,0.11338537931442261,-0.03362910449504852,0.01927386038005352,-0.057334758269575195,-0.20522921792559679,-2.1141312036579727
1687001243.77495,-0.05764932557940483,0.19730210304260254,-0.9786462187767029,-0.00015100836753845215,0.001077413558959961,-0.007010519504547119,0.14728455245494843,-0.03627641871571541,0.028949124738574028,-0.058839221866607096,-0.198605164519326,-2.112926962396051
1687001243.864699,-0.05723024532198906,0.1879274994134903,-0.9805141091346741,-0.022771619260311127,0.009994253516197205,0.005324959754943848,0.3232354521751404,0.131272092461586,-0.05887366831302643,-0.05830144392688307,-0.18905161640895157,-2.1124145632482363
1687001243.871097,-0.04819611832499504,0.17214468121528625,-0.9838919639587402,-0.0019290409982204437,0.02376292645931244,-0.0014748573303222656,0.33494508266448975,0.1770210862159729,-0.04768785834312439,-0.048946049533864784,-0.17300644205951846,-2.1153117209597414
1687001243.985312,-0.043966349214315414,0.1549883335828781,-0.9869374632835388,0.0025997310876846313,-0.010823279619216919,0.012083947658538818,0.3400316834449768,0.08660995215177536,-0.0604044571518898,-0.044518829438930346,-0.15561564114740747,-2.116040573834912
1687001243.99968,-0.03922579064965248,0.1400618702173233,-0.9893654584884644,-0.0005844272673130035,-0.006120204925537109,0.0005501508712768555,0.25397783517837524,0.09749282896518707,-0.08864647895097733,-0.039626669666073776,-0.14052390719777325,-2.119142574406057
1687001244.044917,-0.035294510424137115,0.13137765228748322,-0.9907038807868958,0.007752355188131332,0.0023656487464904785,-0.004337012767791748,0.13098721206188202,0.06195054203271866,-0.05786672979593277,-0.03561062921527146,-0.13175855558974117,-2.1228439730773716
1687001244.0489721,-0.03254788741469383,0.12569467723369598,-0.9915348887443542,0.004486933350563049,0.010047510266304016,-0.018520593643188477,0.08801976591348648,0.03357669338583946,-0.03589272126555443,-0.032813975968778324,-0.12602803352096192,-2.125479917392056
1687001244.101325,-0.03282620385289192,0.12277695536613464,-0.9918912649154663,0.00032493844628334045,-0.020878739655017853,-0.014044404029846191,-0.022836310788989067,-0.020357375964522362,-0.034862346947193146,-0.03308248355338077,-0.12308752407408066,-2.127269443714976
1687001244.162415,-0.03409998118877411,0.1252896636724472,-0.9915339946746826,-0.0010868199169635773,-0.004317983984947205,0.0026271939277648926,-0.03575211018323898,-0.02202744595706463,-0.02368585765361786,-0.034377589009180254,-0.12561979375574006,-2.1288082402827695
1687001244.256905,-0.03481459245085716,0.12292468547821045,-0.9918051362037659,0.0024201422929763794,0.007980488240718842,0.01347261667251587,0.0791945829987526,-0.013569245114922523,0.0022282982245087624,-0.03508784370904112,-0.1232363811594206,-2.1288321246568427
1687001244.271766,-0.03515290096402168,0.12104333937168121,-0.9920246005058289,-0.0079074427485466,0.0026139020919799805,0.006901919841766357,0.02217024564743042,0.008609427139163017,0.0005614263936877251,-0.035420693610089024,-0.1213408812444873,-2.1289027326492493
1687001244.311929,-0.03598212078213692,0.12039664387702942,-0.9920735359191895,-0.005277685821056366,0.003962494432926178,0.0008473992347717285,0.013682086952030659,-0.00873307790607214,0.0025910213589668274,-0.03625371883427265,-0.12068942039313775,-2.128932577571418
1687001244.4030352,-0.034783147275447845,0.11861667782068253,-0.9923306703567505,-0.0022499747574329376,0.007100500166416168,-0.018731892108917236,0.04741688072681427,0.030385829508304596,0.0014288173988461494,-0.035037626361778894,-0.11889661198354273,-2.1288156398261067
1687001244.417762,-0.03416617214679718,0.11721743643283844,-0.9925183653831482,0.0038621798157691956,-0.010039687156677246,-0.009221076965332031,-0.011544506065547466,-0.0007751532830297947,-0.007567606866359711,-0.03441013050943961,-0.11748753267270773,-2.128934316107982
1687001244.4610171,-0.03462892770767212,0.11736886948347092,-0.992484450340271,-0.0012903064489364624,0.001878581941127777,0.003852248191833496,0.03167593479156494,-0.013515183702111244,-0.005073822569102049,-0.0348770052117157,-0.11764002233127148,-2.1292662793360964
1687001244.5858212,-0.03397476673126221,0.11580846458673477,-0.9926903247833252,-0.0025395527482032776,-0.002939186990261078,0.01017695665359497,0.02394005097448826,0.0237865149974823,0.001227748580276966,-0.03421158661254654,-0.11606889884008029,-2.129318927576402
1687001244.6006088,-0.033905498683452606,0.11559052020311356,-0.9927181005477905,0.002121400088071823,-0.001988820731639862,0.011593222618103027,-0.01620490476489067,-0.0017314944416284561,-0.003754759207367897,-0.034140936064439645,-0.11584948738782486,-2.1294092804055205
1687001244.673938,-0.03420034423470497,0.11608316749334335,-0.9926505088806152,-0.0012916401028633118,0.007284156978130341,-0.0017189979553222656,0.008080726489424706,-0.0006127004162408412,-0.0029331734403967857,-0.0344399375284643,-0.11634546707556871,-2.129623808862543
1687001244.685413,-0.03395897522568703,0.11532776802778244,-0.9927468299865723,0.0004811510443687439,5.9217214584350586e-05,-0.011373043060302734,-0.0015757621731609106,-0.005415178835391998,-0.002622382715344429,-0.034193752859623,-0.11558496291257027,-2.129750621902986
1687001244.764699,-0.03498677536845207,0.11629173904657364,-0.9925987124443054,0.002424478530883789,-0.002003394067287445,-0.01760941743850708,-0.053213655948638916,-0.04653198644518852,-0.002639959566295147,-0.0352330693357285,-0.11655546677927012,-2.1299168460872036
1687001244.76928,-0.03838563337922096,0.11896693706512451,-0.9921559691429138,0.004739958792924881,-0.015359744429588318,0.0025166869163513184,-0.08250243216753006,-0.08296775817871094,-0.0030671311542391777,-0.038669825144958064,-0.11924936285108327,-2.130095033968551
1687001244.855195,-0.04034402221441269,0.121678926050663,-0.9917492866516113,-0.007263440638780594,-0.0012260228395462036,0.015186786651611328,-0.052586015313863754,-0.011519542895257473,0.018568921834230423,-0.040657243207791904,-0.12198120040321024,-2.1294632201963744
1687001244.868794,-0.042896851897239685,0.12565907835960388,-0.9911456108093262,0.0114637091755867,0.0007294714450836182,0.005275309085845947,-0.14000055193901062,-0.13412243127822876,0.028862306848168373,-0.04325307510584031,-0.12599214397754083,-2.128083966805558
1687001244.913765,-0.05304853245615959,0.1350172758102417,-0.9894221425056458,0.004037264734506607,-0.0029524564743041992,0.00011861324310302734,-0.21374088525772095,-0.2378513365983963,0.056604452431201935,-0.05356438485790635,-0.13543089377889275,-2.126599992539077
1687001245.006222,-0.05983506143093109,0.1422828584909439,-0.98801589012146,-0.023340638726949692,0.0014854669570922852,5.507469177246094e-05,-0.07024044543504715,-0.05343703553080559,0.015414673835039139,-0.06048695462772541,-0.14276735325885612,-2.125082801248902
1687001245.020164,-0.060151126235723495,0.14429186284542084,-0.9877052903175354,-0.015456214547157288,0.041010886430740356,-0.0180625319480896,0.005081008654087782,0.0363001748919487,0.023700566962361336,-0.06082475210010126,-0.14479731426316536,-2.125036757960471
1687001245.0606399,-0.06147589907050133,0.14567458629608154,-0.9874206781387329,-0.005433928221464157,0.007371068000793457,-0.017675697803497314,-0.1111270934343338,-0.035925816744565964,0.012786934152245522,-0.06217881977150375,-0.14619479996583998,-2.1247497392782835
1687001245.126463,-0.06286465376615524,0.1504002958536148,-0.9866244196891785,-6.26295804977417e-05,-0.0018102079629898071,0.004522979259490967,-0.0747704803943634,-0.01625610888004303,0.022926384583115578,-0.06363088347445195,-0.15097316920997841,-2.124105428174729
1687001245.216608,-0.06413928419351578,0.15320202708244324,-0.9861112236976624,-0.002022862434387207,-0.0037421733140945435,0.012630999088287354,-0.026008600369095802,-0.01845814287662506,0.021311180666089058,-0.06495116148744887,-0.15380774452485646,-2.12283248833722
1687001245.222867,-0.06464394927024841,0.15415091812610626,-0.985930323600769,0.00022130459547042847,-0.003699257969856262,0.0015553832054138184,-0.011628196574747562,-0.001811788766644895,0.00940951332449913,-0.06547272946103955,-0.15476804437629957,-2.122033014901957
1687001245.305829,-0.06497141718864441,0.15494172275066376,-0.9857848286628723,-0.0006719231605529785,0.008571445941925049,0.00241696834564209,0.0019582523964345455,-0.01481560431420803,0.012946190312504768,-0.06581313123764714,-0.15556847023725318,-2.1217516491932273
1687001245.3204699,-0.06591299176216125,0.15534813702106476,-0.9856583476066589,-0.00787854939699173,-0.0009444355964660645,-0.011305093765258789,-0.030474722385406494,-0.020660843700170517,0.008302437141537666,-0.06677263271267124,-0.1559798642499994,-2.1213276441444164
1687001245.357913,-0.06662435829639435,0.1566160023212433,-0.9854098558425903,-0.0044205933809280396,-0.0006101429462432861,-0.014147579669952393,-0.022183435037732124,-0.002878784202039242,0.0023803655058145523,-0.06750806911629914,-0.15726343622848624,-2.120927106789258
1687001245.45628,-0.06723242998123169,0.15729229152202606,-0.9852608442306519,-0.002179838716983795,0.005381673574447632,0.0033425092697143555,-0.016518227756023407,-0.015464084222912788,-0.001678292639553547,-0.06813257962953528,-0.15794821286927413,-2.1208611107233666
1687001245.4715838,-0.06758742779493332,0.15674211084842682,-0.9853242635726929,0.0012269169092178345,0.000545501708984375,0.008624434471130371,0.011468200944364071,0.0019829494412988424,-0.006411528680473566,-0.06848682303694559,-0.15739112076909875,-2.1209592202779297
1687001245.509206,-0.06769806146621704,0.15730048716068268,-0.985227644443512,0.0007577240467071533,-0.003644496202468872,0.004179120063781738,-0.031489185988903046,0.002561787376180291,0.003853892907500267,-0.06860527736600965,-0.15795651691782822,-2.1211680738961354
1687001245.600091,-0.0678468868136406,0.15770137310028076,-0.985153317451477,-0.00544111430644989,0.0036450624465942383,0.007049679756164551,0.007431447971612215,0.009955788031220436,0.0022370871156454086,-0.06876079568397422,-0.15836247095858028,-2.121268652904274
1687001245.606374,-0.06775402277708054,0.15764471888542175,-0.9851687550544739,-0.005442425608634949,0.002847239375114441,-0.009460091590881348,0.0012745526619255543,-0.0001896573230624199,-0.004311093594878912,-0.06866590335550332,-0.15830508474544955,-2.1214370273823007
1687001245.6634378,-0.06800103187561035,0.15789540112018585,-0.9851115942001343,-0.005485333502292633,0.0006281733512878418,-0.010478556156158447,-0.019311748445034027,-0.004920629784464836,-0.0036469008773565292,-0.06891943295781952,-0.1585589469290291,-2.1215766376330762
1687001245.7570229,-0.06822620332241058,0.1588335633277893,-0.9849452376365662,0.0003398135304450989,0.0004224330186843872,-0.005685865879058838,-0.01566028781235218,-0.0002052368363365531,-0.004053565673530102,-0.06915856286815114,-0.15950911277686614,-2.121597424235973
1687001245.77016,-0.06799215078353882,0.15916147828102112,-0.9849084615707397,-0.0005961433053016663,-0.0006531625986099243,0.005462050437927246,-0.011417274363338947,0.0052762143313884735,-0.0011637695133686066,-0.06892462585374222,-0.15984124160542007,-2.121796144667614
1687001245.874635,-0.06815467774868011,0.1596119999885559,-0.9848242998123169,-0.00026576220989227295,0.002756774425506592,0.00626295804977417,-0.007209879346191883,-0.007746643386781216,-0.0002803988754749298,-0.06909474624565073,-0.16029760195844805,-2.122005500858308
1687001245.8876271,-0.0686059519648552,0.16033393144607544,-0.9846757054328918,-0.0021948665380477905,-0.005930230021476746,0.004481613636016846,-0.023715287446975708,-0.0014595857355743647,0.004680270329117775,-0.06956123351986107,-0.16102895278577545,-2.122022998492947
1687001245.965228,-0.0690423846244812,0.16124539077281952,-0.9844963550567627,-0.0040472522377967834,0.0005283057689666748,-0.006912946701049805,-0.004583403468132019,-0.007400033064186573,0.008729074150323868,-0.0700150212941043,-0.16195242093375853,-2.1219504270966056
1687001245.971096,-0.06971815228462219,0.1617291420698166,-0.9843693971633911,-0.0032951906323432922,0.0060565173625946045,-0.005163073539733887,-0.0041364580392837524,-0.018595028668642044,0.004813162609934807,-0.07070712730014408,-0.16244261310403765,-2.121802706281675
1687001246.0546808,-0.07023000717163086,0.16179992258548737,-0.9843213558197021,-0.0022950544953346252,0.004017353057861328,-0.010322809219360352,0.005048251710832119,-0.006501082796603441,0.0016650399193167686,-0.07122795831646007,-0.16251433671432147,-2.1215324183811886
1687001246.069,-0.07037913054227829,0.1619531363248825,-0.9842855334281921,-0.0008947104215621948,-0.0024224817752838135,0.0024740099906921387,-0.01497079711407423,-1.6685109585523605e-05,0.005277352407574654,-0.07138128005596209,-0.162669598978696,-2.121309309105973
1687001246.1110811,-0.07039005309343338,0.16277630627155304,-0.9841489195823669,-0.00028868764638900757,-0.00875408947467804,0.011523246765136719,-0.014315859414637089,0.007926858961582184,0.0008277418091893196,-0.07140219402184089,-0.16350383345313718,-2.1211940993844385
1687001246.204166,-0.06983903795480728,0.16290585696697235,-0.9841667413711548,0.0005183219909667969,0.007168620824813843,0.002355217933654785,-0.0004487123806029558,0.015042691491544247,-0.0006588343530893326,-0.07084385177960915,-0.16363514027951695,-2.121125535368912
1687001246.2185159,-0.06953967362642288,0.16298940777778625,-0.9841741323471069,-0.0029701292514801025,-0.000635877251625061,0.006879210472106934,-0.0043957834132015705,0.009469494223594666,0.0027936873957514763,-0.07054066223424209,-0.1637198253400932,-2.1210606594537618
1687001246.261681,-0.0693516880273819,0.1634988933801651,-0.9841028451919556,-0.004333026707172394,-0.0012674480676651,-0.009793579578399658,-0.014768330380320549,0.002475900575518608,0.004497045651078224,-0.07035567841059615,-0.16423623306502644,-2.120959829873513
1687001246.355593,-0.06936550885438919,0.16377653181552887,-0.9840556979179382,-0.001359015703201294,0.00475679337978363,-0.011107206344604492,-0.003207414411008358,-0.010073181241750717,0.004996920004487038,-0.07037301313398815,-0.1645176756150419,-2.120733929212909
1687001246.368917,-0.06945060938596725,0.1640254706144333,-0.984008252620697,0.00128956139087677,0.0020664632320404053,-7.683038711547852e-05,0.004039379768073559,0.002499203197658062,-0.002706805244088173,-0.07046244859357101,-0.16477001992703263,-2.1205459549725587
1687001246.475521,-0.06953423470258713,0.1640692949295044,-0.9839950203895569,0.002181902527809143,-0.004492864012718201,0.01181185245513916,-0.00136970030143857,0.0031827036291360855,0.004064282402396202,-0.07054795330275548,-0.1648144406115657,-2.1204122381894126
1687001246.488224,-0.06969033926725388,0.1644321084022522,-0.9839234352111816,-1.1838972568511963e-05,-0.004977762699127197,0.005117952823638916,-0.020027806982398033,0.0008164849132299423,0.0024298997595906258,-0.07071093968823271,-0.16518225778274057,-2.1202692358332325
1687001246.565772,-0.06958127021789551,0.16555306315422058,-0.9837431907653809,-0.0011585131287574768,-0.0014752894639968872,-0.0004334449768066406,-0.025864923372864723,0.00733244139701128,0.00910431332886219,-0.07061353461231183,-0.16631878823743335,-2.120139087192334
1687001246.571679,-0.06915253400802612,0.1664768010377884,-0.9836174845695496,-0.0032504498958587646,0.002651616930961609,-0.004297494888305664,-0.010740499012172222,0.011160868220031261,0.0027484139427542686,-0.07018880317362368,-0.16725552404646818,-2.1200575370820713
1687001246.6546211,-0.06796804815530777,0.16660211980342865,-0.9836788773536682,-0.008768439292907715,-0.00279901921749115,-0.013437211513519287,-0.006296748295426369,0.048160966485738754,-0.0031973598524928093,-0.06898612547250137,-0.1673826237514341,-2.1202699039693855
1687001246.668127,-0.06701090931892395,0.16670680046081543,-0.9837267994880676,5.529820919036865e-05,0.006251588463783264,-0.001166999340057373,0.016079863533377647,-0.0010434668511152267,-0.002785635180771351,-0.0680143566609135,-0.16748878712324397,-2.1205467870155372
1687001246.715435,-0.06688705831766129,0.16607384383678436,-0.9838422536849976,-0.0033186674118041992,6.385147571563721e-05,0.009599149227142334,-0.005783756263554096,0.016734730452299118,-0.0068112690933048725,-0.06788109385606166,-0.1668468851879571,-2.1205723022149905
1687001246.802326,-0.06578908860683441,0.16662336885929108,-0.9838233590126038,-0.002051517367362976,0.0014521926641464233,0.008039116859436035,0.0053971922025084496,0.026600010693073273,-0.005513244308531284,-0.06677142505283919,-0.16740416583695802,-2.1208082809951385
1687001246.81608,-0.06575941294431686,0.1663723886013031,-0.9838678240776062,0.004129134118556976,-0.007497876882553101,-0.0007207393646240234,0.009894073009490967,0.0009644234087318182,0.0034211287274956703,-0.06673838683885024,-0.1671496327454313,-2.1206563618389724
1687001246.8642678,-0.06603139638900757,0.16635006666183472,-0.9838533997535706,-0.0008021369576454163,0.000840499997138977,-0.004229485988616943,0.006748480256646872,-0.01084136962890625,0.010099271312355995,-0.06701457901611077,-0.16712699917485194,-2.120484367896438
1687001246.9553452,-0.06498369574546814,0.16699457168579102,-0.9838139414787292,-0.014804549515247345,0.0004553794860839844,-0.0033228397369384766,0.02204221487045288,0.07172541320323944,-0.005406185053288937,-0.0659570181223253,-0.16778065137048148,-2.1207771056611167
1687001246.968872,-0.05885431915521622,0.16047386825084686,-0.9852838516235352,0.004090491682291031,0.03525060415267944,-0.003943383693695068,0.21641622483730316,0.12404374778270721,0.02058892883360386,-0.0596624719105346,-0.1611707316261776,-2.1206226394293086
1687001247.0110931,-0.0541694276034832,0.15071290731430054,-0.9870923161506653,-0.001784592866897583,-0.0010546892881393433,0.003907561302185059,0.18073904514312744,0.10796411335468292,-0.002893758937716484,-0.05482277922337319,-0.15128938242151413,-2.1194691728353123
1687001247.106388,-0.0487351231276989,0.14359360933303833,-0.9884360432624817,0.004103124141693115,-0.0026176422834396362,0.0076468586921691895,0.16997715830802917,0.10953870415687561,-0.022445622831583023,-0.04926539396627832,-0.1440917094621264,-2.11973251593238
1687001247.1191912,-0.0440211147069931,0.13890637457370758,-0.9893265962600708,-0.0029912516474723816,-0.0014704614877700806,-0.003074467182159424,0.0715988501906395,0.0902242586016655,-0.03260265290737152,-0.04446670652891111,-0.13935699489511824,-2.121576595686331
1687001247.1614761,-0.041677266359329224,0.13649499416351318,-0.9897636771202087,0.0027520544826984406,0.01024879515171051,-0.0036597847938537598,0.02952156960964203,0.025483615696430206,-0.04575067758560181,-0.0420834380042985,-0.1369224311306538,-2.1239316674553197
1687001247.255238,-0.04279226437211037,0.13638807833194733,-0.9897308349609375,0.007727526128292084,-0.022114992141723633,-0.0172119140625,-0.04796716198325157,-0.04007981717586517,-0.02044691890478134,-0.04320935295334274,-0.13681449353185912,-2.1258707059421904
1687001247.268328,-0.04501162841916084,0.13877739012241364,-0.9893001317977905,0.006940912455320358,0.008622512221336365,-0.011478006839752197,-0.02605227567255497,-0.07121163606643677,0.009741608053445816,-0.04546709775979656,-0.1392267545491201,-2.1264927675806184
1687001247.3112211,-0.04681110382080078,0.1378762573003769,-0.9893426299095154,-0.006121676415205002,-0.021711081266403198,0.006081521511077881,0.0016483936924487352,0.0017250222153961658,-0.004698583390563726,-0.0472800979991931,-0.13831686617667147,-2.1259966215389476
1687001247.4039059,-0.04611612856388092,0.13783429563045502,-0.9893811345100403,-0.0032003186643123627,0.00025776028633117676,0.018220245838165283,0.0384688600897789,0.021682217717170715,-0.0060559967532753944,-0.04657737399224991,-0.13827450050302761,-2.12625626694482
1687001247.4173908,-0.04389181360602379,0.1332150101661682,-0.9901147484779358,-0.003791946917772293,0.009103730320930481,0.006258606910705566,0.12257927656173706,0.08356116712093353,0.007192164659500122,-0.044301020303179825,-0.13361220382823893,-2.1264148659231434
1687001247.46176,-0.04107412323355675,0.12873274087905884,-0.9908283352851868,0.0006840676069259644,-0.008569777011871338,-0.001008152961730957,0.024415157735347748,0.037300191819667816,0.0021697087213397026,-0.04143060537300968,-0.12909098219774104,-2.1260098890728627
1687001247.552196,-0.04089123755693436,0.12940461933612823,-0.990748405456543,0.0007453225553035736,-0.004831850528717041,0.0019178390502929688,-0.005115835461765528,0.008178526535630226,-0.0018753660842776299,-0.04124966684116808,-0.1297685261274528,-2.126320679931003
1687001247.560172,-0.039368707686662674,0.1276177316904068,-0.9910417795181274,0.004563372582197189,0.0029822438955307007,-0.015015900135040283,0.03966248780488968,0.013445327058434486,0.001680486835539341,-0.03970369260202359,-0.12796670548163813,-2.1263855709498354
1687001247.615574,-0.03952958434820175,0.12701007723808289,-0.9911134243011475,0.003701910376548767,-0.005031317472457886,-0.010000407695770264,-0.012124476954340935,-0.013578965328633785,-0.005290604196488857,-0.03986288598662253,-0.12735405222440996,-2.1262726842863517
1687001247.705426,-0.03938188776373863,0.12645356357097626,-0.991190493106842,0.0012806467711925507,0.0012625157833099365,0.008783876895904541,0.03480767831206322,0.002356724115088582,0.0016490612179040909,-0.03971101794019026,-0.1267930166551175,-2.126323137478022
1687001247.718102,-0.04039810597896576,0.1257815808057785,-0.991235077381134,0.007210202515125275,-0.01604035496711731,0.0007413029670715332,-0.03992721065878868,-0.05184486135840416,-0.0054541220888495445,-0.04073278201873113,-0.12611563319780578,-2.126386281388084
1687001247.761646,-0.04227828606963158,0.127796933054924,-0.990898847579956,-0.0053139179944992065,0.008601397275924683,0.010170698165893555,-0.007384981960058212,-0.006446754559874535,0.0006407881155610085,-0.042640738649461864,-0.1281473816189767,-2.126787232342498
1687001247.853077,-0.0422106496989727,0.1273537278175354,-0.9909587502479553,-0.0024213455617427826,0.0022849440574645996,5.3048133850097656e-05,0.0016650385223329067,-0.005794146563857794,0.009613510221242905,-0.04257003559472803,-0.12770052672387772,-2.1265938438681666
1687001247.866259,-0.04298318922519684,0.12809932231903076,-0.9908294677734375,-0.0011605322360992432,-0.005052432417869568,-0.0086669921875,-0.0031505560036748648,-0.016248784959316254,0.0007079001516103745,-0.04335383252229852,-0.12845227051592692,-2.126766482071585
1687001247.91043,-0.04281364008784294,0.1270495057106018,-0.9909719824790955,-0.00017040595412254333,-0.002415701746940613,-0.010111391544342041,0.02457934245467186,0.00855935923755169,-0.004251172300428152,-0.04317683584351199,-0.12739381184157564,-2.1266391710906074
1687001248.005796,-0.04279408976435661,0.12618713080883026,-0.9910829663276672,0.0035484470427036285,-0.009274289011955261,0.0011996030807495117,-0.0032452980522066355,-0.02276274375617504,-0.0018841549754142761,-0.04315231386436637,-0.12652444120993314,-2.126511772019472
1687001248.018405,-0.0460314080119133,0.12738606333732605,-0.9907844662666321,0.010478392243385315,-0.00494953989982605,0.016816020011901855,-0.03344707563519478,-0.09184154123067856,0.006016645580530167,-0.04642617059622415,-0.1277331201707935,-2.1261669586486587
1687001248.062217,-0.04810919612646103,0.1293783038854599,-0.990427553653717,-0.004350557923316956,-0.0141134113073349,0.017527222633361816,-0.05972807854413986,-0.008737605065107346,0.0314631462097168,-0.04853601898404971,-0.1297419868935918,-2.1251995109370383
1687001248.15697,-0.04915397986769676,0.13223837316036224,-0.989998459815979,0.005361214280128479,0.00901225209236145,0.0003591775894165039,-0.07015635073184967,-0.07860323786735535,0.03977274149656296,-0.04960982396778305,-0.1326268497908055,-2.1233973058796107
1687001248.1694,-0.05582226440310478,0.13612420856952667,-0.9891178011894226,-0.004266887903213501,0.0022119879722595215,-0.017885923385620117,-0.06409719586372375,-0.14660613238811493,0.04881177842617035,-0.05637661014791008,-0.13654814602070386,-2.1209813729113636
1687001248.212751,-0.05980794131755829,0.13992129266262054,-0.9883547425270081,-0.001898638904094696,-0.01145753264427185,-0.010333001613616943,-0.1233825609087944,-0.0703519657254219,0.00627843476831913,-0.06043892797953025,-0.14038192519500123,-2.1202171239272594
1687001248.303358,-0.06307657808065414,0.1479588896036148,-0.9869800209999084,-0.00691552460193634,0.014486193656921387,-0.012821614742279053,-0.10633359849452972,-0.03514724224805832,-0.010630507953464985,-0.06382187274081483,-0.1485041335689311,-2.119889177705782
1687001248.316251,-0.06380819529294968,0.15086425840854645,-0.9864930510520935,0.023296073079109192,-0.021576523780822754,-0.011630117893218994,-0.15071864426136017,-0.04605927690863609,-0.00876496359705925,-0.06459187314718252,-0.15144247626925372,-2.1190656050566443
1687001248.425239,-0.06448940932750702,0.15426842868328094,-0.98592209815979,0.0012264326214790344,-0.011751323938369751,0.006948709487915039,-0.06076791137456894,-0.0184464268386364,0.009422028437256813,-0.06531719819233205,-0.1548869745000896,-2.1182593106061094
1687001248.4368582,-0.06487788259983063,0.15605993568897247,-0.9856145977973938,-0.0007044374942779541,-0.0007864981889724731,0.002887547016143799,-0.01812238059937954,0.0006174135487526655,0.00922602042555809,-0.06572997102314307,-0.15670045265956814,-2.1178187586508437
1687001248.517499,-0.06537217646837234,0.15711450576782227,-0.9854143857955933,-0.0031703412532806396,-0.008966907858848572,-0.0012036561965942383,-0.04650188982486725,-0.0230393148958683,0.015856759622693062,-0.06624272073764054,-0.15776819392597552,-2.117404244290846
1687001248.523227,-0.06562172621488571,0.15867841243743896,-0.9851471781730652,-0.004217788577079773,0.005475655198097229,-0.0077880024909973145,-0.028666837140917778,0.001336334040388465,0.0035609444603323936,-0.06651283113322,-0.15935195493236518,-2.117260860316012
1687001248.60679,-0.06542138010263443,0.15986530482769012,-0.9849686026573181,-0.0004203319549560547,-0.0034016668796539307,-0.014955103397369385,-0.04885445907711983,-0.00035810249391943216,0.005028879269957542,-0.0663223495204176,-0.16055420267927314,-2.1171493135513897
1687001248.619354,-0.06535034626722336,0.16119757294654846,-0.9847561717033386,0.0036437660455703735,0.004222974181175232,0.002990424633026123,-0.016529478132724762,0.0025067932438105345,-0.0033195987343788147,-0.06626479676236231,-0.1619039820837986,-2.117191010045245
1687001248.661165,-0.06531939655542374,0.16149520874023438,-0.9847094416618347,0.001262962818145752,0.002399459481239319,0.006392180919647217,-0.0030152674298733473,-9.894021786749363e-06,0.0025627920404076576,-0.06623663828216945,-0.1622055564305925,-2.117324400254458
1687001248.753697,-0.06531785428524017,0.16208204627037048,-0.9846131205558777,0.003473937511444092,-0.00867016613483429,0.0059601664543151855,-0.015985261648893356,0.005239729303866625,0.003693569451570511,-0.06624153716079369,-0.16280023527483506,-2.1173315983238292
1687001248.766366,-0.06523630768060684,0.1627068966627121,-0.9845154881477356,-0.0032909512519836426,-0.0005517303943634033,-0.0018736720085144043,-0.00947929173707962,0.00997855793684721,0.0044094268232584,-0.06616562608919964,-0.16343348804338284,-2.1172344593013874
1687001248.8123,-0.06485952436923981,0.1631353199481964,-0.984469473361969,-0.0020808205008506775,0.0029718726873397827,-0.003857553005218506,0.007392898667603731,0.005371555685997009,-0.0001610899344086647,-0.06578764736547411,-0.16386771805369357,-2.117291324419605
1687001248.903356,-0.06411462277173996,0.16346871852874756,-0.9844629764556885,-0.008151039481163025,0.014814987778663635,-0.022052526473999023,-0.008252306841313839,0.022717388346791267,0.004074135795235634,-0.06503465487417666,-0.16420564489782838,-2.117410975778088
1687001248.916882,-0.06328645348548889,0.16473837196826935,-0.9843049049377441,0.00295315682888031,-0.0005843043327331543,0.0014252662658691406,-0.06206360459327698,0.008610624819993973,0.004784401506185532,-0.06420719924177368,-0.1654927541068025,-2.117542926394691
1687001248.959825,-0.06330402940511703,0.16719378530979156,-0.983889639377594,0.0008802935481071472,0.001721009612083435,0.0067168474197387695,-0.04824419692158699,-0.0015538616571575403,0.0010128319263458252,-0.06425201856488293,-0.16798270075033614,-2.117663323644023
