Timestamp,gravityX,gravityY,gravityZ,accelerationX,accelerationY,accelerationZ,rotationRateX,rotationRateY,rotationRateZ,attitudeRoll,attitudePitch,attitudeYaw
1687092978.3172731,0.05150306597352028,0.683007538318634,-0.7285932898521423,0.0012923181056976318,0.003103911876678467,-0.006376802921295166,-0.016073377802968025,0.0029626539908349514,0.010219266638159752,0.07057097550287984,-0.751872364151347,-2.228852514898335
1687092995.356196,0.018524223938584328,0.6936421990394592,-0.7200814485549927,-0.001861676573753357,0.0012735724449157715,-0.008540987968444824,0.22382789850234985,0.02300507202744484,-0.049330879002809525,0.025719506002830374,-0.766533220933985,-2.247572497296266
1687092995.3623152,0.01675386354327202,0.6870425939559937,-0.726423978805542,-0.009658550843596458,0.009704232215881348,0.012526273727416992,0.23935092985630035,0.010031215846538544,-0.052090711891651154,0.023059390564534182,-0.7574110857746875,-2.252308038749737
1687092995.444906,0.01593831740319729,0.6785209774971008,-0.7344080805778503,0.0036081522703170776,-0.01200181245803833,-0.003522217273712158,0.20440992712974548,-0.005283957812935114,-0.03629869967699051,0.021698857861922455,-0.7457473267558026,-2.2550646334670077
1687092995.4557981,0.013583498075604439,0.6708537936210632,-0.7414652705192566,-0.00574051309376955,-0.027390599250793457,-0.003972291946411133,0.14645515382289886,-0.013450540602207184,-0.04688183590769768,0.01831775378732276,-0.7353594589592856,-2.258555258462314
1687092995.537204,0.01157021801918745,0.6674156188964844,-0.7445955276489258,0.00437519047409296,-0.002758026123046875,-0.0014829635620117188,0.07854148000478745,-0.015306497924029827,-0.06320754438638687,0.015537678999782046,-0.7307329651779084,-2.262267124199408
1687092995.541933,0.009288155473768711,0.6653946042060852,-0.7464339733123779,0.001301419921219349,0.00936424732208252,-0.021235644817352295,0.03594588115811348,-0.006096088793128729,-0.06470531225204468,0.01244272890806063,-0.7280223025421309,-2.2663516531280927
1687092995.625459,0.00750170461833477,0.6628884077072144,-0.7486806511878967,-0.012445598840713501,0.01615828275680542,-0.0001138448715209961,0.09383854269981384,0.003843494225293398,-0.025848988443613052,0.010019563507638041,-0.7246699828429276,-2.2695950784307692
1687092995.630828,0.0065576606430113316,0.6602051258087158,-0.7510566711425781,0.0022924072109162807,-0.00496220588684082,0.0026589035987854004,0.07064934074878693,0.0020016522612422705,-0.03493116796016693,0.008731024084654251,-0.7210918265235545,-2.2718667557419283
1687092995.685951,0.006177839823067188,0.6598297357559204,-0.751389741897583,-0.0010661757551133633,-0.02352297306060791,-0.003782987594604492,-0.04190204292535782,0.007585102692246437,-0.01117843296378851,0.00822169938299358,-0.7205921518192725,-2.273281662253244
1687092995.778184,0.007541873957961798,0.6630151271820068,-0.7485679984092712,0.00857138354331255,0.006784677505493164,0.0038323402404785156,-0.13089384138584137,0.02769329957664013,0.02484002336859703,0.010074727743782328,-0.7248392462811332,-2.272850113055281
1687092995.791482,0.009338311851024628,0.6662594676017761,-0.7456615567207336,0.0037842141464352608,-0.012359261512756348,-0.007008671760559082,-0.12938861548900604,0.046309325844049454,0.006965417414903641,0.012522871602751982,-0.7291814413274316,-2.271539854543435
1687092995.834415,0.00948997214436531,0.6680583357810974,-0.7440484166145325,-0.007155410014092922,0.030458569526672363,0.03906184434890747,0.1630881130695343,0.007382702082395554,-0.010288937017321587,0.01275381823026084,-0.7315963021354511,-2.272145748639522
1687092995.927267,0.010559280402958393,0.6678550839424133,-0.7442163825035095,-0.0060885073617100716,0.010138630867004395,-0.013428211212158203,-0.03304124251008034,0.026129359379410744,0.017644427716732025,0.01418750250636014,-0.7313232515500778,-2.2723487801008777
1687092995.939533,0.010694801807403564,0.6680768728256226,-0.7440154552459717,0.00290073174983263,-4.7087669372558594e-05,0.00971674919128418,0.01697838306427002,0.005481870844960213,-0.005311222746968269,0.01437344535147593,-0.7316212656709674,-2.2722872846688307
1687092995.9839358,0.011338908225297928,0.6679475903511047,-0.7441219091415405,0.002073523588478565,-0.011712849140167236,-0.011722147464752197,-0.060281652957201004,0.024315211921930313,0.0009176451712846756,0.015236791324746908,-0.7314474884547573,-2.2722525825476527
1687092996.075831,0.012288464233279228,0.6711501479148865,-0.7412195801734924,0.00048310402780771255,8.398294448852539e-05,0.019158482551574707,-0.06559186428785324,0.007177771534770727,0.008517241105437279,0.016577191087463326,-0.735759187001422,-2.271649176701919
1687092996.08186,0.01233957801014185,0.6718499660491943,-0.7405844330787659,-0.0011854367330670357,-0.011358022689819336,0.011382222175598145,-0.006196046248078346,-0.005664789583534002,-0.014591540209949017,0.016660404343534958,-0.736703609760675,-2.27186349733055
1687092996.1363769,0.012046474032104015,0.6733763813972473,-0.7392016649246216,0.003929435275495052,0.00502932071685791,-0.014658749103546143,-0.033583130687475204,-0.008377352729439735,-0.0031388821080327034,0.016295158158350156,-0.7387663575987976,-2.272163339064181
1687092996.225161,0.011737316846847534,0.6735778450965881,-0.7390230894088745,-0.0006594760343432426,-0.0019011497497558594,0.0016573667526245117,0.014339655637741089,-0.003500571707263589,-0.008791174739599228,0.015880870480444793,-0.7390388662541619,-2.2722749386820986
1687092996.231038,0.011472176760435104,0.6727766990661621,-0.73975670337677,-0.0025916025042533875,0.00808572769165039,-0.0056809186935424805,0.030077407136559486,-0.0026319818571209908,-0.0026006577536463737,0.015506797798472015,-0.7379554895895593,-2.2725146114010477
1687092996.2852712,0.011117471382021904,0.6726123690605164,-0.7399114370346069,-0.0008330969139933586,-0.003407716751098633,0.002713620662689209,0.018601445481181145,-0.001004790305159986,-0.009570149704813957,0.015024277807343882,-0.7377334046650106,-2.273064402596595
1687092996.370673,0.010656840167939663,0.6711652874946594,-0.7412312030792236,-0.003561539575457573,-0.010780155658721924,0.003895998001098633,0.029342640191316605,-0.0010745651088654995,-0.015003531239926815,0.01437622493892158,-0.7357796101656787,-2.2738165927055567
1687092996.377912,0.010487431660294533,0.6702948212623596,-0.7420207858085632,0.0043593235313892365,-0.007193624973297119,-0.008803129196166992,0.00399660412222147,0.008095630444586277,-0.013874084688723087,0.014132667672402647,-0.7346060235344163,-2.274624251491697
1687092996.4380798,0.010025548748672009,0.6696662306785583,-0.7425945997238159,0.003051198087632656,0.0016747713088989258,0.004038691520690918,0.031851738691329956,-0.0019089335110038519,-0.020571935921907425,0.013499882429159572,-0.7337592415535416,-2.275891196183107
1687092996.5560532,0.00973863061517477,0.668260931968689,-0.7438632249832153,0.0047724321484565735,-0.006655097007751465,-0.006533503532409668,0.011718573048710823,0.007462863810360432,-0.017615292221307755,0.013091215500316443,-0.7318686210107876,-2.276852728628367
1687092996.562243,0.009255882352590561,0.6683756113052368,-0.7437663078308105,-0.004632508382201195,0.008626341819763184,-0.005989551544189453,0.008420580998063087,0.004394236020743847,-0.014092463999986649,0.012443968457769967,-0.7320228428572981,-2.2780273902753754
1687092996.704395,0.009137552231550217,0.6683138608932495,-0.743823230266571,-0.00445313286036253,0.0035611391067504883,0.0028412938117980957,0.01795070245862007,-0.0008476638467982411,-0.006290999706834555,0.01228395685237891,-0.7319397636312382,-2.278472987074891
1687092996.7100868,0.008792437613010406,0.6682154536247253,-0.7439157962799072,-0.004169058054685593,-0.005770444869995117,-0.000758826732635498,-0.02504863031208515,0.0021003223955631256,-0.005890193860977888,0.011818579388588548,-0.7318075441536804,-2.2792429628885
1687092996.767735,0.008589684963226318,0.6686183214187622,-0.7435561418533325,0.0021677184849977493,-0.004311680793762207,0.0051528215408325195,0.0014812485314905643,-0.0028331836219877005,-0.010997870936989784,0.011551653230567262,-0.7323491438099072,-2.2797672818587698
1687092996.7775831,0.008529146201908588,0.6685745716094971,-0.7435961961746216,0.00343369971960783,-0.01262974739074707,0.001759648323059082,-0.017319869250059128,0.001401508809067309,-0.004896035883575678,0.0114696278589477,-0.7322903108881057,-2.2799486286494726
1687092996.780901,0.008323104120790958,0.668691873550415,-0.7434930205345154,-0.002372225746512413,0.015527486801147461,-0.007559776306152344,0.034469157457351685,1.2137694284319878e-05,-0.007236422039568424,0.01119412905786263,-0.7324480657841442,-2.2805504660142284
1687092996.823032,0.008219675160944462,0.6682500839233398,-0.7438912987709045,-0.00022411439567804337,0.006417274475097656,-0.005925595760345459,0.010940729640424252,0.007604676764458418,-0.008415669202804565,0.01104911464672371,-0.731854043616656,-2.280911703042356
1687092996.883642,0.00811122264713049,0.6683493852615356,-0.7438032627105713,-0.006463311612606049,-0.0037986040115356445,-0.0068680644035339355,-0.025456491857767105,0.008316938765347004,0.004283081740140915,0.010904631979435402,-0.7319875235798688,-2.2813513326502424
1687092996.9769979,0.008439112454652786,0.6696261763572693,-0.7426503300666809,-0.0036173779517412186,-0.006372392177581787,0.006490111351013184,-0.04858851060271263,0.0028458742890506983,0.002316070720553398,0.011363018088146997,-0.7337053571857064,-2.281178581377852
1687092996.9825702,0.008529074490070343,0.6716563701629639,-0.7408137321472168,0.0018926532939076424,-0.011896848678588867,0.0019221305847167969,-0.08968833833932877,-0.02934521809220314,0.006546236574649811,0.01151260809730834,-0.736442270579512,-2.2808400256600145
1687092997.0684118,0.006244305055588484,0.6734769344329834,-0.7391818165779114,0.003094031009823084,0.0396273136138916,-0.019607186317443848,0.051982637494802475,-0.03827106952667236,-0.027611201629042625,0.008447389019589429,-0.7389023509628794,-2.281058119263359
1687092997.1568232,0.004544553812593222,0.6699234247207642,-0.7424163222312927,-0.03194938227534294,0.01945340633392334,-0.0497283935546875,0.13047152757644653,0.03953837603330612,0.003777347505092621,0.006121224345119286,-0.7341056350972098,-2.280937388830887
1687092997.1630712,0.005309767089784145,0.6682443618774414,-0.7439228892326355,-0.0219418965280056,-0.03947538137435913,-0.0060923099517822266,-0.061838533729314804,0.037869639694690704,0.02663366124033928,0.007137402213194212,-0.7318463284627232,-2.280434441425454
1687092997.248447,0.007206740789115429,0.669403076171875,-0.7428644299507141,0.00937952846288681,0.00927734375,-0.0022832751274108887,-0.04379328712821007,0.0213208869099617,0.03417573124170303,0.009700982735322857,-0.7334049877827372,-2.278744668792213
1687092997.2615728,0.007642281241714954,0.6699313521385193,-0.7423837184906006,0.015901993960142136,0.007787764072418213,0.008405447006225586,0.03471476957201958,-0.028485151007771492,0.007898589596152306,0.010293883423571883,-0.7341163469960407,-2.277622302308753
1687092997.33968,0.008216874673962593,0.6708085536956787,-0.7415849566459656,0.0023879539221525192,-0.02839827537536621,-0.0046308040618896484,-0.11813649535179138,0.022200264036655426,0.008249327540397644,0.011079699015789908,-0.7352985157426667,-2.2769978144893726
1687092997.34479,0.00981986429542303,0.6740861535072327,-0.738587498664856,0.0058203646913170815,0.012422025203704834,0.008652806282043457,0.010024270042777061,-0.0050305575132369995,0.023288197815418243,0.013294681787152972,-0.7397268151761202,-2.275526456995495
1687092997.4254808,0.010284105315804482,0.6698641180992126,-0.7424125075340271,-0.012511929497122765,-0.04465043544769287,-0.034244537353515625,-0.058267101645469666,0.04162522777915001,0.007308432832360268,0.013851393029029437,-0.7340257349156839,-2.2738554961161106
1687092997.430293,0.011264867149293423,0.6732702851295471,-0.739310622215271,0.0030173081904649734,0.04686826467514038,-0.004662156105041504,0.0014001554809510708,-0.008505983278155327,0.011564429849386215,0.015235808611594208,-0.7386228232380492,-2.2733194542578095
1687092997.4856482,0.01087404415011406,0.6731143593788147,-0.7394585013389587,-0.002970014698803425,-0.00017118453979492188,-0.00674206018447876,-0.020871726796030998,0.004636983387172222,0.011280803009867668,0.014704355148245103,-0.7384119556510713,-2.2731990378870024
1687092997.5745711,0.01210789754986763,0.6765888333320618,-0.7362614870071411,0.004142685793340206,0.006531894207000732,-0.011098742485046387,-0.0969150960445404,0.020377863198518753,-0.004634247161448002,0.016443623500455008,-0.7431202663291544,-2.2726683391627716
1687092997.581317,0.01196606270968914,0.6772861480712891,-0.7356223464012146,-0.0010102763772010803,-0.009439468383789062,0.0048026442527771,-0.011997142806649208,-0.011311623267829418,-0.005470746196806431,0.01626514966127154,-0.7440676480592812,-2.272612903153386
1687092997.631246,0.01142401434481144,0.6755276918411255,-0.7372460961341858,0.009160068817436695,-0.007482647895812988,0.005404114723205566,0.043709926307201385,-0.004391665570437908,-0.010962184518575668,0.015494283169211179,-0.7416801491411846,-2.272799251380141
1687092997.7187018,0.012139533646404743,0.6768516898155212,-0.7360192537307739,0.005240180529654026,0.031964778900146484,-0.014621555805206299,0.013286175206303596,0.007456605322659016,0.012221165001392365,0.016492004385110524,-0.7434773159131773,-2.272822399012555
1687092997.732172,0.011872910894453526,0.6757326722145081,-0.7370511889457703,-0.003602691926062107,0.015017509460449219,-0.003137350082397461,0.049543917179107666,-0.004428283777087927,0.0010902173817157745,0.0161072714835853,-0.7419581400332332,-2.2729609554128554
1687092997.7865062,0.011928744614124298,0.6756648421287537,-0.7371124625205994,-0.010143490508198738,-0.015539109706878662,-0.017694056034088135,-0.0692819356918335,0.029810912907123566,-0.015584899112582207,0.016181660250383954,-0.7418661541516697,-2.2732738016327168
1687092997.9079452,0.011916544288396835,0.6760575771331787,-0.736752450466156,-0.0039515066891908646,-0.008317708969116211,0.0017061233520507812,-0.0057236007414758205,-0.0034285332076251507,0.0057680606842041016,0.01617301053085935,-0.742399021069799,-2.2735701263453962
1687092997.913847,0.011822368949651718,0.6752269268035889,-0.7375152707099915,0.002230929210782051,0.002995729446411133,0.0021332502365112305,0.025011608377099037,-0.013583033345639706,0.007708173245191574,0.016028625762052728,-0.7412723168712689,-2.2731992410628536
1687092997.9980779,0.01161127258092165,0.6762110590934753,-0.7366164922714233,0.01217714324593544,0.006390929222106934,0.00948941707611084,0.016638629138469696,-0.00716801080852747,-0.008246292360126972,0.015761677331167106,-0.7426073250637906,-2.2737889021745636
1687092998.0097709,0.01163773238658905,0.6761639714241028,-0.7366592288017273,0.0008897017687559128,0.007124602794647217,-0.014515697956085205,-0.006695588119328022,-0.000683479942381382,0.005365390330553055,0.015796672085475843,-0.7425434588151857,-2.273454903199832
1687092998.1162739,0.011298634111881256,0.6775045990943909,-0.7354317903518677,0.006599893793463707,-0.0017233490943908691,0.004413723945617676,-0.025392109528183937,-0.0239681638777256,-0.022560518234968185,0.015362056403455237,-0.7443645962172171,-2.2739493626323806
1687092998.128619,0.009534426964819431,0.674568235874176,-0.738150954246521,-0.002179739996790886,-0.0035019516944885254,0.039710402488708496,0.26516276597976685,-0.07571524381637573,-0.020263273268938065,0.012915918045381862,-0.7403796753117277,-2.274362847984785
1687092998.208313,0.004819639027118683,0.6517684459686279,-0.7584027051925659,-0.022840317338705063,0.07204747200012207,0.015345513820648193,0.8153414726257324,-0.08585656434297562,0.006893245503306389,0.0063549007947780204,-0.7099138793933981,-2.2767795589103073
1687092998.2141871,0.008799923583865166,0.6280319690704346,-0.778137743473053,0.0478406623005867,0.06442713737487793,0.060639023780822754,0.7613114714622498,-0.0031767315231263638,0.08343195915222168,0.011308470730691838,-0.679021643984576,-2.2705692869321754
1687092998.2978358,0.016208184882998466,0.5963273048400879,-0.8025777339935303,-0.0189853273332119,-0.1345353126525879,-0.10062050819396973,0.9224778413772583,0.17189174890518188,0.011096512898802757,0.020192414293615606,-0.6389181121881382,-2.261510048457334
1687092998.3110862,0.01991872861981392,0.5842276215553284,-0.8113453388214111,0.021066337823867798,0.03462308645248413,0.2398579716682434,0.24726438522338867,-0.10654093325138092,-0.13268142938613892,0.024545316599323106,-0.623928080586722,-2.2647517290807
1687092998.390815,0.005061490461230278,0.5852850079536438,-0.8108118176460266,-0.014399909414350986,0.1334497332572937,-0.2060033679008484,0.02166847512125969,-0.07718157768249512,-0.20140190422534943,0.006242415968806984,-0.6252315314519253,-2.28430521168847
1687092998.397015,0.002812522929161787,0.5805043578147888,-0.8142522573471069,-0.04439276456832886,0.041565895080566406,0.02534240484237671,0.2876247763633728,0.08020191639661789,-0.061368364840745926,0.0034541036678210147,-0.6193479943415272,-2.293692431306482
1687092998.4021091,0.005316875409334898,0.5589977502822876,-0.8291521072387695,-0.02475660666823387,0.024223744869232178,0.013646185398101807,0.6331156492233276,0.039883650839328766,0.11607645452022552,0.00641233653225923,-0.5931765385500865,-2.2907769382449596
1687092998.471838,0.012663522735238075,0.534035325050354,-0.8453673124313354,-0.020186148583889008,0.001319289207458496,-0.023178160190582275,0.48445209860801697,0.16827531158924103,0.14159353077411652,0.014978785385575205,-0.5633663088233248,-2.2834355932276877
1687092998.5674481,0.02312876656651497,0.523396372795105,-0.8517754077911377,0.015582738444209099,-0.08185279369354248,0.053801774978637695,0.11701210588216782,0.11506389081478119,0.0638984739780426,0.02714692673017971,-0.5508320469267685,-2.2768992836140587
1687092998.579886,0.028271719813346863,0.5203368067741394,-0.8534930348396301,0.011431604623794556,-0.02099287509918213,0.0018543004989624023,0.0056733302772045135,0.0713515654206276,-0.02085156738758087,0.03311261509177361,-0.5472452748151383,-2.2749376397968866
1687092998.625143,0.02873404137790203,0.5219587087631226,-0.8524866700172424,0.0007611662149429321,-0.004639923572540283,0.0030451416969299316,0.024639764800667763,0.005410764366388321,-0.09205703437328339,0.033693391893917325,-0.5491456455358039,-2.277979846767389
1687092998.713095,0.027062540873885155,0.5141419768333435,-0.857278048992157,0.0023410990834236145,0.031725943088531494,0.0008785724639892578,0.286036878824234,-0.06100820377469063,-0.00015614181756973267,0.031557506421959536,-0.5400069523884682,-2.279811062965375
1687092998.726711,0.02508879266679287,0.5065088868141174,-0.8618696331977844,-0.008349934592843056,-0.019845008850097656,0.0103682279586792,0.13318301737308502,-0.027830014005303383,-0.015175838023424149,0.029101510331460793,-0.5311310220428348,-2.2810974436913085
1687092998.7714748,0.025041306391358376,0.5039375424385071,-0.8633769750595093,-0.01849532127380371,-0.00535660982131958,-0.005870401859283447,-0.04169658198952675,0.030276034027338028,-0.0030960049480199814,0.028995778726336574,-0.5281514827569327,-2.2814551745940244
1687092998.901466,0.02509346604347229,0.5074416399002075,-0.8613206744194031,0.024467037990689278,-0.01829063892364502,0.006752192974090576,-0.05141312628984451,-0.028231749311089516,-0.02673662081360817,0.029125470878415747,-0.5322131919786216,-2.283016647933236
1687092998.914262,0.022748425602912903,0.5094030499458313,-0.8602273464202881,-0.009458061307668686,0.005428493022918701,0.003675222396850586,-0.056068263947963715,-0.02059979736804962,-0.06014437600970268,0.02643850450599416,-0.5344909606150511,-2.285757021388117
1687092999.018962,0.02113156206905842,0.5086709260940552,-0.8607016801834106,-0.005979627370834351,-0.0094490647315979,0.0076133012771606445,0.03516264632344246,-0.02141192927956581,0.010061075910925865,0.024546621381813093,-0.5336403510441703,-2.2871647646229705
1687092999.033076,0.02106815204024315,0.5097845196723938,-0.8600441217422485,-0.002452462911605835,0.009334743022918701,-0.0067160725593566895,-0.041888464242219925,-0.0013793639373034239,-0.009274272248148918,0.024491695484773483,-0.534934280228599,-2.28740080366425
1687092999.03687,0.019380316138267517,0.5127177238464355,-0.858338475227356,-0.0030687078833580017,-0.007346630096435547,-0.006178677082061768,-0.09843356162309647,-0.00795537419617176,-0.0708865076303482,0.022575038593438502,-0.5383472447177643,-2.2905368054360564
1687092999.0690122,0.017921779304742813,0.5140674114227295,-0.8575625419616699,-9.955093264579773e-05,0.04028439521789551,-0.0009121298789978027,0.0698738843202591,-0.01652449369430542,-0.004302683286368847,0.020895468378946742,-0.5399200309288025,-2.293650541898721
1687092999.168772,0.01737968809902668,0.5108143091201782,-0.859515368938446,-0.006042448803782463,-0.022594094276428223,-0.0006530284881591797,-0.02231995388865471,-0.01367118302732706,-0.016704492270946503,0.0202175798699346,-0.5361317462822347,-2.2931942610039817
1687092999.18172,0.016547761857509613,0.5127312541007996,-0.858389675617218,-0.005378361791372299,0.00899726152420044,0.0002964138984680176,-0.01772719994187355,0.020227394998073578,0.015368489548563957,0.01927529446024487,-0.5383630491946603,-2.2940658398041975
1687092999.2617102,0.017618034034967422,0.5160102844238281,-0.8564012050628662,0.005239587277173996,-0.025989532470703125,-0.0017225146293640137,-0.14907564222812653,0.010234680958092213,-0.042345404624938965,0.02056927171265853,-0.5421866364000832,-2.294034657152563
1687092999.3455892,0.016593890264630318,0.5194211006164551,-0.8543572425842285,-0.00518035888671875,0.020327985286712646,0.007708132266998291,-0.044101350009441376,0.018896212801337242,0.015607375651597977,0.01942021830136257,-0.5461733612509299,-2.296950739404251
1687092999.358036,0.01711297407746315,0.521295428276062,-0.8532046675682068,0.006599146872758865,0.012624859809875488,-0.011281967163085938,-0.026051774621009827,-0.01192508265376091,-0.005628138780593872,0.020054602332982393,-0.5483682524567396,-2.2966342595779032
1687092999.4359999,0.01630096510052681,0.5193596482276917,-0.8544002771377563,-0.003544650971889496,0.01126474142074585,0.0034176111221313477,0.09242407232522964,-0.03361532837152481,0.01092926599085331,0.019076523532031178,-0.5461014492038844,-2.296331657516838
1687092999.4480119,0.014959502965211868,0.5172449946403503,-0.8557066321372986,0.006891040131449699,-0.013109862804412842,0.007134854793548584,0.025426195934414864,-0.02757967635989189,-0.0014243386685848236,0.017480266006204535,-0.5436287462156801,-2.2966565090049476
1687092999.526463,0.014139078557491302,0.5179148316383362,-0.8553153276443481,-0.002267780713737011,-0.0032816529273986816,-0.0014046430587768555,-0.03281933441758156,-0.0167095847427845,-0.030738018453121185,0.016529331885997676,-0.5444116200976681,-2.297182391376122
1687092999.5317879,0.012441569939255714,0.5145719647407532,-0.8573569059371948,-0.0038051316514611244,0.010635554790496826,0.015071749687194824,0.1604422628879547,-0.04093582555651665,0.021841567009687424,0.014510522321711052,-0.5405083978577289,-2.2977318267214306
1687092999.614011,0.012062210589647293,0.5128759145736694,-0.858377993106842,-0.004203966818749905,-0.008496642112731934,-0.013310790061950684,-0.05170054733753204,0.01961020566523075,-0.011667922139167786,0.014051404572555503,-0.5385315069365844,-2.2977989896781104
1687092999.706708,0.011524174362421036,0.511775016784668,-0.859042227268219,-0.0014381501823663712,0.01866626739501953,-0.0039185285568237305,0.06881748139858246,-0.026467006653547287,0.010597702115774155,0.013414338951620705,-0.5372495910467747,-2.2979115956832756
1687092999.7124128,0.010664133355021477,0.5115624666213989,-0.8591799139976501,0.0016649235039949417,0.0038183927536010742,-0.0061917901039123535,-0.02395986206829548,-0.00830930843949318,-0.017689062282443047,0.01241135398158436,-0.5370022555577412,-2.298740115942818
1687092999.797915,0.009916668757796288,0.511027455329895,-0.8595072031021118,-0.006330890581011772,-0.01194298267364502,0.004313111305236816,-0.01552503276616335,-0.012081276625394821,-0.01436623651534319,0.011537110072785938,-0.5363797033062522,-2.2989408099162087
1687092999.8112779,0.009680683724582195,0.5136600136756897,-0.8579391837120056,-0.002493837848305702,-0.005771219730377197,-0.007096827030181885,-0.07096073031425476,0.016108816489577293,-0.01868135668337345,0.011283168805875533,-0.539445159878828,-2.2997866461481684
1687092999.886055,0.009360278956592083,0.5118808746337891,-0.8590054512023926,0.00042055826634168625,0.0020503997802734375,0.016521990299224854,0.06812332570552826,-0.029402343556284904,0.006998173892498016,0.010896215087507443,-0.5373728205464211,-2.2997542246934075
1687092999.897141,0.007946295663714409,0.51392662525177,-0.857797384262085,-0.005596480332314968,0.004765450954437256,-0.011862039566040039,-0.08477367460727692,0.0032237765844911337,-0.019981510937213898,0.009263339225104427,-0.5397558882816228,-2.301252798815605
1687092999.977491,0.007669854909181595,0.5155685544013977,-0.8568139672279358,-0.0014290469698607922,0.030055224895477295,0.0019708871841430664,0.03321467712521553,-0.02568044327199459,0.003297712653875351,0.008951359689402173,-0.5416710684761759,-2.302121812950509
1687092999.9824,0.004874106030911207,0.5156928896903992,-0.8567596673965454,0.0005427277646958828,0.00205308198928833,-0.015234291553497314,-0.036091096699237823,-0.06252594292163849,-0.03077743388712406,0.005688938763834904,-0.541816138953617,-2.3039379175036334
1687093000.096987,-0.00041927711572498083,0.5223292708396912,-0.8527438044548035,0.016669852659106255,-0.05769914388656616,0.020758330821990967,-0.18770571053028107,-0.17990756034851074,-0.12238271534442902,-0.0004916800115064169,-0.5495801946050494,-2.307721150593449
1687093000.110486,-0.00906633771955967,0.5364768505096436,-0.8438663482666016,0.008028696291148663,-0.12011027336120605,-0.011037826538085938,-0.6514905691146851,-0.1896241009235382,-0.17162856459617615,-0.010743394559579225,-0.5662567675354194,-2.313335153952054
1687093000.186491,-0.02382015809416771,0.5403448939323425,-0.8411064147949219,-0.051176831126213074,-0.00784367322921753,0.003856658935546875,-0.0639263242483139,-0.07692884653806686,-0.021657971665263176,-0.028312461640210534,-0.5708469665752812,-2.322822211371209
1687093000.198368,-0.03219534829258919,0.5516125559806824,-0.8334788680076599,0.0924980491399765,0.09543633460998535,-0.023637771606445312,0.019391139969229698,-0.46074560284614563,-0.13938647508621216,-0.03860847571039458,-0.5842963024626306,-2.3291051648331313
1687093000.309546,-0.04228411987423897,0.5559711456298828,-0.8301253318786621,-0.04920761659741402,-0.2185993194580078,-0.015638768672943115,-0.7057294249534607,0.09688861668109894,-0.06823132932186127,-0.05089304501648724,-0.5895308919672341,-2.3337909019483627
1687093000.3154721,-0.03434799984097481,0.5902217626571655,-0.8065100908279419,0.0010227598249912262,0.009784340858459473,-0.037011027336120605,-0.8899030685424805,0.17283731698989868,0.09243584424257278,-0.04256271083020139,-0.6313335448666306,-2.330707483588206
1687093000.397146,-0.034276753664016724,0.6110843420028687,-0.7908229827880859,-0.10213686525821686,-0.005386650562286377,0.05595976114273071,-0.31060081720352173,0.1248072013258934,-0.01054886169731617,-0.043316028652805094,-0.6574297066717707,-2.3310226590490193
1687093000.410676,-0.029435180127620697,0.633873462677002,-0.7728764414787292,0.01202487014234066,0.07558393478393555,-0.013592004776000977,-0.5166882872581482,-0.014585980214178562,0.09566199779510498,-0.03806683521587077,-0.6865511091219566,-2.329207654997586
1687093000.486495,-0.026152200996875763,0.6415987610816956,-0.766594409942627,-0.01626726984977722,-0.05857568979263306,0.09003502130508423,-0.09063323587179184,0.07433244585990906,0.11387722194194794,-0.03410155637531271,-0.6965808148476298,-2.3223537887551218
1687093000.499103,-0.020365186035633087,0.6481950283050537,-0.7612019777297974,0.007669830694794655,-0.04359602928161621,-0.006971240043640137,-0.33902326226234436,0.029278812929987907,0.09590647369623184,-0.026747605438388354,-0.7052117038390622,-2.316211381199914
1687093000.577081,-0.01637333631515503,0.6549110412597656,-0.7555285692214966,-0.0005792230367660522,0.008388519287109375,0.024785161018371582,-0.01827308163046837,0.04730388522148132,0.027579348534345627,-0.021667973884062445,-0.7140649345921429,-2.3116024106249227
1687093000.5821838,-0.014866707846522331,0.6549749374389648,-0.7555043697357178,0.0018967008218169212,-0.018057823181152344,-0.011585474014282227,-0.05733706057071686,0.01265975646674633,0.011262694373726845,-0.01967531843405841,-0.7141494683325589,-2.3102949568443694
1687093000.667649,-0.013894584029912949,0.6567030549049377,-0.7540212273597717,0.00010060425847768784,0.019429147243499756,0.0048604607582092285,0.0499134287238121,0.0001805826323106885,0.017447086051106453,-0.018425226280209404,-0.7164386811620511,-2.30908316366997
1687093000.679311,-0.013373764231801033,0.6573321223258972,-0.7534823417663574,-0.0001150369644165039,0.012543976306915283,-0.005901813507080078,-0.03333372250199318,0.00992442388087511,0.012037407606840134,-0.017747409808544203,-0.7172731227141934,-2.308862879054097
1687093000.7217588,-0.013360978104174137,0.6579883098602295,-0.7529096007347107,-0.004583388566970825,0.011719942092895508,0.006571769714355469,0.03812194988131523,0.0018651650752872229,0.004576295614242554,-0.017743930589541913,-0.7181441613316097,-2.308847118959294
1687093000.815294,-0.012942248955368996,0.6565870046615601,-0.7541393041610718,0.00033845193684101105,-0.008012175559997559,-0.004222512245178223,-0.0009695254266262054,0.008337978273630142,-0.0031950753182172775,-0.01715993144084535,-0.7162847819857205,-2.308392240710215
1687093000.828979,-0.012925504706799984,0.6575862169265747,-0.7532683610916138,0.0013745669275522232,0.008612453937530518,0.0005370974540710449,-0.00017969822511076927,-0.002843969501554966,0.004403190687298775,-0.017157545446430528,-0.7176103113504008,-2.3085802877334562
1687093000.910003,-0.012997989542782307,0.6577678322792053,-0.753108561038971,-0.0057856235653162,0.013878285884857178,-0.004124045372009277,0.01844145730137825,0.0027266978286206722,0.008084211498498917,-0.01725740448625462,-0.717851440208324,-2.3084337054843846
1687093000.998807,-0.012878048233687878,0.6576564311981201,-0.7532079219818115,0.004394130781292915,0.011075258255004883,-0.006633937358856201,0.010479403659701347,-0.0018022740259766579,-0.007257993333041668,-0.01709593496173083,-0.7177035033158896,-2.308354751461214
1687093001.011817,-0.01354337576776743,0.6578293442726135,-0.7530452013015747,-0.010153554379940033,0.012794435024261475,0.001610875129699707,0.004022170789539814,2.816668711602688e-06,0.0010899510234594345,-0.017982873082052268,-0.7179331187590687,-2.309093195781981
1687093001.081411,-0.013081075623631477,0.6576603055000305,-0.7532010078430176,0.004032578319311142,-0.009024441242218018,0.0034452080726623535,0.014380868524312973,1.2270931620150805e-05,-0.005958104506134987,-0.01736556477860106,-0.7177086366788461,-2.308736145178444
1687093001.092173,-0.013325754553079605,0.6575164794921875,-0.7533223032951355,0.00023367349058389664,-0.00433349609375,0.0009877681732177734,0.03790903091430664,0.00772465206682682,0.009236561134457588,-0.017687468446258684,-0.7175177849884445,-2.308972641307245
1687093001.176769,-0.01325999852269888,0.6584038734436035,-0.7525480389595032,-0.03729240223765373,0.021939754486083984,0.044708073139190674,0.052492231130599976,0.0120573490858078,0.0201944038271904,-0.01761831372782978,-0.7186961831773543,-2.3088666177559083
1687093001.182867,-0.012745644897222519,0.6572931408882141,-0.7535272240638733,0.02269434556365013,-0.007406055927276611,-0.02993530035018921,0.004079295322299004,-0.0021487511694431305,-0.02517600730061531,-0.0169130316001891,-0.7172213621206551,-2.308519160968496
1687093001.23195,-0.014184580184519291,0.6580047011375427,-0.7528801560401917,-0.024801665917038918,0.004211485385894775,0.011303067207336426,-0.024469725787639618,0.017840802669525146,0.011021144688129425,-0.018838193349450753,-0.7181659637055902,-2.31016440726989
1687093001.323164,-0.01257531438022852,0.6585466265678406,-0.7524348497390747,-0.00045572593808174133,0.00044995546340942383,0.001931309700012207,0.012414589524269104,0.010948941111564636,0.0007834210991859436,-0.016711272231632646,-0.7188858485486614,-2.3087542585650693
1687093001.329517,-0.013927564956247807,0.6584529280662537,-0.7524930238723755,-0.010959561914205551,-0.002233445644378662,0.010656476020812988,0.013374259695410728,0.002121893921867013,0.001834837719798088,-0.01850645111064949,-0.7187613400880685,-2.31017557110506
1687093001.38632,-0.013180612586438656,0.658919632434845,-0.7520978450775146,0.0025909747928380966,0.007675826549530029,-0.0045244693756103516,-0.007438210304826498,-0.012701260857284069,-0.0033380864188075066,-0.017523335384203937,-0.7193815900074834,-2.3093237812055247
1687093001.473404,-0.014740575104951859,0.6578367352485657,-0.7530163526535034,-0.003753112629055977,-0.0239713191986084,0.009714961051940918,0.02417437732219696,-0.02299397997558117,-0.020211076363921165,-0.019572872719414276,-0.7179428725221357,-2.3102948452992447
1687093001.479546,-0.015966476872563362,0.6564033627510071,-0.7542411088943481,-0.008218741044402122,0.01652449369430542,0.01248091459274292,0.08881428837776184,-0.0012440753635019064,-0.010177616961300373,-0.021165768592574213,-0.7160413303903201,-2.310860822881815
1687093001.598638,-0.017010383307933807,0.6496443152427673,-0.7600480318069458,-0.031955111771821976,-0.004746854305267334,0.0003434419631958008,0.2967875301837921,0.018309518694877625,-0.015714062377810478,-0.02237693410667491,-0.7071164743294059,-2.311855297460833
1687093001.61089,-0.0173727385699749,0.644184410572052,-0.7646728754043579,0.020546523854136467,0.044658362865448,-0.01343381404876709,0.16403235495090485,-0.04018907994031906,-0.011663127690553665,-0.02271526991122895,-0.6999564983637842,-2.3123304133390903
1687093001.681291,-0.01947817951440811,0.6381419897079468,-0.7696722149848938,-0.012229613959789276,-0.021763265132904053,-0.017025113105773926,0.1150202602148056,0.02243369072675705,-0.01367780938744545,-0.02530170967302534,-0.6920826229428356,-2.3142559482917187
1687093001.691287,-0.019693486392498016,0.6298882365226746,-0.7764360904693604,0.00228317454457283,0.02382880449295044,0.007545769214630127,0.2927054464817047,-0.06963790953159332,0.007929481565952301,-0.02535851429509228,-0.6814092767884921,-2.3125879540068297
1687093001.775704,-0.02135251648724079,0.6201043725013733,-0.7842287421226501,-0.00501471571624279,0.012525081634521484,0.030520856380462646,0.4024571478366852,-0.010272190906107426,-0.009626874700188637,-0.02722068307639432,-0.6688757087485638,-2.313345202557794
1687093001.780504,-0.020438505336642265,0.5981726050376892,-0.8011066317558289,0.0037911217659711838,0.03972107172012329,0.023595094680786133,0.7362210750579834,0.0018131004180759192,0.004515841603279114,-0.025507307125178673,-0.6412188281279474,-2.311889249032131
1687093001.866606,-0.020884307101368904,0.5650317668914795,-0.8248047828674316,0.008509386330842972,0.017518281936645508,-0.013833463191986084,0.7932177186012268,-0.04005378857254982,0.06914490461349487,-0.02531489326348832,-0.6004717562215254,-2.3089339994586418
1687093001.879287,-0.01918284222483635,0.5398896336555481,-0.8415172100067139,-0.002881402149796486,-0.054217636585235596,-0.012608766555786133,0.38543909788131714,-0.02172338403761387,0.019795462489128113,-0.022791595806533418,-0.5703059974396153,-2.30394540317428
1687093001.922631,-0.02445828914642334,0.5204758644104004,-0.8535260558128357,0.028654415160417557,0.027741968631744385,0.012309014797210693,0.49418649077415466,-0.12980350852012634,-0.049338601529598236,-0.028647747863606778,-0.5474081364414457,-2.30421196862393
1687093002.048094,-0.028208913281559944,0.5067280530929565,-0.8616443276405334,-0.01341710053384304,-0.05216866731643677,-0.010746359825134277,0.061496783047914505,0.015287763439118862,-0.00778290256857872,-0.03272677614209226,-0.5313852253756255,-2.304893275690216
1687093002.109005,-0.030337171629071236,0.5042502284049988,-0.8630245327949524,0.006457135081291199,0.01370936632156372,0.004366755485534668,0.09964004158973694,-0.08285797387361526,-0.086396224796772,-0.03513768474936039,-0.5285135082511999,-2.307101831604531
1687093002.115385,-0.03333641588687897,0.49950912594795227,-0.8656669855117798,-0.014011643826961517,-0.011853456497192383,0.0008751153945922852,0.08089737594127655,0.03909029811620712,-0.0027977311983704567,-0.03849049770725523,-0.5230320454917544,-2.310299142065484
1687093002.120292,-0.03412243723869324,0.49389755725860596,-0.8688503503799438,0.005390100181102753,0.03094378113746643,0.0007015466690063477,0.2232900708913803,-0.061930056661367416,-0.011933173052966595,-0.039252917366189195,-0.5165665003876077,-2.3106555353724447
1687093002.1937242,-0.033079396933317184,0.4896825850009918,-0.8712731003761292,-0.009019635617733002,-0.028745055198669434,-0.00589364767074585,-0.008660668507218361,0.0823441669344902,0.02355850860476494,-0.03794851002866674,-0.5117256536224034,-2.3102657804746114
1687093002.292046,-0.03044087067246437,0.48990094661712646,-0.8712464570999146,0.005599521100521088,-0.009889930486679077,0.008133113384246826,0.009604621678590775,0.03451884910464287,-0.03262646496295929,-0.0349252410904563,-0.5119761140098742,-2.3101961878285957
1687093002.2961578,-0.031378645449876785,0.4856494963169098,-0.8735902905464172,0.011999949812889099,0.011726021766662598,-0.011251628398895264,0.15635758638381958,-0.012763711623847485,-0.01401603128761053,-0.03590374172182397,-0.5071059978650372,-2.311747237772064
1687093002.377294,-0.033040985465049744,0.47695648670196533,-0.8783056735992432,-0.003152899444103241,-0.017254948616027832,0.011957406997680664,0.1822655349969864,-0.06689818203449249,-0.01661740615963936,-0.03760127395390819,-0.4971886982852746,-2.3116129264333805
1687093002.383086,-0.03483154997229576,0.4754023253917694,-0.87907874584198,-0.006611354649066925,-0.0015253424644470215,-0.01354515552520752,-0.054724302142858505,-0.0012556600850075483,-0.016241101548075676,-0.0396020707978212,-0.49542129254126704,-2.313173073767588
1687093002.461022,-0.03412477672100067,0.4790053367614746,-0.877148449420929,0.0013030804693698883,0.01580670475959778,-0.004962146282196045,-0.05735490471124649,0.02450602874159813,0.014827867969870567,-0.038884611508006255,-0.4995212363059956,-2.3134318523810227
1687093002.466093,-0.03159390017390251,0.47994309663772583,-0.8767305612564087,-0.0018839240074157715,0.0036689937114715576,-0.007363677024841309,-0.005273193586617708,0.05987360700964928,0.025541499257087708,-0.036020457360960614,-0.5005898402516045,-2.312347410563998
1687093002.5267792,-0.03131702542304993,0.4802103042602539,-0.8765941858291626,-0.008584745228290558,0.009810477495193481,0.006232857704162598,0.011348925530910492,0.005457769148051739,-0.014034673571586609,-0.03571061102026907,-0.5008944509238502,-2.31276271768676
1687093002.614507,-0.030183875933289528,0.4789116680622101,-0.8773440718650818,-0.005063967779278755,-0.016249924898147583,-0.006231367588043213,-0.013301558792591095,0.05328734219074249,0.03331340104341507,-0.034390129217728625,-0.4994145565903283,-2.3118817448395887
1687093002.627953,-0.027601320296525955,0.4818623661994934,-0.8758120536804199,0.007719080895185471,0.0022685229778289795,0.0025668740272521973,-0.061222147196531296,0.013913705013692379,0.005134493112564087,-0.03150469047375581,-0.5027788647324849,-2.3105013745946574
1687093002.672998,-0.02840009331703186,0.4811694622039795,-0.8761674761772156,0.0066105034202337265,-0.0015856921672821045,-0.0016706585884094238,0.053410157561302185,-0.016763780266046524,-3.097299486398697e-05,-0.03240265660699259,-0.5019882578257037,-2.3105842639256453
1687093002.76727,-0.029061995446681976,0.4819374680519104,-0.8757234811782837,0.0009400118142366409,-0.014408141374588013,0.0003268122673034668,-0.03358639031648636,-0.025118649005889893,-0.010483347810804844,-0.03317409398768316,-0.5028645860638229,-2.3109612936226793
1687093002.780692,-0.029157137498259544,0.4815158545970917,-0.8759522438049316,-0.00923401303589344,-0.005701035261154175,-0.004830777645111084,0.003731486387550831,-0.00099933089222759,0.005445018410682678,-0.03327393344988787,-0.5023834664985191,-2.3105587258709672
1687093002.822401,-0.029433753341436386,0.4813314378261566,-0.8760443329811096,-0.0110936239361763,0.0067819952964782715,-0.0018242597579956055,-0.005007876083254814,0.009534403681755066,0.01887214556336403,-0.033585839486108326,-0.5021730450182138,-2.31029389810236
1687093002.916483,-0.028407759964466095,0.48208341002464294,-0.8756646513938904,0.009395277127623558,0.0031613707542419434,-0.01047426462173462,-0.024886708706617355,0.0042513576336205006,0.0043403394520282745,-0.032429996008548685,-0.5030311347999812,-2.3095659243204407
1687093002.930582,-0.029076717793941498,0.48273766040802,-0.8752821683883667,0.008355244994163513,-0.012507528066635132,0.0031203627586364746,-0.010988537222146988,-0.024414509534835815,-0.00493651581928134,-0.033207609763654354,-0.5037780462376562,-2.3099063195648912
1687093002.970413,-0.02952689863741398,0.48198947310447693,-0.8756793737411499,-0.002684440463781357,-0.004267275333404541,0.005730032920837402,0.03173455968499184,0.0025936728343367577,0.011258698999881744,-0.03370607751459814,-0.5029239246254025,-2.3098573187404456
1687093003.067851,-0.029337497428059578,0.48217660188674927,-0.8755826950073242,0.0023446567356586456,-0.02456548810005188,-0.0023164749145507812,-0.06997781991958618,-0.01297276932746172,-0.024189306423068047,-0.03349372438453762,-0.503137505173387,-2.3096638863086354
1687093003.081661,-0.03041858598589897,0.4820045530796051,-0.8756405115127563,-0.010856468230485916,0.00014266371726989746,-0.004532158374786377,0.04833437502384186,0.01488003320991993,0.010354556143283844,-0.03472470566303725,-0.5029411398094774,-2.310573484553724
1687093003.122357,-0.02947462908923626,0.48203662037849426,-0.8756551742553711,-0.004018457606434822,0.004627227783203125,-0.006165504455566406,-0.012044345960021019,-0.004538272507488728,-0.007157592102885246,-0.03364738307211673,-0.5029777408686897,-2.3099531683969006
1687093003.2131739,-0.029786374419927597,0.4804254472255707,-0.8765295743942261,-0.004194991663098335,-0.006029665470123291,-0.0020561814308166504,0.054926298558712006,0.03152066096663475,0.019700653851032257,-0.03396909406772266,-0.5011397452433546,-2.309852240457732
1687093003.219606,-0.02916792966425419,0.480368435382843,-0.8765816688537598,0.007393594831228256,-0.0015934109687805176,0.006617069244384766,0.006483397446572781,-0.023992398753762245,-0.010262304916977882,-0.03326235832560667,-0.5010747578351867,-2.309603743248323
1687093003.2741342,-0.029077794402837753,0.479580819606781,-0.8770157694816589,-0.006826180964708328,-0.009869486093521118,0.003251791000366211,-0.013790715485811234,0.03921559825539589,0.01994885876774788,-0.033143241533999966,-0.5001769624667308,-2.3093457786547917
1687093003.370151,-0.027847887948155403,0.4827917218208313,-0.8752923607826233,0.0039373282343149185,-0.010684758424758911,0.004686892032623291,-0.10894472897052765,-0.00924980454146862,-0.015929779037833214,-0.03180480063271082,-0.5038397796370919,-2.308854750678096
1687093003.383803,-0.031054558232426643,0.48689398169517517,-0.8729088306427002,0.010714560747146606,-0.0030378103256225586,-0.0021521449089050293,-0.09753628075122833,-0.07593242824077606,-0.035488568246364594,-0.03556094974504224,-0.5085302329863877,-2.3111236847205006
1687093003.457587,-0.03789988532662392,0.4890851080417633,-0.8714122772216797,-0.0031462907791137695,0.016255497932434082,-0.016664505004882812,-0.04874616861343384,-0.16114439070224762,-0.047645363956689835,-0.043465095027126234,-0.5110405286560964,-2.3140872561417316
1687093003.548441,-0.04553699120879173,0.49140486121177673,-0.8697400093078613,-0.0012464895844459534,0.010670363903045654,-0.024516582489013672,-0.13635598123073578,-0.1885835975408554,-0.037790603935718536,-0.05230925243411729,-0.5137020624817705,-2.315370933107749
1687093003.56163,-0.0527857206761837,0.5101013779640198,-0.8584930300712585,-0.013712123036384583,-0.09838873147964478,0.031008899211883545,-1.0702160596847534,0.11342844367027283,-0.16791771352291107,-0.061409179500128364,-0.5353026468999269,-2.3220027006632433
1687093003.6387649,-0.049025919288396835,0.5685730576515198,-0.8211706280708313,0.05418334901332855,0.0926055908203125,-0.0434686541557312,-0.878213107585907,-0.12928631901741028,-0.019843559712171555,-0.059631691093461454,-0.6047701878154553,-2.3293302013958974
1687093003.652906,-0.05092808976769447,0.5772383809089661,-0.8149860501289368,-0.09932523965835571,-0.12048172950744629,0.15280038118362427,-0.034992605447769165,0.15230581164360046,0.12792086601257324,-0.06240837265397063,-0.6153426549339849,-2.3295449451942316
1687093003.726499,-0.044700153172016144,0.5923420786857605,-0.8044455647468567,0.02614542469382286,0.026951134204864502,-0.038205742835998535,-0.2639891803264618,0.013588134199380875,0.03759869188070297,-0.05550932536052879,-0.6339626987483687,-2.3280550846066705
1687093003.732338,-0.04157078638672829,0.5977322459220886,-0.8006173372268677,0.008077714592218399,-0.008041024208068848,0.0027352571487426758,-0.11025380343198776,0.03466305881738663,0.011057630181312561,-0.051876831255985335,-0.6406693870285515,-2.3258057601518667
1687093003.813483,-0.040610525757074356,0.6004027724266052,-0.7986659407615662,-0.00263291597366333,0.020980894565582275,-0.0035037994384765625,0.010333262383937836,0.01563304290175438,0.012478692457079887,-0.05080419705793459,-0.6440046672573858,-2.325452375396513
1687093003.817339,-0.038872867822647095,0.6024389266967773,-0.7972177863121033,-0.00475204735994339,-0.011847436428070068,-0.007652759552001953,-0.0702228993177414,0.034952279180288315,0.0038364697247743607,-0.048722073911387845,-0.6465532435842518,-2.3252809314626477
1687093003.872209,-0.03864976763725281,0.6038545966148376,-0.7961568832397461,-0.002304859459400177,0.011379778385162354,0.0024862289428710938,-0.01273457333445549,0.011103138327598572,-0.0006922362372279167,-0.04850733525844267,-0.6483281185213033,-2.3257147642374107
1687093003.963966,-0.03820408880710602,0.6040356159210205,-0.7960410714149475,-0.004566330462694168,-0.010270297527313232,0.003820061683654785,-0.023018235340714455,0.012209681794047356,0.0007069883868098259,-0.04795581527115899,-0.6485551985263339,-2.325706353184394
1687093003.971717,-0.03756934404373169,0.6054046154022217,-0.7950306534767151,0.005739472806453705,-0.0003478527069091797,-0.0023020505905151367,-0.02941521443426609,-0.004571028985083103,0.007884740829467773,-0.04722008446183815,-0.6502741422955014,-2.3255389113483003
1687093004.0211282,-0.03765934333205223,0.6066975593566895,-0.7940402030944824,0.0019384771585464478,0.0003581047058105469,0.0018343925476074219,-0.021018801257014275,-0.0013451422564685345,-0.012394698336720467,-0.047391986427449226,-0.6518996209739677,-2.326012110691864
1687093004.111617,-0.03771945461630821,0.6068301200866699,-0.793936014175415,-0.0017703324556350708,-0.0073580145835876465,-0.0076538920402526855,-0.016210662201046944,0.009695125743746758,-0.0008477643132209778,-0.04747374159968963,-0.6520663542257698,-2.326271409298
1687093004.117536,-0.03755481168627739,0.6091358065605164,-0.7921762466430664,-0.007275547832250595,0.012842953205108643,0.003983557224273682,-0.050451524555683136,0.017932415008544922,-0.003322107717394829,-0.047371672298788366,-0.65497044113369,-2.3267748386237344
1687093004.178855,-0.0379338301718235,0.6094894409179688,-0.7918861508369446,-0.006484542042016983,0.01128387451171875,0.00328141450881958,0.013220662251114845,0.002829895354807377,-0.008676126599311829,-0.04786654548432547,-0.6554164600015049,-2.3274601174251313
1687093004.2663732,-0.038292743265628815,0.6086626052856445,-0.7925045490264893,-0.0060645826160907745,-0.008687078952789307,-0.0015627741813659668,-0.01594647765159607,0.004160277545452118,0.001051868312060833,-0.04828109136160679,-0.654373913678515,-2.3277043445257726
1687093004.276628,-0.03791790083050728,0.6097599864006042,-0.7916785478591919,-0.0033571571111679077,0.001507103443145752,0.00945204496383667,-0.00722835399210453,0.01625688746571541,0.006079649552702904,-0.04785900138247147,-0.6557577218892973,-2.3278344720079702
1687093004.322854,-0.037432584911584854,0.6098323464393616,-0.7916460037231445,0.0068539343774318695,0.0008854269981384277,-0.0009260177612304688,0.005280846729874611,-0.008787612430751324,-0.005615089554339647,-0.047249306143388514,-0.6558490304107844,-2.327724050776816
1687093004.416496,-0.03762584179639816,0.6097401976585388,-0.7917077541351318,-0.0009178929030895233,0.005753636360168457,-0.0037023425102233887,0.009419665671885014,0.0030181806068867445,0.006189106032252312,-0.047489179614336303,-0.6557327452269569,-2.32794813842508
1687093004.4297528,-0.036953240633010864,0.6103793978691101,-0.7912467122077942,0.002697225660085678,0.0025051236152648926,-0.006971001625061035,-0.032692767679691315,0.008790316060185432,0.00425245426595211,-0.04666864105155928,-0.6565395063385365,-2.327602428609162
1687093004.473257,-0.03664093092083931,0.6108942627906799,-0.7908638715744019,-0.005015607923269272,0.008170068264007568,0.0019997358322143555,0.010697716847062111,0.012259083800017834,-0.0001401631161570549,-0.046297155090183124,-0.6571896551017012,-2.3276973269265295
1687093004.563823,-0.036764055490493774,0.6103127598762512,-0.7913069725036621,-0.004984024912118912,0.007134139537811279,0.0012068748474121094,0.02225503697991371,0.011902485974133015,0.004237009212374687,-0.04642653095653298,-0.6564553611763546,-2.3278736642807494
1687093004.569888,-0.03614353761076927,0.6107217669487,-0.7910199165344238,-0.0022628717124462128,-0.0027964115142822266,0.0016980767250061035,-0.026950791478157043,0.01254337653517723,0.005088686943054199,-0.04566056305368206,-0.6569717851572806,-2.3275595523956194
1687093004.625506,-0.03604378551244736,0.6106051206588745,-0.7911145687103271,0.0018335431814193726,-0.004922747611999512,0.0008619427680969238,0.00895860604941845,-0.004874763078987598,-0.004220657981932163,-0.04552928020731567,-0.6568244478302524,-2.3274851614076977
1687093004.747195,-0.036078114062547684,0.6104418635368347,-0.7912389636039734,0.001059155911207199,0.003205597400665283,-0.0038049817085266113,0.015356983989477158,0.001056096749380231,0.0004912726581096649,-0.04556542932503737,-0.6566183254398065,-2.3276721852753774
1687093004.7528229,-0.03571366146206856,0.6110856533050537,-0.7907583713531494,-0.004020266234874725,0.005720376968383789,-0.0039803385734558105,-0.027471041306853294,0.015164191834628582,0.00539415143430233,-0.04513313836849758,-0.657431382846576,-2.3275245281275065
1687093004.8383489,-0.03563058376312256,0.6108750700950623,-0.7909248471260071,-0.005858093500137329,0.009135305881500244,-0.0005332827568054199,0.016476843506097794,0.013770559802651405,-0.000776924192905426,-0.04501882747894155,-0.6571654152813283,-2.327623604246715
1687093004.851733,-0.035641685128211975,0.6127372980117798,-0.7894825339317322,0.000271771103143692,-0.01842266321182251,-0.010108470916748047,-0.1307145357131958,-0.040953002870082855,0.006353955715894699,-0.04511499158289546,-0.6595196031524059,-2.327133468452942
1687093004.928483,-0.038669511675834656,0.6117475628852844,-0.7901073098182678,-0.003185383975505829,0.047249019145965576,0.029349923133850098,0.280990332365036,-0.12001106888055801,0.015394588932394981,-0.048903079889960184,-0.6582679054773848,-2.326529108904665
1687093004.9337401,-0.03731025755405426,0.611504316329956,-0.7903609871864319,-0.007230188697576523,-0.02524632215499878,-0.01966702938079834,-0.06437273323535919,0.05376777797937393,0.05385809391736984,-0.047171581638996415,-0.6579603779652391,-2.3266387831952837
1687093005.016549,-0.034392666071653366,0.6057040095329285,-0.7949463725090027,0.003386765718460083,-0.04627102613449097,0.013025045394897461,0.08561743050813675,0.03364599496126175,0.029715735465288162,-0.043237169838834605,-0.6506503555834187,-2.3204852662295434
1687093005.02789,-0.03381188586354256,0.6039831042289734,-0.7962795495986938,0.018614094704389572,0.049489736557006836,-0.005188286304473877,0.15764814615249634,-0.029340291395783424,-0.01765870302915573,-0.04243683593022266,-0.6484893756347762,-2.320808927458544
1687093005.0738602,-0.03361028432846069,0.5945326089859009,-0.8033687472343445,-0.03427610918879509,0.024730145931243896,0.021523714065551758,0.29650363326072693,0.06728638708591461,0.04631655290722847,-0.04181230012360884,-0.6366842150175114,-2.3202596470843515
1687093005.197916,-0.02976098097860813,0.5812735557556152,-0.8131637573242188,0.008947962895035744,0.019571781158447266,0.007469236850738525,0.39715301990509033,0.03910534456372261,0.022311348468065262,-0.036582672600103304,-0.6202929241341417,-2.3168532970458897
1687093005.2035,-0.030136410146951675,0.5539093613624573,-0.8320314288139343,-0.005950668826699257,0.055374085903167725,0.024704158306121826,0.7894167304039001,-0.032448068261146545,0.03844824060797691,-0.036204452328054144,-0.5870524385524525,-2.314297471517368
1687093005.2872581,-0.02973456121981144,0.5288674235343933,-0.8481833934783936,0.033961206674575806,-0.0018287897109985352,0.02794724702835083,0.5999797582626343,-0.0635608434677124,-0.0140442606061697,-0.035042407063166345,-0.5572655111692086,-2.311030631863251
1687093005.301301,-0.03128265589475632,0.5051490664482117,-0.862464964389801,-0.0054147690534591675,-0.0037451982498168945,0.0091477632522583,0.4848535656929016,-0.0022887003142386675,0.0011852923780679703,-0.03625532346962092,-0.5295546713705376,-2.3099794250321324
1687093005.377541,-0.029315069317817688,0.49630048871040344,-0.8676557540893555,0.005892796441912651,-0.05942609906196594,0.0036420822143554688,0.046205177903175354,0.04912162572145462,-0.023644156754016876,-0.03377367425014084,-0.5193322035970542,-2.30975904701707
1687093005.383285,-0.02943410538136959,0.49062076210975647,-0.8708759546279907,-0.002380508929491043,0.05214965343475342,0.005015969276428223,0.29323965311050415,-0.029834041371941566,-0.027621056884527206,-0.03378541552889717,-0.5128019977800459,-2.3108918891510526
1687093005.466943,-0.03452642634510994,0.47338539361953735,-0.8801785111427307,0.007655661553144455,-0.015423327684402466,0.014364302158355713,0.394978404045105,-0.1076393574476242,-0.03728220611810684,-0.039206517945973005,-0.4931301326497898,-2.3127179021838153
1687093005.479169,-0.03710436075925827,0.4606151580810547,-0.8868240714073181,-0.002126019448041916,-0.0539989173412323,0.0007156729698181152,0.08265000581741333,-0.02116851508617401,-0.004850761964917183,-0.04181520735615247,-0.47868814019047107,-2.3120737576755186
1687093005.523226,-0.03715377673506737,0.4599839448928833,-0.8871495723724365,-0.006120193749666214,0.008994966745376587,0.0038793087005615234,-0.035654135048389435,0.044999584555625916,-0.0019790753722190857,-0.04185548538539448,-0.4779771073023051,-2.3127005260177915
1687093005.6190581,-0.035598743706941605,0.4618449807167053,-0.8862460255622864,0.008407536894083023,0.020470112562179565,0.006164848804473877,0.03135459125041962,0.009155302308499813,-0.008065463975071907,-0.040146432796814034,-0.4800741880600319,-2.3130714720103884
1687093005.6326342,-0.03444428741931915,0.4595940411090851,-0.8874609470367432,0.003163732588291168,-0.027663469314575195,-0.007802724838256836,0.015231149271130562,0.022486288100481033,-0.01687679812312126,-0.038792700864046264,-0.47753803448704607,-2.312995199252865
1687093005.672811,-0.03569833189249039,0.458141952753067,-0.8881618976593018,-0.006080266088247299,-0.006985336542129517,-9.79304313659668e-05,0.023925304412841797,-0.02007928118109703,-0.020886454731225967,-0.04017187164789869,-0.4759037465342371,-2.314338535987859
1687093005.763534,-0.03433597460389137,0.4577403962612152,-0.8884226679801941,-0.0006677247583866119,0.0012592673301696777,-0.011128723621368408,0.00593851413577795,0.03608718514442444,0.014869412407279015,-0.0386290157916963,-0.4754520428259899,-2.3141352135961295
1687093005.769649,-0.03436923772096634,0.45898526906967163,-0.8877788186073303,0.005514822900295258,-0.002457529306411743,0.006293892860412598,-0.022384537383913994,-0.02115360088646412,-0.03219210356473923,-0.03869441418977079,-0.4768527127689664,-2.3149128277531195
1687093005.823982,-0.03549725189805031,0.4575144946575165,-0.8884933590888977,-0.002588719129562378,-0.022547423839569092,0.013050854206085205,0.08248582482337952,-0.00020464364206418395,0.004655124619603157,-0.03993094786330306,-0.47519796690558663,-2.3161150169306266
1687093005.9153671,-0.03568574786186218,0.4560437798500061,-0.8892415761947632,0.007716350257396698,-0.0040631890296936035,0.001149594783782959,0.03255414590239525,-0.023637931793928146,-0.018997473642230034,-0.04010902018207942,-0.47354469905820595,-2.316250207835507
1687093005.920539,-0.03544029965996742,0.4551713466644287,-0.8896982669830322,-0.0016233362257480621,0.010038644075393677,-0.003703773021697998,-0.012702947482466698,0.05114522948861122,0.01798238232731819,-0.03981301746766968,-0.4725646282652852,-2.3165601541248386
1687093005.974028,-0.03519922494888306,0.4579297602176666,-0.8882912397384644,0.016934428364038467,-0.0017682909965515137,-0.00036531686782836914,0.017370665445923805,-0.04590435326099396,-0.04175791144371033,-0.039605049850813,-0.47566505262484154,-2.3175481969825027
1687093006.097791,-0.036125920712947845,0.4565730094909668,-0.8889521956443787,0.006355989724397659,-0.013991832733154297,-0.0075168609619140625,-0.011572368443012238,-0.0029679397121071815,-0.00732856709510088,-0.04061641663388616,-0.47413946607592417,-2.318174112530594
1687093006.103469,-0.03637119382619858,0.45710983872413635,-0.8886662721633911,0.007760927081108093,0.014981865882873535,0.011270642280578613,0.0742947980761528,-0.027313627302646637,-0.007521380204707384,-0.04090501208981718,-0.4747429392408788,-2.3185596193559728
1687093006.184489,-0.03474801406264305,0.4556506872177124,-0.8894802331924438,-0.000133611261844635,-0.022102683782577515,-0.007202506065368652,-0.06413485109806061,0.038535162806510925,0.014861956238746643,-0.039045674737312804,-0.47310305558178356,-2.3176816383558694
1687093006.197329,-0.03530879318714142,0.4566127359867096,-0.8889645934104919,0.006774824112653732,0.024145960807800293,0.011080741882324219,0.07356595993041992,-0.021853744983673096,-0.011374708265066147,-0.03969814330113766,-0.4741841062889528,-2.318342203185858
1687093006.274977,-0.03547162190079689,0.45572909712791443,-0.889411449432373,0.0033823512494564056,-0.0011087656021118164,-0.0010151267051696777,0.00426724785938859,-0.016099054366350174,-0.012282579205930233,-0.0398610042893123,-0.4731911597366751,-2.3187626892090587
1687093006.289185,-0.035800255835056305,0.4543355703353882,-0.890110969543457,-0.014355417340993881,0.018442779779434204,0.00047779083251953125,0.06498345732688904,0.018015239387750626,0.013618526980280876,-0.0401983276685921,-0.4716262281137501,-2.318866046505759
1687093006.365779,-0.034322720021009445,0.4544319212436676,-0.8901199698448181,0.0005855001509189606,-0.006265997886657715,-0.00923299789428711,-0.03565606474876404,0.024329859763383865,-0.0027375435456633568,-0.03854056231975615,-0.4717343828629463,-2.318531668673532
1687093006.378786,-0.03332586586475372,0.45428264141082764,-0.8902340531349182,-0.005782444030046463,0.006960034370422363,-0.013727068901062012,0.004700943827629089,0.055984191596508026,0.0021538836881518364,-0.03741747761094032,-0.47156679824208175,-2.318638638778561
1687093006.423706,-0.03204589709639549,0.45497655868530273,-0.8899266123771667,0.0029473528265953064,-0.020848751068115234,0.0055882930755615234,-0.06349755078554153,0.011830048635601997,-0.016475992277264595,-0.03599404267258522,-0.4723458811204205,-2.3191738562569224
1687093006.548695,-0.033793170005083084,0.4558454751968384,-0.8894171714782715,0.012949630618095398,0.02541673183441162,-0.0034356117248535156,0.06502939760684967,-0.035963304340839386,-0.01565946824848652,-0.037976466330279485,-0.4733219079145623,-2.320386386250703
1687093006.5537472,-0.03279601037502289,0.4555014371871948,-0.8896307349205017,-0.0007733665406703949,-0.052181124687194824,0.004773557186126709,-0.12594708800315857,0.016025591641664505,0.0010060621425509453,-0.03684805663763354,-0.47293541181532994,-2.3195705390854426
1687093006.639848,-0.035746097564697266,0.4652526080608368,-0.8844559192657471,0.03170247748494148,0.025012314319610596,-0.00481104850769043,-0.17995105683803558,-0.15394240617752075,-0.09097100049257278,-0.04039393630471424,-0.4839199630845389,-2.3219025306522743
1687093006.653646,-0.04207073152065277,0.46921199560165405,-0.8820828795433044,-0.036725688725709915,-0.07140007615089417,-0.013501226902008057,-0.26045548915863037,0.01955001801252365,0.053258344531059265,-0.04765864492001106,-0.48839822790402926,-2.3243595083724973
1687093006.72745,-0.042419325560331345,0.4920053482055664,-0.8695581555366516,0.08518967032432556,0.060713768005371094,-0.08806818723678589,-0.4077424705028534,-0.329214483499527,-0.13124172389507294,-0.04874397937655435,-0.5143917023681176,-2.3240594506659913
1687093006.7325768,-0.05336075276136398,0.5186828374862671,-0.8532999157905579,-0.020034056156873703,-0.1451476812362671,-0.03053492307662964,-1.0393732786178589,0.09820341318845749,-0.14022696018218994,-0.062453255097907244,-0.5453096478081841,-2.335874720348237
1687093006.817006,-0.04992265999317169,0.559356689453125,-0.8274223804473877,0.007716808468103409,0.031463623046875,0.018523454666137695,-0.6846233010292053,-0.020786883309483528,0.16011422872543335,-0.06026210216703993,-0.5936095486518405,-2.335341812196408
1687093006.829691,-0.05252395570278168,0.5726600289344788,-0.8181086778640747,-0.07830493152141571,-0.03732067346572876,0.10778152942657471,-0.21455518901348114,0.09733043611049652,0.10576363652944565,-0.0641136935332434,-0.6097469696105935,-2.334289330552786
1687093006.909158,-0.04860221967101097,0.590181827545166,-0.8058059215545654,-0.010785020887851715,0.08738470077514648,-0.052455127239227295,-0.21407294273376465,0.07968366146087646,0.15071485936641693,-0.060242059927663315,-0.6312840535997957,-2.33059772633235
1687093006.998456,-0.04322291165590286,0.5988470315933228,-0.799696147441864,-0.01657632365822792,0.037536025047302246,0.04626297950744629,0.0501910001039505,0.08099620789289474,0.07080751657485962,-0.05399662770942723,-0.6420606931765092,-2.3249383112394906
1687093007.00382,-0.03973424807190895,0.5978592038154602,-0.8006157279014587,-0.011886272579431534,-0.032093822956085205,-0.01571422815322876,-0.12657585740089417,0.03601660951972008,0.027669362723827362,-0.0495889231586512,-0.6408277887536147,-2.322173779182627
1687093007.0869,-0.03780722618103027,0.6019755601882935,-0.7976189851760864,-0.0011637620627880096,0.012770533561706543,-0.0023840665817260742,-0.049861833453178406,0.028704503551125526,0.02194436639547348,-0.0473646574132932,-0.6459728766872039,-2.3212374453095324
1687093007.100982,-0.03714287653565407,0.6025349497795105,-0.7972277402877808,-0.005246076732873917,-0.001338660717010498,0.011674761772155762,0.037819813936948776,0.0186713095754385,0.004028748720884323,-0.046556382344156766,-0.6466735619267086,-2.3211822111227436
1687093007.176542,-0.03601450100541115,0.6016007661819458,-0.7979846596717834,-0.00524529442191124,-0.021629393100738525,0.006328165531158447,-0.040729790925979614,0.0333249568939209,0.0005602482706308365,-0.04510121559408482,-0.6455035343009196,-2.3204702705878333
1687093007.181734,-0.03587256371974945,0.6011236906051636,-0.7983505129814148,0.000487402081489563,-0.012973666191101074,-0.001972973346710205,0.011083008721470833,0.0006473016110248864,-0.001993190497159958,-0.04490315067178209,-0.6449064578210966,-2.3202355938619394
1687093007.2648668,-0.035816602408885956,0.6003136038780212,-0.7989622950553894,0.005833044648170471,0.00483471155166626,-0.009082138538360596,0.021694108843803406,-0.0032254671677947044,-0.0018935883417725563,-0.04479891076949068,-0.643893170761481,-2.32021044455415
1687093007.26983,-0.03586198017001152,0.5994620323181152,-0.7995994091033936,-0.0036735832691192627,-0.003987789154052734,0.0005881786346435547,0.03877701982855797,0.0019089742563664913,0.01093059778213501,-0.04481989751905143,-0.6428288424289165,-2.3196551985589333
1687093007.324722,-0.034955352544784546,0.5992295742034912,-0.7998138070106506,-0.0026881136000156403,-0.014055013656616211,-0.006460607051849365,-0.06750959903001785,0.013734741136431694,0.0090717114508152,-0.043676568729849125,-0.642538413350383,-2.3188380330463794
1687093007.417791,-0.035363681614398956,0.6004905104637146,-0.7988494634628296,-0.005392581224441528,0.021976470947265625,0.008535802364349365,0.03309916332364082,-0.0008817523485049605,0.002647368237376213,-0.04423938526234557,-0.6441144151664836,-2.319347955330102
1687093007.4320621,-0.03543312847614288,0.5981460213661194,-0.8006033897399902,0.0032370537519454956,-0.01461946964263916,0.0035453438758850098,0.044599223881959915,0.0013289378257468343,-0.01880040019750595,-0.04422916666506747,-0.6411856606875347,-2.3196000957878296
1687093007.469993,-0.03620274364948273,0.5971059203147888,-0.8013451099395752,-0.002707201987504959,0.002579808235168457,0.0022423267364501953,0.025785323232412338,-0.006030174903571606,-0.0034187808632850647,-0.04514677000233082,-0.6398883586658656,-2.320654187101632
1687093007.598093,-0.03591841459274292,0.5968786478042603,-0.8015271425247192,0.006636772304773331,-0.011612534523010254,-0.0029008984565734863,-0.02340972051024437,0.0047403136268258095,-0.005839060992002487,-0.04478251503323954,-0.6396050861998349,-2.3203352777801936
1687093007.6035829,-0.036340706050395966,0.5968759655952454,-0.8015100955963135,-0.004293486475944519,0.01666468381881714,-0.0021398067474365234,0.01917961798608303,-0.001495610922574997,-0.0019766790792346,-0.04530926325000509,-0.6396017759088958,-2.320802427899465
1687093007.688442,-0.03562985733151436,0.5967743992805481,-0.8016176223754883,-0.002379823476076126,-0.0016053318977355957,-0.004611015319824219,-0.009149424731731415,0.024367811158299446,0.003506237640976906,-0.04441821106854909,-0.6394751775517441,-2.3204264924044953
1687093007.7014852,-0.035777606070041656,0.5967469215393066,-0.8016315698623657,-0.008701805025339127,0.009606897830963135,0.007579445838928223,0.03019152395427227,0.0020479911472648382,-0.006022286601364613,-0.0446013884544041,-0.6394409171521142,-2.320786131315259
