Timestamp,gravityX,gravityY,gravityZ,accelerationX,accelerationY,accelerationZ,rotationRateX,rotationRateY,rotationRateZ,attitudeRoll,attitudePitch,attitudeYaw
1687091880.804851,-0.9516488313674927,0.2989141047000885,-0.07081814110279083,-0.0033227205276489258,-0.005228221416473389,0.0056632086634635925,0.009934156201779842,-0.02510320208966732,-0.005042139906436205,-1.496516987486939,-0.3035545275058384,-2.7104265723228447
1687091880.823299,-0.9520455002784729,0.2977302372455597,-0.07047117501497269,-0.01171499490737915,-0.0025948286056518555,0.003927707672119141,0.0668974444270134,0.0010415826691314578,-0.03726132959127426,-1.4969102642851884,-0.3023141718998242,-2.708302563682902
1687091880.926701,-0.9526044130325317,0.29589152336120605,-0.07066386193037033,0.0022715330123901367,0.00804823637008667,0.004303507506847382,0.05655791983008385,-0.01786193437874317,-0.011984467506408691,-1.4967522879887096,-0.30038870894685527,-2.7051973354086614
1687091880.932291,-0.952658474445343,0.29584455490112305,-0.07012800872325897,0.0004336237907409668,0.008476674556732178,-0.0010998845100402832,0.023750169202685356,-0.010879659093916416,0.0007177451625466347,-1.49731590370019,-0.30033952085247734,-2.7036446804831
1687091881.019314,-0.952523410320282,0.2964760959148407,-0.06929144263267517,-0.006247460842132568,0.0019399523735046387,-0.0032944679260253906,-0.049542952328920364,0.00618720892816782,0.004283184185624123,-1.4981791062911953,-0.3010007440335566,-2.7048237777515207
1687091881.0370688,-0.9522371292114258,0.29732799530029297,-0.06957630813121796,0.0006378293037414551,0.008336007595062256,-0.0019567683339118958,-0.0023311651311814785,0.01419227197766304,0.009876888245344162,-1.4978597776736202,-0.30189287547975446,-2.7058062907033666
1687091881.1048288,-0.9518721699714661,0.2985667288303375,-0.06926524639129639,-0.0004443526268005371,-0.0066661536693573,0.00948142260313034,-0.06171819567680359,0.0031595947220921516,0.030411191284656525,-1.4981569693112897,-0.303190540147238,-2.7072697179607825
1687091881.119911,-0.9512269496917725,0.3008722960948944,-0.068141408264637,0.0075928568840026855,0.015655934810638428,0.017818041145801544,-0.11020590364933014,0.010720974765717983,0.04682478681206703,-1.4992832044221212,-0.30560720526355256,-2.712765166081522
1687091881.19307,-0.9506572484970093,0.3031335473060608,-0.06603658944368362,-0.006663918495178223,0.016461670398712158,0.017635829746723175,-0.10233073681592941,-0.024120761081576347,0.061585359275341034,-1.501443593915552,-0.30797921100812337,-2.7176058526875373
1687091881.196913,-0.9496589303016663,0.3071047365665436,-0.06192402541637421,-0.01172107458114624,0.017190217971801758,0.011402316391468048,-0.07466155290603638,-0.052138280123472214,0.06018400192260742,-1.5056819129705092,-0.31214925448867126,-2.7227651860749518
1687091881.2929459,-0.9490215182304382,0.3097635805606842,-0.05835204944014549,-0.006316125392913818,0.00980117917060852,-0.0006535649299621582,0.03743189200758934,-0.056285224854946136,0.037503987550735474,-1.509387098168951,-0.31494438088979454,-2.7236602800236924
1687091881.298523,-0.9484080672264099,0.3120552599430084,-0.056072261184453964,-0.00860816240310669,-0.0024850070476531982,-0.012149639427661896,0.040949732065200806,-0.037477314472198486,0.03092092275619507,-1.5117425648023144,-0.3173555587929613,-2.7217234471791167
1687091881.339606,-0.948100209236145,0.31305965781211853,-0.05567830801010132,0.004023432731628418,0.007741093635559082,-0.003952927887439728,0.04403034225106239,-0.024293068796396255,0.02497674524784088,-1.512137512560635,-0.31841291813433237,-2.718975248736796
1687091881.4360619,-0.9477083683013916,0.31422269344329834,-0.05579763278365135,-0.00274658203125,0.007279932498931885,-0.004154033958911896,0.07577342540025711,-0.030858425423502922,0.03032970055937767,-1.5119878423356259,-0.3196377621286749,-2.715162135235513
1687091881.453817,-0.947063684463501,0.31628477573394775,-0.05508788302540779,-0.006412386894226074,0.0021813511848449707,-0.010463714599609375,0.00467021856456995,-0.024215171113610268,0.038647282868623734,-1.5126947631350127,-0.32181064664152265,-2.7138612943449103
1687091881.493935,-0.9465270638465881,0.31798261404037476,-0.05453360825777054,0.003548920154571533,-0.009160041809082031,-0.0012829378247261047,-0.014951418153941631,-0.015157494693994522,0.03622300922870636,-1.5132455307981232,-0.3236009057712776,-2.7126947769448764
1687091881.5882049,-0.9460194706916809,0.3196233808994293,-0.053744349628686905,-0.0015668272972106934,0.0014825165271759033,-0.012356586754322052,-0.027334585785865784,-0.007294244598597288,0.030340351164340973,-1.5140462880665628,-0.3253319922825923,-2.7147628726224986
1687091881.593159,-0.9457576870918274,0.32036933302879333,-0.053906090557575226,-0.007413089275360107,-0.005534827709197998,-0.010333292186260223,0.06264710426330566,-0.008364036679267883,0.021570563316345215,-1.5138601498360706,-0.3261193435990663,-2.712928242335534
1687091881.645437,-0.9454684853553772,0.3209635317325592,-0.055425599217414856,-0.009228229522705078,-0.004984617233276367,-0.0013064742088317871,0.02120938152074814,0.01722388155758381,0.013217024505138397,-1.512240976224136,-0.3267466671120352,-2.7103429895459907
1687091881.7373881,-0.9452781677246094,0.3213207423686981,-0.05658857896924019,0.0035514235496520996,0.004606872797012329,-0.0034546218812465668,0.024287797510623932,0.014204522594809532,0.015194155275821686,-1.5110032124841672,-0.32712386624642986,-2.709644273625193
1687091881.754667,-0.945193886756897,0.3213813006877899,-0.05764377489686012,0.002658367156982422,-0.00611954927444458,0.006084442138671875,-0.02638203836977482,0.027653487399220467,0.0025502657517790794,-1.509885578403441,-0.3271878170131904,-2.709361035945764
1687091881.7938929,-0.9451374411582947,0.3213683068752289,-0.058635082095861435,-0.010032474994659424,-0.0032073259353637695,0.002086155116558075,-0.056085873395204544,0.039973001927137375,-0.023785732686519623,-1.5088370521542023,-0.3271740777844432,-2.712158427559099
1687091881.885853,-0.9456732869148254,0.3196401298046112,-0.05943641439080238,-0.0013331770896911621,-0.014784812927246094,0.0026128217577934265,-0.08773840218782425,0.04829258471727371,-0.03652762621641159,-1.5080279908817926,-0.3253496564628444,-2.7150201856441916
1687091881.9030309,-0.9462698101997375,0.31777793169021606,-0.05992213636636734,-3.457069396972656e-05,0.005265772342681885,-0.00329488143324852,-0.1373240053653717,0.06486210227012634,-0.05148793384432793,-1.5075561888307352,-0.3233850307147814,-2.722576649288745
1687091881.943699,-0.9468389749526978,0.3159756362438202,-0.06046115979552269,-0.012588024139404297,-0.019070208072662354,-0.002435445785522461,-0.24480172991752625,0.08529414236545563,-0.032110244035720825,-1.5070271052308861,-0.3214848031018614,-2.731421103983604
1687091882.035881,-0.9471727609634399,0.3148738145828247,-0.06097754091024399,-0.003022611141204834,-0.005257844924926758,0.0007817782461643219,-0.2994307577610016,0.12622053921222687,-0.06630736589431763,-1.5065065662821897,-0.32032371239713914,-2.746548907291568
1687091882.051836,-0.9480025172233582,0.3121037483215332,-0.062309630215168,0.008152604103088379,0.010207533836364746,0.010094169527292252,-0.23128852248191833,0.09036946296691895,-0.05241578072309494,-1.5051634478145395,-0.31740658837127533,-2.7613172605067082
1687091882.092093,-0.9485293030738831,0.3102252185344696,-0.06366054713726044,-0.002749502658843994,-0.0004108250141143799,-0.0011891722679138184,-0.08386357128620148,0.06906776875257492,-0.05549599230289459,-1.5037818271567063,-0.31542991470260373,-2.7689804296776077
1687091882.193657,-0.9490500092506409,0.3084460496902466,-0.06453919410705566,-0.0011911988258361816,0.006190121173858643,0.006189703941345215,-0.06576213240623474,0.05086413398385048,-0.07102994620800018,-1.5028968712265494,-0.31355899392951836,-2.7743350614357785
1687091882.198648,-0.9498140215873718,0.3059489130973816,-0.0651821717619896,0.019104063510894775,0.006413668394088745,0.013500750064849854,0.003940379712730646,0.01764998771250248,-0.04909801483154297,-1.50227750769161,-0.31093498888819854,-2.776493303120034
1687091882.242914,-0.9504282474517822,0.3041330575942993,-0.06472623348236084,-0.010722994804382324,0.00789383053779602,0.01809549331665039,-0.02093501016497612,-0.0004946618573740125,-0.05402539670467377,-1.5027991383371047,-0.3090282380148951,-2.7764283941439794
1687091882.368109,-0.9509522318840027,0.3027975261211395,-0.06327542662620544,0.0030608773231506348,0.01777428388595581,-0.0018794536590576172,0.010766261257231236,-0.00138562242500484,-0.05301525816321373,-1.5043552516232948,-0.3076266192021282,-2.77830482974654
1687091882.3856,-0.9516936540603638,0.30057719349861145,-0.06271318346261978,-0.011059880256652832,0.014486223459243774,-0.007965393364429474,0.0015344133134931326,0.015720393508672714,-0.059355445206165314,-1.5049950586626324,-0.3052977872880549,-2.778257761269213
1687091882.456297,-0.9520678520202637,0.29929497838020325,-0.06316204369068146,-0.004139542579650879,0.01627194881439209,-0.017526328563690186,0.04405058175325394,0.015912408009171486,-0.04019107297062874,-1.5045514428240747,-0.3039536838372205,-2.7776890671905634
1687091882.460693,-0.9522908329963684,0.29830968379974365,-0.06444896012544632,0.006138980388641357,0.0022273361682891846,-0.012531518936157227,0.019437381997704506,0.01256667822599411,-0.027394050732254982,-1.503221562154578,-0.3029212090871655,-2.7764500233778793
1687091882.548377,-0.9522283673286438,0.2983558475971222,-0.06515461951494217,0.002917945384979248,0.0051413774490356445,0.001601874828338623,-0.02592497318983078,0.004440175369381905,-0.006922597531229258,-1.5024794973691193,-0.30296957397362206,-2.7777427014529565
1687091882.565048,-0.9525874853134155,0.2969861626625061,-0.06615546345710754,-0.009402990341186523,-0.0035597383975982666,0.005562961101531982,0.008650579489767551,0.02461814694106579,-0.05133373662829399,-1.5014594816084628,-0.30153485652869205,-2.7785537712019095
1687091882.637116,-0.9529549479484558,0.2958250343799591,-0.06606491655111313,0.01489025354385376,0.01099860668182373,0.008814036846160889,0.04050818085670471,-0.027783939614892006,0.0044767968356609344,-1.5015806890559915,-0.30031909689600617,-2.7781573697104864
1687091882.651869,-0.9530938863754272,0.2956848442554474,-0.06467420607805252,-0.041825056076049805,0.05883777141571045,0.060996949672698975,0.17203950881958008,-0.038099560886621475,0.006639016792178154,-1.5030430725926118,-0.3001723427451264,-2.7735212411035763
1687091882.694638,-0.9523493647575378,0.29892122745513916,-0.06063695251941681,0.033205628395080566,0.1852552890777588,0.23528915643692017,-0.3127976059913635,-0.20799832046031952,0.19245415925979614,-1.5072112440036458,-0.3035620086558285,-2.7726583107054665
1687091882.787982,-0.9458740949630737,0.323019415140152,-0.031319789588451385,0.11983942985534668,0.39917901158332825,0.31647616624832153,-0.3531956672668457,-0.8590967059135437,0.8791632652282715,-1.5376964128515704,-0.3289181963698824,-2.7913280018246396
1687091882.803493,-0.921201765537262,0.3871973156929016,0.03828686475753784,-0.02200525999069214,0.392587810754776,0.354337215423584,-0.7761027216911316,-1.7566331624984741,1.8893405199050903,-1.6123342895059911,-0.3975898476951114,-2.8189632163130143
1687091882.844522,-0.8568409085273743,0.48920056223869324,0.16280977427959442,-0.22949355840682983,0.40443041920661926,0.3618180751800537,-1.1894173622131348,-2.8375332355499268,2.8892486095428467,-1.7585695364869696,-0.5111729018045114,-2.8891121221282843
1687091882.935021,-0.724335789680481,0.6069347262382507,0.32706037163734436,-0.49032503366470337,0.36941421031951904,0.30425694584846497,-1.1619902849197388,-3.7737014293670654,3.71840238571167,-1.9949230491191805,-0.6521979558428871,-3.0171521990121266
1687091882.9521809,-0.5032301545143127,0.7175295948982239,0.48157158493995667,-0.7199450731277466,0.4627682566642761,0.23293668031692505,0.21668407320976257,-4.700916767120361,4.308782577514648,-2.3342052213646136,-0.8002490951525421,3.0752638653391355
1687091883.0280972,-0.20444008708000183,0.8371288180351257,0.5073655247688293,-0.8880892992019653,0.29600411653518677,0.1368606686592102,2.0920357704162598,-4.550202369689941,4.8965935707092285,-2.758550622497539,-0.9920129944193679,2.8334276974846606
1687091883.090611,0.12399166077375412,0.891433835029602,0.4358575940132141,-0.9822070598602295,0.12695294618606567,-0.0062157511711120605,1.8920183181762695,-3.9550795555114746,5.259528636932373,2.8644368494518297,-1.100499506616837,2.3267092562976
1687091883.0957131,0.42017364501953125,0.8663063049316406,0.2701250910758972,-0.8290023803710938,-0.1042519211769104,-0.13131573796272278,3.459407329559326,-2.918558359146118,5.293460369110107,2.142156445766783,-1.0477596389191899,1.7054247225992125
1687091883.145554,0.6464759707450867,0.7603859305381775,0.06230553239583969,-0.8947823643684387,-0.14705890417099,0.13918696343898773,4.298749923706055,-2.0537524223327637,4.239234924316406,1.6668767565314035,-0.8639071274967643,1.2763524372372745
1687091883.301765,0.7773528695106506,0.6080867648124695,-0.1610993593931198,-0.7555176019668579,-0.3759242296218872,0.37937653064727783,4.940426349639893,-0.615604043006897,3.446434497833252,1.3664480898231626,-0.6536483237056189,0.9358606242925867
1687091883.319864,0.8439284563064575,0.4845646619796753,-0.23017849028110504,-0.4038190245628357,-0.9346377849578857,0.08764627575874329,0.9924181699752808,0.8721742630004883,1.096174716949463,1.304526422136606,-0.505865441511735,0.8005680013046637
1687091883.323432,0.8561710119247437,0.4636240005493164,-0.22808827459812164,0.16798371076583862,-0.6459969282150269,0.14321905374526978,0.15082183480262756,-0.568865954875946,-0.27855384349823,1.3104382114009108,-0.48208098973995467,0.7921009440780772
1687091883.384491,0.8292108178138733,0.49596333503723145,-0.2577401101589203,0.12222057580947876,-0.06291872262954712,-0.15496423840522766,0.6693621277809143,-0.6016511917114258,-0.9927724003791809,1.269437450646478,-0.5189438832835724,0.7802454366101085
1687091883.399154,0.8028530478477478,0.5127075910568237,-0.304233193397522,0.0888705849647522,-0.05604255199432373,-0.12195983529090881,0.2841396927833557,-0.2914274334907532,-0.46141499280929565,1.2085758240021232,-0.53833548601861,0.7103546083346762
1687091883.476829,0.8006919026374817,0.5166237354278564,-0.30330267548561096,0.039243459701538086,0.3330010175704956,-0.1093406081199646,0.26497477293014526,0.25397756695747375,0.27314314246177673,1.2086976795242437,-0.5429029931873345,0.7052631840351798
1687091883.570068,0.8131282925605774,0.5022589564323425,-0.29420793056488037,-0.06943017244338989,0.03196650743484497,0.012393563985824585,-0.24654877185821533,0.17050865292549133,0.35966819524765015,1.2236284617399884,-0.5262091912215324,0.7147139713282583
1687091883.587848,0.8219700455665588,0.4888440668582916,-0.29222750663757324,-0.09580421447753906,-0.06861692667007446,0.04723256826400757,0.05396825820207596,0.05307668447494507,0.1924176812171936,1.2292116208404122,-0.5107642060289508,0.7154562958753148
1687091883.655188,0.8238852024078369,0.4928032159805298,-0.27992507815361023,-0.033739447593688965,0.04207843542098999,0.060412317514419556,-0.4771572947502136,0.045435547828674316,-0.03389163315296173,1.243270966882494,-0.5153083768353438,0.7405643496070318
1687091883.670032,0.8230301141738892,0.4947883188724518,-0.2789374589920044,0.1585984230041504,-0.14269161224365234,0.08483055233955383,0.018753813579678535,-0.12053664773702621,-0.05372312664985657,1.2440304837362144,-0.517591221021886,0.7423339725123956
1687091883.7453651,0.8186829090118408,0.49911946058273315,-0.2839687764644623,0.45904242992401123,-0.2986798584461212,0.08224770426750183,-0.2353975623846054,-0.35368430614471436,-0.06546606868505478,1.2369211157853894,-0.5225823280946368,0.7492201706237825
1687091883.749572,0.8047401309013367,0.5037267804145813,-0.3140900433063507,0.6736228466033936,-0.547961950302124,0.17265650629997253,-0.05516881123185158,-1.352524757385254,-0.12407585233449936,1.1986799193686095,-0.5279074620316683,0.7556357569094021
1687091883.840286,0.7620757222175598,0.528034508228302,-0.374726802110672,0.4741150736808777,-0.4408304691314697,0.22801372408866882,0.22394198179244995,-1.7085199356079102,-1.3123592138290405,1.1137957457345042,-0.5562844423154018,0.7376725378160163
1687091883.8457398,0.6616681814193726,0.5960208177566528,-0.4549226462841034,0.18508785963058472,-0.4248170256614685,0.19932281970977783,0.1619158387184143,-2.20770001411438,-3.038651466369629,0.9684825346792317,-0.6385363493140133,0.6513485905141693
1687091883.893676,0.47654426097869873,0.722755491733551,-0.5005298852920532,-0.27283939719200134,-0.06954187154769897,0.12104392051696777,-0.3731401264667511,-2.3173677921295166,-4.7830915451049805,0.7608546745473566,-0.8077811055296487,0.5121885665070429
1687091883.989369,0.21113549172878265,0.7840268611907959,-0.5837154388427734,-0.7627559900283813,-0.11959803104400635,0.020513713359832764,0.7346543073654175,-3.777836322784424,-5.033834457397461,0.34706824067197045,-0.9011267896109152,0.1636832615139247
1687091884.006737,-0.07490083575248718,0.8432067036628723,-0.5323460698127747,-2.3736464977264404,0.23687154054641724,0.18768078088760376,-2.6863369941711426,1.0793795585632324,-5.744424819946289,-0.13978194717516146,-1.0032205485022079,-0.3068908154147403
1687091884.0425138,-0.1851888746023178,0.8767096400260925,-0.4439428746700287,0.5787587761878967,0.7985376119613647,0.0388222336769104,-1.8674813508987427,1.2977697849273682,-0.6626408100128174,-0.3951992371410616,-1.0689785302837294,-0.7407709963191087
1687091884.133847,-0.11946424841880798,0.8980926275253296,-0.4232707917690277,-0.2306029200553894,0.27364516258239746,-0.03528618812561035,0.9036993384361267,-0.3223355710506439,1.4457741975784302,-0.275085300366695,-1.1154132204405824,-0.5922999650700126
1687091884.150303,-0.10348284244537354,0.8820608854293823,-0.4596303403377533,0.11074598878622055,-0.46587735414505005,0.022069454193115234,-0.29463058710098267,-0.11121265590190887,-0.3452407121658325,-0.22145114537825936,-1.0802187865201667,-0.5349853345405533
1687091884.258638,-0.11029893904924393,0.8873326182365417,-0.4477444887161255,0.012245923280715942,0.1339382529258728,-0.049737632274627686,0.1906241774559021,-0.039331939071416855,0.21472644805908203,-0.24153428756102266,-1.091528080915358,-0.5573111601784205
1687091884.264703,-0.09479599446058273,0.882935643196106,-0.45982447266578674,-0.08927081525325775,-0.2183084487915039,-0.02368062734603882,0.005526624619960785,0.12645836174488068,0.26699283719062805,-0.2033085983310798,-1.082078739377702,-0.5152189879441155
1687091884.348343,-0.08937723934650421,0.880889356136322,-0.46480727195739746,0.05750159174203873,-0.04702693223953247,-0.06046116352081299,0.45196035504341125,0.08721654862165451,0.04558961093425751,-0.18997008775843774,-1.0777378955071308,-0.5092196517368701
1687091884.3654752,-0.0822778269648552,0.8780763745307922,-0.4713940918445587,-0.033460117876529694,-0.046930015087127686,0.028523147106170654,-0.06914175301790237,0.2003762573003769,0.05249146372079849,-0.17280075691825156,-1.071827309901476,-0.4969904069104048
1687091884.434938,-0.07750054448843002,0.8772253394126892,-0.4737819731235504,-0.007155254483222961,-0.09827935695648193,0.045223772525787354,-0.05710066854953766,0.07574191689491272,0.04535605385899544,-0.16214247898685077,-1.0700517820018447,-0.49180585450350595
1687091884.4499989,-0.07189780473709106,0.8801789879798889,-0.46916502714157104,-0.017778128385543823,-0.042944371700286865,0.052493393421173096,-0.14955449104309082,-0.04523230716586113,0.24194982647895813,-0.15206329792807327,-1.0762391939307228,-0.48240594265871806
1687091884.4910731,-0.05266711115837097,0.8887385129928589,-0.4553791582584381,-0.08399064093828201,-0.07219475507736206,0.04029446840286255,-0.5007522702217102,-0.13013240694999695,0.7473045587539673,-0.11514393625767104,-1.0945859036442176,-0.4341538177621784
1687091884.619749,-0.01451500691473484,0.9018446207046509,-0.43181678652763367,-0.0747336819767952,-0.06787538528442383,0.0719078779220581,-0.5746654272079468,-0.2608138620853424,1.3003290891647339,-0.033601156670065205,-1.124020074302342,-0.3369684262102026
1687091884.637914,0.07457544654607773,0.915081262588501,-0.39631417393684387,-0.4296016991138458,0.0234258770942688,0.1400887370109558,-1.0020182132720947,-0.8475085496902466,3.230393886566162,0.18599757190471405,-1.1557094353787025,-0.06379187465731037
1687091884.7055001,0.23062314093112946,0.9048376083374023,-0.3578852713108063,-0.9485644102096558,0.08763986825942993,0.0101834237575531,-0.7571747899055481,-0.25968775153160095,3.912538766860962,0.5724320978883188,-1.130998193010907,0.3980760885974798
1687091884.721088,0.40008142590522766,0.8649605512619019,-0.30294933915138245,-0.7089498043060303,0.2071068286895752,0.07461702823638916,-0.9752041101455688,1.121163249015808,3.2544615268707275,0.9226909090917357,-1.0450717150310853,0.7577702982726078
1687091884.829443,0.5324372053146362,0.8089256882667542,-0.24929888546466827,-0.47547614574432373,-0.008037567138671875,0.0436411052942276,-0.7222464680671692,1.125840187072754,2.191479206085205,1.1328926010370592,-0.9423224628724038,0.9500826819260816
1687091884.835414,0.5768294334411621,0.7957218885421753,-0.18464790284633636,0.6036669015884399,-0.09462612867355347,0.02967981994152069,0.10513290762901306,1.1855899095535278,-0.5102638006210327,1.260995126952113,-0.9201985479650154,1.0168499368720538
1687091884.918154,0.5545619130134583,0.8067452907562256,-0.2040180265903473,0.8716923594474792,-0.29295116662979126,0.06171470880508423,0.39650437235832214,-0.26570969820022583,-1.0144156217575073,1.218273217081296,-0.9386231156462127,0.9558060186109048
1687091884.934808,0.516395092010498,0.8306202292442322,-0.20834210515022278,0.8923726677894592,-0.23200255632400513,0.09220761060714722,-0.41162368655204773,-0.5566295385360718,-0.33459579944610596,1.1873151835081635,-0.9802205714611799,0.9433084046778704
1687091885.0063782,0.5224091410636902,0.8234919309616089,-0.22124625742435455,0.4065459370613098,-0.13055968284606934,-0.22682791948318481,0.16135743260383606,-0.5910897850990295,0.8660855293273926,1.170187182756739,-0.9675388456635939,0.9611896142974149
1687091885.021138,0.5583928823471069,0.7963143587112427,-0.2325534224510193,0.16293591260910034,-0.06744766235351562,-0.10371959209442139,0.09538926929235458,-0.05938927084207535,0.8972245454788208,1.1761735006880434,-0.9211773758612245,0.9832910171713927
1687091885.094001,0.5835835337638855,0.7733118534088135,-0.24782931804656982,-0.16242557764053345,0.12474435567855835,-0.10289379954338074,0.5225145816802979,-0.11052249372005463,0.4523051679134369,1.1692068283109711,-0.8840482039303356,0.9797913466365775
1687091885.098549,0.5912275910377502,0.7666346430778503,-0.2504423260688782,-0.29015642404556274,0.06449639797210693,0.08247378468513489,-0.35762229561805725,0.21953663229942322,-0.06455740332603455,1.1701144979053137,-0.8735833330240629,0.979211481960973
1687091885.1876168,0.5858971476554871,0.7783327698707581,-0.22566117346286774,-0.08971172571182251,-0.09127509593963623,0.10295012593269348,-0.3720584809780121,0.362820029258728,-0.39687809348106384,1.2031525432398102,-0.892005993600269,1.0004691296224282
1687091885.205847,0.5733081698417664,0.7922011017799377,-0.2091304510831833,0.0631207823753357,-0.07271850109100342,0.04361853003501892,-0.16551123559474945,0.16231316328048706,-0.31520211696624756,1.221017003461116,-0.9144074268525396,1.0069123222850196
1687091885.242714,0.5639340281486511,0.8036206960678101,-0.19019010663032532,0.14826995134353638,0.006498932838439941,-0.008112892508506775,-0.49037954211235046,0.045266300439834595,-0.209549218416214,1.2455195620119002,-0.9333542577405516,1.029588181228851
1687091885.337996,0.5613579750061035,0.8058367967605591,-0.18842697143554688,0.030881524085998535,0.10814958810806274,-0.06859192252159119,0.2790125608444214,-0.06488963216543198,0.08580867201089859,1.246950748566278,-0.9370872845568138,1.0346543327759838
1687091885.3546848,0.5665338039398193,0.8004317879676819,-0.19582810997962952,-0.0043999552726745605,0.01107645034790039,-0.05426323413848877,0.11769936978816986,0.06997884064912796,0.15690681338310242,1.2379930308883846,-0.9280152291164467,1.0240870548744219
1687091885.394864,0.5714283585548401,0.7971180081367493,-0.19512225687503815,-0.004076063632965088,-0.09707516431808472,0.0024650096893310547,0.029060913249850273,0.1898912638425827,-0.016463639214634895,1.2417460424068314,-0.9225072073892018,1.0195791648960162
1687091885.547277,0.5670228600502014,0.8021393418312073,-0.18723759055137634,0.0033659934997558594,-0.24035626649856567,-0.006838813424110413,-0.1321791708469391,0.27674078941345215,-0.36182236671447754,1.2518578718227302,-0.9308692714505926,1.018788660971307
1687091885.553413,0.538455605506897,0.8247177600860596,-0.1729348599910736,-0.009570717811584473,-0.5147353410720825,0.019095957279205322,-0.10947252810001373,0.20410361886024475,-1.3023097515106201,1.2600339835981418,-0.9697029216246937,1.0133498076075111
1687091885.606597,0.45482492446899414,0.874247133731842,-0.16978326439857483,-0.06676337122917175,-0.7687020301818848,-0.06132620573043823,-0.14116574823856354,0.1245613843202591,-2.728502035140991,1.213522457707959,-1.0638829359155104,0.9479729906015596
1687091885.6206121,0.2903003990650177,0.9485698938369751,-0.12625831365585327,-0.2989826202392578,-0.856376051902771,-0.024956122040748596,-1.5938283205032349,0.3917713761329651,-4.574113845825195,1.1605509465372887,-1.2486872632131467,0.8783794711908803
1687091885.623447,0.04552910476922989,0.9989551901817322,-0.00395365571603179,-0.5961425304412842,-0.3054432272911072,-0.05964475870132446,-3.149293899536133,0.7339341640472412,-5.196935653686523,1.4841756400927824,-1.5250802907982846,1.1755936308477868
1687091885.6666698,-0.23862680792808533,0.9612700939178467,0.13790449500083923,-0.9836785793304443,-0.21229225397109985,0.18091286718845367,-3.6511332988739014,1.8272981643676758,-5.582522869110107,-2.0948137632012145,-1.2915740113803178,-2.459510688844906
1687091885.724853,-0.5167372822761536,0.8137279152870178,0.26613882184028625,-1.0369431972503662,0.20951122045516968,0.11191320419311523,-3.7218031883239746,3.4401683807373047,-5.380721092224121,-2.046401042018225,-0.9505372453952736,-2.563783710384837
1687091885.786236,-0.7295241355895996,0.6407884955406189,0.2391330450773239,-0.6425004005432129,0.7484936714172363,0.25841042399406433,-0.6809148192405701,3.6621012687683105,-3.816981554031372,-1.8875524833226807,-0.695524858164819,-2.5889502930647876
1687091885.848823,-0.8538221716880798,0.50252366065979,0.13586029410362244,-0.375868558883667,0.14718031883239746,0.3969005346298218,-1.655753254890442,2.5927045345306396,-2.767534017562866,-1.7285935542415742,-0.5265153264170064,-2.580186613329914
1687091885.970343,-0.9148176312446594,0.39710915088653564,0.07357636094093323,-0.15120738744735718,0.26519858837127686,0.1638658046722412,-1.3869926929473877,1.9470638036727905,-1.6882009506225586,-1.6510509339334134,-0.40836482907796195,-2.6500112229802606
1687091885.988888,-0.9467077851295471,0.32183247804641724,0.012972592376172543,-0.08635807037353516,0.3375302255153656,0.28591668605804443,-1.7908793687820435,1.8225582838058472,-1.3963032960891724,-1.5844983170634672,-0.3276643042927118,-2.7367091345204373
1687091886.056202,-0.9615898132324219,0.2707183361053467,-0.045351069420576096,-0.0693398118019104,0.25235286355018616,0.19313257932662964,-1.259880542755127,1.494208574295044,-0.8607541918754578,-1.523668654259458,-0.2741391394534258,-2.809390489604553
1687091886.072266,-0.9654552340507507,0.24428720772266388,-0.0906650498509407,0.04121500253677368,0.33669108152389526,0.23792773485183716,-0.7723584175109863,1.035024642944336,-0.42311739921569824,-1.4771618173278858,-0.24678456047183922,-2.875680065740372
1687091886.1447592,-0.9642096161842346,0.23182767629623413,-0.1286705583333969,0.019553005695343018,0.1117086410522461,0.20572756230831146,-0.06282853335142136,0.701244056224823,-0.19312790036201477,-1.438133437671185,-0.23395611970136668,-2.888459647274429
1687091886.148238,-0.9615907669067383,0.22909611463546753,-0.15118978917598724,0.04551398754119873,0.1299431025981903,0.186651349067688,-0.1759362518787384,0.3181966543197632,0.006574302911758423,-1.414844220128505,-0.23114899169341602,-2.904408082558931
1687091886.2380738,-0.9599403738975525,0.2296532690525055,-0.16054271161556244,0.02100592851638794,0.004126548767089844,0.09119158983230591,0.3901110589504242,0.09771938621997833,0.04330994561314583,-1.4050875490761967,-0.23172140780546613,-2.8975516326573167
1687091886.254857,-0.9593005776405334,0.22697895765304565,-0.16799744963645935,0.024104535579681396,-0.03226165473461151,0.046384990215301514,0.29453200101852417,0.07127353549003601,-0.05341659486293793,-1.3974294378189438,-0.22897455570625,-2.8832128672703976
1687091886.294856,-0.9595386385917664,0.22217725217342377,-0.17298239469528198,0.03233826160430908,-0.05260644853115082,-0.007452651858329773,0.0760781541466713,0.029371224343776703,-0.03484983742237091,-1.3924354528390108,-0.2240469701836477,-2.8734842009818666
1687091886.3849459,-0.960332453250885,0.21811538934707642,-0.17374536395072937,-0.013590335845947266,5.46872615814209e-05,-0.026297271251678467,0.18189966678619385,0.037023551762104034,-0.09315601736307144,-1.3918103730857374,-0.21988294107262724,-2.8719482011884265
1687091886.401329,-0.9619637131690979,0.2074592560529709,-0.17772682011127472,0.004199862480163574,0.0007163435220718384,0.020546123385429382,0.023400364443659782,0.036699846386909485,-0.10046826303005219,-1.3881022552620752,-0.20897698338510168,-2.8664680851894055
1687091886.473308,-0.9625782370567322,0.20315809547901154,-0.179360494017601,-0.015052497386932373,0.0359012633562088,0.06002157926559448,0.04231300204992294,0.0005877799121662974,-0.07436395436525345,-1.386575583031969,-0.2045821985501322,-2.8659380042778895
1687091886.4889998,-0.9637071490287781,0.20000042021274567,-0.17682895064353943,0.015571653842926025,0.07543587684631348,0.07050579786300659,0.1504097729921341,-0.10599778592586517,-0.05524672195315361,-1.389326670043717,-0.2013583490323465,-2.8641570365696696
1687091886.534504,-0.9651958346366882,0.20118285715579987,-0.16710054874420166,0.028275609016418457,0.05896413326263428,0.03303694725036621,0.09882041811943054,-0.12377052754163742,0.005764169618487358,-1.3993694968787012,-0.20256532072403374,-2.859305645879852
1687091886.596861,-0.9657856225967407,0.20673930644989014,-0.15657928586006165,-0.010319173336029053,0.0052509307861328125,-0.0029207319021224976,-0.029535487294197083,-0.10186855494976044,0.019049081951379776,-1.4100684864357769,-0.20824109088582368,-2.8550254454436814
1687091886.687961,-0.965069591999054,0.21462294459342957,-0.15025965869426727,0.016796767711639404,0.04576818645000458,-0.03905606269836426,0.035966090857982635,-0.11625321954488754,0.08192525058984756,-1.4163382272158518,-0.21630576179098904,-2.8581225365730543
1687091886.7064462,-0.964858889579773,0.21566037833690643,-0.150127574801445,-0.026947379112243652,-0.0515369176864624,-0.03795219957828522,0.18214040994644165,-0.032522767782211304,0.03627680614590645,-1.4164386806243225,-0.2173680751607385,-2.8449849356814267
1687091886.742848,-0.9640222787857056,0.2185826450586319,-0.15127138793468475,0.015550971031188965,0.008391767740249634,-0.015888527035713196,0.0172052513808012,-0.0033808627631515265,0.029197324067354202,-1.415148642852951,-0.2203617598281625,-2.843392156636836
1687091886.8346639,-0.9640367031097412,0.2162112593650818,-0.1545512080192566,-0.008726418018341064,-0.026468336582183838,0.005640819668769836,0.038227979093790054,0.03632500767707825,-0.007628335617482662,-1.4118322602329052,-0.21793226850348618,-2.8386145511329457
1687091886.851066,-0.9636277556419373,0.21568547189235687,-0.1578017771244049,0.0008438825607299805,0.00826767086982727,0.004313722252845764,0.08405192941427231,0.009189523756504059,-0.02015105076134205,-1.408479005055823,-0.2173937673964734,-2.8374551610380188
1687091886.8936892,-0.9643880724906921,0.21258309483528137,-0.15736602246761322,0.01577967405319214,0.01935039460659027,0.03619606792926788,0.021875036880373955,-0.02537684328854084,0.017476217821240425,-1.4090448462258567,-0.2142177175475841,-2.834727614812206
1687091886.985779,-0.964466392993927,0.21403536200523376,-0.15489855408668518,0.0040171146392822266,0.01777605712413788,0.010458946228027344,0.027705630287528038,-0.08180895447731018,0.04062521457672119,-1.4115507909830223,-0.21570420050644837,-2.8332786774189915
1687091887.002959,-0.9646065831184387,0.21724320948123932,-0.14946463704109192,-0.013664960861206055,0.013118639588356018,0.006337285041809082,0.06069760024547577,-0.0669340044260025,0.040700316429138184,-1.4170700228019035,-0.2189893313581392,-2.83184025369494
1687091887.0765529,-0.9645007252693176,0.2198709398508072,-0.1462717205286026,-0.010520875453948975,-0.01914164423942566,-0.028593912720680237,-0.005098855122923851,-0.04422496631741524,0.04656166583299637,-1.4202878221020492,-0.22168217740062507,-2.8283649796057544
1687091887.080418,-0.9639154076576233,0.22324129939079285,-0.14501962065696716,-0.0030646920204162598,0.013956472277641296,-0.022216618061065674,0.1471969336271286,-0.027946125715970993,0.06544161587953568,-1.4214677806860565,-0.22513842739895024,-2.8249303934767167
1687091887.1343431,-0.9631938338279724,0.22534622251987457,-0.14655007421970367,-0.010362744331359863,-0.021809324622154236,-0.008662223815917969,-0.06155141070485115,-0.02206573449075222,0.045038070529699326,-1.4198042252875636,-0.22729838810272746,-2.821729628094039
1687091887.2279959,-0.9626957774162292,0.2268216758966446,-0.14754313230514526,0.0038943886756896973,-0.005569338798522949,0.011938393115997314,-0.00022034370340406895,-0.015060422010719776,0.01870819553732872,-1.4187192727717104,-0.22881306089326583,-2.8224064575391496
1687091887.23435,-0.9630554914474487,0.2260810136795044,-0.14632773399353027,-0.0028260350227355957,-0.0024635344743728638,0.01183687150478363,0.003668737132102251,-0.047786012291908264,0.022004656493663788,-1.4200085130762712,-0.22805264435474948,-2.8214893971148265
1687091887.3213959,-0.9633339643478394,0.22628618776798248,-0.14416077733039856,0.00868302583694458,0.004335060715675354,0.021098732948303223,-0.0025938861072063446,-0.048720113933086395,0.023301351815462112,-1.4222508856941882,-0.22826327514684566,-2.82137165390042
1687091887.406938,-0.9633393287658691,0.23006385564804077,-0.13801509141921997,0.02017819881439209,0.05495496094226837,0.07141059637069702,0.029746077954769135,-0.21269573271274567,0.17507249116897583,-1.4284972733545196,-0.23214329855628518,-2.820522279944929
1687091887.421525,-0.9619356989860535,0.24680407345294952,-0.11733540892601013,0.035894930362701416,0.12291628122329712,0.2531692385673523,-0.37912535667419434,-0.6484750509262085,0.527496337890625,-1.4494175113064887,-0.24938091561086678,-2.8244093059534987
1687091887.496937,-0.9563584327697754,0.28469789028167725,-0.06577149778604507,0.054960548877716064,0.259735643863678,0.2812715172767639,-0.3599575459957123,-1.2756444215774536,0.9584479928016663,-1.5021315915139395,-0.2886912534437919,-2.8437538742492094
1687091887.502162,-0.9383829236030579,0.3454212546348572,0.011044111102819443,-0.02759021520614624,0.35350751876831055,0.2971377372741699,0.6223185658454895,-2.0336153507232666,1.6459890604019165,-1.5825650846490245,-0.35268764130482544,-2.838715893514708
1687091887.589583,-0.8889978528022766,0.44795718789100647,0.09495985507965088,-0.17403632402420044,0.41285207867622375,0.29355955123901367,2.221996545791626,-2.9658432006835938,2.755310297012329,-1.6772095723995541,-0.4644791402432563,-2.763898281514107
1687091887.6057901,-0.7702198624610901,0.6160346865653992,0.16511444747447968,-0.4797801971435547,0.6118552684783936,0.31608688831329346,3.408320426940918,-3.9898879528045654,4.521900177001953,-1.781973238555165,-0.6636987862043972,-2.6302143762260823
1687091887.643429,-0.5384020209312439,0.826066792011261,0.1665455847978592,-1.012242078781128,0.7718032598495483,0.49188661575317383,3.504559278488159,-3.7226414680480957,6.189614295959473,-1.870793483084038,-0.9720924712869076,-2.475864953528419
1687091887.737431,-0.20568586885929108,0.9751803874969482,0.08195636421442032,-1.1513545513153076,0.715997040271759,0.3055713176727295,3.1115834712982178,-2.5203638076782227,7.623303413391113,-1.9499692893189209,-1.3475343579767052,-2.392669795131783
1687091887.754583,0.19381606578826904,0.9744659066200256,-0.11336535960435867,-1.396422266960144,0.13521438837051392,0.1556934118270874,5.085865497589111,-1.3497803211212158,7.872061729431152,1.0415447600629464,-1.3443299384234544,0.704897491859586
1687091887.791749,0.5136656761169434,0.7827336192131042,-0.3513912558555603,-1.4637541770935059,-0.4081912636756897,0.37608015537261963,5.017635345458984,0.1272844672203064,6.446831703186035,0.9708312481235671,-0.8990461645574929,0.6602707853764893
1687091887.882952,0.707461953163147,0.5665299296379089,-0.4225417971611023,-1.135364055633545,-1.396897792816162,0.5646928548812866,1.0755215883255005,2.0732898712158203,3.298011302947998,1.0323907611636296,-0.602288686059994,0.6585381126228257
1687091887.8991752,0.7821804881095886,0.52265465259552,-0.3391546905040741,-0.19499176740646362,-1.310450553894043,0.09196245670318604,-1.508425235748291,0.9375250339508057,-0.314266562461853,1.1616626950806048,-0.549961796133203,0.7460893320921651
1687091887.97648,0.7427119016647339,0.5810254216194153,-0.3328488767147064,0.04278004169464111,-0.03872799873352051,0.003686457872390747,1.2843899726867676,-0.33612963557243347,-1.9330294132232666,1.1494790965774238,-0.6199880501050333,0.7134242456483353
1687091887.98038,0.7041006684303284,0.5993109345436096,-0.3808790445327759,0.2258157730102539,0.36649423837661743,-0.0904800295829773,0.7170354723930359,0.0899667888879776,-0.30765101313591003,1.074932438799664,-0.6426400396813352,0.6038014497746172
1687091888.0373101,0.7113988399505615,0.604583203792572,-0.35831671953201294,0.15771126747131348,0.17555296421051025,0.019571751356124878,-0.4164291024208069,0.42354050278663635,0.26771801710128784,1.104209785554148,-0.6492424911483964,0.6240165089048634
1687091888.1006851,0.7247985005378723,0.5919105410575867,-0.3525751233100891,-0.040136635303497314,-0.18041139841079712,0.05904197692871094,0.084215447306633,0.04592037573456764,0.23619630932807922,1.118050820978062,-0.6334271825709984,0.626564580354245
1687091888.1178908,0.7282235026359558,0.5869665741920471,-0.3537810742855072,-0.03790050745010376,-0.0024937987327575684,0.03558966517448425,0.21449115872383118,-0.05608668550848961,0.04001295194029808,1.1185619026166493,-0.627306996959747,0.6278263440333687
1687091888.155412,0.7240866422653198,0.5896094441413879,-0.3578537106513977,0.09013760089874268,-0.11715143918991089,0.06908124685287476,-0.3539637625217438,-0.15770971775054932,-0.14094936847686768,1.1117882993031851,-0.6305752132880541,0.626664713353051
1687091888.2142692,0.7202035188674927,0.593136727809906,-0.3598553538322449,0.2866782546043396,-0.04517829418182373,0.0006178021430969238,0.320541113615036,-0.10095947980880737,0.1836492121219635,1.107422469458355,-0.6349493715276747,0.6316805569760393
1687091888.276132,0.7243570685386658,0.5762501955032349,-0.3784741461277008,0.522102952003479,-0.3053150177001953,0.10200029611587524,0.2491389513015747,-0.5169023871421814,0.30858317017555237,1.0893137850540417,-0.6141330501625106,0.6217491296124297
1687091888.3386111,0.710174560546875,0.5667781233787537,-0.4176298975944519,0.47296142578125,-0.4352625012397766,0.17850959300994873,0.18695800006389618,-1.2701843976974487,-0.1952837109565735,1.0391976485568046,-0.6025898953170143,0.6121488440896217
1687091888.4309611,0.6557255387306213,0.5856189727783203,-0.47652342915534973,0.25717735290527344,-0.15094178915023804,0.23261183500289917,0.4738137423992157,-1.7954550981521606,-1.1482442617416382,0.9423670627240566,-0.6256434885809389,0.5829520634709754
1687091888.435854,0.5561226010322571,0.6086035966873169,-0.5659765601158142,0.06913679838180542,-0.08972835540771484,0.041089534759521484,0.39024168252944946,-2.344841957092285,-1.8925714492797852,0.7766167090245085,-0.6542995379075603,0.4740841473624319
1687091888.486497,0.4122602045536041,0.7013673782348633,-0.5814854502677917,-0.24009525775909424,0.02188408374786377,0.16643130779266357,-2.1503472328186035,-2.00764536857605,-2.864089012145996,0.6167258599303892,-0.7773140008399502,0.4060045906493374
1687091888.610077,0.24035552144050598,0.7728643417358398,-0.587290346622467,-0.3183736801147461,0.2904139757156372,-0.1596272587776184,1.0901397466659546,-1.6858701705932617,-3.4500491619110107,0.38846513177933867,-0.883342611986471,0.21694048878998073
1687091888.6168342,0.0457247719168663,0.7723516821861267,-0.633547306060791,-0.740808367729187,-0.31844836473464966,0.08740484714508057,-0.3158590495586395,-1.4354479312896729,-4.069300174713135,0.07204770254397035,-0.8825351670852213,-0.0842605048022074
1687091888.6978688,-0.12397853285074234,0.7937577366828918,-0.5954645872116089,-1.0586539506912231,0.3579300045967102,0.13182640075683594,-1.4531337022781372,1.5625252723693848,-3.856689691543579,-0.20527210933714501,-0.9169624256167823,-0.43342666700616456
1687091888.703075,-0.14148901402950287,0.8359015583992004,-0.5303297638893127,0.5440921187400818,0.2796534299850464,0.0836898684501648,-1.5594024658203125,0.2561817467212677,1.135756492614746,-0.26072165380580836,-0.9897732509806356,-0.5846802254752892
1687091888.789221,-0.095659039914608,0.8512750267982483,-0.5159265398979187,-0.1324751377105713,-0.20851373672485352,0.030407309532165527,0.5549882650375366,0.11814650148153305,0.3127446174621582,-0.1833302468626905,-1.0184104567792296,-0.49288147385974496
1687091888.80753,-0.09908520430326462,0.8356900811195374,-0.5401891469955444,0.04764778912067413,-0.0981258749961853,-0.024080753326416016,0.625916063785553,-0.12063944339752197,-0.00023220479488372803,-0.18141027400631235,-0.9893881561011362,-0.49046240114471806
1687091888.876175,-0.09711073338985443,0.831097424030304,-0.5475826263427734,-0.07418446987867355,-0.13251936435699463,0.008627057075500488,-0.38978448510169983,0.14790639281272888,-0.04513496533036232,-0.17551952392662948,-0.9810780650850904,-0.4793291830290802
1687091888.8802109,-0.0947708860039711,0.835658848285675,-0.5410107970237732,-0.006135515868663788,0.06625771522521973,-0.027653515338897705,0.16386008262634277,0.10190214961767197,0.03210975602269173,-0.17341423133896997,-0.989331253040116,-0.48621161997151713
1687091888.9374862,-0.08746195584535599,0.8334977626800537,-0.5455566048622131,0.014616459608078003,0.05042874813079834,-0.031591713428497314,0.15920573472976685,0.035911016166210175,0.21436265110969543,-0.15896426325167642,-0.9854083293533998,-0.4720542733691037
1687091889.0290232,-0.07644430547952652,0.8251194357872009,-0.5597627758979797,-0.018114447593688965,-0.08149749040603638,0.021417617797851562,0.1551286280155182,0.04591424763202667,0.24523800611495972,-0.13572591950012086,-0.9704135739751848,-0.44648653554302986
1687091889.034594,-0.0610470324754715,0.830045223236084,-0.554344892501831,-0.03201635554432869,-0.043454527854919434,0.017815470695495605,-0.16682669520378113,-0.08595070242881775,0.5920747518539429,-0.10968267344687886,-0.9791887230610962,-0.4146776644034981
1687091889.1224608,-0.02565811201930046,0.8416410684585571,-0.5394275188446045,-0.15166430175304413,-0.16286897659301758,0.08082473278045654,-0.7667144536972046,-0.22872982919216156,1.4133456945419312,-0.047529623234140825,-1.0003148616091608,-0.330246044852634
1687091889.2082229,0.04688539355993271,0.8661786913871765,-0.4975301921367645,-0.2327679842710495,-0.01855289936065674,0.018389135599136353,-0.7873134016990662,-0.239266499876976,2.289700508117676,0.0939588043056225,-1.0475042195790139,-0.15420099188124756
1687091889.226886,0.1664537787437439,0.8637734055519104,-0.4755929708480835,-0.6356615424156189,0.07862472534179688,0.09830430150032043,-0.5054582953453064,-0.2942357361316681,3.454685688018799,0.33666776650826596,-1.0427110112872289,0.14712986020070334
1687091889.327493,0.3124338686466217,0.8385664224624634,-0.4463088810443878,-0.7321878671646118,0.10096317529678345,0.08954322338104248,-0.713801383972168,0.8260431885719299,3.0883138179779053,0.6107525231282758,-0.9946465073755475,0.4509374311455004
1687091889.333564,0.45427072048187256,0.7991890907287598,-0.3936178684234619,-0.49066290259361267,0.16333544254302979,0.11235278844833374,-0.6478204727172852,1.6990705728530884,2.3531670570373535,0.8568105075801309,-0.9259448857575198,0.6816338516468267
1687091889.4222322,0.5530857443809509,0.7700242400169373,-0.3180549442768097,0.019912362098693848,-0.06943213939666748,0.04077237844467163,-1.2046592235565186,1.5708500146865845,1.3545961380004883,1.048920425198182,-0.878879158046611,0.8199043425916088
1687091889.440172,0.5982906222343445,0.7607462406158447,-0.25162220001220703,0.44843190908432007,0.0115165114402771,-0.0009869039058685303,0.37220868468284607,1.1278350353240967,0.005488798022270203,1.1726851504385745,-0.8644621260149624,0.8843571774181983
1687091889.443754,0.603762686252594,0.7505960464477539,-0.26847004890441895,0.8346986174583435,-0.3167428970336914,0.03607890009880066,0.5857995748519897,-0.20561225712299347,0.011409537866711617,1.1523907281318388,-0.8489636521710875,0.8313522384854114
1687091889.471746,0.5976276397705078,0.7453835606575012,-0.2953720688819885,0.5957012176513672,-0.29230421781539917,0.04714226722717285,0.6091383099555969,-0.33109959959983826,0.003732709214091301,1.1117665466066253,-0.841110028376518,0.7987761695403829
1687091889.536879,0.5996747016906738,0.7352904081344604,-0.31581389904022217,0.40050840377807617,-0.2996060848236084,0.059756338596343994,-0.1322905719280243,-0.15388396382331848,0.37603437900543213,1.086062958533331,-0.8260950774807939,0.7809538827857636
1687091889.629712,0.6178857088088989,0.7248637676239014,-0.30461442470550537,0.11656564474105835,-0.05059307813644409,0.0625644326210022,-0.4943513572216034,-0.045419126749038696,0.5341047048568726,1.112768563387609,-0.8108366396035124,0.821476285729632
1687091889.6348891,0.6285971999168396,0.7198801636695862,-0.29434388875961304,-0.09763705730438232,0.18659883737564087,-0.030988574028015137,-0.13768631219863892,-0.328154981136322,0.24541085958480835,1.1328655467894235,-0.8036296391193647,0.8605513644557964
1687091889.685872,0.6288451552391052,0.7130471467971802,-0.3100283443927765,-0.24269098043441772,0.030071258544921875,-0.05046039819717407,0.09311646223068237,-0.2578412592411041,-0.006415798328816891,1.1127545787617246,-0.7938347942618834,0.8559591481788663
1687091889.7799358,0.6206427216529846,0.7203726768493652,-0.3096223473548889,-0.08336544036865234,-0.029530882835388184,-0.04447293281555176,-0.16602522134780884,-0.022115536034107208,-0.2486553192138672,1.108050146702203,-0.8043394446813272,0.8581065096459425
1687091889.78597,0.6132215261459351,0.7318888902664185,-0.2971498668193817,0.03312551975250244,-0.03154093027114868,-0.029571175575256348,-0.3968140482902527,0.19920207560062408,-0.2604917585849762,1.119567296346293,-0.8210898232675274,0.8678013696352938
1687091889.895489,0.6097380518913269,0.7373392581939697,-0.2907756268978119,0.09100663661956787,0.03422147035598755,-0.03611326217651367,0.32591989636421204,0.15056516230106354,-0.06695930659770966,1.1258101752755794,-0.8291230726884377,0.8635719065451786
1687091889.9611769,0.6085471510887146,0.7378026247024536,-0.2920924425125122,0.02304476499557495,-0.004419267177581787,0.011971741914749146,-0.053906939923763275,0.029103176668286324,-0.03340107575058937,1.12328992466465,-0.8298092063234044,0.8541014135136163
1687091889.967496,0.6099314093589783,0.7364947199821472,-0.29250556230545044,-0.01845484972000122,0.01123189926147461,0.003321141004562378,0.1140965074300766,0.15318451821804047,-0.015012482181191444,1.1236248936985735,-0.8278737110557562,0.84829596627713
1687091889.972285,0.6105625033378601,0.7379552721977234,-0.2874636948108673,0.012026607990264893,-0.06731617450714111,0.004413336515426636,-0.04076310992240906,0.19813308119773865,-0.12035807967185974,1.1307658148800555,-0.8300353998576431,0.8451957623688575
1687091890.010251,0.6052461862564087,0.7459790110588074,-0.2778356373310089,0.024011075496673584,-0.14372974634170532,0.009250640869140625,-0.270278662443161,0.21718066930770874,-0.33476385474205017,1.1404455200527275,-0.8420037205331301,0.8461280919745281
1687091890.076432,0.5882192850112915,0.7688984274864197,-0.2505859136581421,0.044867873191833496,-0.3402637243270874,0.007605135440826416,-0.8916091918945312,0.16202287375926971,-0.7745553851127625,1.1680724857946443,-0.8771164921484926,0.8686450931109709
1687091890.138114,0.541953980922699,0.8170493841171265,-0.19676503539085388,0.0218888521194458,-0.6604634523391724,-0.03670951724052429,-1.6414034366607666,0.17003606259822845,-1.7718164920806885,1.2225292227779745,-0.9562747129936013,0.9274725282256531
1687091890.22879,0.4321308732032776,0.8957065343856812,-0.10475137829780579,-0.18263444304466248,-0.8705752491950989,-0.1078338548541069,-2.375091075897217,0.4474925696849823,-3.552624225616455,1.332977056837083,-1.1100175924488473,1.042324159780528
1687091890.234518,0.22029997408390045,0.9747884273529053,0.0354364775121212,-0.40928006172180176,-0.8236042857170105,-0.13574755191802979,-2.877472400665283,1.349953055381775,-5.427202224731445,1.7302856818627563,-1.3457708036705087,1.414866149575817
1687091890.286186,-0.07928381860256195,0.9801894426345825,0.18150192499160767,-0.7639779448509216,-0.26914507150650024,0.03941500186920166,-2.597764492034912,1.9386121034622192,-6.141104698181152,-2.7297524103935,-1.3714156978071026,-3.1081157852694745
1687091890.3784409,-0.4208598732948303,0.8693200945854187,0.25915223360061646,-2.2009968757629395,-0.05198293924331665,0.08844318985939026,-2.8239083290100098,4.330174922943115,-6.907723426818848,-2.122729668029491,-1.053825053312363,-2.608222598220467
1687091890.384413,-0.7181215882301331,0.6598139405250549,0.22124014794826508,-1.1028470993041992,0.7337254881858826,0.23313629627227783,-0.8844814300537109,4.182692527770996,-5.38539457321167,-1.869650968491493,-0.7205711192379967,-2.5846569263722006
1687091890.433772,-0.8567445874214172,0.5054377913475037,0.1025758609175682,-0.33222049474716187,0.36983686685562134,0.2659851312637329,-0.6512928605079651,2.3659756183624268,-2.489267349243164,-1.6899565842920103,-0.5298892299805787,-2.545637669471874
1687091890.522219,-0.908211350440979,0.4153808653354645,0.05110089108347893,-0.0948864221572876,0.391397088766098,0.1700143814086914,-1.2880648374557495,1.5635584592819214,-1.4752469062805176,-1.6270024821826248,-0.42836145915827795,-2.6123578090938397
1687091890.541119,-0.9407357573509216,0.33891546726226807,-0.012347668409347534,-0.08349519968032837,0.29987838864326477,0.3787113428115845,-1.6816107034683228,2.0055997371673584,-1.6617584228515625,-1.5576715366665568,-0.345763893614036,-2.680972381097609
1687091890.612572,-0.9580504894256592,0.2760601043701172,-0.07700994610786438,-0.023410320281982422,0.5031604170799255,0.3960713744163513,-1.1784837245941162,1.5668944120407104,-1.0436509847640991,-1.490586852501025,-0.27969249253674006,-2.7676307146985417
1687091890.709019,-0.9616104960441589,0.24354754388332367,-0.12645156681537628,0.00898897647857666,0.35500890016555786,0.31723231077194214,0.2194257229566574,0.7566341757774353,-0.45266225934028625,-1.4400467521928346,-0.24602186892523956,-2.7882346131051134
1687091890.727989,-0.9610318541526794,0.22763293981552124,-0.1568477600812912,0.03151208162307739,0.2136358767747879,0.19645971059799194,0.029146000742912292,0.5079895853996277,-0.21159106492996216,-1.4090150515273934,-0.2296461132972028,-2.787112935453161
1687091890.829669,-0.9594371914863586,0.22098195552825928,-0.1750638335943222,0.04499316215515137,0.08463621139526367,0.14282216131687164,-0.05010974034667015,0.2729490101337433,-0.08083437383174896,-1.390316650524571,-0.22282120755926677,-2.7889145042113377
1687091890.8345351,-0.9579178094863892,0.21904732286930084,-0.1855042725801468,0.028718531131744385,0.0676957219839096,0.09682030975818634,0.39681297540664673,0.09558127075433731,0.02249228209257126,-1.3795104146468653,-0.22083798141501065,-2.782796012257923
1687091890.920062,-0.9576291441917419,0.21545721590518951,-0.191114604473114,-0.020688235759735107,-0.11693128943443298,0.08352500200271606,0.14129197597503662,-0.01796659640967846,-0.014970404095947742,-1.3738136949833348,-0.2171600118008186,-2.7610110477847667
1687091890.939455,-0.9583209753036499,0.21662455797195435,-0.18626625835895538,0.0398331880569458,-0.02759873867034912,0.027513906359672546,0.00046109268441796303,-0.18295207619667053,0.05847691744565964,-1.3788226460389572,-0.21835559523456471,-2.7633789139535643
1687091891.008003,-0.9598314166069031,0.21597841382026672,-0.17910055816173553,-9.906291961669922e-05,-0.07495678961277008,-0.02521449327468872,-0.05194299295544624,-0.1123540848493576,-0.03315606713294983,-1.386321969063518,-0.2176937908780055,-2.75984733233758
1687091891.0249438,-0.9614931344985962,0.21341238915920258,-0.17316530644893646,0.01271677017211914,0.013073712587356567,-0.03671920299530029,0.010109658353030682,-0.10983619838953018,-0.06036478281021118,-1.3926061297676056,-0.21506649908630046,-2.7645947070954273
1687091891.094029,-0.9631823897361755,0.2061484158039093,-0.17257653176784515,-0.027479350566864014,0.010068535804748535,-0.0548861026763916,-0.06785005331039429,-0.001662457943893969,-0.09744424372911453,-1.393504289545026,-0.20763717945596896,-2.7656228674227235
1687091891.097539,-0.9635764956474304,0.20161126554012299,-0.17570823431015015,0.00828462839126587,0.05850520730018616,-0.0030941367149353027,-0.017121095210313797,0.0560157485306263,-0.09138315171003342,-1.3904280138611271,-0.20300269313154054,-2.7675583715029477
1687091891.219283,-0.9631003737449646,0.1991368532180786,-0.18105877935886383,-0.0027505159378051758,0.06569458544254303,0.012525558471679688,-0.06752721220254898,0.06104845926165581,-0.039737269282341,-1.3849695060318843,-0.20047705738301974,-2.770061605141968
1687091891.2387161,-0.9624009728431702,0.20125742256641388,-0.18242816627025604,-0.012422144412994385,0.06722088158130646,0.06286042928695679,0.09423145651817322,-0.004576089326292276,0.01625169813632965,-1.383463650518759,-0.20264144596997627,-2.768475618584177
1687091891.367163,-0.9614843726158142,0.2086949348449707,-0.17886975407600403,0.043378233909606934,0.08505189418792725,0.07726158201694489,0.11050824075937271,-0.11973130702972412,0.1536409854888916,-1.3868639865166859,-0.21024032601086995,-2.7639895389347378
1687091891.373331,-0.961009681224823,0.21905316412448883,-0.16874969005584717,-0.0063825249671936035,0.0386677086353302,0.06811808049678802,0.04365863278508186,-0.130669966340065,0.1278432011604309,-1.3969721899742746,-0.22084396543835844,-2.7582421660815233
1687091891.464504,-0.9599993228912354,0.23229554295539856,-0.1563335508108139,-0.0086592435836792,0.028522849082946777,0.01572394371032715,-0.03376052528619766,-0.14973607659339905,0.1037442609667778,-1.4093658272155796,-0.23443713013360296,-2.7639927446672794
1687091891.469306,-0.9602731466293335,0.23780108988285065,-0.14603549242019653,-0.0006797313690185547,-0.04105435311794281,-0.006994783878326416,0.028057433664798737,-0.14906948804855347,0.10709211975336075,-1.4198756662599044,-0.24010137225707823,-2.7599238653822713
1687091891.4738898,-0.9603612422943115,0.24176013469696045,-0.13877533376216888,-0.013622641563415527,-0.04148861765861511,-0.03219926357269287,0.08298666030168533,-0.13199050724506378,0.042747221887111664,-1.4272864385425428,-0.24417939231371466,-2.757461329184734
1687091891.544256,-0.9612788558006287,0.2400321513414383,-0.13537949323654175,-0.0031682252883911133,-0.01823049783706665,-0.04137818515300751,0.03160769119858742,-0.08352722972631454,0.02015429362654686,-1.4308837897869195,-0.2423989679587216,-2.7558787476306104
1687091891.547721,-0.9620267748832703,0.23683173954486847,-0.13570332527160645,-0.0014895796775817871,-0.02240005135536194,-0.037834763526916504,0.11397366970777512,-0.06579536944627762,0.02315620705485344,-1.430661088562971,-0.23910351485641443,-2.7492733620550625
1687091891.637541,-0.9620118737220764,0.2360563725233078,-0.13715219497680664,0.00012826919555664062,-0.00940239429473877,-0.03685891628265381,-0.027473269030451775,-0.018617073073983192,0.02359003573656082,-1.429182565871062,-0.23830551475312234,-2.7483703023152555
1687091891.6556711,-0.9620048403739929,0.23394174873828888,-0.1407768875360489,-0.002976357936859131,0.0009672194719314575,-0.021698594093322754,0.09537222236394882,-0.003926011733710766,0.0003196028992533684,-1.4254907038897762,-0.23612996301553493,-2.7456683036606453
1687091891.72595,-0.9618307948112488,0.23198336362838745,-0.145138680934906,-0.007056593894958496,0.005077064037322998,-0.0019101351499557495,0.025710590183734894,0.04983389005064964,-0.027788463979959488,-1.4210279106443031,-0.23411617581115812,-2.7429830458326285
1687091891.743565,-0.9616069793701172,0.23037710785865784,-0.14912621676921844,0.004651904106140137,0.0208587646484375,0.03505164384841919,-0.020388660952448845,0.03173651173710823,-0.004378213547170162,-1.4169416841304643,-0.2324651936256433,-2.742826046703934
1687091891.88203,-0.9615411162376404,0.23090694844722748,-0.14873024821281433,0.008995890617370605,0.01631586253643036,0.028704717755317688,-0.0047749485820531845,-0.0012486027553677559,0.02395808696746826,-1.4173334834065294,-0.2330097129423282,-2.743348255298609
1687091891.888519,-0.9612810015678406,0.23357801139354706,-0.14622028172016144,-0.008415162563323975,0.013354882597923279,0.042231738567352295,0.039362818002700806,-0.03741992264986038,0.03818922117352486,-1.4198436335563978,-0.23575587338115797,-2.7414298698608417
1687091891.893189,-0.9609188437461853,0.23788470029830933,-0.14158408343791962,0.0061457157135009766,0.0270078182220459,0.03770236670970917,-0.014424246735870838,-0.06403741240501404,0.08229836076498032,-1.4245065128982715,-0.2401874575192038,-2.7420408425780813
1687091891.935072,-0.9607988595962524,0.24253101646900177,-0.13432908058166504,-0.036088407039642334,0.009788230061531067,0.0030883699655532837,0.10881286859512329,-0.1150694414973259,0.06132835894823074,-1.4318869444875975,-0.24497391734857749,-2.7406914348774327
1687091891.9922209,-0.9605481028556824,0.24687683582305908,-0.12805889546871185,0.021659553050994873,0.002115979790687561,-0.0021594613790512085,0.18931236863136292,-0.15571221709251404,0.11697111278772354,-1.4382593069221214,-0.2494559968297347,-2.7333439080718525
1687091892.089117,-0.959756076335907,0.2530708611011505,-0.12175223976373672,0.015603125095367432,0.14904391765594482,0.13182318210601807,0.5151787996292114,-0.3165464997291565,0.29671159386634827,-1.4446128437535175,-0.255853139312971,-2.716039747289103
1687091892.10807,-0.9556406140327454,0.2776590585708618,-0.09826868772506714,0.05839318037033081,0.2615712285041809,0.2762625813484192,0.7003087401390076,-1.0276837348937988,0.9869749546051025,-1.468326320359228,-0.2813564841603825,-2.6817795173174157
1687091892.174542,-0.9374794960021973,0.3449332118034363,-0.046406906098127365,0.021295905113220215,0.523597002029419,0.2984364628791809,2.4082460403442383,-2.143794059753418,2.1400322914123535,-1.5213349183058242,-0.35216762537608026,-2.6010762122225404
1687091892.1918569,-0.8807001709938049,0.4735356867313385,0.011452220380306244,-0.21866506338119507,0.5595147609710693,0.3499828577041626,3.256466865539551,-2.9164857864379883,3.5687596797943115,-1.5837991347445108,-0.49330076543343016,-2.437849695531576
1687091892.233117,-0.7557039856910706,0.6540879011154175,0.032872796058654785,-0.5187711715698242,0.69581139087677,0.3570657968521118,3.836458921432495,-2.825242757797241,5.129232883453369,-1.6142684870081339,-0.7129761503207229,-2.23020950121772
1687091892.325659,-0.5248014330863953,0.8504048585891724,-0.03734918311238289,-1.028009295463562,0.8669260144233704,0.315990149974823,3.9100286960601807,-1.8375544548034668,6.987216949462891,-1.4997478947037275,-1.0167543365059348,-1.9254788657294422
1687091892.343065,-0.17743265628814697,0.9650154113769531,-0.1930367350578308,-1.311413288116455,0.8378412127494812,0.13024696707725525,4.080887794494629,-0.6042033433914185,8.23868465423584,-0.7433032871146436,-1.305502238350632,-1.049104209917871
1687091892.384702,0.22168061137199402,0.8986673951148987,-0.37848976254463196,-1.3639841079711914,-0.06005960702896118,0.19353818893432617,3.793076515197754,1.0495446920394897,8.058831214904785,0.5298367777226642,-1.1167218849972544,0.26784915836745027
1687091892.507278,0.5394763350486755,0.6739426255226135,-0.5047443509101868,-1.4760302305221558,-0.5061415433883667,0.3861684203147888,3.7979302406311035,1.7388293743133545,6.045384883880615,0.8186470568942353,-0.7395325027811751,0.5360559923885172
1687091892.526839,0.7332017421722412,0.4529516100883484,-0.5071983933448792,-1.1071794033050537,-0.9279118180274963,0.4604912996292114,1.4446409940719604,2.749295949935913,3.297481060028076,0.9656231704431394,-0.4700732629795725,0.5901034584545125
1687091892.592434,0.8275385499000549,0.3662516176700592,-0.425487756729126,-0.05190366506576538,-1.1861214637756348,0.4100459814071655,-0.9649551510810852,1.1564831733703613,0.6716905236244202,1.0958844906495737,-0.37497752604062595,0.6313088819067901
1687091892.609703,0.8202227354049683,0.41675636172294617,-0.39185333251953125,-0.09492653608322144,-0.13323262333869934,0.13248449563980103,-0.6985698342323303,-0.04350950941443443,-1.2382433414459229,1.1251146726105776,-0.4298740885826926,0.6835515965674888
1687091892.683294,0.8024459481239319,0.44324231147766113,-0.3995206356048584,0.19712680578231812,0.07195556163787842,0.08993521332740784,0.3950289785861969,-0.10949637740850449,-0.37171468138694763,1.1088473251502298,-0.45921247186962727,0.6487816921143803
1687091892.6868691,0.7959269285202026,0.4598463177680969,-0.393753319978714,0.07597553730010986,0.03125789761543274,-0.018783122301101685,-0.389529824256897,0.06786442548036575,-0.20804879069328308,1.111389367795712,-0.477822134763631,0.6550293031049206
1687091892.778514,0.7934296727180481,0.4685567319393158,-0.3884895443916321,0.031552135944366455,-0.0004016458988189697,-0.07101356983184814,-0.030106602236628532,-0.0115628931671381,-0.0531926229596138,1.1154764602362612,-0.4876563648655233,0.660429710993061
1687091892.783066,0.7917402386665344,0.4739637076854706,-0.38536471128463745,0.03778862953186035,-0.03664672374725342,-0.004741370677947998,-0.3124396800994873,-0.023657772690057755,-0.06311076879501343,1.117819957890989,-0.4937867981795523,0.6683815611490356
1687091892.837291,0.7918462157249451,0.47485488653182983,-0.38404756784439087,0.2009822130203247,-0.14875918626785278,-0.01036149263381958,0.2336117923259735,0.04971577972173691,0.019784115254878998,1.1192183571307903,-0.4947991180068601,0.6676641338264079
1687091892.9304461,0.7931230664253235,0.47006046772003174,-0.3872971832752228,0.4998304843902588,-0.4715557396411896,0.1266925036907196,0.08196087926626205,-0.14001846313476562,0.020538587123155594,1.1165369644323957,-0.48935930097865155,0.6583699883929433
1687091892.936184,0.779805064201355,0.46702370047569275,-0.4168850779533386,0.5160477161407471,-0.3721138834953308,0.18482953310012817,0.6872097849845886,-0.9319297671318054,-0.3505478799343109,1.0798520616811482,-0.48592184107081793,0.6398105601656013
1687091892.9849901,0.7319799661636353,0.49039027094841003,-0.472993403673172,0.324614942073822,-0.296374648809433,0.18826454877853394,0.06399545818567276,-1.4460915327072144,-1.3612926006317139,0.9971087189118385,-0.5125374953447845,0.5958963608475384
1687091893.0790792,0.6452280282974243,0.5177274942398071,-0.5618177056312561,0.14854943752288818,0.2924685478210449,0.12805622816085815,1.755410075187683,-2.2446391582489014,-1.5987749099731445,0.8543913639339273,-0.5441925696928521,0.4953175262908626
1687091893.0851312,0.524847149848938,0.5689354538917542,-0.6331255435943604,-0.2276211977005005,-0.2745323181152344,0.15837901830673218,-1.6788347959518433,-2.0347306728363037,-2.3622705936431885,0.6921624255615448,-0.6052108068290813,0.40458822349533524
1687091893.1393461,0.3820502460002899,0.6711814403533936,-0.6352583169937134,-0.2866217792034149,0.5540841817855835,-0.0792343020439148,0.5290113091468811,-1.8676971197128296,-2.7671449184417725,0.5414550719780797,-0.7358013562685948,0.3134594324680694
1687091893.223826,0.22105929255485535,0.6790401935577393,-0.7000266313552856,-0.5286917090415955,-0.31417185068130493,0.1283714771270752,0.2627028226852417,-1.847653865814209,-3.3351047039031982,0.30587659293329306,-0.746454374322448,0.10573056220881995
1687091893.240454,0.04218335449695587,0.715591549873352,-0.6972441673278809,-0.9530872702598572,-0.045349061489105225,-0.01491391658782959,-0.3009360432624817,-0.5795755982398987,-3.899782180786133,0.06042646670331403,-0.7974706054870542,-0.14294990368403165
1687091893.2830029,-0.06630408018827438,0.7316786050796509,-0.678417444229126,-0.2174636572599411,0.20974302291870117,0.004207968711853027,-0.9313060641288757,0.8519907593727112,-2.1660778522491455,-0.0974240427937656,-0.8207812921629855,-0.38751573370316694
1687091893.410614,-0.06385676562786102,0.7464025616645813,-0.6624240875244141,0.14253105223178864,0.07984572649002075,0.1268407106399536,-0.3965051770210266,-0.06070713326334953,0.8780495524406433,-0.09610167280811219,-0.8426399207526134,-0.4115586495080427
1687091893.429827,-0.05514216423034668,0.755038857460022,-0.653357207775116,0.004833906888961792,-0.05351591110229492,0.01924794912338257,0.2461029440164566,-0.2159273475408554,-0.06028968095779419,-0.08419864568615192,-0.8557133403571667,-0.39210814864471827
1687091893.496146,-0.059264469891786575,0.7414383292198181,-0.668398916721344,-0.03361581638455391,-0.046156227588653564,-0.04520881175994873,0.41144663095474243,-0.13333074748516083,0.15032613277435303,-0.08843505005776657,-0.8352112897057781,-0.3851604217349664
1687091893.4998322,-0.05800025537610054,0.7382737994194031,-0.672002911567688,-0.025816306471824646,-0.042686522006988525,-0.02730727195739746,-0.08461086452007294,0.04856143146753311,-0.012289400212466717,-0.08609616404260473,-0.830507500272338,-0.38008395564355146
1687091893.587479,-0.05521274730563164,0.7336285710334778,-0.6773040294647217,-0.00554778054356575,-0.03646957874298096,-0.04078972339630127,0.22811362147331238,-0.031013822183012962,0.14880815148353577,-0.08133855720274231,-0.8236463004232544,-0.37438989966721886
1687091893.605674,-0.049515500664711,0.7299414277076721,-0.6817138195037842,-0.0015556961297988892,-0.03099721670150757,-0.016161978244781494,0.06619956344366074,0.0714249312877655,0.19761589169502258,-0.0725065205972687,-0.8182362395298578,-0.3639267363947939
1687091893.672308,-0.037784796208143234,0.7315371632575989,-0.680753767490387,-0.038631245493888855,-0.06465166807174683,0.019056499004364014,-0.20941470563411713,0.03328926861286163,0.4018111228942871,-0.05544746108013964,-0.8205737764313118,-0.3421224986100564
1687091893.689167,-0.018742909654974937,0.7377930283546448,-0.6747667789459229,-0.0639902725815773,-0.06042468547821045,0.0664447546005249,-0.17656201124191284,-0.0200707595795393,0.7478007078170776,-0.027769730968145574,-0.8297950483480973,-0.30532684883652733
1687091893.7307692,0.024478647857904434,0.7530229091644287,-0.6575387716293335,-0.18733571469783783,-0.16635292768478394,0.10639142990112305,-0.8900116086006165,-0.11101864278316498,1.812135934829712,0.03721050590190825,-0.8526442474969999,-0.21429854668170922
1687091893.821523,0.11569041758775711,0.7795795202255249,-0.615525484085083,-0.492628276348114,-0.06459826231002808,0.15289437770843506,-1.129600167274475,0.06194900721311569,2.8907549381256104,0.18578641263813397,-0.8939941417997312,-0.01737685411518907
1687091893.839079,0.2393462210893631,0.7828839421272278,-0.574287474155426,-0.6096617579460144,0.024183988571166992,-0.03961920738220215,-0.6659536361694336,0.7119784355163574,2.774204969406128,0.3948798263009274,-0.8992877109071521,0.22030812437194547
1687091893.8835301,0.37132343649864197,0.7601548433303833,-0.5331825017929077,-0.5640114545822144,0.17806237936019897,0.13201385736465454,-0.44642284512519836,1.6664835214614868,2.1702873706817627,0.6083248892769565,-0.8635514161253565,0.4257833882311058
1687091893.975963,0.47450098395347595,0.7346226572990417,-0.48495209217071533,0.07351845502853394,-0.026828348636627197,0.015469789505004883,-0.4917666018009186,1.3506433963775635,1.3132665157318115,0.7745058126789395,-0.8251103145770405,0.5337287807879733
1687091893.994123,0.5332291126251221,0.7383311986923218,-0.41295722126960754,0.25833576917648315,-0.035297691822052,0.09790921211242676,-1.2892543077468872,1.397524118423462,0.2699921131134033,0.9118324241672654,-0.8305926671076505,0.6270617037112862
1687091894.031574,0.5601053237915039,0.7502912878990173,-0.35120511054992676,0.2861775755882263,0.11439383029937744,-0.0028291046619415283,-0.399898886680603,0.548060953617096,0.02948521077632904,1.0107356526633837,-0.8485026022960296,0.6975212343262122
1687091894.123658,0.5580297708511353,0.7545883059501648,-0.3452524244785309,0.6041558384895325,-0.04268944263458252,0.00794181227684021,0.12586195766925812,-0.2472427785396576,-0.0370650514960289,1.0167409814022352,-0.8550264926010579,0.6935838517376143
1687091894.141638,0.5522159337997437,0.7480267882347107,-0.36812153458595276,0.36329615116119385,-0.17156487703323364,0.057727426290512085,0.6682878732681274,-0.20068368315696716,-0.03044550120830536,0.9828218406248559,-0.8450838599589358,0.6689583875566021
1687091894.183644,0.5445943474769592,0.7486516237258911,-0.37807101011276245,0.503562331199646,-0.33077436685562134,0.10599175095558167,-0.5117104053497314,-0.12316398322582245,-0.15958565473556519,0.9639567460648034,-0.8460259063759372,0.6501616906082006
1687091894.2731671,0.5409867167472839,0.7602458596229553,-0.3596661388874054,0.31336814165115356,-0.05954688787460327,-0.009703218936920166,-0.39596354961395264,-0.2542961537837982,0.20538726449012756,0.9840638794619223,-0.8636914793953734,0.6904737975578672
1687091894.29129,0.5522486567497253,0.7487738728523254,-0.36655014753341675,0.06033062934875488,0.08899468183517456,-0.12153252959251404,0.16988733410835266,-0.2847781777381897,0.5631504654884338,0.9848218506614929,-0.8462103265673003,0.7110221544060067
1687091894.330227,0.5696740746498108,0.7298972010612488,-0.37778517603874207,-0.10870599746704102,0.1270517110824585,-0.120261549949646,0.19536440074443817,-0.10176108777523041,0.5205899477005005,0.9852252311598316,-0.8181715913011797,0.7256300646136811
1687091894.460527,0.5842125415802002,0.7095105648040771,-0.3940690755844116,-0.15238875150680542,0.05008727312088013,-0.04013484716415405,0.5719999670982361,0.058483436703681946,0.30203551054000854,0.9773693561573266,-0.7888034724714262,0.71538635574191
1687091894.479116,0.5934098958969116,0.6957346200942993,-0.40474462509155273,-0.12028056383132935,-0.08483362197875977,0.054586052894592285,0.16195204854011536,0.20703895390033722,0.03328607603907585,0.972208370572621,-0.7694420965817248,0.6973860595449397
1687091894.5449228,0.5945279598236084,0.6978751420974731,-0.3993830680847168,-0.003677070140838623,-0.01956087350845337,0.09616053104400635,0.004995856899768114,0.16177508234977722,-0.14072033762931824,0.9792724242348029,-0.7724264593566903,0.6926925670635193
1687091894.5484571,0.5924233198165894,0.7034938335418701,-0.39259564876556396,0.048400163650512695,-0.002687990665435791,0.034349918365478516,-0.22629061341285706,0.06359364837408066,-0.0856110155582428,0.9855487404755948,-0.7803016317658849,0.6936736978993073
1687091894.637827,0.5920835137367249,0.7094488143920898,-0.3822561502456665,0.08284330368041992,0.008324801921844482,0.00341111421585083,-0.24387148022651672,-0.01468837819993496,0.018213914707303047,0.9975120713839607,-0.7887157790331008,0.7083699386337586
1687091894.6566339,0.5953987836837769,0.7088790535926819,-0.37814149260520935,0.03466719388961792,0.007918000221252441,-0.03787398338317871,-0.031837526708841324,-0.0498247966170311,0.12614649534225464,1.004962571177748,-0.7879076523036493,0.721364440223895
1687091894.724366,0.6008908748626709,0.705704927444458,-0.37538084387779236,0.0258333683013916,-0.08944815397262573,-0.027191609144210815,-0.13269561529159546,0.05591695010662079,0.046062588691711426,1.0124075755922926,-0.7834175870020914,0.7296578701093893
1687091894.7411861,0.5995498299598694,0.7118799090385437,-0.36574187874794006,0.01525735855102539,-0.20896536111831665,0.012546837329864502,-0.4084221422672272,0.07626775652170181,-0.23831719160079956,1.0230362655880985,-0.7921713907256389,0.7401458913405784
1687091894.783502,0.578903079032898,0.7455970048904419,-0.33008572459220886,0.014374017715454102,-0.5670690536499023,0.07973489165306091,-1.5054789781570435,0.03049534559249878,-1.1062909364700317,1.0525831239437717,-0.8414302798680467,0.7758860778253245
1687091894.872676,0.5084473490715027,0.8190826773643494,-0.26567819714546204,-0.11680001020431519,-0.7530730962753296,0.05785366892814636,-1.8470169305801392,-0.029538298025727272,-2.516958236694336,1.0892888139325863,-0.9598101477357036,0.8241109350013631
1687091894.890376,0.3582717776298523,0.9212339520454407,-0.15155725181102753,-0.3660689890384674,-0.9191128611564636,-0.027504444122314453,-3.4095799922943115,0.2755596935749054,-4.399868965148926,1.170601283704366,-1.1712406594417712,0.9129423125704698
1687091894.9343019,0.10870804637670517,0.9933981895446777,0.03664616867899895,-0.7011457681655884,-0.6089223027229309,-0.10405933856964111,-3.5253050327301025,1.4749542474746704,-5.956069469451904,1.895938705785181,-1.4558260945829355,1.6119524781809713
1687091895.061302,-0.20758777856826782,0.9583378434181213,0.1962040215730667,-1.308525562286377,-0.13251692056655884,-0.017645493149757385,-3.2749242782592773,2.3436272144317627,-6.445195198059082,-2.3280098103629827,-1.281125018887215,-2.6898296513449433
1687091895.066339,-0.5364094972610474,0.800242006778717,0.26809996366500854,-1.2441080808639526,0.3788503408432007,0.2603578269481659,-2.9896602630615234,4.631701469421387,-6.025811195373535,-2.0342876410204904,-0.9276986636150439,-2.584808834555161
1687091895.1538181,-0.7617507576942444,0.6172063946723938,0.19695787131786346,-0.7577502131462097,0.4981500506401062,0.33352938294410706,-0.9677525162696838,3.9113080501556396,-3.8849596977233887,-1.8238146021915527,-0.6651871789562518,-2.5884417279097223
1687091895.174159,-0.8723297715187073,0.480728417634964,0.08911404758691788,-0.3208771347999573,0.15360990166664124,0.24195611476898193,-0.7716918587684631,2.3620052337646484,-2.5022873878479004,-1.6725995461257508,-0.5014852235316426,-2.584360164263768
1687091895.264951,-0.9249633550643921,0.3797668516635895,0.014839203096926212,-0.23641371726989746,0.35120534896850586,0.1700516939163208,-1.1984864473342896,2.2928905487060547,-2.033010959625244,-1.5868379684423612,-0.38954426966653993,-2.647728349297435
1687091895.269131,-0.9538589715957642,0.28885188698768616,-0.08196139335632324,-0.13828891515731812,0.3853881061077118,0.3281773328781128,-0.6826919317245483,2.3993051052093506,-1.8761463165283203,-1.4850807511549708,-0.2930273863924928,-2.69591641481298
1687091895.3586779,-0.9604580998420715,0.2132992148399353,-0.17895196378231049,-0.020621061325073242,0.5346712470054626,0.40833747386932373,0.0015222292859107256,1.6913244724273682,-1.2427068948745728,-1.386589136351924,-0.2149506430243736,-2.73335355322948
1687091895.376301,-0.9564011096954346,0.1683284193277359,-0.2386685311794281,0.03856956958770752,0.39559054374694824,0.45131516456604004,0.5787886381149292,0.6783954501152039,-0.4645354151725769,-1.3262425721950593,-0.1691336415605041,-2.711972330009603
1687091895.477818,-0.9522133469581604,0.15787433087825775,-0.26146841049194336,0.07780832052230835,0.2881247401237488,0.3236175775527954,-0.4867890477180481,0.31229424476623535,-0.004772361367940903,-1.3028111833967961,-0.1585376139975833,-2.716320826357982
1687091895.497536,-0.9493469595909119,0.1722627580165863,-0.2628040611743927,0.02277219295501709,0.19037750363349915,0.20520225167274475,-0.3332613408565521,-0.05473393201828003,0.29554620385169983,-1.300733151297308,-0.17312630831283068,-2.7381052672329216
1687091895.5645719,-0.9486212134361267,0.18983659148216248,-0.25314056873321533,1.2695789337158203e-05,0.019376561045646667,0.11533856391906738,0.07554725557565689,-0.2956012785434723,0.3566758632659912,-1.3100217927268794,-0.19099570841809974,-2.7405618170090196
1687091895.5681028,-0.9497405290603638,0.20326539874076843,-0.23806805908679962,-0.001584172248840332,-0.1469452679157257,0.05018666386604309,0.11452315002679825,-0.36501577496528625,0.2770651876926422,-1.325190552591218,-0.20469179389709605,-2.725982064719987
1687091895.662812,-0.9514939785003662,0.21472890675067902,-0.22034305334091187,0.004167079925537109,-0.1279369741678238,-0.02442309260368347,-0.19353386759757996,-0.32747265696525574,0.14414921402931213,-1.3432317522668622,-0.21641425001959866,-2.730455968615353
1687091895.667685,-0.9540396928787231,0.21820423007011414,-0.20541439950466156,-0.030121684074401855,-0.1410406231880188,-0.088729128241539,-0.05845748260617256,-0.22989802062511444,-0.03317097947001457,-1.3587237789099886,-0.219973973708505,-2.7349212339077784
1687091895.749701,-0.9567896723747253,0.2138667106628418,-0.1970139741897583,-0.020245850086212158,-0.03489649295806885,-0.09134647250175476,0.14678122103214264,-0.13808435201644897,-0.1250404417514801,-1.3677231682541828,-0.2155315437151491,-2.733527962589968
1687091895.755666,-0.9591366648674011,0.20466765761375427,-0.19536623358726501,-0.021438896656036377,0.0024092495441436768,-0.061866313219070435,0.035159751772880554,0.00868991483002901,-0.16638708114624023,-1.3698555301450077,-0.20612415908564516,-2.727193202641396
1687091895.8382401,-0.9598499536514282,0.1983882188796997,-0.19831867516040802,0.006145060062408447,0.12428930401802063,-0.001983329653739929,-0.03534810617566109,0.05436339229345322,-0.07854778319597244,-1.367049068903198,-0.19971317639349118,-2.7298397550320868
1687091895.856292,-0.9592156410217285,0.19866099953651428,-0.2010953277349472,-0.01150280237197876,0.11211466789245605,0.02537524700164795,-0.13550180196762085,0.06229868158698082,0.029044456779956818,-1.3641436058934295,-0.19999149610449213,-2.73391733513243
1687091895.960475,-0.9575527310371399,0.20715035498142242,-0.20045402646064758,0.009478151798248291,0.1148710697889328,0.06793156266212463,0.05947721004486084,-0.07008053362369537,0.16773921251296997,-1.3644363944878293,-0.20866122426633313,-2.7353972232697408
1687091895.978904,-0.9555668234825134,0.22135722637176514,-0.19466181099414825,-0.013778388500213623,0.0056934654712677,0.05797368288040161,-0.03287908434867859,-0.10485635697841644,0.21256527304649353,-1.369832703111599,-0.22320600183045888,-2.730423979236354
1687091896.044475,-0.9539791941642761,0.23512479662895203,-0.18611890077590942,-0.006454885005950928,0.0033700019121170044,0.037620484828948975,0.09205006808042526,-0.16322112083435059,0.20120584964752197,-1.3781191774787815,-0.23734696845832337,-2.729385495574434
1687091896.062012,-0.9536424279212952,0.2425399124622345,-0.17815935611724854,-0.01703035831451416,-0.05719144642353058,0.003003820776939392,0.09626345336437225,-0.16594953835010529,0.16084083914756775,-1.386105492093451,-0.2449830855189677,-2.721025091470448
1687091896.133634,-0.9541212320327759,0.247561514377594,-0.16842249035835266,-0.0005908012390136719,-0.05542294681072235,-0.0070992112159729,0.056824300438165665,-0.17461305856704712,0.10076604783535004,-1.3960751728775063,-0.2501626117658286,-2.717384772228395
1687091896.13732,-0.956295907497406,0.24311216175556183,-0.16246476769447327,-0.014712512493133545,-0.0552918016910553,-0.02601170539855957,0.02650860697031021,-0.11975780129432678,0.02809344232082367,-1.4025134341740184,-0.24557299254525994,-2.714432541892277
1687091896.291415,-0.9582169651985168,0.2368612438440323,-0.16036631166934967,-0.008061349391937256,-0.022399038076400757,-0.025088921189308167,0.01929749920964241,-0.07889705896377563,-0.024959389120340347,-1.4049740230617145,-0.239133886287594,-2.7121929306622996
1687091896.310629,-0.9597724080085754,0.23042814433574677,-0.16043700277805328,0.012811839580535889,0.03624962270259857,-0.01995229721069336,0.12735140323638916,-0.07177682965993881,-0.012829755432903767,-1.4051662203730488,-0.23251764510287834,-2.7097591478596197
1687091896.4129438,-0.9602682590484619,0.2287917584180832,-0.15981025993824005,0.02160853147506714,0.07028040289878845,0.030690506100654602,0.36571741104125977,-0.14592735469341278,0.07288754731416702,-1.4058852126843093,-0.2308363346678224,-2.6970086640384534
1687091896.418456,-0.9601489901542664,0.2330666035413742,-0.15425340831279755,0.0709581971168518,0.19150912761688232,0.11175781488418579,1.2250994443893433,-0.5080042481422424,0.350600928068161,-1.411501791061039,-0.23522994197148928,-2.662542022718415
1687091896.42315,-0.9596659541130066,0.24374793469905853,-0.1401013284921646,0.07309967279434204,0.294902503490448,0.17089372873306274,3.743051528930664,-1.298168659210205,0.8166234493255615,-1.4258307337576563,-0.24622847867003628,-2.533754847729749
1687091896.492982,-0.9589720964431763,0.25376197695732117,-0.12640219926834106,-0.03921222686767578,0.25943681597709656,0.2089371681213379,5.960593223571777,-1.7539891004562378,0.9009460806846619,-1.4397417325360293,-0.25656757923716356,-2.274105816152736
1687091896.50914,-0.9577999114990234,0.25827735662460327,-0.12614431977272034,-0.10494434833526611,0.15313011407852173,0.23794567584991455,6.411092281341553,-1.5396071672439575,0.9493732452392578,-1.4398478188044874,-0.2612386346491536,-1.9431918736338833
1687091896.5844588,-0.952957272529602,0.267617791891098,-0.14231404662132263,-0.057601869106292725,0.03645932674407959,0.18838055431842804,5.339267730712891,-1.0730266571044922,1.1099491119384766,-1.422552519842103,-0.2709197863177911,-1.6303913185547994
1687091896.5885339,-0.9425433874130249,0.2887360453605652,-0.16805796325206757,-0.0705028772354126,-0.08393251895904541,0.02485443651676178,3.7219417095184326,-0.44150787591934204,1.2280999422073364,-1.3943479764724942,-0.29290637826822474,-1.3855475752238766
1687091896.677825,-0.9256806969642639,0.32082363963127136,-0.2004680633544922,-0.07264083623886108,-0.1972579061985016,0.09794445335865021,1.4151095151901245,0.09600857645273209,1.0583596229553223,-1.357526844170418,-0.3265989719360287,-1.242855138000166
1687091896.696271,-0.9083775877952576,0.35471463203430176,-0.2214227169752121,-0.06520956754684448,-0.2440882921218872,-0.0016301274299621582,0.18151509761810303,0.27900609374046326,0.8087844252586365,-1.3317027160254151,-0.36260881911206483,-1.194861092825122
1687091896.7310581,-0.8906184434890747,0.38893386721611023,-0.23564623296260834,-0.10677224397659302,-0.24139657616615295,-0.040766507387161255,0.15522471070289612,0.30079302191734314,0.7105545401573181,-1.3121363568471884,-0.39947406238130884,-1.1818761277988166
1687091896.824805,-0.8763284683227539,0.40854355692863464,-0.25522667169570923,-0.06951814889907837,-0.28220072388648987,0.021080732345581055,0.22676873207092285,0.26497682929039,0.2870917320251465,-1.2873904555042595,-0.4208578025980797,-1.1593544825273605
1687091896.8424392,-0.8724290728569031,0.41198769211769104,-0.2629328668117523,-0.016303837299346924,-0.23555028438568115,0.07293060421943665,-0.26846858859062195,0.13510698080062866,-0.17885735630989075,-1.2780737593712839,-0.42463441984633116,-1.1611110170617684
1687091896.8822,-0.8806966543197632,0.3993164300918579,-0.25479382276535034,0.006230652332305908,-0.19140014052391052,0.07120025157928467,-0.7116096019744873,-0.04822090268135071,-0.6771883368492126,-1.2891760397014858,-0.41077114525633424,-1.1929120870954475
1687091896.9727511,-0.8984107971191406,0.37197428941726685,-0.23343811929225922,-0.00556570291519165,-0.09310457110404968,0.07900410890579224,-0.9688828587532043,-0.1689748764038086,-0.9943740367889404,-1.3165833087573782,-0.3811350123334754,-1.2500188536800538
1687091896.990505,-0.9193346500396729,0.3349331319332123,-0.20650380849838257,-0.0326155424118042,0.004147768020629883,0.058264851570129395,-0.9592459797859192,-0.2291528731584549,-1.086405634880066,-1.3498406325412653,-0.34153425853023844,-1.3150284999994766
