Timestamp,gravityX,gravityY,gravityZ,accelerationX,accelerationY,accelerationZ,rotationRateX,rotationRateY,rotationRateZ,attitudeRoll,attitudePitch,attitudeYaw
1687011508.45734,-0.8190084099769592,0.5085366368293762,0.26573634147644043,0.0076985955238342285,0.021446943283081055,0.05134129524230957,-0.0561891607940197,-0.06269825994968414,0.193638414144516,-1.8845407104171696,-0.5334843753931368,1.5105611389808955
1687011508.46363,-0.8132012486457825,0.5148211717605591,0.27140888571739197,-0.001083970069885254,-0.018910527229309082,-0.0073555707931518555,-0.12358717620372772,-0.05496910586953163,0.16394975781440735,-1.892925121168017,-0.5407990511777208,1.5007985584720207
1687011508.519054,-0.8083272576332092,0.5190634727478027,0.27781349420547485,0.006981313228607178,-0.01717132329940796,0.03877583146095276,-0.11771490424871445,-0.07848241925239563,0.12657281756401062,-1.9018382056348424,-0.5457548975129561,1.4918911780276045
1687011508.6115599,-0.8065977096557617,0.5202301740646362,0.28064364194869995,-0.0021333694458007812,-0.02541816234588623,-0.023258328437805176,-0.009322653524577618,-0.03222810477018356,0.05933945253491402,-1.9056304125995571,-0.5471204767176627,1.4867084923622502
1687011508.616126,-0.8051498532295227,0.5201876163482666,0.2848484516143799,-0.003184497356414795,-0.0204775333404541,0.016299009323120117,-0.03928161785006523,-0.09296175837516785,0.03036000207066536,-1.9108374568138897,-0.5470706323588641,1.485221547636647
1687011508.6674209,-0.8057975769042969,0.518253743648529,0.2865375578403473,-0.005603969097137451,-0.010227501392364502,-0.025993645191192627,0.03849533572793007,-0.04826778918504715,-0.03593166917562485,-1.912446815110316,-0.5448078042471203,1.4849407761127043
1687011508.759252,-0.8072201013565063,0.5156252384185791,0.2872738540172577,-0.001785576343536377,0.004882633686065674,0.004275798797607422,0.09358854591846466,-0.07832316309213638,-0.06126871705055237,-1.9127002352056126,-0.5417371972875175,1.491636634025925
1687011508.7625961,-0.8091334104537964,0.5132167339324951,0.28620296716690063,-0.0010626912117004395,0.026730895042419434,-0.026299893856048584,0.03663638234138489,-0.02892778255045414,-0.06045538932085037,-1.9107772699843826,-0.5389285873696404,1.4954015309676172
1687011508.851325,-0.8102734088897705,0.5123823285102844,0.2844662666320801,0.006211638450622559,0.0285569429397583,-0.005749255418777466,0.11379767954349518,-0.012348140589892864,-0.05393517017364502,-1.9084279681465786,-0.5379566614291436,1.5020256769814093
1687011508.945633,-0.8110977411270142,0.5129320025444031,0.28110721707344055,0.00395357608795166,0.019126713275909424,-0.006448984146118164,-0.06704234331846237,0.019968919456005096,-0.016782475635409355,-1.9044177836100618,-0.5385968942370349,1.5052103231885001
1687011508.9511719,-0.8102466464042664,0.5149233341217041,0.2799183428287506,0.012608766555786133,0.0462491512298584,0.016422629356384277,0.1290171891450882,-0.00754046905785799,-0.011193832382559776,-1.9034325177601057,-0.540918199195589,1.5062621294642156
1687011508.95646,-0.8093730211257935,0.5178370475769043,0.2770557999610901,0.007584810256958008,0.006393849849700928,0.0047282874584198,-0.04366777464747429,0.0016293271910399199,0.03698461502790451,-1.9006032423851096,-0.5443206710551468,1.5107969058440294
1687011508.9978251,-0.8066790103912354,0.5215200781822205,0.27800360321998596,0.0072710514068603516,0.012430787086486816,0.020702481269836426,0.058468908071517944,-0.021572532132267952,0.02603902295231819,-1.9026767799507966,-0.5486314893667948,1.5098547935090354
1687011509.0611448,-0.805342435836792,0.5243022441864014,0.2766418755054474,0.0008228421211242676,0.009770631790161133,0.0072784423828125,0.07257374376058578,0.0005507469177246094,0.02475724369287491,-1.9016762885109215,-0.5518955105366342,1.5126371407224704
1687011509.125424,-0.803182065486908,0.5263516902923584,0.27901992201805115,-0.0007118582725524902,-0.0033873319625854492,0.0063803791999816895,-0.10238774865865707,-0.013933786191046238,0.05011506751179695,-1.9051468810667187,-0.5543040908528503,1.509620144622509
1687011509.212008,-0.8025176525115967,0.5274354815483093,0.27888572216033936,0.0021331310272216797,0.00865161418914795,-0.0043038129806518555,0.08213848620653152,-0.008831036277115345,0.004413089714944363,-1.9052542842804876,-0.5555791824719221,1.5097354440188424
1687011509.2177281,-0.8019508123397827,0.5278306007385254,0.27976733446121216,-0.01022869348526001,-0.0010361671447753906,-0.007184267044067383,-0.012076562270522118,0.018711375072598457,0.01402523834258318,-1.9064538134372602,-0.5560443537111907,1.5089119940922178
1687011509.3012729,-0.8013644218444824,0.5287008285522461,0.27980518341064453,0.007907211780548096,-0.001509547233581543,0.006037771701812744,-0.07663857936859131,-0.020742956548929214,0.03771831467747688,-1.9067234860296542,-0.5570692462377604,1.5078952873372298
1687011509.393615,-0.8005169034004211,0.5296964645385742,0.2803463935852051,-0.010777533054351807,0.019864022731781006,-0.006924182176589966,0.11285518109798431,-0.024709735065698624,0.008845389820635319,-1.907655282731036,-0.5582426757049006,1.5080906689267846
1687011509.400496,-0.7985592484474182,0.5318964719772339,0.2817615866661072,0.0007075667381286621,-0.0014398694038391113,-0.0035479962825775146,-0.020120641216635704,-0.050734810531139374,0.051207493990659714,-1.9099966890814772,-0.5608385324672472,1.5093466842162453
1687011509.480987,-0.7968541383743286,0.5340232849121094,0.2825646698474884,-0.009328722953796387,-0.001567840576171875,-0.007448673248291016,0.032824400812387466,-0.026945192366838455,0.025940753519535065,-1.9115634613863404,-0.5633520732790953,1.5102672367121355
1687011509.49596,-0.7961284518241882,0.5347369909286499,0.2832591235637665,0.0014966130256652832,-0.005958974361419678,-0.003824859857559204,0.005314478650689125,-0.008191478438675404,0.018764331936836243,-1.9126250171973076,-0.5641964878958683,1.510077435892068
1687011509.5700011,-0.7960180640220642,0.5351306200027466,0.2828262746334076,-0.0023218393325805664,0.0017652511596679688,-0.0028427541255950928,0.014789072796702385,-0.0002629819209687412,0.004449308849871159,-1.9121861173436339,-0.5646623389646909,1.5110920337567473
1687011509.5863,-0.7963666915893555,0.5354050397872925,0.28132104873657227,-0.003956735134124756,0.01046288013458252,-0.011469364166259766,0.07795253396034241,0.020976394414901733,-0.014355004765093327,-1.9103685515477429,-0.5649872447768153,1.512717799317486
1687011509.658371,-0.796631395816803,0.5360235571861267,0.279387503862381,0.002716541290283203,0.0012232065200805664,-0.008147209882736206,0.030905060470104218,0.004437231458723545,0.010192149318754673,-1.9081045273187622,-0.5657197386898645,1.516671409242068
1687011509.662287,-0.7968481779098511,0.5377435684204102,0.2754354774951935,-0.0008507370948791504,0.02315419912338257,-0.0042257606983184814,0.1570606529712677,0.03244716301560402,-0.0028482843190431595,-1.9035961246017883,-0.5677584960394829,1.5222399767289356
1687011509.7544,-0.7968912124633789,0.5391315817832947,0.2725837230682373,-0.00048738718032836914,0.005042731761932373,0.002700120210647583,0.002926821820437908,0.03973876312375069,0.015919279307127,-1.9003792225182627,-0.5694056439889561,1.5254380964879308
1687011509.84191,-0.7965891361236572,0.5407395362854004,0.2702717185020447,0.0007974505424499512,0.008622705936431885,0.009192973375320435,0.08504339307546616,0.0234463419765234,-0.0037340521812438965,-1.8978948687872934,-0.5713160165501453,1.5270777834481417
1687011509.847591,-0.7965872883796692,0.5414267182350159,0.26889801025390625,-0.007337391376495361,-0.004149436950683594,0.011726409196853638,-0.061652772128582,0.01538402121514082,0.027017999440431595,-1.896348298036874,-0.5721331555628555,1.5285121007286782
1687011509.929838,-0.7955965399742126,0.5420999526977539,0.27046895027160645,0.009631752967834473,0.005248010158538818,0.008400648832321167,0.02773370034992695,-0.01677817478775978,0.014491557143628597,-1.898496659913172,-0.5729341192331097,1.5260658575798762
1687011509.935206,-0.7952100038528442,0.5423941612243652,0.27101555466651917,-0.002214193344116211,-0.01744610071182251,0.006633371114730835,-0.07978963106870651,-0.006263882853090763,0.021736685186624527,-1.8992607546335978,-0.573284292791208,1.5262798676098777
1687011510.024451,-0.7940168380737305,0.5434396266937256,0.2724156975746155,0.0016890764236450195,0.006105542182922363,-0.0026099085807800293,0.05787668749690056,0.0010309149511158466,0.010845423676073551,-1.9012980274632958,-0.5745291980541799,1.5231895746909683
1687011510.030503,-0.7944287061691284,0.543782114982605,0.27052539587020874,-0.009648442268371582,-0.01421058177947998,-0.0011010169982910156,-0.03223409503698349,-0.0027413195930421352,0.008502640761435032,-1.8990082629627476,-0.5749372370690323,1.527533057851117
1687011510.112041,-0.7937716841697693,0.5439731478691101,0.27206575870513916,0.0005893111228942871,0.017321407794952393,-0.01196444034576416,0.02188153937458992,0.028285972774028778,0.008333795703947544,-1.900998382711752,-0.5751648629168906,1.5231152793007903
1687011510.1177711,-0.7946064472198486,0.5446920394897461,0.26816269755363464,-0.016367614269256592,0.014237403869628906,-0.0032701492309570312,0.19998209178447723,-0.013302883133292198,-0.03131508082151413,-1.8962729880511293,-0.5760218862771795,1.5302428048179773
1687011510.2349792,-0.7944332957267761,0.5464234352111816,0.265136182308197,-0.0224459171295166,0.007409572601318359,-0.014434248208999634,0.20104511082172394,-0.0812252089381218,-0.058788783848285675,-1.8929151088234477,-0.5780877609944899,1.5404670211134832
1687011510.2523088,-0.8005073666572571,0.5481004118919373,0.24243411421775818,-0.00990229845046997,0.1212112307548523,-0.15677127242088318,2.1117913722991943,0.046652063727378845,-0.5168524980545044,-1.8648662700287024,-0.5800914084521309,1.5948722877485395
1687011510.317068,-0.824577271938324,0.5509568452835083,0.1285264492034912,-0.010429561138153076,0.18474572896957397,-0.08390973508358002,5.471590042114258,-0.005979457404464483,-1.1408162117004395,-1.7254216245413894,-0.583510385484817,1.8408232854676914
1687011510.332583,-0.8626300692558289,0.5046818256378174,-0.03414070978760719,0.03558850288391113,0.15048474073410034,0.1448432207107544,8.262085914611816,-0.8140993118286133,-1.7665797472000122,-1.5312395071975398,-0.5290133794839954,2.2417545828374172
1687011510.408832,-0.9138472080230713,0.36112502217292786,-0.18566682934761047,0.004163980484008789,0.12025928497314453,0.3775613307952881,10.288366317749023,-1.9383044242858887,-1.746965765953064,-1.3703540378729593,-0.3694740331372416,2.761523492496701
1687011510.412352,-0.9546003937721252,0.2046104222536087,-0.21650058031082153,-0.0847213864326477,-0.013066858053207397,0.5710233449935913,8.937037467956543,-2.6116714477539062,-0.486103355884552,-1.3477720563235458,-0.20606569043687892,-3.040345012445073
1687011510.468564,-0.9795059561729431,0.13820600509643555,-0.14651688933372498,-0.16926723718643188,-0.13176679611206055,0.4890156388282776,6.265027046203613,-2.8668527603149414,0.6872938871383667,-1.4223147755419114,-0.1386498084590094,-2.653204526670631
1687011510.563911,-0.9847399592399597,0.16901034116744995,-0.04150538146495819,-0.17286807298660278,-0.06416720151901245,0.2923750877380371,3.7874975204467773,-2.779707670211792,1.4745151996612549,-1.5286726860823077,-0.16982548393465494,-2.407750965591132
1687011510.569314,-0.966465413570404,0.25118911266326904,0.05337339639663696,-0.17982059717178345,-0.02468767762184143,0.02778804302215576,2.22920560836792,-2.344876766204834,1.9070274829864502,-1.6259656415842907,-0.2539085726580416,-2.2518196501615546
1687011510.6205091,-0.9253216981887817,0.3564840257167816,0.12922504544258118,-0.1555042266845703,0.13268226385116577,0.030549660325050354,1.6625690460205078,-1.9712848663330078,2.17838716506958,-1.7095530808640322,-0.3645019780543172,-2.1656797570020183
1687011510.713869,-0.8649797439575195,0.47099751234054565,0.17312268912792206,-0.13122081756591797,0.009333878755569458,-0.10444295406341553,1.2341678142547607,-1.4203065633773804,2.422236919403076,-1.7683327638448039,-0.49042122358629614,-2.103978865333733
1687011510.718915,-0.7863618731498718,0.5844312310218811,0.20018771290779114,-0.13931256532669067,0.1048540472984314,-0.1168137788772583,0.823699951171875,-1.079226016998291,2.6767148971557617,-1.8200757954187667,-0.624178952935197,-2.0843814458911116
1687011510.768085,-0.6874218583106995,0.6955406069755554,0.2089851200580597,-0.15234577655792236,0.07638639211654663,-0.15762396156787872,0.8677628040313721,-0.7657912969589233,2.864222764968872,-1.8659306160551141,-0.7691720642471709,-2.081143128879056
1687011510.862587,-0.5717202425003052,0.798407256603241,0.18889717757701874,-0.2243308424949646,0.029839932918548584,-0.13929089903831482,0.9107181429862976,-0.2751712501049042,2.9600255489349365,-1.8899058336624859,-0.9246452773664919,-2.076574135072316
1687011510.8681211,-0.45029744505882263,0.878509521484375,0.1595415621995926,-0.21957871317863464,-0.19029229879379272,-0.23089168965816498,0.4317748546600342,0.1302793174982071,2.743863582611084,-1.9112990633521214,-1.0727332820677042,-2.0971304648075075
1687011510.920679,-0.34190553426742554,0.9295333623886108,0.1380883902311325,-0.29513365030288696,-0.31690824031829834,-0.14643502235412598,0.16145794093608856,0.5617184638977051,2.122375965118408,-1.9546420024938995,-1.1931453680255986,-2.1614025384229727
1687011511.00882,-0.2597907781600952,0.9597550630569458,0.10667206346988678,-0.2502342164516449,-0.2529069781303406,-0.23978972434997559,0.7252718210220337,0.8023486137390137,1.4657931327819824,-1.9604135692657765,-1.286128747309658,-2.2024979657648482
1687011511.0148869,-0.20612716674804688,0.9747022986412048,0.08640988916158676,-0.17197035253047943,-0.29234468936920166,-0.01773013174533844,-0.09618990868330002,0.88498455286026,0.8963912129402161,-1.9677497714018075,-1.3453853032271328,-2.2576839325191647
1687011511.103951,-0.1852046251296997,0.9805958271026611,0.0642736405134201,0.021981343626976013,-0.25612378120422363,0.051906704902648926,1.1388550996780396,-0.2822650969028473,0.3437719941139221,-1.904832836584433,-1.373477941105261,-2.216328196130533
1687011511.119827,-0.17535555362701416,0.9835021495819092,0.04442936182022095,0.07824860513210297,-0.09846186637878418,0.3389476537704468,0.2636772096157074,-0.3339783549308777,0.08133290708065033,-1.81894167791823,-1.38889831590183,-2.109546779423965
1687011511.162704,-0.17369425296783447,0.9844794273376465,0.025111380964517593,-0.04224812984466553,0.04472583532333374,0.06990504264831543,0.2554625868797302,-0.13178811967372894,0.06362155824899673,-1.714373852180338,-1.394382745920866,-1.9900634239648984
1687011511.248003,-0.16709990799427032,0.985489547252655,0.029799647629261017,0.01408475637435913,0.006453812122344971,0.007981061935424805,-0.2437194436788559,0.007463647052645683,0.1369711309671402,-1.747275384628107,-1.4002342910441472,-2.020442182882029
1687011511.252983,-0.1642874777317047,0.9859671592712402,0.02963670901954174,-0.004322156310081482,0.06284564733505249,-0.011753439903259277,0.1918436735868454,0.07232294231653214,0.0062562646344304085,-1.749272255400024,-1.4030716738459215,-2.0260070936598313
1687011511.3088741,-0.16267038881778717,0.9862422347068787,0.029408708214759827,0.0011255592107772827,0.004800975322723389,0.004770997911691666,-0.1883324831724167,0.0576929971575737,0.044360771775245667,-1.7496515682743743,-1.4047274317685063,-2.030694440917009
1687011511.370065,-0.16098210215568542,0.9864279627799988,0.03231865540146828,-0.009855300188064575,0.00862807035446167,-0.00013792887330055237,0.1516537219285965,0.03885699063539505,0.023297030478715897,-1.7689218772424715,-1.4058546799454383,-2.0525277664161274
1687011511.463779,-0.16064929962158203,0.9866358041763306,0.02723003923892975,-0.004939079284667969,0.002759277820587158,0.006018875166773796,-0.04190070182085037,-0.008009051904082298,0.020715896040201187,-1.7387003754892576,-1.4071256552213147,-2.0227977105177435
1687011511.4694629,-0.16096308827400208,0.9864611029624939,0.0313958115875721,-0.0065631866455078125,0.017460525035858154,0.022238854318857193,0.02275731787085533,0.012235099449753761,-0.0002461094409227371,-1.763427542137032,-1.4060566253766442,-2.0476001688767793
1687011511.518732,-0.16207364201545715,0.9863272905349731,0.02984500862658024,0.0041146427392959595,-0.013777852058410645,0.005158662796020508,-0.04339919984340668,0.024234505370259285,0.0024455469101667404,-1.7529010180098628,-1.405242724304379,-2.0386302133614516
1687011511.613414,-0.16229884326457977,0.9861481785774231,0.03422071412205696,0.010565415024757385,0.0026671886444091797,-0.00425243005156517,0.004476781468838453,-0.025722002610564232,0.0018689725548028946,-1.7786025120527011,-1.4041596237099807,-2.0641966718997726
1687011511.619266,-0.16228774189949036,0.9862704873085022,0.030554156750440598,-0.005726814270019531,-0.00014060735702514648,0.007516507059335709,0.06750554591417313,0.006081732921302319,0.014955214224755764,-1.7568894710914824,-1.4048985529663947,-2.0416374735103275
1687011511.670224,-0.16061201691627502,0.9865278005599976,0.03109518066048622,-0.0007954835891723633,0.003905057907104492,0.003954295068979263,-0.05191265791654587,0.01950632967054844,0.03481972962617874,-1.7620347041644802,-1.4064640118683156,-2.0471882256244283
1687011511.760878,-0.1612005978822708,0.9864203333854675,0.03145243227481842,-0.006005212664604187,-0.0023353099822998047,0.011226411908864975,-0.05738838389515877,0.07168111950159073,-0.0015060510486364365,-1.7634890563540802,-1.4058084652166216,-2.0509785827341136
1687011511.766515,-0.16156283020973206,0.9862086772918701,0.03591883182525635,-0.011471867561340332,0.020306944847106934,-0.01513635739684105,-0.09555035084486008,0.08068539202213287,0.0009413938969373703,-1.7895595404144367,-1.4045246415448664,-2.081752158583573
1687011511.853296,-0.16187728941440582,0.986077606678009,0.03803880140185356,0.002071961760520935,-0.005379855632781982,-0.007063504308462143,0.0228551235049963,0.012685040943324566,-7.193908095359802e-05,-1.8015944726996203,-1.403734637620331,-2.0959761601924427
1687011511.868558,-0.16251397132873535,0.9860754013061523,0.0352780744433403,0.0014116615056991577,-0.0005102157592773438,0.0076296329498291016,0.03881584480404854,-0.010177664458751678,-0.00979673769325018,-1.7845570406679852,-1.4037213245429283,-2.079116795354672
1687011511.9075341,-0.16206645965576172,0.986207902431488,0.033594172447919846,-0.008572593331336975,0.017927229404449463,-0.007089734077453613,0.04093838483095169,-0.015080810524523258,0.00023965071886777878,-1.7751881091945756,-1.4045199971185418,-2.068480130858384
1687011511.96826,-0.1617458611726761,0.9862057566642761,0.035166386514902115,0.013323605060577393,-0.024413764476776123,0.018956542015075684,-0.030927348881959915,-0.022416353225708008,0.003358478657901287,-1.7848820705138722,-1.4045068163388346,-2.078131956570047
1687011512.059939,-0.16242438554763794,0.9860121607780457,0.03739723935723305,0.013574883341789246,-0.06313002109527588,0.016161084175109863,-0.0968284010887146,0.01832455024123192,-0.08382488787174225,-1.7970964363031567,-1.403341355668581,-2.090428231332822
1687011512.066203,-0.17326317727565765,0.9836677312850952,0.0487629771232605,0.025161340832710266,-0.10572272539138794,0.0042154863476753235,-0.20782196521759033,0.12196345627307892,-0.3518616557121277,-1.845138708613009,-1.3898162663831142,-2.1433515739132107
1687011512.15118,-0.19532380998134613,0.9796472787857056,0.04625602439045906,-0.01300443708896637,-0.03615069389343262,0.03200626000761986,-0.006325865164399147,0.10174793750047684,-0.5405261516571045,-1.8033296267412426,-1.3686967365757474,-2.1061780362798697
1687011512.1694732,-0.238074392080307,0.9682101011276245,0.07674479484558105,-0.022103220224380493,-0.382532000541687,-0.020119428634643555,-0.9391363263130188,0.2580740451812744,-1.0652498006820679,-1.8826352762178944,-1.3179732429476732,-2.1963336292570697
1687011512.2049332,-0.30600276589393616,0.9463192224502563,0.10412568598985672,-0.07948002219200134,-0.18122833967208862,0.0044252872467041016,-0.49564483761787415,0.05670642480254173,-1.6294476985931396,-1.8987830627326414,-1.241651863602302,-2.2212583227348013
1687011512.298345,-0.39318668842315674,0.907826840877533,0.14579008519649506,-0.07954588532447815,-0.29637664556503296,-0.00199127197265625,-1.087300419807434,0.024008402600884438,-2.0986621379852295,-1.9258718111729651,-1.1380724126987705,-2.250780117858353
1687011512.301831,-0.49178236722946167,0.8527882695198059,0.17579104006290436,-0.09838181734085083,0.04683947563171387,-0.07975220680236816,-0.7226623892784119,-0.022396380081772804,-2.3500876426696777,-1.9140988320573231,-1.0213010952348374,-2.241454735754808
1687011512.3594332,-0.5920895934104919,0.7689055800437927,0.24127596616744995,-0.04958826303482056,-0.3114928603172302,0.03411459922790527,-1.578386664390564,0.2245325893163681,-2.569326162338257,-1.957750660718326,-0.877127627991378,-2.29627106115058
1687011512.450193,-0.6930959820747375,0.6715804934501648,0.26191145181655884,-0.15933626890182495,0.1523330807685852,-0.09531605243682861,-0.7250756621360779,0.4711697995662689,-2.751493453979492,-1.9320950207599368,-0.736339847005774,-2.284232200609018
1687011512.466732,-0.7848549485206604,0.5449392795562744,0.29503145813941956,-0.07659512758255005,-0.2241843342781067,-0.1031675636768341,-2.587843179702759,0.8684379458427429,-2.6135807037353516,-1.9303608293968781,-0.5763167130985493,-2.3323581692064472
1687011512.5084271,-0.8591281771659851,0.41331368684768677,0.3017794191837311,-0.16400420665740967,0.39621084928512573,-0.02084982395172119,-2.089280128479004,1.210882306098938,-2.180270195007324,-1.9085953318125566,-0.42609012237430544,-2.40370166674913
1687011512.600051,-0.914725661277771,0.2870849370956421,0.2843572795391083,-0.11972862482070923,0.10346370935440063,-0.11945560574531555,-4.117704391479492,2.1368484497070312,-1.2925714254379272,-1.87219204539826,-0.29118228950792835,-2.5346435701308683
1687011512.616292,-0.9553473591804504,0.1817084103822708,0.23300959169864655,0.011347174644470215,0.1443261057138443,0.11310552060604095,-4.680848598480225,2.18239164352417,-0.6325988173484802,-1.8100259960696956,-0.18272350788741526,-2.744353373707066
1687011512.6907182,-0.980913519859314,0.13162195682525635,0.14312227070331573,-0.11556762456893921,0.18641696870326996,0.1274159848690033,-5.815217018127441,3.0465006828308105,0.583780825138092,-1.7156810884570874,-0.13200498866235705,-2.9980653006576476
1687011512.785008,-0.9862501621246338,0.16006158292293549,0.04112166166305542,-0.03613448143005371,0.10957649350166321,0.3885352611541748,-6.980395317077637,2.8226816654205322,1.6642452478408813,-1.612467151228047,-0.1607530390502325,2.958629377560236
1687011512.802555,-0.9668235778808594,0.2553599774837494,-0.006602452602237463,0.009243011474609375,0.0620991587638855,0.3790084719657898,-7.3178863525390625,1.9547967910766602,2.325965642929077,-1.5639674179852896,-0.25822001106675496,2.592600162910384
1687011512.806345,-0.9308871626853943,0.3644091486930847,0.025591934099793434,-0.008214950561523438,0.13501101732254028,0.09075629711151123,-5.771225929260254,1.0842117071151733,2.1514720916748047,-1.5982813861843301,-0.3729982475014255,2.242441304552126
1687011512.8343558,-0.8969473242759705,0.432195782661438,0.09323251992464066,-0.10233551263809204,0.05556666851043701,-0.06324899196624756,-3.9699511528015137,0.37271127104759216,1.376850962638855,-1.6743686370682223,-0.4469263180458168,1.9665572840615304
1687011512.898363,-0.8756243586540222,0.4608379900455475,0.14460289478302002,-0.04802048206329346,0.10967281460762024,-0.1635085642337799,-1.516332745552063,-0.09948038309812546,0.7133688926696777,-1.734461778836023,-0.47893919713230937,1.8150769604541521
1687011512.991446,-0.8620955944061279,0.47747862339019775,0.16972146928310394,-0.08352208137512207,-0.055084824562072754,-0.20857036113739014,-0.4690335988998413,-0.058014027774333954,0.4067016839981079,-1.765181253691384,-0.4977828495674169,1.7604976139886153
1687011513.0798302,-0.8543062806129456,0.48961755633354187,0.17445702850818634,-0.04063683748245239,-0.06878021359443665,-0.11256743967533112,-0.2527286112308502,0.15055781602859497,0.2782939076423645,-1.7722357083844278,-0.5116510943448529,1.7397392533613012
1687011513.0855188,-0.8508678078651428,0.49609822034835815,0.1729455441236496,-0.06250786781311035,-0.09311369061470032,-0.057985931634902954,-0.20461039245128632,0.22106407582759857,0.1398494839668274,-1.7713224551729088,-0.5190992281079511,1.7228033334079424
1687011513.1722078,-0.8502810001373291,0.49993896484375,0.16457024216651917,-0.0395200252532959,-0.07801815867424011,-0.009815573692321777,0.3814432919025421,0.08686087280511856,-0.003591839224100113,-1.76198048825284,-0.5235283037413899,1.7243925288831177
1687011513.188332,-0.8513378500938416,0.5007711052894592,0.15637198090553284,-0.03376346826553345,-0.13242387771606445,0.03672802448272705,-0.06171056255698204,-0.0455927774310112,-0.01292888168245554,-1.7524494759948348,-0.5244893876786199,1.7424036265627065
1687011513.258841,-0.8518190383911133,0.49888691306114197,0.15973778069019318,-0.013369500637054443,-0.043839335441589355,0.012488231062889099,0.1464114934206009,0.02101128175854683,-0.09938813745975494,-1.756168896898816,-0.5223139702297208,1.736459059459931
1687011513.263466,-0.8586972951889038,0.4881356656551361,0.15608453750610352,0.0030455589294433594,-0.042121291160583496,0.03486393392086029,-0.12816496193408966,-0.00023488554870709777,-0.1268693059682846,-1.750602212196842,-0.5099523538243556,1.7472892948453669
1687011513.3210049,-0.860389769077301,0.48228955268859863,0.16469994187355042,0.007148921489715576,0.07546493411064148,0.002948388457298279,-0.12081941962242126,-0.028283031657338142,-0.05098385736346245,-1.759933076962131,-0.5032664533642734,1.731217484761062
1687011513.411059,-0.8622843027114868,0.4795053005218506,0.1629127562046051,0.031641602516174316,0.07708954811096191,0.015096306800842285,0.16392076015472412,-0.059618983417749405,-0.06140986457467079,-1.7575268966342243,-0.5000909012507493,1.741919608618752
1687011513.4171271,-0.860334038734436,0.4810228645801544,0.16864818334579468,0.013440847396850586,0.0767315924167633,-0.000572696328163147,-0.21981343626976013,-0.025909755378961563,0.06295603513717651,-1.764368217815313,-0.5018210661609517,1.7325201566638329
1687011513.46874,-0.8580183982849121,0.4863055944442749,0.16526161134243011,0.02647542953491211,0.0689312219619751,0.01772177219390869,0.3544778525829315,-0.022395581007003784,0.016092650592327118,-1.7610746552229226,-0.5078567326711525,1.7406716561224493
1687011513.563645,-0.8549602627754211,0.4927043318748474,0.16212788224220276,-0.017689883708953857,0.0036793649196624756,-0.015048384666442871,0.05878229811787605,0.02041526511311531,0.08783981204032898,-1.7582031288878626,-0.5151947383858946,1.7479589020277355
1687011513.5693521,-0.8525229692459106,0.4983147382736206,0.15775692462921143,-0.0020456314086914062,-0.006722241640090942,0.021533861756324768,0.17365215718746185,-0.013360807672142982,0.03841526433825493,-1.7537736622382643,-0.5216538848400673,1.7561265964650172
1687011513.652345,-0.8516626358032227,0.5002377033233643,0.15631090104579926,0.00042057037353515625,-0.04930996894836426,-0.00924670696258545,0.03034905716776848,-0.0032083047553896904,0.044887810945510864,-1.7523123415112256,-0.5238732597731468,1.7604555277821332
1687011513.6684499,-0.8514648079872131,0.5004616975784302,0.15667039155960083,-0.020956337451934814,-0.013858973979949951,-0.00017620623111724854,0.10079026967287064,-0.020740825682878494,0.0273575522005558,-1.7527619958975307,-0.5241319861436372,1.762846807073675
1687011513.708513,-0.8536123633384705,0.49729230999946594,0.1550687849521637,-0.002756655216217041,-0.04538801312446594,-0.02454507350921631,-0.03422380983829498,0.03242958337068558,-0.00010922364890575409,-1.750498473157491,-0.5204750235617956,1.7663554402544874
1687011513.804775,-0.8551098108291626,0.494711697101593,0.15507331490516663,0.006095528602600098,0.00756189227104187,0.014406085014343262,-0.011670097708702087,0.02994924783706665,-0.02024884521961212,-1.7501956244417374,-0.5175030536802956,1.7629823971087955
1687011513.8229609,-0.858069896697998,0.4912621080875397,0.14959099888801575,0.0006939172744750977,0.006433814764022827,0.0006012767553329468,0.13358129560947418,0.024343160912394524,-0.050985187292099,-1.743395979329752,-0.5135381632500043,1.7698483477873352
1687011513.858611,-0.8583371639251709,0.49061328172683716,0.15018731355667114,-0.014068961143493652,0.031405240297317505,0.008397355675697327,0.043321046978235245,-0.047062043100595474,-0.034356407821178436,-1.7440174684900849,-0.5127934153121834,1.7710323270904016
1687011513.949935,-0.8596428036689758,0.49045711755752563,0.1430594027042389,-0.0008918046951293945,0.07149356603622437,-0.0327078253030777,0.7011809349060059,-0.06341971457004547,-0.11906543374061584,-1.7357023359251178,-0.5126142128592218,1.7930980602364248
1687011513.965365,-0.8631319403648376,0.4903557598590851,0.12064183503389359,-0.04444551467895508,0.1337745189666748,-0.09824192523956299,2.0716216564178467,-0.17484797537326813,-0.30442944169044495,-1.7096688198064025,-0.5124979090958691,1.8594289461627924
1687011514.039435,-0.8759867548942566,0.48060691356658936,0.040795713663101196,-0.03264361619949341,0.17161479592323303,-0.08706033229827881,4.88827657699585,-0.37871575355529785,-0.8026778697967529,-1.6173338548878764,-0.5013466618039569,2.073513870596083
1687011514.129877,-0.8986558318138123,0.4353306293487549,-0.053897757083177567,-0.02100670337677002,0.1373165249824524,0.12247072905302048,6.4129509925842285,-1.0908403396606445,-1.1287944316864014,-1.5108921151346748,-0.4504055027543962,2.380075231493615
1687011514.136193,-0.9289288520812988,0.34634822607040405,-0.13089780509471893,0.0013623237609863281,0.053508371114730835,0.2864611744880676,8.135148048400879,-1.9584349393844604,-1.079266905784607,-1.430805404240348,-0.3536755776943874,2.7798660506989727
1687011514.220945,-0.9570420980453491,0.2537710666656494,-0.1402522623538971,-0.14934217929840088,-0.049638986587524414,0.3511439561843872,7.401407718658447,-2.328073024749756,-0.4856162667274475,-1.4252844682348589,-0.25657697247949096,-3.112068827417309
1687011514.237237,-0.9735525250434875,0.2052818238735199,-0.10027505457401276,-0.029377281665802002,0.002024129033088684,0.44004249572753906,6.454380989074707,-2.767246723175049,0.3475605845451355,-1.4681591348417757,-0.20675164996504983,-2.754501678308193
1687011514.311795,-0.974538266658783,0.22347180545330048,-0.01832040213048458,-0.17461639642715454,0.005120128393173218,0.32529670000076294,4.597919464111328,-2.8224713802337646,1.0960416793823242,-1.5519994822715641,-0.22537490796687387,-2.466761894416943
1687011514.316036,-0.9523078203201294,0.29822292923927307,0.06459702551364899,-0.13889390230178833,0.04480984807014465,0.1522151231765747,3.151951789855957,-2.5779669284820557,1.7898327112197876,-1.6385246644784135,-0.3028303125942586,-2.274481214347242
1687011514.365679,-0.90338534116745,0.410304993391037,0.124677374958992,-0.1965290904045105,0.15929025411605835,0.02400420606136322,2.501751184463501,-2.119981288909912,2.4814484119415283,-1.70794125181696,-0.422788488132118,-2.136398322541341
1687011514.466267,-0.8262094855308533,0.5425878763198853,0.15157939493656158,-0.19083458185195923,0.09553462266921997,-0.08317422866821289,1.7388324737548828,-1.5076110363006592,2.955559730529785,-1.7522421696523298,-0.5735148808421984,-2.0403949375119455
1687011514.4709759,-0.7255423069000244,0.6701602935791016,0.15644051134586334,-0.16859221458435059,-0.11619001626968384,-0.14778877794742584,0.8786934614181519,-0.7708637118339539,3.0470011234283447,-1.7831638137511556,-0.7344247423565619,-1.9980466901676206
1687011514.550708,-0.6136017441749573,0.7749627232551575,0.15141278505325317,-0.12219232320785522,-0.1581566333770752,-0.19479358196258545,0.32248711585998535,-0.27986693382263184,2.8342373371124268,-1.8127239053180155,-0.8866560792156766,-2.002169594342596
1687011514.565105,-0.5036579370498657,0.8497832417488098,0.15555472671985626,-0.020100057125091553,-0.28442972898483276,-0.08338068425655365,-0.23961131274700165,-0.13504888117313385,2.5126664638519287,-1.8703524290398446,-1.015573997111346,-2.0634093416373114
1687011514.607305,-0.40711572766304016,0.898993968963623,0.16145217418670654,-0.09294533729553223,-0.28803205490112305,-0.19425857067108154,-0.04982154071331024,0.22797751426696777,1.9334900379180908,-1.948347161708356,-1.1174669471311882,-2.154360460700858
1687011514.702146,-0.3330041170120239,0.9321314692497253,0.1422634720802307,-0.08324038982391357,-0.13881194591522217,-0.11878027021884918,0.5881612300872803,0.2701301574707031,1.4451898336410522,-1.9745393691068032,-1.2002551103321843,-2.199951293110842
1687011514.718535,-0.2785238027572632,0.9534524083137512,0.11555465310811996,-0.10190829634666443,-0.2640756368637085,-0.18121325969696045,0.3197668194770813,0.34773412346839905,0.9994078874588013,-1.9640662372991218,-1.2644852522999732,-2.2033041635897472
1687011514.7588139,-0.24674533307552338,0.9650328755378723,0.08847669512033463,-0.21028590202331543,-0.22504276037216187,-0.09480918198823929,0.41593754291534424,0.678176999092102,0.4748663604259491,-1.915089777196065,-1.3055688436218325,-2.1767489499565436
1687011514.8831558,-0.23283734917640686,0.9715433716773987,0.04347671568393707,-0.16746173799037933,-0.05487161874771118,-0.2707258462905884,1.4096752405166626,0.40551501512527466,0.16141842305660248,-1.755396168234174,-1.3316620650457869,-2.053132746562939
1687011514.88939,-0.21869949996471405,0.9757920503616333,-0.0004736454284284264,0.005244314670562744,-0.17388176918029785,0.5541692972183228,0.22183525562286377,-0.4338425099849701,0.2689440846443176,-1.5686305938818885,-1.3503138820461391,-1.8485809725081415
1687011514.970271,-0.21581269800662994,0.9762682318687439,-0.018029604107141495,0.033012405037879944,0.15779542922973633,0.005380036309361458,0.5776113271713257,-0.4357280135154724,0.003033040091395378,-1.4874470435696623,-1.3525018730304634,-1.7411373881027725
1687011514.9864779,-0.20884308218955994,0.9778975248336792,-0.01004992425441742,-0.024402782320976257,-0.0238722562789917,0.025507032871246338,-0.5363673567771912,-0.10055243968963623,0.21142512559890747,-1.522711526927087,-1.3601574092732023,-1.7628432153269717
1687011515.061549,-0.20580171048641205,0.9785811901092529,-0.004931170959025621,-0.005746141076087952,0.02297508716583252,0.006411254871636629,0.12600408494472504,0.10411655902862549,0.01729719713330269,-1.5468401225122537,-1.3634525040535284,-1.7891492547235888
1687011515.06642,-0.2056310772895813,0.978618860244751,-0.004585913848131895,-0.02039739489555359,-0.013912439346313477,0.015205979347229004,-0.19419370591640472,0.11205264180898666,-0.006686165928840637,-1.5484983639922587,-1.3636356034386985,-1.7966353946251936
1687011515.152783,-0.20552432537078857,0.9786453247070312,0.0035987291485071182,-0.008281826972961426,0.038474977016448975,-0.013929009437561035,-0.10541849583387375,0.07386943697929382,0.011658486910164356,-1.5883045299898257,-1.3637642977176525,-1.8419976684163988
1687011515.169471,-0.20669858157634735,0.9783631563186646,0.009034243412315845,-0.01441657543182373,-0.01055908203125,-0.003968357108533382,-0.14000776410102844,-0.03152649477124214,-0.010888634249567986,-1.6144758576989626,-1.3623960836558153,-1.8699467725012309
1687011515.206717,-0.20725950598716736,0.978222668170929,0.011147384531795979,-0.014557555317878723,0.0022462010383605957,-0.01310050394386053,0.014271887019276619,-0.03041316196322441,-0.03258940204977989,-1.6245292263823592,-1.3617181033546528,-1.8772595139515948
1687011515.3079329,-0.2099645584821701,0.9776427745819092,0.011377424001693726,-0.004039958119392395,-0.003720104694366455,0.012166856788098812,-0.1177276223897934,0.02792591229081154,-0.01537393033504486,-1.6249307409115497,-1.3589423839229406,-1.8785074280637264
1687011515.324099,-0.2116430103778839,0.9772406816482544,0.014419632963836193,-0.012249216437339783,0.016564249992370605,-0.00788891315460205,-0.06166861206293106,0.023917853832244873,-0.02589288353919983,-1.63882305970287,-1.3570387175095675,-1.8944683403817804
1687011515.3601341,-0.21317563951015472,0.9768657088279724,0.017015930265188217,-0.0009204447269439697,-0.011808395385742188,-0.004091739654541016,-0.02334725856781006,0.007206919137388468,-0.01766078546643257,-1.6504486238371257,-1.3552782645076018,-1.9068057286340132
1687011515.452925,-0.21427512168884277,0.9766348600387573,0.016445741057395935,0.0060842037200927734,-0.0046195387840271,0.00030839256942272186,-0.01342778280377388,-0.017268331721425056,-0.00620546517893672,-1.6473967416118793,-1.3542012279389226,-1.9036385711778383
1687011515.470088,-0.21448910236358643,0.976574182510376,0.017234833911061287,-0.00429140031337738,0.0024448037147521973,0.0086898785084486,-0.07962564378976822,0.03931039199233055,0.003576592542231083,-1.6509770152398044,-1.3539192611261381,-1.907293440139338
1687011515.5089478,-0.21283715963363647,0.9767953753471375,0.023899706080555916,-0.004356458783149719,0.0009878277778625488,0.009944319725036621,-0.15161482989788055,0.08624128252267838,0.013678760267794132,-1.6826189399641378,-1.3549494732640341,-1.9429100264678285
1687011515.6021461,-0.2124834507703781,0.976704478263855,0.029986990615725517,0.003636389970779419,-0.0017288923263549805,0.012600302696228027,-0.19439683854579926,0.09446552395820618,0.02656446397304535,-1.7109966825630127,-1.3545255838118704,-1.977256382331917
1687011515.618709,-0.21152560412883759,0.9767038226127625,0.03614838793873787,-0.005637496709823608,0.002681553363800049,-0.025375723838806152,-0.04686936363577843,0.009184049442410469,0.01563165709376335,-1.7400549327519603,-1.354522434774289,-2.009152919547306
1687011515.659838,-0.2106247991323471,0.9768787026405334,0.036678560078144073,0.001075834035873413,-0.011363565921783447,0.013629674911499023,0.007815852761268616,-0.0007852278649806976,0.021661050617694855,-1.7432090767039807,-1.3553390015579312,-2.012820159460085
1687011515.7529612,-0.21029746532440186,0.9769723415374756,0.036058731377124786,-0.011122867465019226,-0.0014168024063110352,0.013974789530038834,-0.0657624900341034,0.022566433995962143,0.029253192245960236,-1.7406103440321905,-1.3557772812020246,-2.0106952531933664
1687011515.7697449,-0.20945264399051666,0.9770034551620483,0.039926666766405106,-0.002553015947341919,-0.003736734390258789,-0.009119149297475815,-0.04829854890704155,-0.026061823591589928,-0.006623847875744104,-1.7591603065579335,-1.3559232686854588,-2.029271703788414
1687011515.808696,-0.21154074370861053,0.9763064384460449,0.045564450323581696,0.009697496891021729,-0.03441202640533447,0.05464005097746849,-0.1714884489774704,-0.05675142630934715,-0.058014869689941406,-1.7829483332695737,-1.3526783068264365,-2.0516896624154186
1687011515.90279,-0.22065800428390503,0.9734382033348083,0.06105933338403702,0.0061804503202438354,-0.19020456075668335,0.04422628879547119,-0.552592396736145,-0.02285524271428585,-0.3605877757072449,-1.8407560593644432,-1.33979750126767,-2.107967976690665
1687011515.918402,-0.2643831968307495,0.9597232937812805,0.09503940492868423,-0.5025845766067505,-0.30322927236557007,0.1563185304403305,-1.0619126558303833,0.4896980822086334,-1.526154637336731,-1.9158879308636814,-1.2860157020307508,-2.1862741764749773
1687011515.956784,-0.3435547351837158,0.931161105632782,0.12210164964199066,-0.09138175845146179,-0.1333097219467163,-0.058426760137081146,-0.10792505741119385,-0.07501937448978424,-2.0278494358062744,-1.9122796649234,-1.19758460377227,-2.1883611931523683
1687011516.050134,-0.44660791754722595,0.8837458491325378,0.1397656351327896,0.0018142461776733398,-0.35922515392303467,-0.08094300329685211,-1.1592633724212646,-0.042889006435871124,-2.4968318939208984,-1.8740904685008517,-1.083807226530093,-2.144946125952389
1687011516.055398,-0.5570513606071472,0.8049362301826477,0.20438162982463837,-0.13575881719589233,0.11017924547195435,-0.11118099093437195,-1.2576407194137573,0.44581252336502075,-2.6428492069244385,-1.9224459751506602,-0.9355680331195445,-2.2154467003336147
1687011516.1364899,-0.6657323241233826,0.7103056311607361,0.22861887514591217,-0.04067331552505493,-0.08213180303573608,-0.13909554481506348,-2.179548740386963,0.7185330986976624,-2.7273449897766113,-1.9015879585915603,-0.7899323225240694,-2.2239778498899163
1687011516.154941,-0.7620769143104553,0.5924363136291504,0.2612624168395996,-0.15509837865829468,0.3938002586364746,-0.01275777816772461,-0.6091317534446716,1.1613671779632568,-2.444215774536133,-1.9010688856213738,-0.6340796348331104,-2.294249787547869
1687011516.200139,-0.8388985991477966,0.4951879382133484,0.2259165197610855,-0.03100508451461792,0.04265391826629639,-0.011942476034164429,-1.741140365600586,1.365556001663208,-2.030616283416748,-1.8338568706709917,-0.5180511367365546,-2.283282286554658
1687011516.26071,-0.8953461050987244,0.3804318308830261,0.23157499730587006,-0.11832576990127563,-0.07926911115646362,0.13372039794921875,-3.555558443069458,1.6118534803390503,-1.5716145038604736,-1.823892879891214,-0.39026319769693923,-2.4234686465867
1687011516.351826,-0.9405845403671265,0.2841326892375946,0.18592874705791473,-0.12893462181091309,0.13974124193191528,-0.02978561818599701,-3.253744125366211,2.5039258003234863,-1.1158256530761719,-1.765953989627931,-0.28810170892915443,-2.5719553322038253
1687011516.37058,-0.9691106677055359,0.21223333477973938,0.12562426924705505,-0.10918211936950684,0.062226489186286926,0.19113288819789886,-3.8844547271728516,2.038188934326172,-0.5661662817001343,-1.6997058979014221,-0.21385978987017196,-2.747608245739375
1687011516.4069772,-0.9800035357475281,0.19218504428863525,0.051557671278715134,-0.13782495260238647,0.16096439957618713,0.10043514519929886,-4.454500675201416,2.5496914386749268,0.3737969994544983,-1.6233575492745125,-0.1933882098132086,-2.956596377425579
1687011516.496824,-0.9753602743148804,0.220501109957695,-0.007196860387921333,-0.18575739860534668,-0.032238125801086426,0.3353065848350525,-5.496898651123047,2.0350680351257324,1.0541837215423584,-1.5634177916574996,-0.22232819689074537,3.0630398486829837
1687011516.501905,-0.9568370580673218,0.2882646322250366,-0.03696854040026665,0.021122217178344727,0.059010207653045654,0.07458144426345825,-4.513333320617676,1.7488995790481567,1.397508144378662,-1.5321793413159548,-0.2924140283420835,2.809030861235402
1687011516.590631,-0.931519091129303,0.3612158000469208,-0.04237305745482445,-0.014983594417572021,-0.13776609301567078,0.08863770961761475,-4.442862510681152,1.4905270338058472,1.3121737241744995,-1.525339534661427,-0.3695714050799203,2.582429109657681
1687011516.682771,-0.9037075042724609,0.4278671145439148,-0.015569220297038555,0.016836225986480713,-0.10685274004936218,0.053731441497802734,-4.822154521942139,1.3133189678192139,1.2929073572158813,-1.5535698679447358,-0.4421316684449269,2.3357295029144205
1687011516.689002,-0.8776180744171143,0.47785964608192444,0.03790205717086792,5.46574592590332e-05,-0.10632336139678955,0.0807349681854248,-4.582472801208496,1.1025291681289673,0.9936738014221191,-1.6139569237745475,-0.4982165529292005,2.064200882768305
1687011516.768687,-0.8601469993591309,0.5018301010131836,0.09118087589740753,-0.06062948703765869,-0.008788049221038818,-0.019312016665935516,-3.4264755249023438,0.8633267879486084,0.7042552828788757,-1.6764080622350064,-0.5257132995768985,1.8341205452823597
1687011516.784112,-0.8538506627082825,0.505922257900238,0.12240000814199448,-0.03120487928390503,0.07404905557632446,-0.08400893211364746,-1.370118260383606,0.6225689053535461,0.18145231902599335,-1.713176936339478,-0.530450822671884,1.6872653836041631
1687011516.8614101,-0.8531273603439331,0.505940854549408,0.12726923823356628,-0.03519350290298462,-0.022008419036865234,-0.030330196022987366,-0.7419969439506531,0.34768393635749817,0.08561660349369049,-1.7188838661589694,-0.5304723725178749,1.6305372353691043
1687011516.866437,-0.8536947965621948,0.5052496194839478,0.1262052059173584,-0.0004615187644958496,0.036986589431762695,-0.034072667360305786,-0.09842503070831299,0.20462052524089813,0.03883631154894829,-1.7175673726034257,-0.5296712224307885,1.6060777298452555
1687011516.95505,-0.8527743220329285,0.5067564845085144,0.12638886272907257,-0.0033200979232788086,-0.027645647525787354,0.03048671782016754,-0.14451976120471954,0.02056826464831829,0.029733359813690186,-1.7179342605315229,-0.5314182009616926,1.596545307477101
1687011516.970928,-0.8529476523399353,0.5068544745445251,0.12481404840946198,-0.011050581932067871,0.018429279327392578,-0.003994956612586975,0.1677677035331726,-0.05235068500041962,-0.0030890339985489845,-1.716097658271863,-0.5315319234495766,1.6005853916181676
1687011517.009301,-0.8525721430778503,0.5064263343811035,0.12904734909534454,-0.002881348133087158,-0.029726505279541016,0.022350311279296875,0.13552634418010712,-0.11001277714967728,-0.022023577243089676,-1.7210184083338633,-0.5310353113705313,1.6040528551669317
1687011517.103142,-0.8525587916374207,0.5064878463745117,0.12889447808265686,-0.0021012425422668457,0.026700079441070557,0.005138754844665527,0.13399729132652283,-0.07539941370487213,-0.03144184499979019,-1.7208454242365967,-0.5311066066516733,1.613702826259306
1687011517.1201081,-0.852260410785675,0.5046305656433105,0.13784107565879822,0.00030118227005004883,0.024208545684814453,-0.018517374992370605,0.016588903963565826,-0.1318110227584839,0.012213756330311298,-1.731143668217563,-0.5289539829618762,1.611244150845952
1687011517.157227,-0.8507434129714966,0.5069876313209534,0.13856111466884613,-0.004847407341003418,0.02116483449935913,0.0029183626174926758,0.11042511463165283,-0.13757117092609406,0.021971575915813446,-1.7322493003439143,-0.5316863610914581,1.61980467686152
1687011517.250725,-0.8480257987976074,0.5102930665016174,0.14301498234272003,-0.007229268550872803,-0.010827124118804932,-0.033090606331825256,0.01308225467801094,-0.08907514065504074,0.03577420860528946,-1.7378688792294799,-0.5355255092710688,1.6202951445729403
1687011517.254767,-0.8457592725753784,0.5134168267250061,0.14523883163928986,-0.017506659030914307,0.01684129238128662,-0.01646985113620758,0.0457690954208374,-0.08105636388063431,0.06409240514039993,-1.7408634926227757,-0.5391617710053732,1.6224558555813484
1687011517.375049,-0.8444931507110596,0.5156924724578857,0.14454203844070435,-0.011067032814025879,-0.0014865398406982422,-0.027339354157447815,0.0757586881518364,-0.050723761320114136,0.055119406431913376,-1.7403120644482004,-0.5418156515429002,1.6270684029054412
1687011517.391496,-0.8427839279174805,0.5190162062644958,0.1426084041595459,-0.018681347370147705,0.033702850341796875,-0.018676534295082092,0.10903455317020416,-0.03797134384512901,0.08268659561872482,-1.7384196501630642,-0.5456995954906377,1.6318273192685853
1687011517.460681,-0.8403900265693665,0.5242881774902344,0.1373557150363922,-0.011782824993133545,0.043308258056640625,-0.022304415702819824,0.2866121828556061,-0.04122186452150345,0.09553607553243637,-1.732806657283114,-0.5518789896347112,1.6443959215388757
1687011517.475535,-0.8372138738632202,0.5311585664749146,0.13016732037067413,-0.013127923011779785,0.02279651165008545,-0.021707892417907715,0.38488462567329407,-0.012625775299966335,0.11439499258995056,-1.7250381883831272,-0.5599673915430665,1.66017182586595
1687011517.5472941,-0.835146963596344,0.5391554832458496,0.10881569981575012,-0.01800239086151123,0.04313516616821289,-0.026174068450927734,1.099857211112976,-0.009977794252336025,0.032735541462898254,-1.7003616784724218,-0.569434065077644,1.706335943750352
1687011517.5513902,-0.8336741328239441,0.5458875894546509,0.08363277465105057,-0.02528899908065796,-0.0076642632484436035,-0.01927124708890915,0.9911128282546997,-0.1275964379310608,0.03318428248167038,-1.670780123146743,-0.5774481118911166,1.7684653837413096
1687011517.6095161,-0.8365564942359924,0.5465189218521118,0.03860694169998169,-0.019186973571777344,0.18259185552597046,-0.09715485572814941,3.4400696754455566,-0.20667514204978943,-0.37621042132377625,-1.61691343745511,-0.5782017904831923,1.88225049721904
1687011517.7035131,-0.8480215668678284,0.5276329517364502,-0.04962770268321037,-0.033280253410339355,-0.030669450759887695,0.054418984800577164,4.0451884269714355,-0.34996384382247925,-0.5138670802116394,-1.5123412521054955,-0.5558116431022888,2.102490143988962
1687011517.7205229,-0.870283842086792,0.4685700833797455,-0.15181607007980347,-0.03523367643356323,0.20719590783119202,0.21648283302783966,6.745352745056152,-1.111811876296997,-0.9054982662200928,-1.3980898795483663,-0.4876714829724141,2.408266297175401
1687011517.7546082,-0.9023229479789734,0.35677865147590637,-0.2419137805700302,0.05248469114303589,0.10737845301628113,0.31666654348373413,7.482661724090576,-1.7383835315704346,-0.6881219744682312,-1.3088552100502422,-0.36481733424801244,2.791192652757658
1687011517.879198,-0.9374829530715942,0.2399313896894455,-0.25210824608802795,-0.022569477558135986,-0.056856438517570496,0.40181219577789307,6.643266677856445,-2.4400124549865723,-0.3118804395198822,-1.3080910701314035,-0.24229517925990812,-3.135765701022273
1687011517.884894,-0.9657503366470337,0.17326506972312927,-0.19314619898796082,-0.15583163499832153,-0.011735543608665466,0.2999882102012634,5.60154390335083,-2.5998568534851074,0.3775288760662079,-1.3734046244097033,-0.1741439153092104,-2.8401901610256934
1687011517.9732661,-0.9799262285232544,0.17087697982788086,-0.1026926338672638,-0.1569756269454956,0.07390451431274414,0.2638559341430664,4.523253917694092,-2.7173807621002197,1.1101253032684326,-1.4663811620598701,-0.17171967153924128,-2.579089879541325
1687011517.9906402,-0.9730730652809143,0.2302008718252182,-0.01167641393840313,-0.07924926280975342,0.018883585929870605,0.3063693642616272,3.3061940670013428,-2.600721597671509,1.669727087020874,-1.558797378919717,-0.2322840902269016,-2.3771331714119097
1687011518.057733,-0.9429858922958374,0.3260490596294403,0.06685581803321838,-0.1241985559463501,0.1079871654510498,0.12531328201293945,2.468458414077759,-2.236013889312744,2.1438345909118652,-1.641575901845813,-0.33212121205371936,-2.2304211897606945
1687011518.0728378,-0.8898762464523315,0.4393186867237091,0.1229609027504921,-0.017060399055480957,-0.037310659885406494,0.04636585712432861,1.4942716360092163,-1.8610526323318481,2.3700647354125977,-1.708104388660502,-0.45484010994574114,-2.136822100792058
1687011518.1521301,-0.8161221146583557,0.554888129234314,0.1613815873861313,-0.07969099283218384,0.07702416181564331,-0.0024918168783187866,1.2802817821502686,-1.4355696439743042,2.549356460571289,-1.766019760705233,-0.5882284741284826,-2.084817471312346
1687011518.16746,-0.7285912036895752,0.6614360213279724,0.17792534828186035,-0.07011491060256958,-0.14881694316864014,-0.11440299451351166,0.4896458089351654,-0.8388786911964417,2.5136687755584717,-1.8103131243035606,-0.7227318409606145,-2.062229211137618
1687011518.2080579,-0.6366085410118103,0.7480710744857788,0.1874009072780609,-0.11918973922729492,-0.04383218288421631,-0.2246934324502945,0.4443904161453247,-0.40259191393852234,2.351029634475708,-1.8570835696423758,-0.8451505776014773,-2.0854871191624107
1687011518.2983742,-0.5485715270042419,0.8169510960578918,0.17793378233909607,-0.15276825428009033,-0.2335311770439148,-0.30459702014923096,0.10383205860853195,0.09509482979774475,2.054671287536621,-1.8844477943403815,-0.9561042594474961,-2.109222283712955
1687011518.302919,-0.4691823720932007,0.8676990866661072,0.1642131507396698,-0.16005954146385193,-0.11522728204727173,-0.04327203333377838,0.6514045000076294,0.10620953142642975,1.7635159492492676,-1.907469853255264,-1.05055472116586,-2.1466894467604356
1687011518.359424,-0.4007100462913513,0.9069847464561462,0.1296536773443222,-0.1292276680469513,-0.3697686195373535,-0.10226418077945709,0.4620036780834198,0.07649504393339157,1.312806487083435,-1.8837250756762314,-1.1360686384280034,-2.120553069517751
1687011518.4507341,-0.3514021635055542,0.928993821144104,0.11613432317972183,-0.08156603574752808,-0.16748863458633423,0.043884649872779846,0.4627675414085388,0.04957461729645729,0.8838874101638794,-1.8899842257035768,-1.1916848185177566,-2.131414234809096
1687011518.457175,-0.31405341625213623,0.9465499520301819,0.0735791027545929,-0.15669551491737366,-0.06353896856307983,-0.230637788772583,0.7629755139350891,0.5474210381507874,0.6995795965194702,-1.8009338971581292,-1.242366381920047,-2.051621022160357
1687011518.544127,-0.2897268235683441,0.9553398489952087,0.05817281827330589,-0.050803571939468384,-0.22050714492797852,-0.01186240091919899,-0.23022779822349548,0.6164951324462891,0.41809868812561035,-1.7689466466632104,-1.2708077587428939,-2.0479119164062163
1687011518.631017,-0.27388930320739746,0.960383951663971,0.05145057663321495,-0.20418378710746765,0.027500510215759277,0.27298176288604736,0.6980741620063782,-0.3207853138446808,0.23752731084823608,-1.7564840221301095,-1.2883766697266397,-2.033379806470186
1687011518.636966,-0.25910258293151855,0.9648923277854919,0.04299886152148247,0.12622898817062378,-0.05649071931838989,0.21165502071380615,-0.02205156534910202,-0.5211883187294006,0.1247434914112091,-1.7352505917995782,-1.3050331233519423,-1.9873309755972166
1687011518.7178822,-0.25474148988723755,0.9658681154251099,0.04696439206600189,-0.01843661069869995,0.09960740804672241,-0.016294240951538086,0.13317930698394775,-0.21865803003311157,0.07102461159229279,-1.7531101518048078,-1.3087739479078413,-1.9875467706194214
1687011518.722003,-0.251889169216156,0.9666364789009094,0.046537984162569046,0.006314218044281006,-0.038352787494659424,0.06555306911468506,-0.060245487838983536,-0.025732122361660004,0.03867971524596214,-1.7534919606956954,-1.3117568775004456,-1.9820138633871283
1687011518.810937,-0.25157639384269714,0.9667668342590332,0.045511044561862946,-0.011347830295562744,0.017852306365966797,-0.006036520004272461,-0.01718670316040516,0.04858098924160004,-0.008461428806185722,-1.749764251936112,-1.3122662746817175,-1.9785201413851417
1687011518.8270779,-0.25129377841949463,0.9665889739990234,0.05056750029325485,0.002087235450744629,0.005411088466644287,-0.009994391351938248,-0.07766702026128769,0.020818468183279037,0.010941297747194767,-1.769372982625912,-1.311571521076302,-2.000524929075286
1687011518.9007049,-0.2510163187980652,0.9666351079940796,0.051065076142549515,0.0014587938785552979,0.01952528953552246,0.004904158413410187,-0.07325909286737442,0.000526245916262269,-0.0058272965252399445,-1.771490928866639,-1.3117515396769859,-2.0040228272201763
1687011518.9049401,-0.2504016160964966,0.9664874076843262,0.056577906012535095,-0.00557979941368103,-0.011195719242095947,-0.0011732615530490875,-0.07219728827476501,-0.037211544811725616,0.0034455647692084312,-1.793013510473158,-1.3111756925288451,-2.0252451030616476
1687011518.961124,-0.25016897916793823,0.9665235877037048,0.056990399956703186,-0.011412471532821655,0.016096770763397217,0.0012981966137886047,-0.016556331887841225,-0.045413415879011154,-0.0365535169839859,-1.7947814883867717,-1.3113165197327823,-2.0250450517817233
1687011519.0539942,-0.25356313586235046,0.9655894637107849,0.05781489238142967,-3.793835639953613e-05,-0.014371931552886963,0.004135720431804657,-0.014536324888467789,-0.0293167382478714,0.0163472481071949,-1.7949737326949402,-1.3077004661973721,-2.0219945099064245
1687011519.07181,-0.2549007833003998,0.9651209712028503,0.059728093445301056,0.009691983461380005,0.024243831634521484,0.0045571401715278625,-0.020024500787258148,-0.016794687137007713,-0.041567184031009674,-1.8009628183889952,-1.3059049399219438,-2.0267315250709435
1687011519.105569,-0.25702401995658875,0.9644858837127686,0.060874395072460175,0.0034381747245788574,-0.01561814546585083,0.006325244903564453,-0.03105977363884449,-0.007034335285425186,-0.038675788789987564,-1.8033543229493234,-1.3034900717955114,-2.0285070106336325
1687011519.205035,-0.257068395614624,0.9643191695213318,0.06328219920396805,0.005023688077926636,0.022970378398895264,-0.00552772730588913,-0.014143041335046291,0.014618895947933197,-0.028918500989675522,-1.8121658255296758,-1.3028594884176934,-2.0377793613597186
1687011519.222081,-0.2582317888736725,0.9640243649482727,0.06303250789642334,0.0009686052799224854,-0.017048776149749756,-0.006254561245441437,0.013445908203721046,0.008553147315979004,-0.01892498880624771,-1.810207554342944,-1.3017483014098385,-2.036473987649132
1687011519.2591028,-0.2581603229045868,0.9640313386917114,0.06322143226861954,0.005169600248336792,0.0009497404098510742,0.007579326629638672,-0.005958283320069313,0.009001622907817364,-0.018598485738039017,-1.8109618198104545,-1.3017744879188855,-2.036940142470273
1687011519.349238,-0.25886890292167664,0.9639294743537903,0.06185949221253395,-0.0013239681720733643,0.0026993751525878906,-0.01089514046907425,-0.0010024728253483772,-0.0014088070020079613,-0.005464840214699507,-1.805358385643592,-1.3013915672434253,-2.0319817771396718
1687011519.354059,-0.25831809639930725,0.9639055132865906,0.06448191404342651,-0.002347797155380249,-0.0025255680084228516,0.02026534080505371,-0.08713403344154358,0.04173040762543678,0.006753743626177311,-1.8154193115376887,-1.3013015738307243,-2.043078232086031
1687011519.408639,-0.25867924094200134,0.9637941718101501,0.06469877064228058,0.001171886920928955,-0.0021852850914001465,-0.01829683780670166,0.07546000927686691,-0.0027386564761400223,-0.022578313946723938,-1.815880366780244,-1.3008836456311443,-2.04506495840703
1687011519.5000958,-0.258306622505188,0.9637134671211243,0.06733547896146774,0.008993268013000488,-0.024351894855499268,0.02705538272857666,-0.15338382124900818,0.05365617945790291,0.024987075477838516,-1.8258016018581322,-1.3005811773927747,-2.05682865111621
1687011519.506093,-0.25858134031295776,0.9632930159568787,0.07212644815444946,-0.006280720233917236,-0.019597947597503662,-0.0008679628372192383,-0.17093458771705627,0.07946966588497162,-0.04844852536916733,-1.8428138275558166,-1.299010514752102,-2.077523534141102
1687011519.5612311,-0.2655838131904602,0.9597601294517517,0.09124438464641571,-0.021311908960342407,-0.09715038537979126,0.09671329706907272,-0.6157171130180359,0.13290013372898102,-0.18540477752685547,-1.901723846645185,-1.2861468613315963,-2.1456626959114793
1687011519.656057,-0.29258498549461365,0.9477713108062744,0.12698036432266235,-0.31141898036003113,-0.4283008575439453,0.013904005289077759,-1.207536220550537,0.376158744096756,-0.7091250419616699,-1.9802609113044967,-1.2461741202294387,-2.2341531192879387
1687011519.673922,-0.35620924830436707,0.9140426516532898,0.19401340186595917,-0.08899646997451782,-0.44257646799087524,0.03463950753211975,-1.563111424446106,0.10155978798866272,-1.7440906763076782,-2.069531517007878,-1.1531414501493016,-2.339281646074897
1687011519.733536,-0.45191559195518494,0.8541412353515625,0.25732290744781494,-0.061786800622940063,-0.3302459716796875,-0.15704214572906494,-1.8874876499176025,0.3194861114025116,-2.402711868286133,-2.0884155082017117,-1.0238972540839058,-2.3719243336525624
1687011519.737063,-0.5590193271636963,0.7635038495063782,0.32335618138313293,-0.17215126752853394,0.16526806354522705,-0.20281174778938293,-1.4224623441696167,0.8474210500717163,-2.482614517211914,-2.095208040661116,-0.8687213842597272,-2.417048952520877
1687011519.796639,-0.6662655472755432,0.6646655797958374,0.33809712529182434,0.08351719379425049,-0.07846879959106445,-0.05074360966682434,-1.585829257965088,0.8849191665649414,-2.594224214553833,-2.040386950582489,-0.7270461520853608,-2.4031663516632547
1687011519.858468,-0.7598093152046204,0.5530110597610474,0.34186017513275146,-0.1880207657814026,0.30172520875930786,-0.07716599106788635,-0.8352341055870056,1.3038724660873413,-2.3642630577087402,-1.9935911254096843,-0.5859738892652642,-2.417271277602071
1687011519.951539,-0.8401970863342285,0.443102091550827,0.3126162886619568,-0.06008654832839966,0.009534507989883423,0.009313493967056274,-1.7595447301864624,1.4923580884933472,-2.2437264919281006,-1.9270001003913266,-0.4590560634968854,-2.422303412533238
1687011519.9578981,-0.9057809114456177,0.3206331133842468,0.2770472764968872,-0.07407742738723755,0.1163480281829834,0.1120975911617279,-2.550853967666626,1.9734363555908203,-1.8837279081344604,-1.8676257121333144,-0.3263978196556324,-2.5021777230628146
1687011520.009614,-0.9541229605674744,0.20854295790195465,0.21484623849391937,-0.1727689504623413,0.060789868235588074,-0.027483627200126648,-3.764702558517456,2.5188183784484863,-1.2279095649719238,-1.792278919874227,-0.2100849303713464,-2.626239843610104
1687011520.100996,-0.9843736886978149,0.13722217082977295,0.11035599559545517,-0.13829165697097778,0.08967600762844086,0.20568406581878662,-5.438510894775391,3.136742353439331,-0.17339764535427094,-1.6824379974423074,-0.13765651312856458,-2.8526229588761196
1687011520.1067,-0.9894063472747803,0.14517131447792053,-0.0005875248461961746,-0.23247170448303223,0.09292684495449066,0.4038315415382385,-7.388216972351074,3.035717248916626,1.2941102981567383,-1.5702025113202804,-0.1456861210128718,3.10419778220408
1687011520.191732,-0.9670707583427429,0.24866122007369995,-0.05423853546380997,-0.01802140474319458,0.12896332144737244,0.347237765789032,-7.406096935272217,2.010359764099121,2.2132761478424072,-1.5147696375112174,-0.25129780842566213,2.72443557521035
1687011520.210637,-0.9292693138122559,0.3690043091773987,-0.017162317410111427,-0.012533783912658691,0.0027761459350585938,0.18308639526367188,-6.612435340881348,1.102694034576416,2.13307523727417,-1.5523298115311859,-0.37793750349120475,2.358325652972872
1687011520.247055,-0.8928470611572266,0.44614729285240173,0.06145487353205681,-0.03841209411621094,0.025028854608535767,-0.0132828950881958,-4.263251781463623,0.49139490723609924,1.3730610609054565,-1.6395181731576687,-0.4624558164474766,2.0530673059813633
1687011520.307234,-0.8740829229354858,0.4726059138774872,0.11235020309686661,-0.04071187973022461,0.004536420106887817,-0.119857557117939,-1.4833499193191528,0.16145946085453033,0.4887896478176117,-1.6986303574791561,-0.4922454265341546,1.8915257622187385
1687011520.424923,-0.8656557202339172,0.4816976487636566,0.13641001284122467,-0.12500590085983276,-0.16912132501602173,-0.10058236122131348,-0.925752580165863,-0.03191278502345085,0.2913023829460144,-1.7270910979478076,-0.5025908834030924,1.8274468175734724
1687011520.4449139,-0.8594152927398682,0.4872494637966156,0.15489770472049713,-0.05521172285079956,-0.07823759317398071,-0.04402732849121094,0.0302668996155262,-0.26950496435165405,0.09229021519422531,-1.7491179867738367,-0.5089372517985594,1.800376944327021
1687011520.5141559,-0.8572286367416382,0.4879642426967621,0.16446904838085175,-0.030573487281799316,-0.1249271035194397,-0.047846078872680664,-0.27456289529800415,-0.1184036061167717,-0.019011808559298515,-1.7603541597481693,-0.509755938123279,1.7964025910999393
1687011520.5181432,-0.8591282367706299,0.4813331365585327,0.17382967472076416,-0.0030541419982910156,-0.05564349889755249,-0.024140983819961548,-0.3545331060886383,0.05952378734946251,-0.14157207310199738,-1.7704337894798121,-0.5021749749525557,1.7786904141834994
1687011520.6136,-0.8640144467353821,0.47170349955558777,0.17599736154079437,-0.01074153184890747,0.013159871101379395,-0.027575120329856873,-0.08229353278875351,0.1570398360490799,-0.17346662282943726,-1.771744395857751,-0.4912217033039521,1.7641848582820396
1687011520.618581,-0.8687765598297119,0.46380776166915894,0.17352132499217987,-0.010587453842163086,0.026182472705841064,0.015413045883178711,-0.4327514171600342,0.14269204437732697,-0.10266036540269852,-1.7679329011987435,-0.4822883992581014,1.7543131848029891
1687011520.701892,-0.8721014261245728,0.4575219452381134,0.17353011667728424,0.01103276014328003,0.12479919195175171,-0.03351546823978424,0.01844180002808571,0.15458664298057556,-0.1043701097369194,-1.767210236563218,-0.47520636181327025,1.7397008688585804
1687011520.7078938,-0.8743509650230408,0.45421937108039856,0.17086634039878845,0.011146008968353271,0.06789064407348633,0.03349459171295166,-0.01981371082365513,-0.010428134351968765,-0.03480355441570282,-1.7637849343395862,-0.4714957731039237,1.7405862967910999
1687011520.8241549,-0.872455894947052,0.45879802107810974,0.16830118000507355,-0.008632481098175049,0.06535670161247253,0.005710139870643616,0.07649105787277222,0.0027205573860555887,0.046344026923179626,-1.7613606481166653,-0.47664198303181,1.7455386515567441
1687011520.8845859,-0.8698388934135437,0.4630310833454132,0.17024259269237518,0.012798488140106201,0.02344965934753418,0.013442635536193848,0.016738373786211014,-0.009083371609449387,0.061519522219896317,-1.7640706211482657,-0.48141192069742517,1.7431376633701732
1687011520.888009,-0.8672918677330017,0.4680125415325165,0.16961510479450226,-0.010470092296600342,-0.010355621576309204,0.011705055832862854,-0.01143327634781599,-0.008916257880628109,0.0764249712228775,-1.7639273701264353,-0.48704048381359183,1.7449647883936898
1687011520.891426,-0.8645176291465759,0.47227588295936584,0.1719444990158081,0.00032085180282592773,-0.007599949836730957,0.0013800859451293945,0.02648041769862175,-0.00976234395056963,0.06468575447797775,-1.7671250151898406,-0.4918709544736288,1.741913450387356
1687011520.9347382,-0.8636674284934998,0.4730221927165985,0.17415188252925873,-0.015757739543914795,-0.045150429010391235,-0.000506862998008728,-0.14478753507137299,-0.017574861645698547,0.09095624089241028,-1.769770526307255,-0.49271785364281934,1.7387841052871893
1687011521.0001168,-0.8627445101737976,0.47359710931777954,0.17713767290115356,-0.006365597248077393,-0.0011849701404571533,-0.00489652156829834,0.04782778397202492,-0.013962415978312492,0.04565533623099327,-1.7733008478545715,-0.49337049502440783,1.7332784248632263
1687011521.064944,-0.8641179800033569,0.47146686911582947,0.17612287402153015,-0.007036924362182617,-0.026245862245559692,-0.005392298102378845,-0.003241458907723427,-0.016039548441767693,0.02104346454143524,-1.7718604284640338,-0.49095339138100497,1.7369002189338267
1687011521.070664,-0.8640292882919312,0.4707573354244232,0.17844097316265106,-0.0016934871673583984,-0.006920576095581055,0.0020704418420791626,-0.11735931038856506,-0.01304016262292862,0.03771911561489105,-1.7744550094569471,-0.49014897930699186,1.732655266662189
1687011521.117923,-0.8644719123840332,0.4694784879684448,0.1796620488166809,-0.005721688270568848,0.013385951519012451,-0.01321922242641449,-0.009330909699201584,0.0135809276252985,0.019813083112239838,-1.7757080101704867,-0.4887000330471184,1.727961940269852
1687011521.17977,-0.8644280433654785,0.46898186206817627,0.1811641901731491,0.0012534856796264648,-0.008013784885406494,0.009509697556495667,-0.1661115288734436,-0.01265480276197195,0.02195000648498535,-1.7773832900723285,-0.4881376615319495,1.7253056264958229
1687011521.247093,-0.8636821508407593,0.46974408626556396,0.18273945152759552,-0.005382120609283447,0.03648152947425842,-0.0055239200592041016,0.05674784258008003,0.009198697283864021,0.015344568528234959,-1.779303048048426,-0.48900087327913544,1.7198829078487827
1687011521.302579,-0.8632320165634155,0.4707689583301544,0.18222849071025848,0.006420493125915527,-0.01968860626220703,0.010413765907287598,-0.08942320942878723,-0.022782405838370323,0.02031775563955307,-1.7788420585901317,-0.4901621470304011,1.7231026919143724
1687011521.360464,-0.8613467812538147,0.472841739654541,0.18574799597263336,-0.006954550743103027,0.013852626085281372,-0.015749812126159668,-0.07666720449924469,0.01706221140921116,0.037368111312389374,-1.7831920823770337,-0.49251303588755085,1.7132288001649074
1687011521.453662,-0.8614674210548401,0.4734531044960022,0.1836193948984146,-0.002790391445159912,-0.02287629246711731,0.007237553596496582,-0.010726871900260448,0.00519130565226078,0.0027478160336613655,-1.780800898332451,-0.49320699919507305,1.7167273749632808
1687011521.458146,-0.8607515692710876,0.4739778935909271,0.18561166524887085,-0.009335041046142578,0.0023099780082702637,-0.018543243408203125,-0.1737494170665741,0.060174260288476944,0.04064992442727089,-1.7831832369103255,-0.4938028757211709,1.7071937267614294
1687011521.508306,-0.8612857460975647,0.4739697277545929,0.18313823640346527,-0.00043910741806030273,0.0056903064250946045,0.002591729164123535,0.1316015124320984,0.03305409476161003,-0.006743689998984337,-1.780309485199452,-0.4937936270207487,1.7084828932318277
1687011521.604124,-0.8614322543144226,0.4742661416530609,0.1816752552986145,-0.005358397960662842,-0.0170975923538208,0.005488976836204529,-0.06471481174230576,0.005914219655096531,0.0042269350960850716,-1.7786494422006323,-0.494130261299119,1.7095741027770113
1687011521.621552,-0.8615113496780396,0.47428032755851746,0.1812639832496643,-0.004714906215667725,0.002831578254699707,0.004099741578102112,0.06228448823094368,0.03588850051164627,-0.01826053112745285,-1.7781738058867889,-0.49414637347155216,1.709204665839809
1687011521.656091,-0.8627353310585022,0.47297942638397217,0.17882390320301056,0.004077613353729248,-0.0016659796237945557,0.016992077231407166,0.033313557505607605,0.013891053386032581,-0.02885458618402481,-1.7751776736038511,-0.49266930582604834,1.7135540287775928
