Timestamp,gravityX,gravityY,gravityZ,accelerationX,accelerationY,accelerationZ,rotationRateX,rotationRateY,rotationRateZ,attitudeRoll,attitudePitch,attitudeYaw
1687011436.7856932,-0.12837451696395874,0.6139805316925049,-0.7788118720054626,0.005419209599494934,-0.003735780715942383,-0.0027127861976623535,-0.01259774249047041,-0.005108470097184181,-0.0034509580582380295,-0.16336481081499743,-0.6610937294318016,-2.905891144737231
1687011436.879036,-0.12886381149291992,0.6134392023086548,-0.7791575193405151,0.0005069077014923096,-0.007512688636779785,0.0034006834030151367,0.033001165837049484,0.0017419790383428335,-0.004834203515201807,-0.16390494976322897,-0.6604081125514593,-2.906351392179811
1687011436.898665,-0.12875902652740479,0.6127187013626099,-0.7797415852546692,0.00021901726722717285,0.0024698972702026367,-0.0050942301750183105,-0.003440463449805975,0.001674600993283093,-0.0018381476402282715,-0.1636535520275289,-0.6594961271053408,-2.9063914493331646
1687011436.9370918,-0.12878558039665222,0.6122519969940186,-0.7801037430763245,-0.005354404449462891,0.012107133865356445,-0.008913040161132812,0.030213968828320503,0.01307226438075304,-0.004570284858345985,-0.1636120598380288,-0.6589056759325843,-2.9067020895426947
1687011437.062362,-0.12838906049728394,0.6116059422492981,-0.7806756496429443,-0.0024855583906173706,0.0007292628288269043,0.001744985580444336,-0.006337716244161129,0.013626068830490112,0.00046761706471443176,-0.16299980348771406,-0.658088834650714,-2.9067152299619607
1687011437.0799022,-0.12808901071548462,0.6127167344093323,-0.7798534631729126,-0.005776315927505493,0.011749207973480225,0.014869332313537598,-0.011538869701325893,0.00404614582657814,0.01197780016809702,-0.16279401998484377,-0.6594936397270316,-2.9067956804128783
1687011437.1485329,-0.1277717500925064,0.6111971139907837,-0.7810969948768616,0.0062049925327301025,-0.0005251169204711914,0.0007777810096740723,0.04659367352724075,-0.00047137431101873517,-0.009242534637451172,-0.16214381247375373,-0.6575721863344974,-2.906084860796886
1687011437.16299,-0.1280490756034851,0.6111567616462708,-0.7810831069946289,-0.0008418858051300049,-0.007503807544708252,-0.0006551742553710938,-0.003006234997883439,0.005780396051704884,-0.001124420203268528,-0.16249243353462553,-0.657521230970325,-2.9065392032763016
1687011437.306837,-0.1278238743543625,0.6106744408607483,-0.7814971804618835,0.0036021023988723755,0.002591550350189209,-0.004742443561553955,0.0297766774892807,-0.005155208986252546,-0.007077650632709265,-0.16212720174954975,-0.6569119861016717,-2.906256399342965
1687011437.311802,-0.12819166481494904,0.6098597049713135,-0.782072901725769,-0.0028508007526397705,-0.0048639774322509766,-0.012787938117980957,0.0009780535474419594,0.00293733854778111,-0.004314887337386608,-0.16246792087346437,-0.6558835271279915,-2.906582201644473
1687011437.36045,-0.12822003662586212,0.6097512245178223,-0.7821527719497681,-0.001998424530029297,0.009709775447845459,-0.0009129643440246582,0.01471190806478262,-0.0036141707096248865,-0.0070994882844388485,-0.1624869580493845,-0.6557466876090864,-2.9068066323980553
1687011437.364176,-0.12831377983093262,0.6090840101242065,-0.7826572060585022,-0.004254549741744995,0.006745457649230957,0.0033450722694396973,0.0008218591101467609,0.006442058831453323,0.00043406151235103607,-0.16250070870967448,-0.6549051108812821,-2.906712353403245
1687011437.367362,-0.1285165250301361,0.6093003749847412,-0.7824554443359375,-0.00118313729763031,0.0020429491996765137,0.004913389682769775,0.007648073602467775,-0.010684197768568993,-0.0029984870925545692,-0.1627941828510986,-0.6551779935687887,-2.9070011079342644
1687011437.4177132,-0.1289891004562378,0.608526349067688,-0.7829799056053162,0.0018223822116851807,-0.008352398872375488,0.003240525722503662,0.026948468759655952,-0.00446744728833437,-0.009438009932637215,-0.16327473075621615,-0.6542021998744084,-2.907235598165619
1687011437.478265,-0.12938980758190155,0.6085705757141113,-0.7828794121742249,0.002833425998687744,-0.015476703643798828,0.0056424736976623535,-0.008531162515282631,-0.011767570860683918,-0.006420915015041828,-0.16379358024871826,-0.6542578968897069,-2.907654341257486
1687011437.541319,-0.129393070936203,0.6085624694824219,-0.7828851342201233,-0.0021834522485733032,0.006168365478515625,-0.005902707576751709,0.029031259939074516,0.006757909432053566,0.0036841826513409615,-0.1637964666841675,-0.6542477355630124,-2.9075119536938585
1687011437.623581,-0.1296074390411377,0.6072672605514526,-0.7838548421859741,0.003844514489173889,-0.007932543754577637,-0.009068131446838379,-0.01650453358888626,-0.001345556927844882,-0.017624568194150925,-0.16386364471182052,-0.6526164377968258,-2.9077851251950837
1687011437.627047,-0.12972867488861084,0.6084138751029968,-0.7829450964927673,-0.007768258452415466,0.025161564350128174,0.01307821273803711,0.01757107861340046,-1.8636928871273994e-05,0.01185955572873354,-0.16420135945543193,-0.6540604297016053,-2.908001709187102
1687011437.68653,-0.12957526743412018,0.6068313717842102,-0.7841976284980774,0.00706249475479126,-0.011692821979522705,-0.002606511116027832,0.011190743185579777,-0.0009836333338171244,-0.013949139043688774,-0.16375336314824326,-0.6520679171438206,-2.907705016414834
1687011437.7806091,-0.1300985962152481,0.6082068085670471,-0.7830445766448975,-0.0023934394121170044,0.0011987090110778809,0.013528585433959961,-0.007769698277115822,-0.007920235395431519,0.005262638442218304,-0.16464063904903506,-0.6537995594372749,-2.908496532381066
1687011437.798843,-0.12951135635375977,0.6071802377700806,-0.7839381098747253,0.010614901781082153,-0.021654725074768066,-0.006543457508087158,0.024891573935747147,0.0026807431131601334,-0.01530894823372364,-0.1637272462185288,-0.6525069490622043,-2.9075818362851464
1687011437.838451,-0.12994515895843506,0.6078234314918518,-0.7833676338195801,-0.0006395131349563599,0.000727534294128418,-0.0022615790367126465,-0.032356735318899155,-0.008131824433803558,-0.0001928461715579033,-0.16438333791321105,-0.6533167041695187,-2.908289057880482
1687011437.931215,-0.12964695692062378,0.6076641082763672,-0.783540666103363,-0.002158433198928833,0.008806169033050537,-0.012510299682617188,0.01444279681891203,0.005166538059711456,0.014107263647019863,-0.16397726124581222,-0.65311608147837,-2.9077006650230683
1687011437.947219,-0.12990334630012512,0.6078609228134155,-0.7833455801010132,-0.0027565360069274902,0.004397988319396973,0.0002645254135131836,-0.02676289528608322,0.002650782698765397,-0.002779042348265648,-0.16433594276899138,-0.6533638797972202,-2.9081789430667473
1687011438.020997,-0.1294490247964859,0.6086308360099792,-0.7828227281570435,8.504092693328857e-05,0.015224754810333252,0.012498021125793457,0.010321155190467834,-0.003246388165280223,0.012357299216091633,-0.16387886959547526,-0.6543338655033872,-2.907793905023649
1687011438.0248551,-0.12944412231445312,0.6078199148178101,-0.7834534049034119,0.007068663835525513,-0.013490080833435059,0.0019134879112243652,0.004527781158685684,-0.008480964228510857,-0.013993879780173302,-0.16374321036597386,-0.6533122407877652,-2.9076192491865114
1687011438.113131,-0.1291072815656662,0.6087278723716736,-0.7828037738800049,-0.0010501593351364136,-0.004678189754486084,0.004834413528442383,-0.010381260886788368,0.008147813379764557,0.014762134291231632,-0.16345780369370602,-0.6544561711944767,-2.9076158474037244
1687011438.2043939,-0.12878990173339844,0.6086220145225525,-0.7829383611679077,0.004644408822059631,-0.01331561803817749,-0.009130120277404785,-0.0023037598002701998,-0.008484693244099617,-0.002796352840960026,-0.1630355256820689,-0.6543227280862135,-2.9071173266597934
1687011438.207984,-0.1285824477672577,0.6098191142082214,-0.7820404171943665,-0.0016970634460449219,-0.0005661845207214355,-0.011645495891571045,-0.04693946987390518,0.003322564996778965,0.013738148845732212,-0.16296115393121371,-0.6558323494057824,-2.90700646662223
1687011438.3197532,-0.1281401365995407,0.6105613112449646,-0.7815337181091309,0.0018889456987380981,0.0213051438331604,-0.0008301734924316406,0.010016622953116894,-0.0031401279848068953,0.0013051815330982208,-0.1625138621029529,-0.6567691807291146,-2.906422840354842
1687011438.336231,-0.12862353026866913,0.6095948219299316,-0.7822085022926331,-0.003029271960258484,0.006860256195068359,0.0035677552223205566,0.015393543988466263,0.0012146730441600084,-0.00327279232442379,-0.1629778793260557,-0.6555493440891829,-2.9067378955858776
1687011438.410554,-0.128774031996727,0.6099570393562317,-0.7819012999534607,-0.0009714365005493164,0.0013100504875183105,0.007456719875335693,-0.0027470432687550783,-0.010284457355737686,-0.007718407083302736,-0.16322818255437943,-0.6560063640955848,-2.9070473026746764
1687011438.415501,-0.1289941370487213,0.6095823645591736,-0.7821571826934814,0.004741847515106201,-0.005227506160736084,0.006354570388793945,0.029549244791269302,-0.010931072756648064,-0.01335072610527277,-0.16344970632219977,-0.6555336609491981,-2.9071508825495163
1687011438.5032182,-0.1294175535440445,0.6091127395629883,-0.7824530601501465,0.0024797171354293823,-0.01659870147705078,-0.0014367103576660156,-0.005430378019809723,-0.003311901818960905,-0.0016884775832295418,-0.16391576906510053,-0.6549413410005067,-2.9075509888273694
1687011438.518528,-0.1296110898256302,0.6092930436134338,-0.7822806239128113,0.0004759877920150757,0.0015468001365661621,-0.01384669542312622,0.0030733621679246426,-0.006638456601649523,0.0006449837237596512,-0.1641920561568786,-0.6551687558647591,-2.9075808093700277
1687011438.591762,-0.12979114055633545,0.6086665987968445,-0.7827382683753967,-0.0005494058132171631,-0.0004513263702392578,-0.006156325340270996,0.00018443167209625244,0.003458519233390689,-0.009478490799665451,-0.16432164628942308,-0.6543789678117096,-2.90768919921639
1687011438.59675,-0.12976938486099243,0.6088905334472656,-0.7825677394866943,-0.0024174898862838745,0.017162322998046875,0.005697011947631836,0.010896464809775352,0.0014041569083929062,0.007040564902126789,-0.16432975134648517,-0.6546611912625506,-2.9078728026789653
1687011438.6815882,-0.1297617256641388,0.6083163619041443,-0.7830154299736023,-0.0016164183616638184,-0.006082475185394287,0.007670581340789795,-0.002234184881672263,0.0033846169244498014,-0.0022844932973384857,-0.164227970154359,-0.6539375643535982,-2.9078297806470332
1687011438.696856,-0.12965519726276398,0.6089721918106079,-0.7825231552124023,0.001206725835800171,-0.00280153751373291,0.0030126571655273438,-0.0007890204433351755,-0.0028333317022770643,-0.004953513387590647,-0.16419693126035292,-0.6547641439479738,-2.9080682054477327
1687011438.736474,-0.12989090383052826,0.6088400483131409,-0.7825868725776672,0.004326358437538147,-0.01168733835220337,0.00014668703079223633,0.007276229560375214,-0.004595012869685888,-0.008199640549719334,-0.16447693640281416,-0.6545975414286039,-2.908266337665718
1687011438.830676,-0.12986433506011963,0.6092379093170166,-0.7822815179824829,-0.0023530274629592896,-0.006759941577911377,-0.010839760303497314,-0.03570026531815529,0.008134896866977215,0.009594536386430264,-0.16450693165872524,-0.6550991703585289,-2.9084088290456536
1687011438.847502,-0.1303270161151886,0.6101548075675964,-0.7814896106719971,0.006593525409698486,0.013975441455841064,-0.03944849967956543,-0.012441481463611126,-0.06345846503973007,0.007037368603050709,-0.16524672693157785,-0.6562559613175445,-2.908232526939238
1687011438.8865352,-0.1297493726015091,0.6094681024551392,-0.7821213603019714,0.006473645567893982,0.02467191219329834,0.00915682315826416,0.07871978729963303,0.024908816441893578,0.007776663638651371,-0.16439696883300894,-0.6553895143330926,-2.907699294919028
1687011438.981139,-0.13044998049736023,0.5972317457199097,-0.7913892865180969,-0.020459413528442383,0.04932892322540283,-0.021598994731903076,0.3964116871356964,-0.035139475017786026,0.0344623364508152,-0.16336762892939666,-0.6400452962076145,-2.903681068269445
1687011438.997756,-0.13097207248210907,0.5940852761268616,-0.7936680316925049,-0.0009248703718185425,0.0030826330184936523,0.012234985828399658,-0.013755219988524914,-0.05832388624548912,0.029793012887239456,-0.16354727175121256,-0.6361280072970137,-2.9009965260640542
1687011439.0370178,-0.13195230066776276,0.5901826620101929,-0.7964125871658325,-0.01334187388420105,0.005138993263244629,-0.0050858259201049805,0.13207222521305084,0.004749486688524485,0.04222811385989189,-0.164191780600116,-0.6312851248804139,-2.8984129351553722
1687011439.12592,-0.1320287436246872,0.5892179012298584,-0.7971139550209045,0.017954066395759583,-0.0262753963470459,0.010920166969299316,-0.00728959683328867,-0.07088202983140945,-0.022207068279385567,-0.16414322974101964,-0.6300905179463903,-2.8969697168891058
1687011439.130297,-0.13393869996070862,0.5896299481391907,-0.7964904308319092,-0.010699331760406494,-0.013809025287628174,-0.02519536018371582,-0.043620772659778595,-0.006571611389517784,0.011184976436197758,-0.16660236143782217,-0.6306006186324238,-2.8971501145153624
1687011439.2535071,-0.13354219496250153,0.5914905071258545,-0.7951763868331909,0.01017490029335022,0.010148286819458008,0.022822260856628418,-0.0034294116776436567,-0.02653040550649166,-0.013788550160825253,-0.16638766837737876,-0.6329061482582651,-2.8971307684851197
1687011439.316391,-0.13404111564159393,0.5860947966575623,-0.7990781664848328,-0.00870482623577118,0.01380455493927002,0.006307780742645264,0.15026813745498657,0.018149446696043015,0.012658237479627132,-0.16619737739822293,-0.6262305597544078,-2.8967205270517344
1687011439.331478,-0.13494233787059784,0.5828245878219604,-0.801315188407898,0.028588593006134033,-0.0024260282516479492,0.01739490032196045,0.024155544117093086,-0.05512436851859093,-0.05660685524344444,-0.16683573532442172,-0.6222004040213404,-2.8962250609440954
1687011439.335082,-0.1363881677389145,0.5840399265289307,-0.8001847267150879,-0.014002427458763123,-0.015726327896118164,-0.02198934555053711,-0.09984356164932251,0.04998034983873367,0.025527164340019226,-0.16882345339907956,-0.6236968185992884,-2.8983263818559637
1687011439.367395,-0.13489362597465515,0.5872992873191833,-0.7980496287345886,0.014333948493003845,0.03034597635269165,0.0208737850189209,0.05033122003078461,-0.04605470597743988,-0.032791268080472946,-0.16744638327358854,-0.6277179843175038,-2.898788565354266
1687011439.431314,-0.13716332614421844,0.5817777514457703,-0.8016987442970276,-0.02227574586868286,-0.035772502422332764,-0.03443711996078491,-0.0444076731801033,0.041349176317453384,0.032266825437545776,-0.1694501763530713,-0.6209127311186639,-2.8989712162375305
1687011439.520575,-0.13519665598869324,0.5874127745628357,-0.7979148030281067,0.002628311514854431,0.05148798227310181,-0.0015693902969360352,-0.02062823995947838,0.009297633543610573,-0.01650550775229931,-0.16784335258971714,-0.6278581827993157,-2.8995632589318316
1687011439.537406,-0.13649363815784454,0.5829978585243225,-0.8009263277053833,-0.013301879167556763,0.00577777624130249,-0.0018080472946166992,0.06949925422668457,-0.001071650767698884,0.0013027843087911606,-0.16879805418744756,-0.6224136388910041,-2.8996631915537345
1687011439.577627,-0.1360342651605606,0.5848463773727417,-0.7996558547019958,-0.003934592008590698,-0.006614565849304199,0.0026587843894958496,-0.05926864221692085,0.006473750341683626,-0.0050363377667963505,-0.16850291283389474,-0.6246906467499574,-2.9002671905698074
1687011439.6403542,-0.13652710616588593,0.5832982063293457,-0.800701916217804,-0.006768167018890381,0.004073619842529297,0.006420910358428955,0.04918506368994713,-0.0005786996334791183,0.004481268115341663,-0.1688850798077949,-0.6227833655131574,-2.900195712313416
1687011439.730387,-0.13646459579467773,0.5844237208366394,-0.7998914122581482,0.002446681261062622,0.0030549168586730957,-0.004902899265289307,-0.05314423516392708,0.008084030821919441,0.003123055212199688,-0.16897703088834976,-0.6241696736478048,-2.9006282184853025
1687011439.7459579,-0.1366492360830307,0.5841999650001526,-0.8000233769416809,0.0004187971353530884,-0.0017872452735900879,0.003377258777618408,0.035217318683862686,-0.008873648010194302,-0.006732771173119545,-0.1691739491322026,-0.6238939779052796,-2.9006812044722654
1687011439.853629,-0.13677994906902313,0.5839656591415405,-0.8001720905303955,-0.01090984046459198,-0.007702231407165527,-0.021300077438354492,-0.03957056999206543,0.014093853533267975,0.011811085976660252,-0.16930182783259629,-0.6236052957083044,-2.9006481767525343
1687011439.869679,-0.1362415850162506,0.5852734446525574,-0.7993079423904419,0.002376258373260498,0.023536980152130127,0.0073615312576293945,0.02523612231016159,-0.010095106437802315,-0.01181994192302227,-0.16882693072301325,-0.6252172783540094,-2.9005620935524448
1687011439.943303,-0.13678684830665588,0.5835849046707153,-0.8004486560821533,-0.006905153393745422,-0.009808659553527832,0.0005066394805908203,0.014357374981045723,0.005439645145088434,0.01191787887364626,-0.16925281668013917,-0.6231363605805486,-2.900663897090661
1687011439.947686,-0.1364082545042038,0.5839022994041443,-0.8002817034721375,0.008005574345588684,-0.005609452724456787,0.008838891983032227,0.0228551235049963,-0.01915731094777584,-0.018225908279418945,-0.16882777792178263,-0.6235272653973203,-2.9003130711439056
1687011440.034986,-0.13664135336875916,0.5831239819526672,-0.8008092641830444,0.002623453736305237,-0.02218043804168701,-0.005007326602935791,-0.0303794052451849,0.011181286536157131,0.013338941149413586,-0.16900150882895923,-0.6225688968500577,-2.900271196572126
1687011440.050888,-0.1368495225906372,0.5842747688293457,-0.7999345064163208,0.002831593155860901,0.014113903045654297,0.005088925361633301,0.01968509517610073,-0.015020756050944328,-0.014385897666215897,-0.16943565670922212,-0.6239861162621902,-2.900675974533537
1687011440.119112,-0.13705666363239288,0.583348274230957,-0.8005749583244324,-0.004773750901222229,0.012644767761230469,-0.002373039722442627,0.016604416072368622,0.012305274605751038,0.011211342178285122,-0.16955407411869264,-0.6228449889032723,-2.90056314633218
1687011440.132763,-0.13670867681503296,0.5842772722244263,-0.799956738948822,0.005315259099006653,0.01182258129119873,-0.0064702630043029785,-0.013110201805830002,-0.0033085730392485857,-0.01729486882686615,-0.1692599660849236,-0.6239892425242409,-2.9007274672401127
1687011440.176851,-0.13736894726753235,0.5836042761802673,-0.8003348112106323,0.0026338547468185425,0.002607882022857666,0.007274508476257324,0.024329980835318565,0.002438528463244438,0.0009584380313754082,-0.16998301614222533,-0.6231602155292704,-2.901318961697863
1687011440.272005,-0.13700194656848907,0.5844581127166748,-0.7997744679450989,0.008645027875900269,-0.011383771896362305,0.009002983570098877,-0.026761699467897415,-0.008582697249948978,-0.005955927073955536,-0.1696540709752579,-0.6242120984093977,-2.9012026743239425
1687011440.287683,-0.13714191317558289,0.5836237072944641,-0.8003596067428589,0.0009267330169677734,-0.010244190692901611,0.0020655393600463867,0.017206091433763504,0.01039751898497343,-0.004351639188826084,-0.16970231020777218,-0.6231841023457805,-2.9011665788028944
1687011440.330522,-0.1366528868675232,0.5850843787193298,-0.7993761301040649,0.008448585867881775,-0.006440639495849609,0.006941497325897217,-0.03878314420580864,0.005960159935057163,-0.021456589922308922,-0.16931277019136187,-0.6249841208304165,-2.9014647124457498
1687011440.418995,-0.1371517926454544,0.5846052169799805,-0.7996412515640259,-0.0026644766330718994,0.01633167266845703,-0.01571214199066162,0.044201288372278214,0.013136712834239006,-0.025634024292230606,-0.1698638373257239,-0.6243934057905309,-2.9029766487230892
1687011440.435845,-0.13847941160202026,0.58231520652771,-0.8010820150375366,0.0027830302715301514,0.006979167461395264,-0.007908403873443604,0.03671400994062424,-0.02424541302025318,-0.02223556488752365,-0.17117379819128103,-0.6215736664143129,-2.9039823405938514
1687011440.479599,-0.13816487789154053,0.5837026238441467,-0.8001260757446289,-0.006473153829574585,0.0056375861167907715,0.008912086486816406,-0.026325274258852005,0.025015875697135925,0.023702897131443024,-0.17099263744582696,-0.6232812886183389,-2.903918173463488
1687011440.573556,-0.1361556351184845,0.5843088626861572,-0.8000279664993286,0.007569864392280579,-0.006824791431427002,0.0012609362602233887,-0.06395294517278671,0.031341951340436935,-0.02348325401544571,-0.16857344799837606,-0.6240281798138888,-2.9035743146394877
1687011440.578927,-0.13690835237503052,0.581244707107544,-0.8021288514137268,-0.004616886377334595,-0.010947465896606445,-0.06212890148162842,-0.09195508062839508,0.06325314193964005,-0.026239894330501556,-0.16905219411844882,-0.6202574715495806,-2.9051175617948632
1687011440.6288872,-0.1356087327003479,0.5829658508300781,-0.801099956035614,-0.012981340289115906,0.01151663064956665,-0.010698139667510986,-0.020636694505810738,0.030508246272802353,0.013278753496706486,-0.1676885093438575,-0.6223741873260664,-2.905352354261753
1687011440.717099,-0.1348831057548523,0.5847193002700806,-0.7999436259269714,0.0037643462419509888,0.022260069847106934,0.002443075180053711,-0.0062606846913695335,0.0020539681427180767,-0.0062661855481565,-0.1670444811438553,-0.6245339979043045,-2.9058134287403456
1687011440.734136,-0.13532166182994843,0.5846788883209229,-0.7998991012573242,-0.004631906747817993,0.020866096019744873,-0.028881967067718506,-0.013456678949296474,-0.00043422315502539277,0.006164119578897953,-0.16758667894184703,-0.6244841950815503,-2.906361203250712
1687011440.776495,-0.1355307698249817,0.5856389403343201,-0.7991611361503601,-0.007245689630508423,0.005028784275054932,-0.004244625568389893,-0.023554187268018723,0.005132049787789583,-0.0021995380520820618,-0.16799290096264585,-0.62566806239136,-2.906916480035685
1687011440.875809,-0.13520948588848114,0.5863780975341797,-0.7986733913421631,-0.003172442317008972,0.0035724639892578125,-0.003984689712524414,-0.032973986119031906,0.0015771292382851243,0.00457900483161211,-0.16770253458448,-0.6265802713228366,-2.9068587707014775
1687011440.8815541,-0.13542169332504272,0.5868710875511169,-0.7982751727104187,0.0023040324449539185,0.0008059144020080566,0.011654078960418701,0.013668548315763474,-0.0007809667149558663,-0.009012702852487564,-0.16804302927730722,-0.6271890126591948,-2.9070974477647455
1687011440.9252272,-0.13545306026935577,0.5865272879600525,-0.7985225319862366,0.0019081681966781616,-0.00792926549911499,-0.0034031271934509277,-0.006373802199959755,0.0005400943337008357,-0.0026911580935120583,-0.16803014221459012,-0.6267644680566716,-2.9072620512741123
1687011441.018824,-0.13574963808059692,0.5869689583778381,-0.7981475591659546,0.0017164647579193115,0.0024322867393493652,-0.0016113519668579102,-0.007829619571566582,-0.006148168351501226,0.009009706787765026,-0.16846876979350198,-0.6273099383019757,-2.907348582387532
1687011441.035229,-0.13551877439022064,0.5871669054031372,-0.7980411648750305,-0.0010778754949569702,0.001715540885925293,-0.008813083171844482,-0.00790698453783989,0.008821725845336914,0.001203182153403759,-0.16820963990464788,-0.6275544459706489,-2.907249441712918
1687011441.113656,-0.13564623892307281,0.587391197681427,-0.7978544235229492,-0.00041635334491729736,0.020061194896697998,-0.011319160461425781,-0.006207487545907497,0.00094622652977705,0.0014207623898983002,-0.1684035488522594,-0.6278315661534147,-2.9076361536187343
1687011441.128622,-0.13587744534015656,0.58739173412323,-0.797814667224884,-0.005708828568458557,0.0055495500564575195,-0.002432525157928467,-0.008000328205525875,0.0011286528315395117,0.008778278715908527,-0.16869341586782755,-0.6278321972363878,-2.907825829548683
1687011441.164494,-0.13579753041267395,0.5874539613723755,-0.7977824807167053,0.0008793473243713379,0.0037020444869995117,0.012427866458892822,0.009180257096886635,-0.0034767515026032925,-0.002201668918132782,-0.16860275401715144,-0.6279090720698685,-2.907707409937598
1687011441.227017,-0.13605478405952454,0.5869455933570862,-0.7981127500534058,0.004493534564971924,-0.011612951755523682,0.0030993223190307617,0.007332156412303448,-0.007163099013268948,-0.009334946051239967,-0.16884753940636532,-0.6272810602644294,-2.9078648696970877
1687011441.32026,-0.13608375191688538,0.5871147513389587,-0.7979834079742432,0.0007383227348327637,-0.00599902868270874,-0.001592397689819336,0.007603266276419163,0.003129752120003104,-0.0017960695549845695,-0.16890966845295918,-0.6274899798518262,-2.9081064589905403
1687011441.33599,-0.13627400994300842,0.586507260799408,-0.7983975410461426,-0.0033744126558303833,-0.001851499080657959,-0.011355876922607422,-0.003848592983558774,0.0025742165744304657,0.0014069145545363426,-0.16905525745934025,-0.6267397726708759,-2.9082865370324567
1687011441.377294,-0.1363266557455063,0.5868798494338989,-0.7981147170066833,-0.004130467772483826,0.009143710136413574,-0.011669158935546875,-0.002273998688906431,-0.001419459586031735,0.0026458166539669037,-0.16917812033062493,-0.6271998128158858,-2.9084369279368083
1687011441.466368,-0.13625402748584747,0.5868560671806335,-0.7981446385383606,-0.001776963472366333,0.007809460163116455,-0.0020110011100769043,-0.011514103040099144,0.006200909148901701,0.0016444679349660873,-0.16908348778205842,-0.6271704603034207,-2.9083107310162757
1687011441.4833279,-0.1364293247461319,0.5870552659034729,-0.7979681491851807,0.0011601746082305908,0.0079001784324646,0.009821176528930664,0.0025192247703671455,0.0007839066674932837,0.007089567370712757,-0.16933361964799745,-0.6274165314442496,-2.9086262239750695
1687011441.560338,-0.13608340919017792,0.5871413350105286,-0.7979638576507568,0.005651310086250305,-0.0075057148933410645,0.006032705307006836,-0.00748693710193038,-0.002994053764268756,-0.002575577236711979,-0.16891330481655373,-0.6275228055343242,-2.90833366680803
1687011441.6511111,-0.13615597784519196,0.5870162844657898,-0.7980435490608215,0.006502076983451843,-0.003718554973602295,0.003518342971801758,0.030980760231614113,-0.00549143273383379,-0.010708870366215706,-0.1689851212996216,-0.6273683406993369,-2.908407790018114
1687011441.666978,-0.1361861377954483,0.5866521000862122,-0.7983061075210571,0.001832515001296997,-0.017575562000274658,-0.008075118064880371,-0.021227650344371796,0.0027980555314570665,-0.002466387115418911,-0.16896730102269164,-0.6269185641902257,-2.908354393413138
1687011441.741956,-0.1361364871263504,0.5872682332992554,-0.7978614568710327,-0.0024590641260147095,0.015301406383514404,-0.011556267738342285,0.013194506987929344,0.0012654061429202557,0.001967509277164936,-0.1689992228966148,-0.627679572620849,-2.9085524837864063
1687011441.746649,-0.1364019811153412,0.5862533450126648,-0.7985621690750122,-0.00407041609287262,0.003010571002960205,-0.007040858268737793,0.0025886003859341145,0.003661718685179949,-0.0059221051633358,-0.16917678426138266,-0.6264263005898568,-2.908690833766336
1687011441.8326302,-0.13613761961460114,0.5873199105262756,-0.7978232502937317,0.001906067132949829,0.006613194942474365,-0.01209801435470581,-0.027421295642852783,-0.02164563536643982,0.03329773619771004,-0.16900852663319568,-0.6277434605740531,-2.908179856305488
1687011441.8480659,-0.1365208774805069,0.5885002017021179,-0.7968874573707581,-0.0005640536546707153,0.0023049116134643555,0.008816778659820557,-0.04941720888018608,-0.04900788515806198,-0.011438576504588127,-0.16967051146447293,-0.6292025055381609,-2.9079768277959057
1687011441.919945,-0.13802245259284973,0.5897623896598816,-0.7956947684288025,-0.003853738307952881,0.005406737327575684,0.01395648717880249,0.08917555212974548,-0.04912639781832695,0.009112237952649593,-0.17175255385371582,-0.6307645497349709,-2.9076460108928974
1687011441.9337811,-0.13563761115074158,0.5904667377471924,-0.7955824732780457,-0.005765572190284729,-0.04282879829406738,-0.035456955432891846,-0.13864761590957642,0.031052861362695694,0.040318094193935394,-0.16886482700086183,-0.631637051194268,-2.904665638048307
1687011441.977051,-0.13700179755687714,0.5888170599937439,-0.7965707778930664,-0.01076430082321167,0.0678754448890686,0.014649391174316406,0.2845594882965088,-0.0032570408657193184,0.008568153716623783,-0.17032311209181372,-0.6295944894826279,-2.9032931696096043
1687011442.06896,-0.13637590408325195,0.5813331007957458,-0.8021554946899414,-0.002784237265586853,-0.03860849142074585,-0.014403343200683594,-0.01588914357125759,0.01788153499364853,-0.024904051795601845,-0.16840163050808013,-0.6203661466209199,-2.9017025157948027
1687011442.082427,-0.13696931302547455,0.5826281309127808,-0.8011141419410706,-0.005639314651489258,-0.009050250053405762,-0.005022943019866943,0.009296836331486702,-0.01825849339365959,0.012711233459413052,-0.1693361818740326,-0.6219586601977627,-2.9022924692785486
1687011442.164094,-0.13733161985874176,0.5813886523246765,-0.8019521236419678,-0.004605591297149658,-0.013380289077758789,0.008815586566925049,-0.002760159084573388,-0.0007318314164876938,0.005044792778789997,-0.16960154170099323,-0.620434428924043,-2.9022073593099202
1687011442.252194,-0.13702602684497833,0.5809906721115112,-0.8022927641868591,-0.00927521288394928,-0.01183784008026123,-0.007613241672515869,-0.025743238627910614,0.005980399902909994,0.0038213366642594337,-0.16916082851778305,-0.6199453367743981,-2.9016167633382786
1687011442.267607,-0.1381659358739853,0.5800102949142456,-0.8028064966201782,-0.0024590343236923218,-0.010262370109558105,0.008693337440490723,0.03206706419587135,0.0050653377547860146,-0.011527526192367077,-0.17043401964442417,-0.618741311034469,-2.9022973534100127
1687011442.339809,-0.13749009370803833,0.581028163433075,-0.8021861910820007,0.002480342984199524,-0.006122767925262451,-5.990266799926758e-05,-0.04255390912294388,0.00780866015702486,0.007236574776470661,-0.16974491422826546,-0.6199914381167392,-2.9020938889464043
1687011442.353386,-0.13801035284996033,0.5809398889541626,-0.8021608591079712,-0.002034783363342285,0.024299979209899902,-0.009026885032653809,0.07395252585411072,-0.01132974773645401,0.002118777483701706,-0.1703801756467886,-0.6198829547968284,-2.9022914919501845
1687011442.43208,-0.1377190798521042,0.580614447593689,-0.8024464845657349,-0.0017919987440109253,-0.003160834312438965,-0.006223559379577637,-0.049484122544527054,0.0014543574070557952,0.001215432770550251,-0.16996813222777354,-0.6194831781103228,-2.9019039621978675
1687011442.444944,-0.13782596588134766,0.5809558629989624,-0.8021809458732605,-0.002417534589767456,0.012366890907287598,0.014522254467010498,0.054415978491306305,-0.011273554526269436,-0.003508215770125389,-0.17015273807828224,-0.6199025880048333,-2.9020416245751073
1687011442.519773,-0.13773217797279358,0.5806931853294373,-0.8023871779441833,0.004507705569267273,-0.021000802516937256,0.006977081298828125,-0.036444153636693954,-0.0024097561836242676,-0.0009169597178697586,-0.16999628884541174,-0.619579913281487,-2.9020074540231873
1687011442.5333018,-0.13765594363212585,0.5810156464576721,-0.8021668195724487,0.007254362106323242,0.0011376142501831055,0.004589974880218506,0.03390937298536301,0.0014204022008925676,0.001516103744506836,-0.16994978047348802,-0.6199760258189033,-2.9022234698398806
1687011442.57375,-0.1376771330833435,0.5809352993965149,-0.802221417427063,0.0059327781200408936,-0.011904537677764893,0.0003110170364379883,-0.03435230627655983,-0.0016559482319280505,-0.015944644808769226,-0.16996410262660255,-0.6198772881580389,-2.9024437693092184
1687011442.671037,-0.13782037794589996,0.5807175040245056,-0.8023544549942017,-0.002728283405303955,0.01663351058959961,-0.008283913135528564,0.03441377356648445,0.007544606924057007,0.013681423850357533,-0.17010987751611595,-0.6196097822743901,-2.9023779421103675
1687011442.686218,-0.1376868486404419,0.5804051160812378,-0.8026034235954285,-0.004067271947860718,0.011971592903137207,-0.009713470935821533,-0.0033291431609541178,-0.0012005479075014591,-0.0058398135006427765,-0.16989652226624224,-0.6192260846571734,-2.9023591795371337
1687011442.7352738,-0.13792738318443298,0.5802004933357239,-0.8027100563049316,-0.006847992539405823,-0.005829155445098877,0.0038208961486816406,0.0020579653792083263,0.005790383089333773,0.011586314998567104,-0.1701654419298961,-0.6189748448002949,-2.9023710741136646
1687011442.820881,-0.13782687485218048,0.5803648233413696,-0.8026084899902344,0.007959350943565369,-0.003079056739807129,0.009075164794921875,0.008855883963406086,-0.014930208213627338,-0.013590943068265915,-0.17006493636932807,-0.6191766438560155,-2.902340135244927
1687011442.836415,-0.13780070841312408,0.5800015926361084,-0.8028755187988281,0.0021348297595977783,-0.010238409042358398,0.003086090087890625,-0.007635141722857952,0.014010230079293251,0.0021099885925650597,-0.1699777883754502,-0.6187306633322777,-2.90237849759825
1687011442.8747191,-0.13795551657676697,0.5799784660339355,-0.8028656840324402,0.008622050285339355,0.004143238067626953,-0.0016387104988098145,0.01189281977713108,-0.01030989084392786,-0.013467106968164444,-0.17016713777000397,-0.6187022417581187,-2.9026966841424477
1687011443.00281,-0.13812392950057983,0.5798766016960144,-0.8029102683067322,-0.0028825104236602783,-0.0011107325553894043,-0.005958080291748047,-0.00566733255982399,0.0016773971728980541,0.006603539921343327,-0.17036159665324863,-0.6185771987475747,-2.902741785237167
1687011443.016794,-0.13800033926963806,0.5799523591995239,-0.8028767704963684,-0.006164669990539551,0.0032385587692260742,-0.012354552745819092,-0.0017194622196257114,0.004912339150905609,0.009166567586362362,-0.17021905697675327,-0.6186702086576911,-2.9024954331634722
1687011443.096025,-0.13759870827198029,0.5800026655197144,-0.8029093742370605,-0.0004933029413223267,0.00010597705841064453,-0.0002675056457519531,-0.021051548421382904,0.013762954622507095,-0.002419249154627323,-0.16972637530119974,-0.6187319703573593,-2.902217086631083
1687011443.1023989,-0.13817830383777618,0.5796526074409485,-0.8030626773834229,-0.0020804554224014282,-0.006410419940948486,0.010841608047485352,0.017295707017183304,-0.011910716071724892,-0.0017784927040338516,-0.1703956596518403,-0.618302339937227,-2.9026689717403724
1687011443.181495,-0.13759565353393555,0.5797660946846008,-0.8030807375907898,0.005424067378044128,-0.0070122480392456055,0.00644993782043457,-0.0049825673922896385,-0.0017606106121093035,0.010768990032374859,-0.16968714197977117,-0.6184415952848029,-2.902068540384442
1687011443.195167,-0.13804209232330322,0.5795264840126038,-0.8031770586967468,-0.0003856271505355835,-0.00462108850479126,-0.005706608295440674,-0.00036384654231369495,-0.00122052151709795,-0.004535130225121975,-0.17020712566114957,-0.618147507553892,-2.9024887769765053
1687011443.274006,-0.1377330869436264,0.5795636177062988,-0.8032033443450928,0.0021282434463500977,0.0004534721374511719,-0.0037882328033447266,-0.005506543908268213,0.0033382775727659464,-0.005393201019614935,-0.16982796060620423,-0.618193082961646,-2.902348045753095
1687011443.2788281,-0.13792364299297333,0.5790547728538513,-0.8035375475883484,-0.007980868220329285,-0.006865441799163818,-0.015477955341339111,-0.012700806371867657,0.009586053900420666,0.006839229725301266,-0.16998905045583027,-0.6175688654654203,-2.9023470792805717
1687011443.331923,-0.13778434693813324,0.5799831748008728,-0.8028916120529175,-0.0038934648036956787,0.014453470706939697,0.007832467555999756,0.014281874522566795,0.0045480187982320786,-0.010597017593681812,-0.1699546539371249,-0.6187080021467956,-2.9026060900575854
1687011443.419067,-0.13783909380435944,0.5780959129333496,-0.8042421340942383,-0.007714450359344482,-0.012589991092681885,0.005520880222320557,0.01856144145131111,0.024753421545028687,-0.017694342881441116,-0.16974084172657322,-0.6163932419367643,-2.902891570763423
1687011443.4347792,-0.13781161606311798,0.5787614583969116,-0.8037680387496948,0.0019931644201278687,0.009083330631256104,0.0019645094871520996,0.008021049201488495,0.006413829047232866,-0.01609538123011589,-0.16980582786099072,-0.6172091065327585,-2.9040742284704777
1687011443.474554,-0.13729050755500793,0.5791524052619934,-0.8035756349563599,0.00020557641983032227,-0.014653503894805908,0.006670117378234863,-0.01148800365626812,0.022915441542863846,0.0243401937186718,-0.16921569705597148,-0.6176886214149714,-2.904249225001187
1687011443.5694509,-0.13671255111694336,0.5788032412528992,-0.803925633430481,-0.003088444471359253,-0.0004189014434814453,0.004670321941375732,0.0020462474785745144,0.007370170671492815,-0.05841381102800369,-0.16844478357989792,-0.6172603856714418,-2.9053922804851506
1687011443.5853028,-0.1368199735879898,0.5772574543952942,-0.8050181269645691,0.006616741418838501,0.0023171305656433105,-0.03383380174636841,0.010849326848983765,0.0036872848868370056,0.0044730110093951225,-0.16835018876716346,-0.6153660490675151,-2.906210582208572
1687011443.690381,-0.13773658871650696,0.5778458714485168,-0.8044394254684448,-0.005345061421394348,0.0017897486686706543,-0.015857815742492676,-0.010045768693089485,-0.01671932078897953,-0.017814982682466507,-0.16957621450578614,-0.61608680069915,-2.9074284188752433
1687011443.7046962,-0.13777020573616028,0.5779597759246826,-0.804351806640625,-0.012711942195892334,0.009305238723754883,-0.0085906982421875,-0.038535065948963165,0.011848941445350647,0.01922931894659996,-0.16963494714311422,-0.6162264132893551,-2.9073157799231844
1687011443.782072,-0.13733212649822235,0.5790620446205139,-0.8036336302757263,-0.0035675019025802612,0.001977384090423584,0.013426721096038818,-0.0006402826402336359,0.002484734635800123,0.0016189021989703178,-0.1692540458563818,-0.6175777701916184,-2.907000424933675
1687011443.796865,-0.13764983415603638,0.5780181884765625,-0.8043304681777954,0.003265693783760071,-0.010589599609375,0.00454103946685791,0.01888987608253956,0.0031880754977464676,-0.012909973040223122,-0.16949396427752622,-0.6162980042947998,-2.907301229554684
1687011443.871399,-0.13764025270938873,0.5784909129142761,-0.8039922118186951,0.0030425041913986206,-0.002166450023651123,0.000845789909362793,-0.0040909405797719955,-0.004646677989512682,-0.000811232253909111,-0.16955233866590635,-0.6168773780899605,-2.907499454235036
1687011443.885185,-0.1377047449350357,0.5783644318580627,-0.8040721416473389,-0.00021943449974060059,-0.002909719944000244,-0.009877443313598633,0.004254207946360111,-0.0019004265777766705,-0.0004820656031370163,-0.16961371992826885,-0.6167223293061921,-2.907416728755833
1687011443.9254699,-0.13753244280815125,0.5788499712944031,-0.8037521839141846,-0.003199353814125061,0.009635746479034424,-0.01138758659362793,-0.02272634208202362,0.0017956416122615337,0.00020209979265928268,-0.16947169030725617,-0.6173176379141335,-2.9073091519290246
1687011443.9916592,-0.1375916451215744,0.5787934064865112,-0.8037827610969543,-0.0039183348417282104,0.01199638843536377,0.0034134984016418457,0.01615653932094574,0.0018666146788746119,0.008597982116043568,-0.1695369303154279,-0.6172482919382248,-2.907330857625461
1687011444.081393,-0.1373673975467682,0.5789486169815063,-0.8037092685699463,-0.0006178021430969238,-0.003844916820526123,0.0066664814949035645,-0.02041778154671192,-0.002064876724034548,0.005352654494345188,-0.16928103690180338,-0.6174386658233937,-2.9071349867269416
1687011444.0872002,-0.13746428489685059,0.5793290138244629,-0.8034186363220215,0.0032174885272979736,0.00021505355834960938,0.012570858001708984,0.013622408732771873,-0.008037148043513298,-0.0026615969836711884,-0.169458293969727,-0.6179052366068905,-2.9071207698418733
1687011444.173898,-0.13724946975708008,0.5791589021682739,-0.8035780191421509,0.005169406533241272,-0.015163540840148926,-0.005336165428161621,-0.012230092659592628,-0.0009587327367626131,-0.0033010216429829597,-0.1691655802055542,-0.6176965587800577,-2.9069386239221418
1687011444.1880488,-0.13744409382343292,0.5796030759811401,-0.8032243847846985,0.0013967454433441162,0.0031911730766296387,-0.005048930644989014,0.002354841213673353,-0.004060250241309404,0.004967826418578625,-0.16947406974608853,-0.6182414891849921,-2.9070640037059476
1687011444.263566,-0.1374768316745758,0.579545795917511,-0.803260087966919,-0.0029650479555130005,0.006895244121551514,-0.009957075119018555,-0.005617797374725342,0.001990052405744791,0.006654140539467335,-0.1695062645093604,-0.6181712181827896,-2.90698349194386
1687011444.351583,-0.13715362548828125,0.5800352096557617,-0.802962064743042,-0.0027694404125213623,0.013958930969238281,-0.005112886428833008,-0.015708182007074356,0.006925289053469896,0.0019531287252902985,-0.1691769033697829,-0.6187719220799909,-2.9070307295708138
1687011444.3660622,-0.13742007315158844,0.5800800919532776,-0.8028841018676758,-0.0016637593507766724,0.002820909023284912,0.0016145706176757812,-0.006588519550859928,-0.01096542738378048,-0.0014474615454673767,-0.16951546487333982,-0.6188270127766083,-2.9072053732142638
1687011444.471257,-0.13737691938877106,0.5806152820587158,-0.8025044798851013,0.000932842493057251,-0.00633549690246582,0.008086144924163818,-0.017831986770033836,0.0011575481621548533,0.0032114731147885323,-0.16954187332307163,-0.619484209193551,-2.9071248997284695
1687011444.48454,-0.1370154768228531,0.5811752676963806,-0.802160918712616,0.007437855005264282,-0.0014786124229431152,0.005667388439178467,0.0067522525787353516,-0.0024053617380559444,-0.0018868837505578995,-0.16917532256477275,-0.620172148525054,-2.906902654805423
1687011444.5638251,-0.13727828860282898,0.5808345079421997,-0.8023627400398254,0.003947004675865173,-0.007928013801574707,-0.0025994181632995605,0.002503379015251994,-0.010390717536211014,-0.00264109019190073,-0.16945182411592014,-0.6197534976086829,-2.9070637118501903
1687011444.569611,-0.13716265559196472,0.5813177824020386,-0.802032470703125,0.0006728172302246094,-0.0004919767379760742,-0.0092926025390625,-0.011990008875727654,0.0002010738244280219,0.004212287254631519,-0.1693802129243712,-0.6203473186633641,-2.9070337354424147
1687011444.652993,-0.13714785873889923,0.5812600255012512,-0.8020768165588379,-0.0006389915943145752,0.004753768444061279,-0.0028853416442871094,0.00150023284368217,0.004619257990270853,-0.007063003256917,-0.16935308718501843,-0.6202762920342804,-2.9069675311546552
1687011444.6675491,-0.13744817674160004,0.5814454555511475,-0.801891028881073,-0.0020171254873275757,0.001470804214477539,0.007777810096740723,-0.005403480026870966,-0.007600656244903803,-0.0012285495176911354,-0.16975543369009943,-0.6205041826989199,-2.9072229302696164
1687011444.7401218,-0.13738924264907837,0.581167459487915,-0.8021026253700256,0.002608373761177063,-0.0006010532379150391,0.004006922245025635,0.009760359302163124,-0.007459642365574837,-0.0063447486609220505,-0.16964011956242087,-0.6201625594532058,-2.9070603695509583
1687011444.7536411,-0.1376277506351471,0.581177294254303,-0.8020545840263367,0.004189655184745789,-0.009644091129302979,0.00313490629196167,-0.010755900293588638,-0.009672596119344234,-0.005667240358889103,-0.16993896218316898,-0.6201746245853466,-2.907254690210208
1687011444.830494,-0.13751021027565002,0.5813562273979187,-0.8019450902938843,0.004636690020561218,-0.002346217632293701,0.0027812719345092773,0.00454755499958992,-0.00022183608962222934,0.008097573183476925,-0.16981934755285621,-0.6203945597480078,-2.9070571006427217
1687011444.836673,-0.13767586648464203,0.5818044543266296,-0.8015915155410767,-0.0008739233016967773,-0.004106700420379639,-0.01151883602142334,-0.03419557958841324,-0.022889330983161926,0.004284459166228771,-0.17009356244201873,-0.6209455184552766,-2.9070982488187602
1687011444.949858,-0.13889193534851074,0.582984209060669,-0.8005238771438599,0.00597265362739563,0.014778852462768555,-0.016507983207702637,-0.03910105302929878,-0.04160429537296295,0.030372783541679382,-0.1717911417748069,-0.6223967911520314,-2.9064004421497054
1687011444.964776,-0.1385897845029831,0.5827974081039429,-0.8007121682167053,-0.0009517967700958252,0.012661516666412354,0.00014460086822509766,0.06295940279960632,-0.035972245037555695,0.017471902072429657,-0.17138516706876658,-0.622166934229335,-2.904784357926316
1687011445.0411382,-0.1380523145198822,0.5828390717506409,-0.8007746934890747,-0.01658022403717041,-0.0018149614334106445,0.010354220867156982,-0.013075979426503181,-0.00916166789829731,0.033889755606651306,-0.17072030006852087,-0.6222182237855169,-2.9026756204863666
1687011445.054288,-0.13745643198490143,0.5815553665161133,-0.8018098473548889,0.010839015245437622,0.013827323913574219,0.007986605167388916,0.049076005816459656,-0.013217529281973839,-0.013287076726555824,-0.1697822861330331,-0.6206393449669511,-2.90129695270977
1687011445.13266,-0.13922511041164398,0.5809080004692078,-0.8019739985466003,-0.0024069398641586304,-0.015920817852020264,0.009066283702850342,-0.009079907089471817,-0.010045038536190987,0.0034005558118224144,-0.17188988155246718,-0.6198437606551693,-2.902695099540375
1687011445.145659,-0.13755083084106445,0.5816978812217712,-0.8016902804374695,0.008659854531288147,-0.01513904333114624,-0.0028904080390930176,-0.03409537672996521,0.019612455740571022,0.006168645806610584,-0.16992150703670947,-0.6208145272871421,-2.9015114388846635
1687011445.220776,-0.13845136761665344,0.5806097984313965,-0.8023238182067871,-0.0027076750993728638,0.0027642250061035156,-0.0005631446838378906,0.05614956095814705,-0.009424256160855293,-0.012671886943280697,-0.1708800619362752,-0.6194774347217245,-2.902086775247417
1687011445.234048,-0.13743709027767181,0.5809032320976257,-0.8022857904434204,0.00038267672061920166,-0.016511142253875732,0.00014650821685791016,-0.06293787807226181,0.013888922519981861,0.002348874695599079,-0.16966006520388302,-0.6198378929402396,-2.9013854567807353
1687011445.336842,-0.13817264139652252,0.58018559217453,-0.802678644657135,-0.0004992038011550903,0.005172014236450195,0.0034690499305725098,0.053750719875097275,-0.005737641826272011,-0.0028541432693600655,-0.17046874982481552,-0.6189565542195181,-2.9019203759841408
1687011445.346729,-0.13745583593845367,0.5803804397583008,-0.8026608824729919,0.001683160662651062,-0.01765155792236328,0.0025815367698669434,-0.051274098455905914,0.001480855979025364,0.0063822316005826,-0.1696049908591134,-0.6191957868867219,-2.9015515404677816
1687011445.461724,-0.1380489468574524,0.5806424021720886,-0.8023695349693298,0.0035579949617385864,0.004761099815368652,0.01320028305053711,0.06076302379369736,-0.022589193657040596,-0.01957400143146515,-0.17038342728529335,-0.6195174713951537,-2.90179592160409
1687011445.465963,-0.1377134621143341,0.5793105363845825,-0.803389310836792,0.004916250705718994,-0.02277672290802002,0.004423856735229492,-0.018376469612121582,0.014914372935891151,0.005367300473153591,-0.16976568515056034,-0.6178825913469825,-2.90122777059275
1687011445.554043,-0.13778145611286163,0.5796664953231812,-0.8031207919120789,0.002176612615585327,0.006957650184631348,-0.009836971759796143,0.012836643494665623,0.003917515277862549,-0.006473911926150322,-0.16990358356659488,-0.618319365210976,-2.9015194300837486
1687011445.565292,-0.13771161437034607,0.5791028141975403,-0.8035393357276917,-0.002714991569519043,0.003935575485229492,-0.01472848653793335,-0.001575784757733345,-0.00031225045677274466,-0.0005933856591582298,-0.16973235079998383,-0.6176277264646931,-2.9014726852192614
1687011445.6413999,-0.1382012516260147,0.5790678262710571,-0.8034804463386536,-0.003491833806037903,0.008303999900817871,0.009199440479278564,0.03058534860610962,-0.004357325844466686,-0.0009830063208937645,-0.17033650366627398,-0.6175848362890686,-2.901998377643237
1687011445.653528,-0.13766571879386902,0.5784415602684021,-0.8040233254432678,0.0025644302368164062,-0.0003013014793395996,0.004264414310455322,-0.0010858296882361174,-0.003936146851629019,0.0007768105715513229,-0.1695766739338983,-0.6168168795834289,-2.9013654732170107
1687011445.76339,-0.13799285888671875,0.5784585475921631,-0.8039550185203552,0.007972732186317444,-0.014447927474975586,0.0003966689109802246,0.0093343211337924,-0.008457395248115063,-0.007232113741338253,-0.16998609639949366,-0.6168377285604627,-2.9017109479937364
1687011445.769249,-0.13790874183177948,0.578366756439209,-0.804035484790802,0.006286457180976868,0.004213809967041016,-0.003322303295135498,-0.008048930205404758,-0.007268293760716915,0.0025552697479724884,-0.16986778136640135,-0.6167251706655517,-2.9016785469645856
1687011445.852655,-0.13829921185970306,0.5786325335502625,-0.8037771582603455,-0.0017459243535995483,0.005885899066925049,-0.0017037391662597656,0.001888188999146223,-0.00023022503592073917,-0.003056277520954609,-0.17039319733647415,-0.6170510270357924,-2.9019961167940598
1687011445.866022,-0.13804413378238678,0.5783516764640808,-0.8040231466293335,-0.0034658610820770264,0.01721411943435669,-0.010613083839416504,0.015836162492632866,0.01484686229377985,-0.0015366775915026665,-0.17003391915840402,-0.6167066805916918,-2.902020865824148
1687011446.0010328,-0.13782645761966705,0.5783358812332153,-0.8040717840194702,-0.004644826054573059,0.003756403923034668,-0.00037157535552978516,-0.018839459866285324,0.006749653723090887,0.0030098706483840942,-0.16976084697424265,-0.6166873529530189,-2.902148139632984
1687011446.014552,-0.13797573745250702,0.5785226225852966,-0.8039118647575378,-0.0007571429014205933,-0.003693521022796631,0.009798765182495117,-0.0015630682464689016,-0.004113779403269291,0.00048146583139896393,-0.16997436183734407,-0.616916258673616,-2.9022180840655234
1687011446.116576,-0.1378057599067688,0.5783233642578125,-0.8040843605995178,0.0017279237508773804,-0.009979307651519775,0.004478037357330322,-0.0018544176127761602,0.0036546611227095127,-0.00665820250287652,-0.16973324647882648,-0.6166720266701863,-2.9021959758584592
1687011446.127112,-0.13767041265964508,0.5782126784324646,-0.8041871786117554,0.006109163165092468,-0.0074271559715271,0.004016280174255371,0.011458591558039188,-0.0010205181315541267,-0.009915514849126339,-0.16954845582009218,-0.6165363055977504,-2.902261877878841
1687011446.131341,-0.13784168660640717,0.5779449343681335,-0.8043502569198608,0.0026640892028808594,0.003414928913116455,-0.00305330753326416,0.01650574803352356,0.0005649948725476861,-0.002694619819521904,-0.16972158744307067,-0.6162081824963168,-2.9026594695532477
1687011446.216913,-0.13780823349952698,0.5783002972602844,-0.804100513458252,0.00038760900497436523,0.007713496685028076,-0.012824535369873047,-0.009752954356372356,0.004219517577439547,-0.006019310560077429,-0.16973289403238423,-0.6166437467678834,-2.90295302950758
1687011446.228677,-0.1380588412284851,0.5782710909843445,-0.8040785789489746,-0.006624966859817505,0.010779201984405518,-0.01017618179321289,-5.205720663070679e-05,0.0006669939029961824,-0.0017518606036901474,-0.17004018950112837,-0.6166079495098246,-2.9033059373973393
1687011446.243231,-0.13759778439998627,0.5784252882003784,-0.8040466904640198,0.0003907829523086548,-0.007014155387878418,0.0036774277687072754,-0.013630316592752934,0.009268738329410553,-0.004362291656434536,-0.16948976106200375,-0.616796962966943,-2.9031839754095166
1687011446.263307,-0.13756243884563446,0.5783964395523071,-0.8040734529495239,0.0017439872026443481,-0.001919388771057129,0.008052945137023926,0.002965104766190052,6.07252586632967e-05,-0.0008218856528401375,-0.169441520191776,-0.6167615958671047,-2.9032579314895135
1687011446.293138,-0.1375003606081009,0.5784941911697388,-0.8040137887001038,0.003986001014709473,-0.004916369915008545,0.00631481409072876,0.011701204814016819,-0.003458109451457858,-0.0017819544300436974,-0.16937883459476602,-0.6168814378865962,-2.9032950035439904
1687011446.359654,-0.13735799491405487,0.578808069229126,-0.8038122057914734,0.010557487607002258,0.0035436153411865234,-0.0029658079147338867,-0.017007138580083847,-0.00834607519209385,-0.006757805123925209,-0.169248426611731,-0.6172662897391634,-2.903244527080446
1687011446.422467,-0.1379854530096054,0.578974187374115,-0.8035850524902344,-0.007446035742759705,0.0011802315711975098,-0.011463165283203125,0.004451747518032789,0.006036725360900164,-0.0025002090260386467,-0.1700539067302343,-0.6174699869866931,-2.903866978461999
1687011446.484013,-0.13752175867557526,0.5786699056625366,-0.8038836717605591,-0.00804707407951355,0.010410904884338379,-0.001887202262878418,-0.010532528162002563,0.011209649965167046,0.001823166385293007,-0.16943157682777457,-0.6170968422195958,-2.903647718894494
1687011446.572095,-0.13718175888061523,0.5791631937026978,-0.8035864233970642,-0.006433933973312378,0.021041274070739746,-0.004747927188873291,0.027820786461234093,0.02053936757147312,-0.0033713290467858315,-0.1690819708288406,-0.6177018461794402,-2.903970969170744
1687011446.5848088,-0.13737253844738007,0.578571081161499,-0.8039802312850952,0.008161157369613647,0.008861720561981201,0.02660602331161499,0.05339152738451958,-6.417685654014349e-05,-0.028377346694469452,-0.16923128799687198,-0.6169757197613065,-2.9053461427352283
1687011446.629539,-0.13726681470870972,0.5769661068916321,-0.8051508665084839,-0.0020611733198165894,-0.07807999849319458,0.0037134885787963867,-0.049856897443532944,-0.0003407463082112372,0.008238187991082668,-0.16886229029013103,-0.6150093117771632,-2.9060704284322987
1687011446.7231932,-0.13700653612613678,0.5771512985229492,-0.805062472820282,0.012677937746047974,-0.04075908660888672,0.002328157424926758,-0.008869650773704052,-0.013752957805991173,-0.026093685999512672,-0.1685662977535236,-0.6152360450156562,-2.9065274531432403
1687011446.736364,-0.13798385858535767,0.5754241347312927,-0.8061311841011047,0.0012041032314300537,0.0035400986671447754,-0.0032255053520202637,0.07078975439071655,-0.0009748449665494263,-0.01650550775229931,-0.16952512531902383,-0.6131226628176673,-2.9075475074904684
1687011446.778482,-0.13769376277923584,0.5744850635528564,-0.806850254535675,0.0037521421909332275,-0.0031197071075439453,-0.007679164409637451,-0.00018428312614560127,-0.006839391775429249,0.0015906719490885735,-0.16902757521727918,-0.61197487302928,-2.9071714396828683
1687011446.8697681,-0.13799116015434265,0.5754716396331787,-0.8060960173606873,-0.004083380103111267,0.006620585918426514,-0.0011854171752929688,-0.019028477370738983,-0.004050929099321365,0.007076784037053585,-0.16954117117001652,-0.6131807146982925,-2.907418774550752
1687011446.883078,-0.13748076558113098,0.5753503441810608,-0.8062698245048523,-0.0001534968614578247,0.011823117733001709,0.002253711223602295,-0.0038007893599569798,0.0046163285151124,0.004302569665014744,-0.16889024172722336,-0.6130324348939447,-2.9069909334633675
1687011446.962369,-0.13822975754737854,0.5743635892868042,-0.8068450689315796,-0.005034968256950378,-0.008064210414886475,0.0020813345909118652,0.012761276215314865,0.0005776447942480445,-0.006775115616619587,-0.16967407900192502,-0.6118265047327455,-2.9073552447351423
1687011446.968297,-0.13785170018672943,0.5752107501029968,-0.8063060641288757,0.001407623291015625,-0.0015413165092468262,0.010453402996063232,-0.0037728925235569477,0.006537932436913252,0.00037493929266929626,-0.16932980609780618,-0.612861790649274,-2.9073414314429247
1687011447.015547,-0.13796798884868622,0.5747130513191223,-0.8066410422325134,0.0049266517162323,-0.008261024951934814,-0.003829479217529297,0.0009628734551370144,-0.007684679236263037,-0.002741757780313492,-0.16940090358802734,-0.6122534291974562,-2.907320778079789
1687011447.07976,-0.1382625699043274,0.5754698514938354,-0.8060507774353027,-0.0022861063480377197,-0.004485964775085449,-0.008615970611572266,-0.026685599237680435,0.0033992640674114227,0.006476507522165775,-0.16987762695637393,-0.6131785792199421,-2.907626489800785
1687011447.1697512,-0.13801074028015137,0.5756893157958984,-0.8059372305870056,-0.002019152045249939,0.018182754516601562,-0.007524013519287109,0.010092189535498619,-0.0005737728206440806,-0.001340935006737709,-0.1695975401645086,-0.6134469176161068,-2.9073173715454392
1687011447.181818,-0.13786356151103973,0.5756796598434448,-0.8059693574905396,-0.004943430423736572,0.005573391914367676,-0.0011442899703979492,-0.01039124745875597,0.015096534043550491,0.006905277259647846,-0.16941350390877305,-0.6134351175778486,-2.9072661518128022
1687011447.2635489,-0.13767462968826294,0.5759907364845276,-0.8057793974876404,-0.0006462633609771729,0.006208360195159912,0.01064389944076538,0.011139344424009323,-0.006180259399116039,0.0043606264516711235,-0.16922488216283774,-0.6138156082193436,-2.9072752912904005
1687011447.26914,-0.13777612149715424,0.5755099058151245,-0.8061054944992065,0.0013625621795654297,-0.01900660991668701,0.007246851921081543,-0.0032873982563614845,-0.0007593951304443181,-0.004003031179308891,-0.16928004251197004,-0.6132275203653194,-2.9071658233125164
1687011447.320068,-0.13736072182655334,0.5763599276542664,-0.8055688738822937,0.006486132740974426,0.003992795944213867,-0.0017583370208740234,0.004803684540092945,-0.009424788877367973,-0.0091067124158144,-0.16888961754350268,-0.6142673301706428,-2.907018527068209
1687011447.3785272,-0.13764654099941254,0.5757660865783691,-0.8059447407722473,0.0006226450204849243,-0.0035462379455566406,-0.013940572738647461,-0.0062847197987139225,-0.0004364868509583175,0.005020291544497013,-0.1691569578320552,-0.6135408168863141,-2.9070406350946554
