Timestamp,gravityX,gravityY,gravityZ,accelerationX,accelerationY,accelerationZ,rotationRateX,rotationRateY,rotationRateZ,attitudeRoll,attitudePitch,attitudeYaw
1687008670.73568,-0.10534384846687317,0.01732882484793663,-0.9942848682403564,-0.002367950975894928,0.00397249311208725,-0.0027549266815185547,0.011135483160614967,0.009896178729832172,-0.0027220509946346283,-0.10555557728592976,-0.017329691367090724,-1.4995711642129168
1687008670.8267941,-0.10533726215362549,0.017555896192789078,-0.9942815899848938,-0.0008791759610176086,0.003028256818652153,-0.010387599468231201,-0.004586821421980858,-0.0024719408247619867,-0.00026155635714530945,-0.10554937227733206,-0.01755679839945354,-1.499690247795927
1687008670.8393822,-0.10514474660158157,0.01751352660357952,-0.9943026900291443,0.010036706924438477,-0.004650318995118141,0.003335893154144287,-0.0011395588517189026,-0.006662025116384029,0.006401139311492443,-0.1053556719243104,-0.017514421625967325,-1.4996642039030095
1687008670.9202409,-0.10531043261289597,0.01799975521862507,-0.9942764639854431,0.005029663443565369,-0.005441723391413689,0.0023331046104431152,-0.026518885046243668,-0.017098819836974144,0.0005083633586764336,-0.10552322612744228,-0.01800072812463291,-1.499652714281602
1687008670.9251661,-0.10528095066547394,0.0186122115701437,-0.9942682981491089,0.006037779152393341,0.00038502924144268036,0.002859055995941162,-0.004754201043397188,-0.0009464822360314429,-0.003948436118662357,-0.10549476020012576,-0.01861328631742673,-1.4997342516485237
1687008671.007134,-0.10507501661777496,0.0186249241232872,-0.9942898750305176,-0.0067719146609306335,-0.004495237022638321,0.004955768585205078,-0.019399989396333694,0.015026358887553215,-0.005069360602647066,-0.10528766904364893,-0.01862600083581178,-1.4998003581728208
1687008671.01226,-0.1050717830657959,0.019023451954126358,-0.9942826628684998,-0.0036013126373291016,-0.002543911337852478,0.0031023025512695312,0.00039382255636155605,0.016402414068579674,0.0004116911441087723,-0.10528520680569214,-0.01902460016548896,-1.4999043347983767
1687008671.061475,-0.1050102636218071,0.01921829953789711,-0.9942854046821594,-0.005524404346942902,0.00592823326587677,0.0003279447555541992,-0.0031152914743870497,0.0027949926443398,-0.0028789108619093895,-0.10522372992060455,-0.01921948194190948,-1.4999271638312057
1687008671.1925569,-0.10505346953868866,0.019587580114603043,-0.9942736625671387,-0.0015749558806419373,0.007573110982775688,-0.016804218292236328,0.008467128500342369,-0.010977411642670631,-0.008340255357325077,-0.10526793777779264,-0.01958883303174637,-1.5001147606871537
1687008671.205801,-0.10526705533266068,0.018984977155923843,-0.9942627549171448,0.007824420928955078,-0.0027190614491701126,-0.013915956020355225,0.006759909447282553,-0.016466187313199043,0.0008481834083795547,-0.10548152716851601,-0.01898611705397954,-1.5002046781557448
1687008671.277384,-0.1055014431476593,0.018983427435159683,-0.9942379593849182,0.005602136254310608,-0.008027566596865654,0.007360517978668213,-0.007271154783666134,-0.005753221455961466,0.0023502055555582047,-0.10571726540376716,-0.018984567227335096,-1.5002078201115474
1687008671.28969,-0.10553912818431854,0.01921725831925869,-0.9942294359207153,-0.0030424296855926514,-0.00397367961704731,0.006863713264465332,-0.003938274458050728,0.0008901667315512896,0.0011893343180418015,-0.1057556415196809,-0.019218441619270436,-1.500219973111923
1687008671.367463,-0.10557340830564499,0.01937190815806389,-0.9942228198051453,-0.006334558129310608,0.0066748932003974915,-0.005578815937042236,0.009707562625408173,0.0066507174633443356,-0.0012943297624588013,-0.10579044048143836,-0.01937311978686701,-1.5002578918285827
1687008671.372397,-0.10556897521018982,0.019371969625353813,-0.9942232966423035,-0.0024785175919532776,-0.005577977746725082,0.006369292736053467,-0.014942123554646969,0.0031590471044182777,0.005966245196759701,-0.10578598018783145,-0.01937318216400209,-1.5003454375928649
1687008671.457515,-0.10559967160224915,0.019783038645982742,-0.9942119121551514,-0.0026919692754745483,0.0007706023752689362,-0.007664918899536133,0.004876588471233845,0.0007305102190002799,-0.0001989714801311493,-0.10581771136589799,-0.019784328569463886,-1.500312919538734
1687008671.463675,-0.10567477345466614,0.0195829626172781,-0.9942079186439514,0.007301352918148041,-0.006094144657254219,-0.012658536434173584,0.006745595019310713,-0.01852867193520069,0.00011315103620290756,-0.10589283377716179,-0.019584214824172927,-1.5003101779735097
1687008671.5459971,-0.10577335208654404,0.01966140791773796,-0.9941958785057068,0.00263918936252594,-0.0023426320403814316,-5.155801773071289e-05,-0.014693183824419975,-0.010830671526491642,0.0008716192096471786,-0.10599215127279421,-0.019662674190741466,-1.5003249677118944
1687008671.5578551,-0.10614707320928574,0.019774217158555984,-0.9941537976264954,-0.006767965853214264,-0.0013568121939897537,0.009656786918640137,-0.0046631209552288055,0.005873340647667646,0.0006124936044216156,-0.10636829953605555,-0.019775505937153708,-1.5003606729909373
1687008671.603574,-0.10587362945079803,0.019436532631516457,-0.9941896200180054,-0.007148228585720062,-0.0034300144761800766,0.013491988182067871,0.012525918893516064,0.01658470742404461,-0.0004759402945637703,-0.10609254766119258,-0.01943775702166991,-1.5003195493444672
1687008671.695825,-0.10566266626119614,0.02004816010594368,-0.9941999316215515,0.0002549365162849426,0.0125446617603302,-0.0008562207221984863,-0.0036559798754751682,0.008960876613855362,-0.00045223813503980637,-0.10588163111056628,-0.02004950337938395,-1.5003839864183746
1687008671.7066522,-0.10561541467905045,0.01997235044836998,-0.9942064881324768,-0.005666941404342651,0.00947716273367405,-0.011164605617523193,0.009599970653653145,0.006236861925572157,0.0014511225745081902,-0.10583394613735861,-0.019973679159897888,-1.50034822147986
1687008671.754527,-0.10542836785316467,0.01941913366317749,-0.9942372441291809,0.007192276418209076,-0.015238182619214058,-0.009958863258361816,-0.0007701120339334011,-0.011602588929235935,0.0010210219770669937,-0.1056446580490271,-0.019420354884640393,-1.5002462479749015
1687008671.848634,-0.10542867332696915,0.019497228786349297,-0.9942356944084167,0.004735924303531647,0.0032384097576141357,0.0046727657318115234,0.01808387041091919,-0.013605818152427673,-0.004198773764073849,-0.10564512560208053,-0.019498463774464393,-1.5002527983162508
1687008671.8617911,-0.10536301881074905,0.01855081133544445,-0.9942607879638672,0.0001994296908378601,-0.0036429259926080704,-0.0012378692626953125,-0.0031524428632110357,-0.016988566145300865,-0.0008008461445569992,-0.1055771805051619,-0.018551875788155276,-1.500249779524423
1687008671.901074,-0.10551764070987701,0.01874101161956787,-0.9942408204078674,-0.0019500181078910828,-0.007769891992211342,0.011986792087554932,-0.0024467715993523598,0.006160828750580549,0.0050117699429392815,-0.10573307569067072,-0.01874210881173845,-1.500243611428684
1687008671.961121,-0.1058400571346283,0.01661161705851555,-0.994244396686554,-0.000849403440952301,0.016606813296675682,0.009991466999053955,0.1545274704694748,-0.004029357340186834,-0.006888832431286573,-0.10605335267117605,-0.016612380315880443,-1.5003495674881304
1687008672.057704,-0.10518326610326767,0.00930754467844963,-0.9944093227386475,-0.04957138001918793,-0.02465783804655075,0.03902602195739746,0.15269315242767334,0.17396953701972961,-0.022734906524419785,-0.10538277293642978,-0.009307679410980395,-1.5002542144765738
1687008672.062835,-0.09472140669822693,-0.015888795256614685,-0.9953770041465759,-0.018254674971103668,0.08743730187416077,-0.05114704370498657,0.6690307855606079,0.26652851700782776,0.01573631912469864,-0.0948756387306489,0.015889463792846354,-1.4990587145486334
1687008672.175418,-0.07987015694379807,-0.017528578639030457,-0.9966511726379395,0.03204909712076187,-0.22333136200904846,0.012993335723876953,-0.522208571434021,0.24639207124710083,0.015836186707019806,-0.07996762954286422,0.017529476478583828,-1.4963544658347843
1687008672.182023,-0.06683285534381866,0.010537121444940567,-0.9977085590362549,0.01902705430984497,0.03813846409320831,0.13505291938781738,-0.3899471163749695,0.22864076495170593,0.12959551811218262,-0.06688643032686474,-0.010537316087383149,-1.4954507345961732
1687008672.26804,-0.05156785994768143,0.019904054701328278,-0.9984711408615112,-0.03873366862535477,0.0779963806271553,-0.06528007984161377,0.021466150879859924,0.364397257566452,0.17409533262252808,-0.05160097471541451,-0.019905368867784174,-1.489652035420671
1687008672.272994,-0.039599739015102386,0.01521945558488369,-0.9990997314453125,0.03367931395769119,-0.02107878401875496,0.0548248291015625,0.08351434022188187,0.09270770847797394,0.06902936846017838,-0.03961468582479442,-0.015220043199673471,-1.4814762394452803
1687008672.356909,-0.036422982811927795,0.01783834956586361,-0.9991772174835205,-0.0069425068795681,-0.016190355643630028,0.003983795642852783,-0.13871552050113678,0.055740900337696075,0.0024354271590709686,-0.036436840268588164,-0.017839296324341305,-1.4801096889742125
1687008672.362049,-0.0352964922785759,0.024879630655050278,-0.9990671277046204,0.0027037039399147034,0.025047175586223602,-0.01591700315475464,-0.11406911164522171,0.001543573453091085,-0.017442140728235245,-0.035314761047463145,-0.02488219869373493,-1.481531906892545
1687008672.503403,-0.03415225073695183,0.027817964553833008,-0.9990293979644775,0.013461321592330933,0.021681591868400574,-0.010064780712127686,0.009862026199698448,0.014234600588679314,0.024393189698457718,-0.034172124100859465,-0.02782155322163245,-1.4812875090527617
1687008672.508991,-0.03529726713895798,0.025242028757929802,-0.9990580081939697,0.003726821392774582,0.0016134865581989288,-0.011775672435760498,0.058300264179706573,-0.04048031195998192,-0.002769455313682556,-0.035315858721450585,-0.025244710297587493,-1.4806762564508913
1687008672.6012402,-0.03609197959303856,0.023904701694846153,-0.9990625381469727,-0.0031078681349754333,-0.014978263527154922,0.014824867248535156,0.015630299225449562,-0.005825659725815058,0.004546781070530415,-0.03611014209016657,-0.023906979286585316,-1.480453607026717
1687008672.611691,-0.036638710647821426,0.024414557963609695,-0.9990302920341492,-0.005780741572380066,-0.006073446944355965,0.01856154203414917,-0.04251835495233536,-0.016801079735159874,-0.010688897222280502,-0.036657843077928236,-0.024416984017212796,-1.4804828967470807
1687008672.61534,-0.03662047162652016,0.024676689878106117,-0.999024510383606,-0.008133567869663239,0.015759147703647614,0.0004131197929382324,0.05506991967558861,0.017352230846881866,0.0005664210766553879,-0.036639825053393874,-0.024679195593536,-1.480593606526267
1687008672.650638,-0.036796554923057556,0.022407712414860725,-0.9990715384483337,-0.0019150078296661377,-0.025322094559669495,0.0017570853233337402,-0.011851059272885323,0.0033211002591997385,-0.0026498790830373764,-0.036814110537404944,-0.022409588368715885,-1.4806009745952056
1687008672.748611,-0.036575473845005035,0.02420813776552677,-0.9990376234054565,0.0061952099204063416,0.0033187642693519592,-0.005890965461730957,-0.02058343216776848,-0.00865486916154623,0.00307352002710104,-0.0365943632962517,-0.024210503316290623,-1.4804880524846504
1687008672.758923,-0.036633916199207306,0.02300918847322464,-0.9990638494491577,0.005139760673046112,0.00955311581492424,-0.023137688636779785,0.05256488174200058,5.752954166382551e-05,0.008403037674725056,-0.03665182452889197,-0.023011219805098092,-1.4804672285157137
1687008672.836667,-0.038114771246910095,0.02114146016538143,-0.999049723148346,0.009245127439498901,-0.0240253247320652,0.022426187992095947,-0.011675023473799229,-0.05525725707411766,-0.01945682242512703,-0.038132533685043324,-0.02114303629442614,-1.4805759994877796
1687008672.9276838,-0.0380888432264328,0.022497210651636124,-0.999021053314209,-0.0065126121044158936,9.547919034957886e-06,0.01420360803604126,-0.02758800983428955,0.02323741652071476,0.007570800371468067,-0.03810770732934917,-0.022499109560459654,-1.480873516879723
1687008672.940481,-0.03973574563860893,0.024140138179063797,-0.9989185929298401,-0.012250963598489761,0.028716353699564934,0.007432997226715088,0.0037037990987300873,-0.05465671420097351,-0.022454209625720978,-0.03975780262136913,-0.024142482735975898,-1.4814395891560845
1687008673.0171819,-0.04463770240545273,0.015076070092618465,-0.9988895058631897,0.0027370527386665344,0.02096523717045784,0.0455356240272522,0.35437726974487305,-0.10777000337839127,0.1691455841064453,-0.04465761729653529,-0.015076641632842998,-1.4796759056411533
1687008673.02947,-0.05468245968222618,0.0004698301781900227,-0.9985036849975586,0.005030345171689987,-0.03294048458337784,-0.056733131408691406,0.10952397435903549,-0.2500872015953064,-0.08706915378570557,-0.05470975359958365,-0.00046983019112736683,-1.4812415423727197
1687008673.13781,-0.05665036663413048,0.015084447339177132,-0.9982801079750061,-0.011510655283927917,-0.1149989515542984,-0.0010027289390563965,-0.5864823460578918,0.011524168774485588,0.01881146803498268,-0.05668716993117888,-0.015085019004827813,-1.4830757613208696
1687008673.143204,-0.0688212588429451,0.025902632623910904,-0.997292697429657,0.0773661658167839,0.17496411502361298,0.11718100309371948,0.47082406282424927,-0.5722134113311768,-0.2709484398365021,-0.06889885796208184,-0.02590553050255588,-1.4885218327413672
1687008673.228256,-0.08533288538455963,0.03474989905953407,-0.9957463145256042,-0.0029697418212890625,-0.2627466917037964,0.029773414134979248,-0.6388623714447021,-0.06681191921234131,-0.022318921983242035,-0.08548854233248736,-0.034756896959451285,-1.4940315404809692
1687008673.241687,-0.08833776414394379,0.04771513119339943,-0.994947075843811,-0.01169886440038681,0.13551244139671326,0.03741234540939331,0.11144204437732697,-0.08358942717313766,0.04637784883379936,-0.08855418889961866,-0.0477332570733914,-1.4934999574172418
1687008673.318409,-0.09079307317733765,0.04953652620315552,-0.9946370124816895,-0.0008054524660110474,-0.39310336112976074,-0.04366254806518555,-0.10511329025030136,0.03984542191028595,0.15829506516456604,-0.09103034284466396,-0.049556807570295146,-1.4932618107541897
1687008673.3312712,-0.08982297033071518,0.04755149781703949,-0.9948219656944275,-0.006505779922008514,0.015589412301778793,0.01792377233505249,0.045205771923065186,0.013943783938884735,-0.0156096201390028,-0.09004633016745842,-0.04756943686533158,-1.4929884790369699
1687008673.4054232,-0.08922901749610901,0.05038266256451607,-0.9947360157966614,-0.007526978850364685,-0.0022106170654296875,-0.018371284008026123,-0.08453232049942017,0.013371070846915245,0.006520981900393963,-0.08946176703430356,-0.05040400110466119,-1.4928655892322316
1687008673.4105,-0.08842327445745468,0.05199192464351654,-0.9947251677513123,0.013136401772499084,0.01867157220840454,-0.002497732639312744,0.03717167675495148,0.002279138658195734,-0.003810218535363674,-0.08865913588127133,-0.052015375727691444,-1.493153805186581
1687008673.497242,-0.0877649337053299,0.052486397325992584,-0.9947575330734253,0.00033205747604370117,-0.021938256919384003,0.009497523307800293,-0.11288852244615555,0.012934979051351547,0.0008734827861189842,-0.08799960535682409,-0.05251052412036962,-1.4934785738461542
1687008673.509966,-0.08643155544996262,0.059887178242206573,-0.9944561719894409,-0.0009250268340110779,-0.017543993890285492,0.002955317497253418,-0.131282240152359,0.025294043123722076,0.011727995239198208,-0.08669552486298565,-0.059923033077030015,-1.4942597353511664
1687008673.552209,-0.0872267335653305,0.05957876145839691,-0.9944052696228027,-0.011497639119625092,0.025550059974193573,0.01134258508682251,0.08476609736680984,0.004885574337095022,0.006912467069923878,-0.0874935432021654,-0.05961406517568828,-1.4934816129686828
1687008673.623281,-0.08759115636348724,0.05752922594547272,-0.9944939017295837,-0.01542094349861145,0.005474358797073364,0.0027794837951660156,0.028979994356632233,0.009264743886888027,-0.006160191725939512,-0.08784941296429451,-0.05756100621119835,-1.493104431192177
1687008673.627449,-0.08643382787704468,0.05612986162304878,-0.9946751594543457,0.00832407921552658,0.0018688365817070007,-0.014815807342529297,0.03803374245762825,0.010832945816218853,-0.004588659852743149,-0.08667880917203483,-0.05615937853245481,-1.4932112349977855
1687008673.6678271,-0.08747996389865875,0.05541788786649704,-0.994623601436615,-0.0043169185519218445,-0.008664917200803757,-0.01445537805557251,-0.022688060998916626,-0.02783775143325329,0.0013030506670475006,-0.08772708892876936,-0.05544629170357982,-1.4931732257021673
1687008673.7634192,-0.0869775116443634,0.05462363734841347,-0.9947115778923035,0.008883021771907806,0.007143978029489517,0.005133390426635742,0.04447173699736595,0.0011756577296182513,-0.005607851780951023,-0.08721809633691217,-0.05465083598631486,-1.4930209311342604
1687008673.8659592,-0.08707116544246674,0.05328550934791565,-0.9947760105133057,-0.0005448088049888611,-0.016633853316307068,0.014703989028930664,-0.02944210357964039,0.008142620325088501,0.00427993293851614,-0.08730591458999384,-0.05331075821421462,-1.4929409833952456
1687008673.875441,-0.08707715570926666,0.05485571548342705,-0.9946901202201843,-0.005040161311626434,0.006698284298181534,0.004623591899871826,0.007018235977739096,0.011296468786895275,-0.0055625783279538155,-0.08731938935188102,-0.054883263064776755,-1.4929238802539027
1687008673.946029,-0.08712826669216156,0.05368910729885101,-0.9947493076324463,-0.007781416177749634,0.00749867781996727,0.007444620132446289,0.04126349091529846,0.009769545868039131,-0.007439307868480682,-0.08736520820288911,-0.05371493522252182,-1.4929714364428992
1687008673.9573011,-0.0873136892914772,0.052483271807432175,-0.9947973489761353,-0.0063295140862464905,0.008735038340091705,-0.01336604356765747,0.022025015205144882,-0.0004930790164507926,-0.008005496114492416,-0.0875459774799593,-0.05250739538035915,-1.4930953118463086
1687008674.000745,-0.08718977868556976,0.050925854593515396,-0.9948891997337341,0.0019389167428016663,0.001854337751865387,-0.00854402780532837,0.05842643231153488,-0.0045783682726323605,-0.015632789582014084,-0.08741434694599072,-0.050947893557819444,-1.4935103715604958
1687008674.1290169,-0.08823726326227188,0.04623505845665932,-0.9950258731842041,0.0011553391814231873,-0.0011300332844257355,0.010147333145141602,0.08331234753131866,-0.010342780500650406,-0.017318569123744965,-0.08844699771648608,-0.04625154682714385,-1.494092579349344
1687008674.143069,-0.08863406628370285,0.044660162180662155,-0.995062530040741,-0.0009808018803596497,-0.001157313585281372,0.028082609176635742,0.03742807358503342,0.0022976475302129984,-0.01164097711443901,-0.08883940504540301,-0.044675021045738304,-1.4943901396684987
1687008674.248152,-0.08718036115169525,0.04219493642449379,-0.9952985048294067,-0.0009391531348228455,-0.01733832061290741,0.0037824511528015137,0.07139063626527786,0.05254870280623436,-0.0022040661424398422,-0.08736918747137083,-0.04220746631104755,-1.494694852976089
1687008674.259076,-0.08396711200475693,0.03424113616347313,-0.9958800673484802,-0.00996600091457367,0.025329221040010452,0.010147035121917725,0.2887324094772339,0.10525266081094742,-0.006912534590810537,-0.08411553701971759,-0.03424782915961117,-1.4948226368433095
1687008674.337401,-0.0802321806550026,0.014595363289117813,-0.996669352054596,-0.0105118528008461,0.015372947789728642,0.0024219155311584473,0.4920913875102997,0.11167673021554947,-0.02252558246254921,-0.08032708160467844,-0.014595881579920703,-1.4940130231005058
1687008674.342876,-0.07332558929920197,-0.012920007109642029,-0.9972243905067444,-0.0061727166175842285,0.009700453840196133,-0.032850682735443115,0.5730621218681335,0.1671580970287323,-0.01007557101547718,-0.07339759523542631,0.012920366811870133,-1.4930790561023561
1687008674.426554,-0.06249576434493065,-0.03239975497126579,-0.9975191950798035,0.006801173090934753,-0.09333261847496033,-0.005318939685821533,0.19311359524726868,0.2120555341243744,0.1276407539844513,-0.06256941115610765,0.03240542461689972,-1.4911563843043742
1687008674.4321399,-0.055984437465667725,-0.035088472068309784,-0.9978148937225342,0.00978080928325653,-0.11464597284793854,0.00446772575378418,-0.17298708856105804,0.1293799728155136,0.016906511038541794,-0.05604827388869983,0.03509567621076649,-1.4897882128856608
1687008674.5131168,-0.051645975559949875,-0.028387347236275673,-0.9982619285583496,-0.002904210239648819,0.0528624951839447,-0.005720615386962891,-0.004239611327648163,0.0484590157866478,0.02260061725974083,-0.051689811144579344,0.028391161988971125,-1.4889327792989062
1687008674.522276,-0.050083812326192856,-0.029202943667769432,-0.9983179569244385,-0.01020367443561554,0.01402050256729126,-0.008334815502166748,0.02918066270649433,0.0608014352619648,0.03209611773490906,-0.050126171076043384,0.029207095857702963,-1.4873417840635927
1687008674.605445,-0.04811925068497658,-0.029935624450445175,-0.9983928799629211,0.007759742438793182,-0.019472282379865646,0.019892573356628418,-0.006362417712807655,0.01586432382464409,0.021227490156888962,-0.048159441027298244,0.029940096491906414,-1.4857810551981105
1687008674.610657,-0.047865577042102814,-0.027445567771792412,-0.9984766244888306,-0.010712925344705582,0.00884515792131424,-0.020306885242462158,-0.052640367299318314,0.02793310396373272,0.017700131982564926,-0.04790193195158513,0.027449015135279163,-1.4849010841117602
1687008674.69514,-0.0455627478659153,-0.027892697602510452,-0.9985719919204712,0.015518177300691605,-0.00889619067311287,-0.0018094778060913086,0.023119907826185226,0.011710457503795624,0.024988673627376556,-0.045596279840431624,0.0278963152708079,-1.4838900742216279
1687008674.708014,-0.045638974756002426,-0.02901994250714779,-0.9985364079475403,0.0002593211829662323,-0.0073416996747255325,-0.004835784435272217,0.007864056155085564,0.01002560742199421,0.016797587275505066,-0.04567408409134928,0.029024016787399787,-1.483011715211453
1687008674.75263,-0.046018097549676895,-0.029033010825514793,-0.9985185861587524,0.0006231889128684998,-6.54458999633789e-05,0.007384002208709717,0.006604647263884544,-0.012887164950370789,0.0013778861612081528,-0.04605378385851554,0.029037091481952302,-1.4827320023774653
1687008674.84831,-0.04568890854716301,-0.0284207072108984,-0.9985513687133789,-0.005244944244623184,0.0004513990134000778,0.0017709732055664062,-0.01724429242312908,0.009688053280115128,-0.007993778213858604,-0.04572330062980877,0.028424534615194837,-1.4829241832662656
1687008674.860749,-0.045993976294994354,-0.028127538040280342,-0.9985456466674805,0.0013467445969581604,-0.0016575660556554794,0.006373405456542969,-0.019621362909674644,-0.018153831362724304,-0.009638812392950058,-0.046028434109835564,0.028131248385328756,-1.4832606551811511
1687008674.90166,-0.046493276953697205,-0.026525825262069702,-0.9985663294792175,-0.006469991058111191,0.00432434119284153,-0.008467912673950195,-0.019216829910874367,0.0008270498365163803,-0.0016093822196125984,-0.046526425386420656,0.026528936129208425,-1.4835501694129243
1687008675.030778,-0.04594084620475769,-0.02705560252070427,-0.9985777139663696,0.0012478381395339966,0.004945667460560799,-0.01958024501800537,0.04437512904405594,-0.005885048303753138,0.004166481085121632,-0.04597386227224656,0.027058903639183077,-1.4835857239134027
1687008675.04408,-0.04611258581280708,-0.027814647182822227,-0.9985489249229431,0.0012059547007083893,0.002576664090156555,-0.00920248031616211,-0.002868549432605505,0.002289791125804186,0.0038290591910481453,-0.0461468099197084,0.027818234692369725,-1.4835478992092261
1687008675.114283,-0.04636172950267792,-0.026866644620895386,-0.9985633492469788,-0.003183577209711075,0.005931638181209564,0.0014472603797912598,-0.023152783513069153,0.002724951598793268,0.0018953382968902588,-0.046395111755856554,0.02686987826720039,-1.4835875484309664
1687008675.1251268,-0.046656034886837006,-0.026354532688856125,-0.998563289642334,0.0009712055325508118,-0.004986967891454697,0.024335384368896484,-0.004953737836331129,-0.009807217866182327,-0.010299809277057648,-0.04668920820215881,0.026357584755733823,-1.483782340199931
1687008675.206409,-0.0467938669025898,-0.027285782620310783,-0.9985318183898926,-0.000752527266740799,-0.004070974886417389,0.018368303775787354,0.03389778733253479,0.0075872186571359634,-0.01915881410241127,-0.04682840999327572,0.02728916908241526,-1.4843301661399422
1687008675.212405,-0.04640250280499458,-0.02941933088004589,-0.998489499092102,-0.0030359849333763123,0.01251264475286007,-0.013549625873565674,0.08260040730237961,0.007084280252456665,-0.004389988258481026,-0.04643928666025614,0.029423575474367667,-1.4846712337216923
1687008675.296202,-0.04892563074827194,-0.03406800702214241,-0.998221218585968,0.038427576422691345,-0.014332816004753113,0.023810267448425293,0.17975471913814545,-0.17263421416282654,-0.049573712050914764,-0.04897362228080962,0.03407460115321225,-1.4856623718547186
1687008675.30917,-0.057089079171419144,-0.04102405905723572,-0.9975258708000183,-0.004800580441951752,-0.1363440454006195,-0.01413184404373169,-0.21723896265029907,-0.09689418226480484,-0.018770258873701096,-0.05716831532123704,0.041035574791918536,-1.4870081974986726
1687008675.352888,-0.05877487361431122,-0.024044504389166832,-0.9979816675186157,0.007978349924087524,0.03817419707775116,0.03843271732330322,-0.18737027049064636,-0.06171116232872009,-0.020273346453905106,-0.058825790801417054,0.024046822646059052,-1.4886723159275839
1687008675.4499469,-0.0681789219379425,-0.03310271352529526,-0.9971237778663635,-0.02926371991634369,0.10939671099185944,-0.08728784322738647,0.3377428948879242,-0.18678626418113708,-0.0335308276116848,-0.06826932197717002,0.03310876305073936,-1.4900416789409274
1687008675.4621491,-0.07320477068424225,-0.037545181810855865,-0.9966099858283997,-0.0027992725372314453,-0.033987969160079956,0.04559069871902466,-0.034451376646757126,-0.07432988286018372,0.022407270967960358,-0.07332210259395852,0.037554009264030776,-1.4896393031109312
1687008675.50124,-0.0811581015586853,-0.02459142357110977,-0.996397852897644,-0.006259515881538391,-0.13692280650138855,-0.017716526985168457,-0.6531217098236084,-0.17595623433589935,-0.005775098688900471,-0.08127209085145605,0.024593902274641213,-1.4892437336578639
1687008675.628047,-0.08605794608592987,0.013338619843125343,-0.9962008595466614,-0.019609183073043823,0.16030645370483398,0.018066704273223877,-0.41130292415618896,-0.019049320369958878,0.051985401660203934,-0.08617220831010301,-0.01333901506426044,-1.4913289899460551
1687008675.6414418,-0.08948991447687149,0.02216351591050625,-0.995741069316864,0.031521767377853394,-0.09061439335346222,-0.02778792381286621,-0.2871432900428772,-0.14647279679775238,0.005056777037680149,-0.08963187204578502,-0.02216533102812362,-1.4911816370507356
1687008675.7163959,-0.09633316099643707,0.043045397847890854,-0.9944179058074951,-0.016124114394187927,0.01893584057688713,0.016176998615264893,-0.3440927267074585,-0.08131668716669083,0.015322196297347546,-0.09657257556315343,-0.043058702143544514,-1.4935674707117976
1687008675.729629,-0.09893317520618439,0.05077177658677101,-0.993798017501831,0.00997442752122879,0.02398107200860977,0.023247480392456055,-0.09490180015563965,0.009175927378237247,-0.023697372525930405,-0.09922367233736705,-0.05079361588692546,-1.4934628579266236
1687008675.864204,-0.09806834161281586,0.05637342482805252,-0.9935817122459412,0.0007783025503158569,-0.009757786989212036,0.022863388061523438,-0.060981255024671555,0.0032887430861592293,0.008087187074124813,-0.09838318064008714,-0.05640332774047365,-1.4939510974452384
1687008675.877973,-0.09784858673810959,0.058300502598285675,-0.9934921860694885,-0.015356376767158508,-0.008099041879177094,0.008567869663238525,-0.026668686419725418,0.025516817346215248,-0.013905729167163372,-0.09817292517239318,-0.058333580148432415,-1.494453425315096
1687008675.926929,-0.09677524119615555,0.05852806568145752,-0.9935839176177979,0.004688441753387451,-0.001719549298286438,-0.010535955429077148,0.0037477409932762384,0.013686123304069042,-0.0060470071621239185,-0.09709390766690315,-0.05856153209508073,-1.4951067575610053
1687008675.931149,-0.09698990732431412,0.0594211146235466,-0.9935100078582764,0.0003102123737335205,-0.007358085364103317,-0.020283937454223633,-0.05267765372991562,-0.0029118950478732586,0.0024346280843019485,-0.09731511842255525,-0.05945613893212705,-1.4953662682588507
1687008675.93511,-0.09605878591537476,0.062085218727588654,-0.9934375286102295,0.006108209490776062,-0.01766684278845787,0.010817289352416992,-0.04321923479437828,0.020192492753267288,-0.01687195897102356,-0.0963936617500713,-0.06212517448922376,-1.496015980020932
1687008675.9853802,-0.0952986478805542,0.06163391098380089,-0.9935388565063477,0.009391658008098602,0.020702559500932693,-0.0012731552124023438,0.04497333988547325,0.001093898550607264,-0.0041055623441934586,-0.0956258442297557,-0.061673001406254785,-1.4964834402435347
1687008676.104162,-0.09583639353513718,0.06035787984728813,-0.9935654401779175,-0.00398661196231842,-0.00934770330786705,0.0044296979904174805,0.005576600320637226,-0.0039944699965417385,0.002552339807152748,-0.09615956789671265,-0.06039458956258238,-1.4963730042709316
1687008676.1108298,-0.09533441811800003,0.060438238084316254,-0.993608832359314,-0.0022760704159736633,-0.005628623068332672,0.00738757848739624,-0.0025837912689894438,0.01327732764184475,-0.007325324695557356,-0.09565481744835448,-0.06047509492157756,-1.4965449137404703
1687008676.197278,-0.09547984600067139,0.060509130358695984,-0.9935905933380127,-0.006540432572364807,0.0098949633538723,0.0008080005645751953,0.011405261233448982,0.00458610150963068,-0.006367119029164314,-0.0958015945929397,-0.06054611691697069,-1.4966969254637934
1687008676.210583,-0.09548867493867874,0.06106946989893913,-0.9935554265975952,-0.0047768279910087585,-0.0002631545066833496,-0.01318889856338501,-0.0076294164173305035,0.00030134187545627356,0.0030796462669968605,-0.0958137694496666,-0.06110749400102817,-1.4968030290235574
1687008676.315664,-0.09503567963838577,0.060744620859622955,-0.9936187863349915,0.008381009101867676,-0.0024560056626796722,0.0020569562911987305,0.029700646176934242,-0.004137614741921425,-0.013901202008128166,-0.09535594419982735,-0.06078203944761677,-1.4969728045490662
1687008676.329304,-0.09382887929677963,0.05750303715467453,-0.9939263463020325,0.0006587058305740356,-0.02031732350587845,0.004546463489532471,0.05705530196428299,0.05196933075785637,-0.0063303676433861256,-0.09412330921071863,-0.0575347744788374,-1.4972163770914346
1687008676.40582,-0.09109632670879364,0.05426466837525368,-0.9943625330924988,0.006867796182632446,-0.0003705844283103943,0.01044529676437378,0.07931973040103912,0.0533754788339138,-0.006633435375988483,-0.09135777498889443,-0.054291337050421454,-1.497207013235111
1687008676.4121451,-0.08891450613737106,0.04822896793484688,-0.9948709607124329,-0.0013412386178970337,-0.0037495531141757965,0.01627904176712036,0.16528409719467163,0.06421653926372528,-0.012806376442313194,-0.08913608615269022,-0.04824768568914962,-1.4974354393838474
1687008676.497604,-0.08428070694208145,0.033504411578178406,-0.9958786368370056,-0.008355416357517242,0.038501862436532974,-0.019547998905181885,0.40371713042259216,0.1358775496482849,0.005371828563511372,-0.08442831533459959,-0.033510681556742604,-1.496433903061023
1687008676.510432,-0.0793699249625206,0.01456639263778925,-0.9967387914657593,0.0039914995431900024,-0.0025424212217330933,0.0023083090782165527,0.34636354446411133,0.07929043471813202,-0.0013577127829194069,-0.0794619398837237,-0.014566907752977849,-1.4943657819566472
1687008676.5901098,-0.07552140206098557,0.0012482533929869533,-0.9971433877944946,-0.007364347577095032,-0.040432773530483246,-0.03139054775238037,0.14088888466358185,0.10432854294776917,0.0038809916004538536,-0.07559343669795728,-0.0012482537729615393,-1.4935402844500956
1687008676.595742,-0.06821746379137039,-0.0030174441635608673,-0.9976659417152405,0.007533244788646698,0.03632742911577225,-0.02603095769882202,0.05564476177096367,0.11250031739473343,-2.240389585494995e-05,-0.06827079365023347,0.0030174487269697572,-1.4924260756806778
1687008676.677583,-0.06420894712209702,-0.004706257954239845,-0.9979254007339478,0.0051726773381233215,0.010046884417533875,-0.012572646141052246,0.03999176621437073,0.08011601120233536,0.00099891796708107,-0.0642538595951329,0.00470627547619379,-1.4921319683567933
1687008676.767346,-0.05965954065322876,-0.0048052361235022545,-0.9982072114944458,-0.0032982341945171356,-0.03125123307108879,0.0033951997756958008,-0.11973544955253601,0.10171212255954742,-0.004345247521996498,-0.059695679056337825,0.0048052543840995015,-1.4922523683981688
1687008676.78126,-0.05543579161167145,-0.001297759939916432,-0.9984614253044128,0.010101914405822754,0.07808003574609756,0.021212279796600342,0.11514277011156082,0.0626860186457634,0.03492306172847748,-0.05546427014638592,0.001297760255418985,-1.4915603022394677
1687008676.8547,-0.05233069136738777,-0.010653980076313019,-0.9985730051994324,-0.0015633627772331238,-0.013775289990007877,0.014640510082244873,0.20343023538589478,0.08791295439004898,0.04834805801510811,-0.052357580345530896,0.010654181799115352,-1.4884561695628193
1687008676.860042,-0.048731591552495956,-0.018326211720705032,-0.9986437559127808,0.010920297354459763,-0.02181961014866829,0.009340167045593262,0.08361867070198059,0.042101651430130005,0.055719953030347824,-0.048759093822950746,0.018327237880185813,-1.4850593813454798
1687008676.9480991,-0.04780483990907669,-0.016721682623028755,-0.9987167119979858,0.006957046687602997,-0.017351143062114716,-0.02830660343170166,-0.10195338726043701,0.029417946934700012,0.0249473936855793,-0.047829758364116876,0.016722461528693555,-1.4836173293911423
1687008676.961092,-0.0454070009291172,-0.013401585631072521,-0.9988786578178406,-0.0006440356373786926,0.0103803975507617,0.010063409805297852,-0.03938261792063713,0.023272836580872536,0.009951134212315083,-0.045426701752687294,0.013401987062571515,-1.4830679284681874
1687008677.0028958,-0.04533246532082558,-0.014211602509021759,-0.998870849609375,0.0018601641058921814,-0.015268325805664062,0.012710630893707275,0.007288946304470301,0.009540646336972713,0.020397383719682693,-0.04535259045025819,0.01421208055591352,-1.4823704944269567
1687008677.1008759,-0.045603614300489426,-0.014234566129744053,-0.9988582134246826,0.0009411238133907318,-0.007722780108451843,0.011111021041870117,-0.009181905537843704,-0.0254793893545866,0.0013832123950123787,-0.0456240604608462,0.014235047185859792,-1.4819676374845376
1687008677.1129,-0.046531230211257935,-0.012238890863955021,-0.9988418817520142,0.00951339676976204,0.0009016608819365501,-0.00427091121673584,-0.04270277917385101,-0.02615543268620968,-0.01157945767045021,-0.046551528460805756,0.012239196307011887,-1.4822744849092837
1687008677.187282,-0.04702099412679672,-0.01204448752105236,-0.9988212585449219,-0.000815320760011673,0.006993879564106464,-0.01225656270980835,0.027035752311348915,-0.023376023396849632,-0.0010280134156346321,-0.047041753785017404,0.01204477879410756,-1.482526395883206
1687008677.306689,-0.04775658994913101,-0.013277665711939335,-0.9987707734107971,0.006451036781072617,-0.008206658996641636,-0.02204221487045288,0.005036910995841026,-0.025046225637197495,-0.0020578578114509583,-0.047778978365496494,0.013278056222417492,-1.4827031693655646
1687008677.312484,-0.04840494319796562,-0.013615158386528492,-0.9987350106239319,0.001545187085866928,0.002277929335832596,0.0006118416786193848,0.017501236870884895,-0.007522226311266422,-0.006488026585429907,-0.04842835895681263,0.013615579318237807,-1.4827274961574115
1687008677.40062,-0.04809141904115677,-0.013932057656347752,-0.9987457990646362,-0.0043988339602947235,-0.006713033653795719,0.01934516429901123,-0.016592618077993393,0.012960279360413551,0.0017094491049647331,-0.048114647673300204,0.01393250832481449,-1.482854459478842
1687008677.41449,-0.04825512692332268,-0.014239421114325523,-0.9987335205078125,0.0034553110599517822,0.003527803346514702,0.010818541049957275,0.03772847726941109,-0.006322738714516163,-0.0012746229767799377,-0.04827877336316416,0.014239902752125102,-1.482833873230576
1687008677.418334,-0.04858285188674927,-0.01712658628821373,-0.9986723065376282,-0.0021068602800369263,0.014074880629777908,0.012176334857940674,0.10798367112874985,-0.005798229016363621,-0.015772072598338127,-0.048609117769716936,0.01712742369857599,-1.4829759254601025
1687008677.451387,-0.049372050911188126,-0.021969422698020935,-0.9985387921333313,-0.00024954602122306824,-0.020587289705872536,-0.0241968035697937,0.030063701793551445,-0.03529033809900284,-0.023755695670843124,-0.04940406382746804,0.021971190447348975,-1.483710761333556
1687008677.546963,-0.05436749756336212,-0.023709598928689957,-0.9982394576072693,0.008972585201263428,0.017087334766983986,0.015512406826019287,0.09886273741722107,-0.1337876170873642,-0.05437885597348213,-0.05440962717568759,0.023711820754695856,-1.4854772875381113
1687008677.610626,-0.057526711374521255,-0.022558804601430893,-0.998089075088501,0.008820641785860062,-0.05648167058825493,-0.0063817501068115234,-0.12476016581058502,-0.054436471313238144,-0.024559438228607178,-0.05757315624291767,0.02256071891313088,-1.4872829848628217
1687008677.616241,-0.06244842708110809,-0.02196616306900978,-0.9978064298629761,-0.006429761648178101,0.06415676325559616,-0.0030328035354614258,0.07920587807893753,-0.11787350475788116,-0.01856253296136856,-0.06250418868838797,0.021967929184896436,-1.4888352645314622
1687008677.629058,-0.06752641499042511,-0.026431605219841003,-0.9973673224449158,-0.001229695975780487,-0.07679405063390732,0.013297498226165771,-0.057042837142944336,-0.066144660115242,0.02675115317106247,-0.06760149439424486,0.026434683406026154,-1.4885521092322158
1687008677.694981,-0.07295700907707214,-0.020334472879767418,-0.9971277713775635,0.01787276566028595,0.012567799538373947,0.014431238174438477,-0.22765526175498962,-0.17416927218437195,0.01610250398516655,-0.07303701110256032,0.02033587378393848,-1.4877990470033629
1687008677.721192,-0.07907866686582565,0.0105116693302989,-0.9968129396438599,-0.0002517774701118469,-0.029875025153160095,-0.02369481325149536,-0.7585731148719788,-0.09826504439115524,0.03223992511630058,-0.07916570443907152,-0.010511862746644353,-1.4883646965363289
1687008677.7865639,-0.08576188236474991,0.038555216044187546,-0.9955694079399109,-0.0006028711795806885,0.04317089915275574,-0.004232227802276611,-0.434594988822937,-0.18136219680309296,-0.009272094815969467,-0.0859314131500177,-0.038564773646898066,-1.4897193005588165
1687008677.8145552,-0.09268093854188919,0.055332571268081665,-0.9941571950912476,-0.011795997619628906,0.03898204490542412,-0.008696198463439941,-0.16063714027404785,-0.05097396299242973,0.007938583381474018,-0.09295696256016182,-0.0553608468764979,-1.4921935928844716
1687008677.907059,-0.09420496225357056,0.059002604335546494,-0.9938028454780579,0.01792626827955246,-0.07113330066204071,0.0029734373092651367,-0.20718707144260406,-0.07772408425807953,0.00722512137144804,-0.0945100000588571,-0.05903689076755388,-1.4919289102411661
1687008677.9959679,-0.09494073688983917,0.06883922219276428,-0.9930999279022217,0.01785331964492798,0.0388115718960762,0.04856562614440918,-0.1194680705666542,0.021141108125448227,0.02687951549887657,-0.09531072844278037,-0.06889371111179317,-1.4918561159829187
1687008678.009177,-0.093783438205719,0.07297253608703613,-0.9929147362709045,-0.019116349518299103,-0.005192957818508148,0.02060943841934204,-0.045201294124126434,0.04013291001319885,0.009429686702787876,-0.0941732739310243,-0.07303745676324282,-1.491093723046705
1687008678.088172,-0.09255822002887726,0.0763259008526802,-0.9927775859832764,-0.0032517313957214355,0.0019517317414283752,0.0005748271942138672,-0.054091788828372955,0.03268391266465187,-0.015888985246419907,-0.09296284688487716,-0.07640020512772959,-1.491787275797464
1687008678.093614,-0.09264709800481796,0.07745423913002014,-0.9926819205284119,-0.007328495383262634,0.0006097704172134399,-0.014337122440338135,-0.017167994752526283,-0.002363017527386546,0.0036194687709212303,-0.09306052029730269,-0.07753189328625588,-1.49233507594888
1687008678.143708,-0.09210477024316788,0.07752785831689835,-0.9927266240119934,0.007983051240444183,-0.012738995254039764,-0.013865172863006592,-0.01933547481894493,-0.0014595402171835303,-0.004150570370256901,-0.092514739457183,-0.07760573289162226,-1.492449793818053
1687008678.236991,-0.09249294549226761,0.07946573942899704,-0.992537260055542,-0.0009518787264823914,0.010011829435825348,-0.011216342449188232,0.004009463358670473,-0.014201034791767597,-0.0033423006534576416,-0.09292002974737135,-0.07954961476246561,-1.4928250310709321
1687008678.2426739,-0.09226371347904205,0.07771503925323486,-0.9926972389221191,0.008477695286273956,-0.017473295331001282,0.00919198989868164,0.005447303876280785,-0.004870383534580469,-0.0016884775832295418,-0.09267620946059942,-0.07779348005511369,-1.4929074583584712
1687008678.29418,-0.09273100644350052,0.07831788063049316,-0.9926062822341919,-0.005093090236186981,-0.009470194578170776,0.01456373929977417,-0.029690111055970192,0.006992800626903772,-0.000920422375202179,-0.09315137121315913,-0.07839816514476966,-1.493012804008324
1687008678.414568,-0.09233909100294113,0.07889364659786224,-0.992597222328186,-0.008994527161121368,0.003519110381603241,0.0022255778312683105,0.01508248783648014,0.01439412496984005,-0.0003752727061510086,-0.09276078106124634,-0.07897571664029963,-1.4932571661839185
1687008678.428252,-0.09242133796215057,0.07804647088050842,-0.9926565289497375,-0.00271722674369812,0.0017265230417251587,-0.0035134553909301758,0.009541580453515053,0.003554659429937601,-0.004025401547551155,-0.09283741046870593,-0.07812592273774872,-1.4932634222428254
1687008678.506489,-0.09213131666183472,0.07803283631801605,-0.9926846027374268,0.000960037112236023,-0.003920853137969971,-0.018652677536010742,-0.006384654436260462,-0.0023431770969182253,-0.0036906423047184944,-0.09254514672610394,-0.07811224632747327,-1.4935478767518149
1687008678.512416,-0.09203457832336426,0.07785551249980927,-0.9927074909210205,0.003167383372783661,-0.01186121255159378,-0.012053251266479492,-0.010683262720704079,-0.006422074511647224,-0.004974019713699818,-0.09244641192927745,-0.07793438334431771,-1.4936851144815415
1687008678.598074,-0.09194958209991455,0.07813607156276703,-0.992693305015564,0.004425160586833954,-0.0012469962239265442,0.007295966148376465,0.00510355643928051,0.007958995178341866,-0.006103466264903545,-0.09236282851769892,-0.07821579834984747,-1.4939332996307302
1687008678.611963,-0.09185001999139786,0.07803423702716827,-0.992710530757904,-0.0025255903601646423,-0.01036147028207779,0.004139423370361328,-0.007721828296780586,0.002769293263554573,0.005170493386685848,-0.09226179539752147,-0.07811364732376244,-1.4941612326377247
1687008678.652066,-0.09180597960948944,0.07849820703268051,-0.9926780462265015,-0.007635563611984253,0.007500365376472473,0.003008246421813965,0.011153859086334705,0.016003873199224472,-0.006184692494571209,-0.09222080547763417,-0.07857904930292135,-1.49428605231882
1687008678.655807,-0.09146559983491898,0.07757055014371872,-0.9927823543548584,-0.001292586326599121,-0.002146311104297638,-0.004944026470184326,0.020089495927095413,0.004119649063795805,-0.002718854695558548,-0.09187121527525371,-0.07764855271284382,-1.4943184445311621
1687008678.712743,-0.09159617871046066,0.07779474556446075,-0.9927527904510498,-0.001665547490119934,0.00824960321187973,-0.01182478666305542,0.0003899610601365566,-0.0045329611748456955,0.005889280699193478,-0.09200435730296451,-0.07787343094414333,-1.494233254584689
