Timestamp,gravityX,gravityY,gravityZ,accelerationX,accelerationY,accelerationZ,rotationRateX,rotationRateY,rotationRateZ,attitudeRoll,attitudePitch,attitudeYaw
1687002779.481262,-0.9305593967437744,0.3587854504585266,-0.07302109897136688,0.008425116539001465,0.019357800483703613,0.004631161689758301,-0.012051224708557129,-0.012104093097150326,0.005192812532186508,-1.4924866905254384,-0.3669663757690246,-3.0146454470888866
1687002779.5686932,-0.9299442768096924,0.3605915904045105,-0.07195340096950531,0.006604492664337158,-0.0026662349700927734,-0.008704602718353271,-0.03933044895529747,-0.025580354034900665,0.05963714420795441,-1.4935762942782351,-0.3689020830782971,-3.014668731203616
1687002779.588314,-0.9287943243980408,0.3638693392276764,-0.07028717547655106,-0.000984787940979004,0.007041275501251221,-0.0031992271542549133,-0.004891183692961931,-0.014194141142070293,0.05919026583433151,-1.495264575846648,-0.37241864445476763,-3.016171767200483
1687002779.59195,-0.9280176758766174,0.3657945394515991,-0.07055260241031647,8.487701416015625e-05,-0.01650562882423401,-0.018253572285175323,-0.042345080524683,0.01152001041918993,0.02084021456539631,-1.4949172292156627,-0.3744863668964973,-3.0167805970344617
1687002779.649056,-0.9276609420776367,0.36665022373199463,-0.07079938799142838,-0.0028504133224487305,-0.015896499156951904,-0.00921773910522461,-0.006940219085663557,0.015678003430366516,0.013118378818035126,-1.4946236650209745,-0.37540594524189924,-3.018640252903027
1687002779.777289,-0.9275575876235962,0.3668350875377655,-0.07119487226009369,-0.005273103713989258,-0.02581647038459778,-0.012102901935577393,0.11839872598648071,-0.04873174428939819,0.024960124865174294,-1.4941913248937242,-0.3756046500853949,-3.01543484340204
1687002779.793881,-0.9274503588676453,0.3668312132358551,-0.07260008156299591,0.004873394966125488,-0.04300922155380249,-0.00645572692155838,0.001658861292526126,0.035651978105306625,-0.02585778199136257,-1.4926764167125592,-0.37560049253975275,-3.010098687309177
1687002779.8633919,-0.928640604019165,0.3634219467639923,-0.07450347393751144,-0.007455408573150635,-0.020084023475646973,0.022455699741840363,-0.16380180418491364,0.09019684046506882,-0.10085585713386536,-1.49073926684949,-0.37193837181164646,-3.015133905699974
1687002779.867317,-0.9303752183914185,0.35876747965812683,-0.0754162073135376,-0.007429838180541992,0.012921303510665894,0.03032643347978592,-0.15633690357208252,0.08102771639823914,-0.0997178852558136,-1.489913175879361,-0.3669471369542768,-3.025382225031406
1687002779.955997,-0.9321433901786804,0.3541713058948517,-0.0753081887960434,-0.011505842208862305,0.020050466060638428,0.032675087451934814,-0.16884317994117737,0.04129162058234215,-0.08712086826562881,-1.4901810632994517,-0.36202779489250086,-3.0336138175681344
1687002779.974053,-0.9331316351890564,0.3519760072231293,-0.07333600521087646,-0.0038952231407165527,0.04128873348236084,-0.0040871500968933105,-0.04804357886314392,-0.006451266817748547,-0.03353354334831238,-1.492366269094073,-0.35968136142870627,-3.040260348778307
1687002780.074346,-0.9331081509590149,0.3522011339664459,-0.07254944741725922,-0.00019562244415283203,0.027559548616409302,-0.020376622676849365,0.09693457931280136,-0.033632952719926834,0.029619859531521797,-1.4932021248555791,-0.35992188133996716,-3.0377929193693847
1687002780.0926309,-0.932231068611145,0.3545871376991272,-0.07220020890235901,0.0006669163703918457,0.01496538519859314,-0.010944955050945282,-0.017989007756114006,-0.0009401212446391582,0.06532725691795349,-1.4935017937257742,-0.362472481763683,-3.0362721268109625
1687002780.1649709,-0.931069552898407,0.35735729336738586,-0.07351956516504288,-0.019415616989135742,0.0015751421451568604,-0.03201025724411011,0.04818414896726608,0.028717372566461563,0.03269048035144806,-1.491997346505317,-0.36543679959692077,-3.0346337290812953
1687002780.169039,-0.9304705262184143,0.35848793387413025,-0.07556983828544617,0.007832705974578857,-0.00022688508033752441,-0.014670662581920624,-0.002975704614073038,0.04077883064746857,0.023891398683190346,-1.4897573988924608,-0.3666476529719719,-3.0340283558884784
1687002780.2538319,-0.9300532341003418,0.35895177721977234,-0.07845108211040497,0.003936290740966797,-0.01569005846977234,-0.00672353059053421,-0.026397140696644783,0.06581120938062668,0.004021286964416504,-1.4866443633824966,-0.3671445791863313,-3.0346915146480034
1687002780.270835,-0.9296784996986389,0.3593921363353729,-0.08084072917699814,-0.004571378231048584,-0.014253586530685425,0.0023037120699882507,-0.06696067750453949,0.06138797104358673,0.0008191028609871864,-1.4840589285399857,-0.3676164108303953,-3.0367734365725743
1687002780.342348,-0.9297958016395569,0.35865017771720886,-0.08276285231113434,-0.01594388484954834,-0.02243804931640625,0.0043631792068481445,-0.07275678217411041,0.06020978465676308,-0.03155854344367981,-1.4820184373499776,-0.3668214560228233,-3.040250302976444
1687002780.357235,-0.9303134679794312,0.3570204973220825,-0.08398126810789108,-0.014449536800384521,-0.013636767864227295,-0.0026886984705924988,-0.09222815185785294,0.057874057441949844,-0.04040583223104477,-1.4807683273498298,-0.36507622026004005,-3.044111272243553
1687002780.435494,-0.9311378002166748,0.35452964901924133,-0.08538614958524704,-0.006224691867828369,-0.0003579556941986084,-0.010088138282299042,-0.07145023345947266,0.07743297517299652,-0.07110222429037094,-1.479351208029579,-0.3624109860295022,-3.050026568270052
1687002780.4503279,-0.9321067333221436,0.35141196846961975,-0.08767331391572952,0.0015038251876831055,-0.00039884448051452637,-0.0009039640426635742,-0.12238065898418427,0.08385386317968369,-0.06086157262325287,-1.4770129428632097,-0.3590788411597662,-3.054725874194765
1687002780.491743,-0.9331340789794922,0.34810999035835266,-0.0898895189166069,0.005155682563781738,0.0029031336307525635,0.016860902309417725,-0.08391623198986053,0.07004164159297943,-0.07627780735492706,-1.4747618903234998,-0.35555424477953756,-3.059955952707513
1687002780.6164742,-0.934180498123169,0.34493887424468994,-0.09123516082763672,0.0025704503059387207,0.02114996314048767,0.04490941762924194,-0.004842979833483696,0.028378885239362717,-0.07823736220598221,-1.4734417540840568,-0.35217365298991093,-3.0646674456293157
1687002780.622157,-0.9351362586021423,0.3426748216152191,-0.08996622264385223,0.022935450077056885,0.01747831702232361,0.06829869747161865,0.04633545130491257,-0.09374316781759262,-0.004841978661715984,-1.4748849705064813,-0.3497626438142822,-3.0632294005724536
1687002780.7058082,-0.9348562955856323,0.34500017762184143,-0.0837743803858757,0.027431607246398926,0.0630197525024414,0.07159782201051712,0.2482493370771408,-0.24115484952926636,0.12792831659317017,-1.4814230062050175,-0.3522389666157225,-3.055584987303492
1687002780.722568,-0.9322507381439209,0.35420405864715576,-0.0738103836774826,0.017410099506378174,0.12467771768569946,0.09421133995056152,0.5399328470230103,-0.4740557372570038,0.3611389398574829,-1.4917867486647651,-0.3620628136621273,-3.0345032384359847
1687002780.793057,-0.9236571788787842,0.37882786989212036,-0.05785045772790909,0.03023993968963623,0.19975486397743225,0.1247449517250061,0.7635160088539124,-0.7574166059494019,0.8178393244743347,-1.5082460762902294,-0.3885294270716876,-2.9959480680721446
1687002780.807374,-0.9044797420501709,0.42530107498168945,-0.032174304127693176,-0.03178417682647705,0.24304911494255066,0.13793295621871948,0.983482837677002,-1.0749175548553467,1.296864628791809,-1.5352391540997532,-0.43929451409093195,-2.949276895864986
1687002780.8503819,-0.8704227805137634,0.49228617548942566,-0.004267479758709669,-0.07685798406600952,0.14621776342391968,0.18052172660827637,0.9682238101959229,-1.3492584228515625,1.7752153873443604,-1.5658935992687415,-0.5147143003304392,-2.883290123579164
1687002780.947212,-0.8170129656791687,0.5753287672996521,0.03855447843670845,-0.13342642784118652,0.09805679321289062,0.12494337558746338,0.581682026386261,-1.4966862201690674,2.0947041511535645,-1.6179509008743367,-0.6130060186660027,-2.847595483033109
1687002780.952359,-0.7441388964653015,0.663809597492218,0.0749245136976242,-0.22381752729415894,-0.0026464462280273438,0.08712374418973923,0.7712752819061279,-1.6168086528778076,2.326902151107788,-1.671144335660829,-0.7259010745689924,-2.8060539186960756
1687002781.0032191,-0.6486250162124634,0.7532050013542175,0.10939637571573257,-0.26049357652664185,-0.04628068208694458,0.07314443588256836,0.45878100395202637,-1.7019639015197754,2.5671207904815674,-1.7378827481528971,-0.8529209912339273,-2.7835577134839116
1687002781.0922198,-0.5322222709655762,0.8339453339576721,0.1458580493927002,-0.27684444189071655,-0.0031806230545043945,-0.004149675369262695,0.3881359100341797,-1.6885720491409302,2.6944518089294434,-1.8382835333128233,-0.9862188257012559,-2.802950884815621
1687002781.1096668,-0.400419145822525,0.9019200205802917,0.16187790036201477,-0.2594623565673828,0.058284878730773926,-0.05041255056858063,0.5271020531654358,-1.6365965604782104,2.8153419494628906,-1.954979273191141,-1.1241945849605586,-2.8410217124365627
1687002781.1510692,-0.26019173860549927,0.9523146748542786,0.1593647301197052,-0.19107168912887573,0.011018514633178711,-0.09535418450832367,1.1934785842895508,-1.6449666023254395,2.556652069091797,-2.120348765064357,-1.2607343450348636,-2.9303652092822876
1687002781.2469459,-0.13097013533115387,0.9872607588768005,0.0903484970331192,-0.22077544033527374,-0.10586744546890259,-0.06128060817718506,1.8478959798812866,-1.4896842241287231,2.283384084701538,-2.174671216405937,-1.4110067268329796,-2.9069245159131656
1687002781.25285,-0.027746830135583878,0.9995611906051636,0.010356740094721317,-0.26534396409988403,-0.19017410278320312,0.09398281574249268,1.7681801319122314,-1.2744872570037842,1.7691876888275146,-1.9280393275342225,-1.5411705619525515,-2.5871728905167064
1687002781.300775,0.04778933525085449,0.9982149600982666,-0.035818565636873245,-0.2051074206829071,-0.3309023976325989,0.20957034826278687,-0.13080084323883057,-1.0976675748825073,1.2666845321655273,0.9276091422510624,-1.5110369066931648,0.3274151774584662
1687002781.370826,0.09866791218519211,0.9945376515388489,-0.0340515598654747,-0.057743802666664124,-0.23036223649978638,0.03130495175719261,-0.3030306100845337,-0.5585626363754272,0.9034072160720825,1.2384819711488992,-1.466227454010766,0.6782269797314691
1687002781.386119,0.13391795754432678,0.9909912347793579,0.0014469637535512447,0.08484728634357452,-0.04166579246520996,-0.03597760200500488,-0.4770109951496124,-0.49543359875679016,0.4587480425834656,1.5816007585312024,-1.4364660070775483,1.0467643906332633
1687002781.421304,0.15234850347042084,0.9882053136825562,-0.015495574101805687,0.07226088643074036,-0.029633045196533203,-0.19382452964782715,0.39844074845314026,-0.6534464359283447,0.3595578074455261,1.4694335442316386,-1.4170567493178492,0.9656705226713012
1687002781.479981,0.16631212830543518,0.9859125018119812,-0.017786357551813126,0.025063619017601013,-0.0374721884727478,-0.09227532148361206,-0.15394797921180725,-0.3182433843612671,0.2216537445783615,1.4642556387259686,-1.4027447013273204,0.9852446710241364
1687002781.578874,0.17731250822544098,0.9832454919815063,-0.04229101911187172,-0.0006004422903060913,-0.06970179080963135,-0.048819247633218765,0.421281635761261,-0.23448696732521057,0.28796353936195374,1.3366595414619054,-1.3874850255666376,0.8686322834341629
1687002781.666729,0.19222389161586761,0.9807964563369751,-0.03298372030258179,-0.006707549095153809,0.0132371187210083,0.0008181408047676086,-0.08725782483816147,-0.11621904373168945,0.2756141722202301,1.400861125482729,-1.374504110403873,0.9425676509688927
1687002781.6728392,0.20670369267463684,0.9770379066467285,-0.05167647823691368,0.04943037033081055,-0.06732428073883057,-0.009267151355743408,0.25958412885665894,-0.17917802929878235,0.3302883505821228,1.3258151254760588,-1.3560848512706356,0.8726453564539901
1687002781.7557921,0.22316259145736694,0.973399817943573,-0.05187540873885155,0.08683495223522186,0.03790682554244995,-0.03482508286833763,0.0988997295498848,-0.07605204731225967,0.343013733625412,1.3423969120904231,-1.339629930116818,0.8966086063799322
1687002781.7732491,0.243637815117836,0.9678454995155334,-0.06257405132055283,0.2852318286895752,0.017643272876739502,-0.07731854170560837,0.1967800110578537,-0.14468637108802795,0.5366641283035278,1.3193977179429601,-1.316519597154888,0.8773610832370361
1687002781.875743,0.27380457520484924,0.9588263034820557,-0.07538551092147827,0.37490755319595337,0.11107409000396729,-0.019356362521648407,0.32683154940605164,-0.311408668756485,0.8127442002296448,1.302127092752516,-1.2828401026389682,0.8707715216667794
1687002781.892582,0.3217567801475525,0.9406530261039734,-0.10790910571813583,0.5024620294570923,0.18213438987731934,-0.05799973011016846,0.6190798282623291,-0.4626142680644989,1.1837071180343628,1.2472096040388934,-1.2245493542937427,0.8338776643640464
1687002781.964106,0.37211549282073975,0.9188605546951294,-0.1312442272901535,0.29959163069725037,0.20977085828781128,-0.025600895285606384,0.42475858330726624,-0.5256683230400085,1.0443161725997925,1.2317203658486606,-1.1651830191896468,0.8439221873350329
1687002781.9685102,0.4076971411705017,0.9011861681938171,-0.14712642133235931,0.18678522109985352,0.04719310998916626,-0.14765815436840057,-0.5575782060623169,-0.2829451858997345,0.5436256527900696,1.2244691585092247,-1.1224985032331611,0.8594296328579576
1687002782.056275,0.40253302454948425,0.9020534157752991,-0.155778169631958,-0.006689518690109253,0.023834586143493652,0.17578238248825073,1.513115644454956,-0.276523232460022,-0.5353844165802002,1.2015513730015486,-1.1245035451181393,0.847299408432244
1687002782.073197,0.36152324080467224,0.9136801362037659,-0.18571336567401886,-0.08164653182029724,-0.3451682925224304,0.005598604679107666,-1.3633044958114624,0.2217807024717331,-1.2877180576324463,1.0962513428875111,-1.1522485111844476,0.7344328981586719
1687002782.143851,0.28627249598503113,0.9315326809883118,-0.2242647409439087,-0.22305536270141602,0.2276620864868164,0.054007142782211304,3.0756657123565674,0.29240506887435913,-1.8820728063583374,0.9062620790231105,-1.198604905379154,0.5159707872045167
1687002782.158354,0.20630230009555817,0.9399002194404602,-0.27207836508750916,-0.2758060693740845,0.02740001678466797,0.11863598227500916,0.6224408149719238,0.39700204133987427,-1.8181209564208984,0.6487576134493848,-1.22233797825006,0.22024426731910773
1687002782.232191,0.1367277055978775,0.941098153591156,-0.30925673246383667,-0.4269803762435913,-0.14397907257080078,0.10758131742477417,0.04753507301211357,0.6930223107337952,-1.3660959005355835,0.4162792518602029,-1.225863480397472,-0.0502572147320853
1687002782.236469,0.093995600938797,0.947130024433136,-0.3067726194858551,-0.2714705467224121,0.02926456928253174,0.015863776206970215,0.4934667646884918,0.6104541420936584,-0.9770380258560181,0.29731937545770465,-1.244169457579614,-0.21470129254720183
1687002782.293448,0.07649599760770798,0.9536105990409851,-0.2911618947982788,-0.1902502477169037,-0.18198895454406738,0.06958895921707153,-1.1489320993423462,0.633000373840332,-0.27151575684547424,0.25692038635596853,-1.265010267151877,-0.2893569505767877
1687002782.384587,0.07271715998649597,0.9617102146148682,-0.26424524188041687,-0.16236254572868347,-0.08057630062103271,0.00997278094291687,0.11046437174081802,0.3981330990791321,-0.26228150725364685,0.2685411323633859,-1.293175523421454,-0.3049037102083283
1687002782.39044,0.06715197116136551,0.9595981240272522,-0.2732432186603546,-0.10250655561685562,-0.15698593854904175,0.06532695889472961,0.0835951417684555,0.2791573107242584,-0.08782794326543808,0.24098311832731226,-1.2855704956953269,-0.35081860206866383
1687002782.443701,0.06816314160823822,0.958495557308197,-0.2768390476703644,-0.05266018211841583,-0.15138202905654907,0.04345583915710449,0.021805541589856148,0.01641889475286007,0.032487548887729645,0.24141729088920946,-1.2816778672893197,-0.3567224521772816
1687002782.535162,0.07153826206922531,0.9625471830368042,-0.26150545477867126,0.0012156739830970764,-0.036231935024261475,-0.019683539867401123,-0.20572376251220703,0.002457273192703724,0.024548402056097984,0.26702990944618377,-1.29624587923021,-0.33113764682138486
1687002782.541687,0.07174669951200485,0.9609032869338989,-0.2674272358417511,-0.03584273159503937,-0.1577569842338562,0.002275228500366211,-0.37785184383392334,0.002728116698563099,0.008001115173101425,0.2621125920326425,-1.290246228883835,-0.33448651888526276
1687002782.593926,0.06918811053037643,0.9659087061882019,-0.24946564435958862,-0.05350206792354584,0.05408012866973877,-0.03605678677558899,0.09587737172842026,0.011755167506635189,-0.06049485504627228,0.2705452401517769,-1.308930835210437,-0.3268972182063473
1687002782.6846352,0.06754026561975479,0.9652482867240906,-0.2524554431438446,-0.0773211419582367,-0.0936664342880249,0.015211790800094604,-0.1973343938589096,-0.06934554129838943,0.004040729254484177,0.2614114135681682,-1.3063917160769032,-0.3336993043572106
1687002782.690031,0.06790880858898163,0.9670950174331665,-0.245184987783432,-0.06801559776067734,-0.023064255714416504,-0.03353211283683777,-0.2601736783981323,-0.06976499408483505,0.10290472954511642,0.27019650467965295,-1.3135531750908334,-0.3208615559712978
1687002782.744905,0.07810813933610916,0.9727782607078552,-0.21817699074745178,-0.13973838090896606,0.027282536029815674,-0.05907520651817322,-0.5308066010475159,-0.12736064195632935,0.34805190563201904,0.3437870659072162,-1.3369326026942399,-0.24028612005269476
1687002782.8348331,0.09618232399225235,0.9749264121055603,-0.2006666213274002,-0.14688728749752045,-0.09862959384918213,0.014204233884811401,-0.5961902737617493,-0.25048550963401794,0.48406460881233215,0.44696231501820405,-1.346390241450194,-0.12446985336833705
1687002782.840712,0.11784493178129196,0.97556471824646,-0.1854347586631775,-0.026521049439907074,0.049734294414520264,-0.07628405094146729,0.3567614257335663,-0.481026291847229,0.644850492477417,0.5661186607379717,-1.3492768168555254,0.014057664470088277
1687002782.894753,0.16444288194179535,0.9693989753723145,-0.18227440118789673,-0.30892834067344666,-0.020653367042541504,0.09346820414066315,-0.33152028918266296,-0.7868937849998474,1.295091152191162,0.7340138618849112,-1.3227704915468363,0.22052402741608548
1687002782.983117,0.22011297941207886,0.9498671889305115,-0.22204141318798065,-0.30119818449020386,-0.18286901712417603,0.10743261873722076,-0.32128363847732544,-0.7601799368858337,1.512681007385254,0.7810367241762994,-1.2528108007626648,0.3191312239880468
1687002782.988924,0.27198708057403564,0.9416292905807495,-0.19838599860668182,0.20491108298301697,0.07504838705062866,-0.03586694598197937,0.24736349284648895,-0.7505383491516113,0.9641779065132141,0.9406133931162445,-1.2274376486061962,0.516848068279125
1687002783.043946,0.3068622350692749,0.927793025970459,-0.21221517026424408,-0.3083728849887848,-0.16172575950622559,0.007686346769332886,-0.5704022645950317,-0.16990891098976135,0.8943450450897217,0.9657539209457731,-1.1884534167258347,0.5737349596947675
1687002783.136035,0.33851781487464905,0.9236919283866882,-0.17943976819515228,0.055586159229278564,0.05039846897125244,0.1411706954240799,-0.01748747006058693,-0.4488157629966736,0.5315279364585876,1.0833793376471823,-1.1776073442651012,0.7093790226181246
1687002783.141628,0.36608582735061646,0.9188258051872253,-0.14744599163532257,-0.40415647625923157,-0.27168530225753784,0.14061002433300018,-2.5610578060150146,0.2715461254119873,0.7685564756393433,1.1879099467931564,-1.1650949701915696,0.8312175313167808
1687002783.226982,0.3988131284713745,0.9156094193458557,-0.051061615347862244,-0.0878390371799469,0.11329060792922974,0.17902177572250366,-1.1927354335784912,-0.24061928689479828,0.5919705033302307,1.4434551910823412,-1.1570210157343428,1.1087712003612706
1687002783.317019,0.4179351329803467,0.9084632396697998,0.004982054233551025,-0.08657523989677429,0.00576704740524292,0.0270155668258667,-0.9474842548370361,0.42114004492759705,0.24547067284584045,1.582716402626731,-1.1395924348650137,1.2571761715356105
1687002783.3235412,0.41308823227882385,0.9106556177139282,-0.008024497888982296,0.23243483901023865,-0.023509681224822998,0.01981949806213379,1.052639365196228,0.4738060235977173,-0.345617413520813,1.5513731431352376,-1.144868084486299,1.1987462300504754
1687002783.404371,0.3922034800052643,0.9197692275047302,-0.014162327162921429,0.37947919964790344,0.13442975282669067,-0.06152135133743286,0.4496612548828125,0.9063096046447754,-0.6047424674034119,1.5347023684704948,-1.167492046850248,1.141291587704842
1687002783.4217,0.3632875084877014,0.9312203526496887,-0.029165854677557945,0.6960843801498413,-0.12503761053085327,-0.16616195440292358,-0.016844183206558228,0.43972688913345337,-0.6566277742385864,1.490685024709357,-1.197747110355756,1.0513452573644484
1687002783.493736,0.34120336174964905,0.9391063451766968,-0.04073534905910492,0.46824485063552856,0.22144651412963867,-0.26906388998031616,0.70582515001297,-0.20832021534442902,-0.3012898862361908,1.4519714383265312,-1.220020297316438,1.0117244342019611
1687002783.508745,0.33315029740333557,0.9416930675506592,-0.04717050492763519,0.012537568807601929,0.07907414436340332,-0.006052203476428986,-0.4765303432941437,0.34267929196357727,0.02855752222239971,1.4301420245732865,-1.2276272294362631,0.9859132444365173
1687002783.54949,0.3363747000694275,0.9411876797676086,-0.031902141869068146,-0.08730548620223999,-0.017786860466003418,0.13994956016540527,0.16870424151420593,0.1700914055109024,-0.0015500448644161224,1.4762380767193097,-1.2261282647160248,1.0168956534443854
1687002783.645725,0.3338765799999237,0.9420324563980103,-0.03318459168076515,-0.04666036367416382,-0.04850834608078003,0.011593341827392578,-0.010770844295620918,-0.11260313540697098,-0.1272009164094925,1.4717298935774341,-1.2286372159575756,1.0130131920748864
1687002783.661831,0.32688045501708984,0.9441927075386047,-0.04060589522123337,0.02263733744621277,-0.05912214517593384,-0.10700768232345581,0.056834764778614044,0.10617461055517197,-0.171584352850914,1.4472069842239437,-1.2351351256611907,0.9883896666375424
1687002783.701302,0.3187827467918396,0.9474933743476868,-0.025175606831908226,0.0457344651222229,-0.021315455436706543,-0.10011434555053711,-0.3206569254398346,0.29600271582603455,-0.20587362349033356,1.4919857203580873,-1.2453038863127863,1.0248534523065302
1687002783.792733,0.3086457848548889,0.9510607123374939,-0.014863718301057816,-0.017279237508773804,-0.03817331790924072,-0.031568825244903564,-0.2316012978553772,0.3743163049221039,-0.22131489217281342,1.5226756514957691,-1.2566506252409828,1.0396840159498908
1687002783.808732,0.2966056168079376,0.954894483089447,0.014188149943947792,-0.022145837545394897,-0.04565393924713135,-0.056668639183044434,-0.40596017241477966,0.5076618194580078,-0.3084854781627655,1.618594956823067,-1.2693042236511145,1.1166587257175988
1687002783.850318,0.27564433217048645,0.9605940580368042,0.035765133798122406,-0.07930946350097656,-0.21778106689453125,-0.1290421485900879,-0.5107592940330505,0.9156101942062378,-0.5913227796554565,1.6998264939071985,-1.289131626428574,1.1655262868163303
1687002783.939436,0.23731005191802979,0.9673004150390625,0.0895184651017189,-0.05226674675941467,-0.030166804790496826,-0.034312255680561066,-0.48141226172447205,1.0448803901672363,-0.9470596313476562,1.9315132136981883,-1.3143615611335664,1.3547950278268583
1687002783.9561958,0.17473585903644562,0.9767056703567505,0.12455213069915771,-0.06833630800247192,-0.27661728858947754,-0.09763574600219727,-1.0339715480804443,1.3307437896728516,-1.337279200553894,2.1900629149935322,-1.3545310546730598,1.559453826635127
1687002784.030443,0.08868841081857681,0.9788572788238525,0.18431559205055237,-0.1249280571937561,-0.09912735223770142,-0.08041863143444061,-0.5210845470428467,1.53547203540802,-1.7670966386795044,2.6931165586833465,-1.364798051625509,2.000252863369499
1687002784.0462,-0.020542291924357414,0.9766598343849182,0.21380703151226044,-0.14300137758255005,-0.2053433656692505,-0.0799264907836914,-1.1839181184768677,1.8371171951293945,-1.9627468585968018,-3.04580800827499,-1.3543175295787164,2.470433437894733
1687002784.091313,-0.13955453038215637,0.9548212289810181,0.2623753845691681,-0.16322559118270874,0.12386828660964966,-0.016998887062072754,-0.5500159859657288,2.0643296241760254,-1.9172430038452148,-2.652760656903898,-1.2690576082548306,2.774951606438261
1687002784.1824908,-0.2554361820220947,0.9326516389846802,0.25477972626686096,-0.13880503177642822,-0.07022517919540405,-0.0294075608253479,-0.7326920628547668,2.146156072616577,-1.877545952796936,-2.3549078608341634,-1.2016942069435246,2.978553719605253
1687002784.187315,-0.36944615840911865,0.8905954360961914,0.26523357629776,-0.17910721898078918,0.06436038017272949,0.005960792303085327,-0.7069442272186279,2.1825594902038574,-1.8675109148025513,-2.193449560370377,-1.0986527544637468,3.0363240210601274
1687002784.242776,-0.47860485315322876,0.846818208694458,0.2320261150598526,-0.15179672837257385,-0.008592009544372559,0.006895899772644043,-0.26461371779441833,2.143113613128662,-1.9187860488891602,-2.0222075900425174,-1.0099743574039903,3.1087300325748166
1687002784.330991,-0.5801785588264465,0.789053201675415,0.20195944607257843,-0.16890579462051392,0.03788149356842041,0.0849057286977768,-0.5806910395622253,2.0643346309661865,-1.93470299243927,-1.9057764054406285,-0.9092662526355283,3.1221607002218605
1687002784.3386059,-0.6708695292472839,0.7245179414749146,0.15813787281513214,-0.1271193027496338,-0.013962030410766602,0.05992543697357178,-0.6734311580657959,2.063778877258301,-1.8815877437591553,-1.8022912117769543,-0.8103347593386461,3.12381634026975
1687002784.481983,-0.7501943707466125,0.6508727669715881,0.11650228500366211,-0.13695156574249268,0.031942665576934814,0.1643662452697754,-0.9012134075164795,1.9502172470092773,-1.9019991159439087,-1.7248618017957038,-0.7087335139759495,3.0887160490537933
1687002784.488515,-0.814290463924408,0.5760328769683838,0.07153153419494629,-0.14049756526947021,0.01297152042388916,0.1411912441253662,-1.1145044565200806,1.8589102029800415,-1.7235150337219238,-1.6584166389213808,-0.6138671241913225,3.041846041680227
1687002784.5784988,-0.8644445538520813,0.502062976360321,0.025847718119621277,-0.09200674295425415,0.1259276270866394,0.19380247592926025,-0.7575581073760986,1.7674999237060547,-1.7270443439483643,-1.600688374595122,-0.5259825547438416,2.9800742066654666
1687002784.5839992,-0.904613196849823,0.42499005794525146,-0.03253331407904625,-0.088550865650177,0.16230547428131104,0.41537630558013916,-0.5864678025245667,1.2645151615142822,-1.559705138206482,-1.5348480379564777,-0.43895089543277815,2.9465487956776673
1687002784.66762,-0.9279311895370483,0.3665968179702759,-0.06745634973049164,0.018309056758880615,0.20257121324539185,0.07169824838638306,0.09988995641469955,0.482755184173584,-0.949929416179657,-1.498228556337056,-0.37534852892678405,2.9393533351874104
1687002784.673187,-0.9380950927734375,0.3379247486591339,-0.07605581730604172,0.076141357421875,0.1901056170463562,0.09070419520139694,-0.3758396804332733,0.21391546726226807,-0.3792363405227661,-1.4898985298524472,-0.34471105033832444,2.9201909783203535
1687002784.750973,-0.9404868483543396,0.3299172818660736,-0.08148010075092316,0.015117645263671875,0.17907005548477173,0.017118453979492188,-0.13982263207435608,0.15833795070648193,-0.0712236687541008,-1.4843760265408785,-0.3362159632517512,2.9064419526256953
1687002784.754758,-0.9396089315414429,0.3317446708679199,-0.08414579927921295,-0.004299759864807129,0.10378691554069519,0.016839198768138885,-0.08420611172914505,0.04745510593056679,0.13044527173042297,-1.4814805264993889,-0.33815238485002463,2.9008252321982515
1687002784.853118,-0.936663806438446,0.3395199775695801,-0.08594655990600586,-0.007107436656951904,0.02171650528907776,0.003640592098236084,0.025891363620758057,0.039686400443315506,0.18035371601581573,-1.479294385457923,-0.34640652650661374,2.9004957487584533
1687002784.85906,-0.9333387017250061,0.3492516875267029,-0.0830778032541275,-0.005122482776641846,-0.033623695373535156,0.05925875902175903,-0.40187862515449524,-0.0035156644880771637,0.2079957276582718,-1.482018877567859,-0.35677238866769806,2.8892650961884097
1687002784.9344292,-0.930717408657074,0.3569103479385376,-0.07987487316131592,-0.01306915283203125,-0.03331726789474487,0.03338128328323364,0.10897799581289291,-0.04867967963218689,0.09734564274549484,-1.4851853418855323,-0.36495830601960794,2.88349298322134
1687002784.9393291,-0.9297006726264954,0.3604269027709961,-0.07582017779350281,-0.020448684692382812,-0.09532079100608826,0.007811732590198517,-0.3159978687763214,-0.02084418758749962,0.040315113961696625,-1.4894230892513567,-0.36872551833741807,2.8792319892003913
1687002784.9933882,-0.9296014904975891,0.36203306913375854,-0.06908726692199707,0.005803942680358887,-0.02472233772277832,-0.011311352252960205,-0.02972542867064476,-0.05148958042263985,-0.029498588293790817,-1.4966134792382428,-0.3704479844812499,2.8637294496778325
1687002785.0861669,-0.9314510822296143,0.3573627173900604,-0.06848900020122528,-0.015509366989135742,-0.05391120910644531,-0.017921574413776398,-0.09350287169218063,-0.010930569842457771,-0.08761035650968552,-1.4973990557303707,-0.3654426145841832,2.865246107924064
1687002785.0920959,-0.9334121942520142,0.3519100546836853,-0.07000510394573212,-0.01763749122619629,0.053042858839035034,-0.04992901533842087,0.3928011953830719,0.02743745781481266,-0.1744706928730011,-1.49593734095047,-0.3596109048262242,2.8692895510066556
1687002785.1428552,-0.9367674589157104,0.34142181277275085,-0.07679568976163864,-0.033019959926605225,0.011941134929656982,0.01148802787065506,-0.049094799906015396,0.09152629226446152,-0.15636731684207916,-1.4889997818138347,-0.3484291874155138,2.8799771100355436
1687002785.230895,-0.9389883279800415,0.3334360122680664,-0.08438844233751297,0.01570945978164673,0.016936272382736206,-0.0009540393948554993,0.15461185574531555,0.10048650205135345,-0.14985749125480652,-1.481165457832233,-0.33994581631065823,2.8858251549148757
1687002785.2498388,-0.9401105046272278,0.3294225335121155,-0.08759492635726929,0.03010690212249756,0.030257582664489746,0.02269923686981201,-0.0005530272610485554,0.015786394476890564,-0.021372752264142036,-1.477889427836843,-0.3356919146828801,2.88846137214929
1687002785.2930741,-0.9397677779197693,0.3303188383579254,-0.08789779245853424,0.0022068023681640625,0.02228119969367981,-0.0065236687660217285,0.04777688533067703,-0.008950243704020977,0.006510810926556587,-1.47753625146093,-0.33664134835631887,2.8893323628145713
1687002785.387196,-0.9389853477478027,0.3326346278190613,-0.08752427250146866,-0.002420783042907715,0.025733202695846558,0.02345258742570877,0.12382525205612183,-0.05535808950662613,0.08305219560861588,-1.477853338560208,-0.339095915686144,2.8944188162467896
1687002785.392287,-0.9369351863861084,0.339317262172699,-0.08376394957304001,-0.008804619312286377,0.018150359392166138,0.07024460285902023,-0.019208736717700958,-0.17946672439575195,0.22538350522518158,-1.4816312991600864,-0.34619100167819666,2.898868204522844
1687002785.443181,-0.9322226047515869,0.3553725779056549,-0.06834664195775986,0.01799231767654419,0.09837797284126282,0.20920050144195557,0.1297180950641632,-0.5737215280532837,0.5116344094276428,-1.4976114741344773,-0.36331262923693525,2.901587501628513
1687002785.535301,-0.918997585773468,0.39309510588645935,-0.030323073267936707,0.0018987059593200684,0.1792009472846985,0.3114509582519531,0.44802501797676086,-1.3719276189804077,1.1770167350769043,-1.5378124801337483,-0.4039952744582831,2.918795238585341
1687002785.541047,-0.8871711492538452,0.4595867693424225,0.04131763055920601,-0.057073116302490234,0.19623589515686035,0.3664734363555908,0.7909314632415771,-2.3799471855163574,1.7239985466003418,-1.6173350310804833,-0.4775298455589256,2.9530086126032864
1687002785.594568,-0.8269460201263428,0.5473329424858093,0.12878939509391785,-0.20209133625030518,0.19934052228927612,0.26871728897094727,1.4894864559173584,-2.986135482788086,2.0969290733337402,-1.725296146201507,-0.5791741201318874,3.0076920281954034
1687002785.747748,-0.7326160669326782,0.650947630405426,0.19884803891181946,-0.3189432621002197,0.16898328065872192,0.14363537728786469,1.9561445713043213,-3.0210654735565186,2.4896392822265625,-1.835832969768135,-0.7088320910437191,3.0807648234176352
1687002785.7656121,-0.6144391894340515,0.7536959052085876,0.2332533448934555,-0.21867549419403076,-0.12617814540863037,0.022560298442840576,0.8934482932090759,-2.4784276485443115,2.5021708011627197,-1.9336111479162355,-0.8536676461987835,3.133018539896873
1687002785.80427,-0.4882328510284424,0.8375775814056396,0.24513790011405945,-0.2682673931121826,0.026344597339630127,-0.03674861788749695,1.9153913259506226,-2.3201935291290283,2.490983009338379,-2.036116269730438,-0.9928339097382908,-3.1307010003850815
1687002785.8078852,-0.35391464829444885,0.9064224362373352,0.23052655160427094,-0.31315377354621887,-0.18477344512939453,-0.018520981073379517,0.7985663414001465,-2.1772327423095703,2.3681929111480713,-2.1481284226539668,-1.1347353237879825,-3.129695538806632
1687002785.810997,-0.22620753943920135,0.9513275027275085,0.2092987298965454,-0.33623141050338745,-0.062259018421173096,0.05470871925354004,1.5316274166107178,-2.2231037616729736,2.0979671478271484,-2.317388368663286,-1.2575152656762063,3.0918300209831027
1687002785.864089,-0.10817789286375046,0.9805657267570496,0.1636723428964615,-0.22815632820129395,-0.17996740341186523,0.06552986800670624,1.3635233640670776,-2.3260910511016846,1.8023616075515747,-2.5575638961531495,-1.3733244185087943,2.9594522006256763
1687002785.920599,-0.013716092333197594,0.9968644380569458,0.07792865484952927,-0.2747054994106293,-0.11705809831619263,-0.00421345978975296,2.344085931777954,-2.089754581451416,1.5299804210662842,-2.967368776818058,-1.4915855112488594,2.6582347601049436
1687002785.9845982,0.054779015481472015,0.99795001745224,-0.03308751434087753,-0.22570794820785522,-0.2695871591567993,0.09018588066101074,1.647520661354065,-2.113577127456665,1.119805932044983,1.0274276461248704,-1.5067543330918245,0.47434447065533963
1687002786.043676,0.09047267585992813,0.9874741435050964,-0.1292642056941986,-0.20988795161247253,-0.23228633403778076,-0.08315341174602509,1.6731059551239014,-1.3160406351089478,0.6548799872398376,0.6106622447406879,-1.4123534734349725,0.14129670399280478
1687002786.137218,0.10718697309494019,0.9867193102836609,-0.12204927951097488,-0.017602592706680298,-0.1820623278617859,-0.2665921449661255,-0.6128238439559937,-0.6085383296012878,0.17927061021327972,0.7206547735110924,-1.4076386909079663,0.30039903089805625
1687002786.142844,0.1121852695941925,0.9828688502311707,-0.14622977375984192,0.2206241935491562,-0.0676773190498352,-0.15461254119873047,0.23235198855400085,-0.31130251288414,0.1940932273864746,0.6544090005801242,-1.3854303309009945,0.2576400024637285
1687002786.1928082,0.12417533993721008,0.9828639626502991,-0.13622981309890747,0.21752998232841492,0.13809221982955933,-0.15271064639091492,0.020656654611229897,0.10664919018745422,0.3333323299884796,0.7391399637959721,-1.385403598691994,0.34562817338678875
1687002786.2841659,0.1450682431459427,0.9799501895904541,-0.13657549023628235,0.1151856780052185,-0.013214409351348877,-0.02924180030822754,-0.15676167607307434,0.1038677841424942,0.4421493709087372,0.8155432539068432,-1.3702113354502496,0.4183973224430229
1687002786.290307,0.16565145552158356,0.977356493473053,-0.13165698945522308,0.17808328568935394,-0.0034492015838623047,-0.042018577456474304,0.22189822793006897,-0.0017080437391996384,0.3787323236465454,0.8992444839214023,-1.357585193314764,0.4997774031687177
1687002786.350956,0.1872595250606537,0.9711016416549683,-0.14797089993953705,0.2657739222049713,0.04870420694351196,-0.04123812913894653,0.25911715626716614,-0.06468793749809265,0.5252559185028076,0.902064796485577,-1.3298041519287747,0.5061883018081442
1687002786.434494,0.2137378305196762,0.9642146229743958,-0.15686383843421936,0.3515393137931824,0.06119126081466675,-0.07738913595676422,0.31589117646217346,-0.16162872314453125,0.5723078846931458,0.9376740955765851,-1.3024648921145978,0.5480573972779633
1687002786.439911,0.23814082145690918,0.954406201839447,-0.1799926608800888,0.15968631207942963,0.06932097673416138,-0.011306807398796082,0.00573982298374176,-0.10003088414669037,0.5179319977760315,0.923577955201101,-1.2676642935493567,0.5409842666957954
1687002786.4932299,0.2569807469844818,0.9501782655715942,-0.176414355635643,0.0894242525100708,0.2148911952972412,-0.07761399447917938,0.6749793291091919,-0.08622971922159195,0.2952464818954468,0.969196095093399,-1.2538072292127578,0.5944572823480475
1687002786.585431,0.26804646849632263,0.9420709013938904,-0.20162726938724518,0.012638986110687256,0.034293293952941895,0.0318121612071991,-0.011401614174246788,-0.020167479291558266,0.1269216388463974,0.925882264989078,-1.2287518107393163,0.5518622717976568
1687002786.591747,0.2646085321903229,0.941909670829773,-0.2068534642457962,-0.08809486031532288,0.0648345947265625,-0.05088275671005249,0.39628127217292786,0.1015138179063797,-0.2531854808330536,0.9072928767148005,-1.2282715744103039,0.5315227467680577
1687002786.642026,0.24277658760547638,0.9458833932876587,-0.21532265841960907,-0.13562938570976257,-0.08244973421096802,0.07749000191688538,0.119126096367836,0.15813474357128143,-0.7410182952880859,0.8452566481976682,-1.2403061209767765,0.45906803293955606
1687002786.73637,0.20298945903778076,0.950664758682251,-0.23458799719810486,-0.11860835552215576,-0.1107601523399353,0.0064690858125686646,0.3041473627090454,0.24278652667999268,-1.032217025756836,0.7133108544856341,-1.255371807624907,0.30967387269533264
1687002786.740895,0.15008273720741272,0.9589256644248962,-0.24069997668266296,-0.20036043226718903,0.04946655035018921,0.055397212505340576,0.6667485237121582,0.2730675935745239,-1.20314621925354,0.5575387822635404,-1.283190299131098,0.1337552910204815
1687002786.794096,0.10338703542947769,0.9603664875030518,-0.2588580846786499,-0.2681361436843872,-0.07637900114059448,0.07012209296226501,-0.13426680862903595,0.27040258049964905,-0.9075571894645691,0.3799860825433529,-1.288313960494972,-0.06715798686314746
1687002786.8859081,0.07212644815444946,0.9606494307518005,-0.2682357728481293,-0.14799311757087708,-0.09153938293457031,0.06251674890518188,0.15279898047447205,0.4256090819835663,-0.5995514392852783,0.2626788286207818,-1.2893308976674542,-0.20571494231932125
1687002786.891175,0.0442536398768425,0.9597422480583191,-0.2773740887641907,-0.14929510653018951,-0.09423327445983887,0.002013981342315674,0.40263083577156067,0.5485969185829163,-0.8375416398048401,0.15821154964342454,-1.2860830235010219,-0.3403126186507965
1687002786.9424481,0.010815744288265705,0.9563414454460144,-0.29205143451690674,-0.13395413756370544,-0.07780146598815918,0.04807865619659424,0.10940975695848465,0.605847954750061,-0.7987103462219238,0.037016781058100134,-1.2742158797422698,-0.49764915436367846
1687002787.0387192,-0.013691844418644905,0.957115650177002,-0.2893820106983185,-0.08301833271980286,-0.1034780740737915,0.02656462788581848,-0.15053951740264893,0.5426085591316223,-0.6193861365318298,-0.047278824724259795,-1.2768764735547293,-0.6169285378485684
1687002787.044148,-0.037315282970666885,0.9542666077613831,-0.29661840200424194,-0.04084020107984543,-0.05099225044250488,0.04501625895500183,0.6695337891578674,0.3299407362937927,-0.6356487274169922,-0.12514489275080962,-1.267196998900115,-0.7216308246871855
1687002787.0943441,-0.055163364857435226,0.9410956501960754,-0.33361026644706726,0.0020628049969673157,0.01082378625869751,0.09017151594161987,0.6582052707672119,-0.037771373987197876,-0.09019655734300613,-0.16386997495553454,-1.225856129451137,-0.7692838276644189
1687002787.186081,-0.05284721404314041,0.9332655072212219,-0.3552783727645874,-0.0908295214176178,-0.0467756986618042,0.029213309288024902,0.2551753520965576,-0.05325166508555412,0.1169169545173645,-0.14766601105394234,-1.2033993714215374,-0.7482975633807813
1687002787.1921911,-0.04959454759955406,0.931635856628418,-0.3599930703639984,-0.050228413194417953,-0.13169389963150024,-0.018669068813323975,-0.22028231620788574,-0.0690227672457695,0.12229573726654053,-0.1369035109441103,-1.198888849064747,-0.7332212737118958
1687002787.238173,-0.043656278401613235,0.9376832842826843,-0.3447377681732178,-0.05319122225046158,-0.0533449649810791,-0.027775049209594727,-0.18375441431999207,-0.08557990193367004,0.18787740170955658,-0.12596568567120175,-1.215902271995983,-0.7174968463081477
1687002787.335229,-0.03491310775279999,0.9424878358840942,-0.33241164684295654,-0.05284015089273453,-0.1284162998199463,0.01092424988746643,-0.40301957726478577,-0.2611779570579529,0.33482131361961365,-0.10464606807683967,-1.2299970678302887,-0.6865428357958288
1687002787.3409739,-0.01957932487130165,0.9444774985313416,-0.3279917240142822,-0.15585093200206757,-0.005207657814025879,0.022541314363479614,0.6035267114639282,-0.4359235167503357,0.4803561568260193,-0.05962381479114592,-1.2360007644709274,-0.6201850173626877
1687002787.389038,-0.017510103061795235,0.9238366484642029,-0.38238611817359924,0.011070925742387772,-0.20096683502197266,-0.018691152334213257,1.2095240354537964,-0.5427890419960022,0.13223518431186676,-0.04575971662342253,-1.177985127422459,-0.5762081961360862
1687002787.4865289,-0.00529081653803587,0.9313167929649353,-0.3641716539859772,-0.10931792110204697,-0.04262971878051758,0.00029528141021728516,-1.3455990552902222,-0.27032271027565,0.5836638808250427,-0.014527336439732237,-1.198011817496009,-0.5232927274496876
1687002787.492528,0.021372921764850616,0.9433334469795227,-0.33115726709365845,-0.17940817773342133,0.04561913013458252,-0.007954061031341553,-0.48870977759361267,-0.2803128957748413,0.8861382603645325,0.06445070679618374,-1.2325360852381528,-0.4214466195185365
1687002787.541204,0.05907916650176048,0.9486199021339417,-0.3108534514904022,-0.09479997307062149,0.08900821208953857,-0.000624239444732666,0.1864159256219864,-0.36072838306427,0.8640217781066895,0.18781476655867674,-1.2488452671569927,-0.27490325360057416
1687002787.607317,0.10075022280216217,0.946190357208252,-0.3075275421142578,-0.1936914622783661,-0.13939714431762695,0.08651921153068542,-0.7503540515899658,0.02984735183417797,0.9247809648513794,0.3165940291609581,-1.2412534142155767,-0.13132536408420042
1687002787.6974359,0.13509385287761688,0.9367016553878784,-0.3230167031288147,-0.1173478364944458,0.10361212491989136,0.04022553563117981,1.3170183897018433,-0.17450138926506042,0.8112501502037048,0.3961187016059126,-1.2130879108169876,-0.03834313754380579
1687002787.7154431,0.17141824960708618,0.9242056012153625,-0.34126177430152893,0.04838462173938751,-0.0468253493309021,0.04368484020233154,-0.1855529099702835,-0.11361487209796906,0.6490663290023804,0.46549167791154744,-1.1789502337997688,0.03699557045655755
1687002787.7819738,0.20106518268585205,0.9218178987503052,-0.33139756321907043,-0.21047985553741455,0.0076100826263427734,0.049781352281570435,-0.5436382293701172,0.2388431876897812,0.6674191951751709,0.5453452646117577,-1.1727444571426204,0.12428695969163481
1687002787.79802,0.232256218791008,0.9273142218589783,-0.29350546002388,0.021985739469528198,0.10524797439575195,-0.030881166458129883,-0.43646442890167236,0.022996902465820312,0.5702944993972778,0.6694247119254871,-1.187172032639237,0.24993974359346485
1687002787.8380342,0.26198285818099976,0.9262444972991943,-0.2709907591342926,-0.12027448415756226,-0.0027216672897338867,0.0463508665561676,-0.915481686592102,0.3381381928920746,0.6052051186561584,0.7684985381027017,-1.1843239994698982,0.34513298793947084
1687002787.934686,0.2930874228477478,0.9258500337600708,-0.23854003846645355,-0.1172909140586853,0.18755322694778442,0.02239924669265747,-0.33512231707572937,0.39352235198020935,0.5593574643135071,0.8876448888888578,-1.1832788313398486,0.45743301805840547
1687002787.939546,0.319332093000412,0.9268978238105774,-0.19719849526882172,-0.007228881120681763,0.10110193490982056,0.12450559437274933,-0.4425992965698242,0.5175749659538269,0.242631733417511,1.0175836932530014,-1.1860611224153725,0.5710962463961888
1687002787.994976,0.3211396336555481,0.9256990551948547,-0.19987627863883972,0.039807021617889404,-0.12281215190887451,-0.027144014835357666,0.043369755148887634,0.7098499536514282,-0.35413819551467896,1.0140711653703434,-1.182879467084942,0.5330139198513614
1687002788.0857449,0.3024437427520752,0.9358103275299072,-0.18107061088085175,0.35458439588546753,-0.06068843603134155,-0.04781125485897064,0.12141268700361252,0.1237216517329216,-0.6831344962120056,1.031339265974821,-1.2105509444983988,0.5270575331982245
1687002788.092112,0.2646884322166443,0.9451936483383179,-0.19117717444896698,0.5183315873146057,-0.1585116982460022,-0.11929342150688171,-0.217609241604805,-0.5486986637115479,-0.7055169939994812,0.9452782260417959,-1.2381871058423466,0.44491434240271216
1687002788.138175,0.2284693866968155,0.9553428888320923,-0.1874079406261444,0.21905569732189178,0.047067999839782715,-0.05023248493671417,0.02052096463739872,-0.5231013298034668,-0.5720518827438354,0.8838137028491894,-1.2708179700054956,0.4135092486023393
1687002788.268687,0.20851881802082062,0.9588910937309265,-0.19247741997241974,0.12676258385181427,0.025422751903533936,-0.030468761920928955,-0.39032384753227234,0.018264733254909515,-0.12095047533512115,0.8253806991894147,-1.2830684481847716,0.36540599973716187
1687002788.27472,0.20814618468284607,0.9645053744316101,-0.16249415278434753,0.11022847890853882,0.04576367139816284,-0.061352312564849854,-0.369048148393631,0.1818798929452896,0.00031017232686281204,0.9079516099998761,-1.303563740294149,0.4431345068500024
1687002788.3550382,0.2049921452999115,0.9659258127212524,-0.1580050140619278,0.003244563937187195,-0.030928313732147217,-0.0826261043548584,0.05370142310857773,0.11686161160469055,-0.1800132542848587,0.9141245571841954,-1.3089967727955534,0.4443196859814194
1687002788.3599648,0.1940060555934906,0.9712100028991699,-0.1382485330104828,0.007409960031509399,-0.0955081582069397,-0.0133323073387146,-0.7658364772796631,0.10055986791849136,-0.33483240008354187,0.9516645605005187,-1.3302584618852902,0.47672151784874917
1687002788.4460669,0.16905711591243744,0.9806634783744812,-0.09858483821153641,0.008234769105911255,-0.2656823992729187,-0.06152565777301788,-0.9789010286331177,0.2917804419994354,-0.745356559753418,1.0428622698060528,-1.3738233124608716,0.5609253767048361
1687002788.464827,0.12347842752933502,0.9911086559295654,-0.04956454783678055,-0.10098695009946823,-0.14467322826385498,-0.06745517253875732,-0.8384814858436584,0.7488800287246704,-1.1205490827560425,1.1890814833754362,-1.437345529408602,0.6834292731476734
1687002788.532475,0.06121449917554855,0.9973540306091309,0.03921452537178993,-0.029033683240413666,-0.09954220056533813,-0.002715587615966797,-1.7272783517837524,1.0408984422683716,-1.5159780979156494,2.14054103463256,-1.4980345381906417,1.58891057480119
1687002788.5488071,-0.03147890046238899,0.9948300719261169,0.09655243903398514,-0.1682586371898651,-0.012988030910491943,-0.010630235075950623,-0.7019829750061035,1.1681514978408813,-1.8421669006347656,-2.8264302996732686,-1.4690672597769399,2.855568605539595
1687002788.592622,-0.13553573191165924,0.9809070825576782,0.13946811854839325,-0.16680188477039337,-0.14521372318267822,-0.06874369084835052,-1.3153237104415894,1.5384347438812256,-2.0352120399475098,-2.370492892249675,-1.37507208897796,-3.034654616794112
1687002788.717598,-0.24920541048049927,0.9501961469650269,0.1871461272239685,-0.15179550647735596,-0.03996378183364868,-0.07771016657352448,-1.1605796813964844,1.8638249635696411,-2.1011109352111816,-2.214918813018338,-1.2538647162101424,-2.9623624383677383
1687002788.7232451,-0.370162695646286,0.9070714712142944,0.2005019187927246,-0.1707308292388916,-0.03495532274246216,-0.023393243551254272,-0.8383275866508484,2.0274882316589355,-2.2458853721618652,-2.0672130709223913,-1.1362745704980963,-2.9103466229516806
1687002788.8055139,-0.4918518364429474,0.8512145280838013,0.18307238817214966,-0.18807974457740784,-0.034014880657196045,-0.06768548488616943,-0.6034440994262695,2.131883144378662,-2.3884201049804688,-1.9271191047451286,-1.0182951103945928,-2.8677277987091596
1687002788.811582,-0.6083500385284424,0.7778276205062866,0.15777869522571564,-0.21965277194976807,0.03647273778915405,0.03316973149776459,-0.8036884069442749,2.173243284225464,-2.3889589309692383,-1.8245602285647375,-0.8912018554049548,-2.8744548455577323
1687002788.896297,-0.7126689553260803,0.6936784982681274,0.10446372628211975,-0.21660643815994263,0.025437593460083008,0.06858609616756439,-0.5328940749168396,2.2215163707733154,-2.4349887371063232,-1.7163408426525375,-0.7665835739309885,-2.8797505616122865
1687002788.914538,-0.7993794083595276,0.5992555022239685,0.043419916182756424,-0.21349895000457764,0.04385662078857422,0.1314762830734253,-0.6654631495475769,2.058232545852661,-2.399674415588379,-1.6250600336892933,-0.6425708199364024,-2.9013472720164986
1687002788.98295,-0.8646913766860962,0.5020350813865662,-0.01641247794032097,-0.20406460762023926,0.09414094686508179,0.16184395551681519,-1.0469669103622437,1.947160243988037,-2.170523166656494,-1.5518178716832725,-0.5259503143524871,-2.9521213546927796
1687002789.000513,-0.9058666825294495,0.4180322289466858,-0.06822506338357925,-0.10336494445800781,0.1272558569908142,0.16293632984161377,-1.1735912561416626,1.6325976848602295,-1.7430310249328613,-1.495623559447165,-0.4312781129341781,-3.024083300477078
1687002789.07108,-0.9272803068161011,0.35822638869285583,-0.10874301195144653,0.01315683126449585,0.2103923261165619,0.23235440254211426,-0.888374388217926,1.012677788734436,-1.0544099807739258,-1.45405860756606,-0.36636752448885246,-3.0922301743856417
1687002789.074933,-0.9352003931999207,0.3279549181461334,-0.1335870623588562,0.02949988842010498,0.1705038845539093,0.14185728132724762,-0.4589534103870392,0.5887227058410645,-0.4450555741786957,-1.4289128946402156,-0.3341379351401935,-3.1255596530316105
1687002789.129377,-0.937448263168335,0.31548452377319336,-0.14717333018779755,-0.019399702548980713,0.12798157334327698,0.13310469686985016,-0.7406513690948486,0.43057599663734436,-0.2873106896877289,-1.4150738330807238,-0.32096720791831396,3.124599266562031
1687002789.1930618,-0.9383589625358582,0.30982986092567444,-0.15325705707073212,0.012837231159210205,0.1944425106048584,0.14484943449497223,-0.47084230184555054,0.2046073079109192,-0.11164379119873047,-1.4089011784710357,-0.3150140909371577,3.0912435811744277
1687002789.289178,-0.93714839220047,0.31386876106262207,-0.15244410932064056,0.0032495856285095215,0.09499046206474304,0.05707663297653198,-0.2933509945869446,0.06108609959483147,0.0968811884522438,-1.4095406874998362,-0.31926495910925856,3.0698968884503324
1687002789.295008,-0.9346774220466614,0.32223811745643616,-0.15013471245765686,0.022110402584075928,0.04765012860298157,0.052844658493995667,0.01701078563928604,-0.0609443336725235,0.2028457075357437,-1.4115294818017938,-0.3280927550314269,3.0667495099548225
1687002789.339035,-0.9314391613006592,0.3341309428215027,-0.14414440095424652,0.006985366344451904,-0.022668570280075073,0.033426567912101746,-0.47076308727264404,-0.0386173240840435,0.21872533857822418,-1.41725977455935,-0.34068302738678,3.0545047838339996
1687002789.432032,-0.9279394149780273,0.34759366512298584,-0.13456177711486816,-0.037209391593933105,-0.028212010860443115,0.01743525266647339,-0.25209444761276245,-0.13148614764213562,0.24301761388778687,-1.4267887641368258,-0.35500350907948003,3.0384199457726058
1687002789.450911,-0.9253857135772705,0.35823580622673035,-0.12380672991275787,-0.02171194553375244,-0.05690532922744751,-0.029254190623760223,-0.340084969997406,-0.08922883868217468,0.14499518275260925,-1.4377967975567985,-0.3663776036170071,3.0234011829259773
1687002789.55449,-0.9240837097167969,0.3639772832393646,-0.11657509952783585,0.0033989548683166504,-0.0608157217502594,-0.04355067014694214,-0.029130209237337112,-0.06591247022151947,0.05123407393693924,-1.4453071179875365,-0.3725345231796961,3.0138949296082793
1687002789.617037,-0.9240047931671143,0.36533626914024353,-0.1128910556435585,-0.008322417736053467,-0.0730542540550232,-0.030083835124969482,-0.18037240207195282,-0.03199910372495651,-0.007843094877898693,-1.4492230095466496,-0.37399403163116074,3.0094134238938572
1687002789.636245,-0.9257996678352356,0.3605574369430542,-0.11354811489582062,-0.006954789161682129,-0.035072267055511475,-0.01847100257873535,0.05391167849302292,0.026399889960885048,-0.1456824541091919,-1.4487571373891714,-0.36886544912433705,3.007329298573659
1687002789.639913,-0.9285159111022949,0.3530087172985077,-0.11507797986268997,0.005481302738189697,-0.0016446411609649658,-0.0086861252784729,-0.0067191775888204575,0.01660185307264328,-0.13139966130256653,-1.447487578937942,-0.36078491612635577,3.0051001122860166
1687002789.6692228,-0.9303455948829651,0.34770068526268005,-0.11645301431417465,-0.013791978359222412,0.014130949974060059,0.03373508155345917,0.10794175416231155,-0.032343316823244095,-0.0410042442381382,-1.4462721990672367,-0.3551176462552056,3.0103612736303034
1687002789.763288,-0.9318108558654785,0.34319978952407837,-0.11807790398597717,-0.011655330657958984,0.03163233399391174,0.03062973916530609,0.2179255187511444,-0.04248303547501564,-0.10713452845811844,-1.4447493861325476,-0.3503215002341033,3.019824764270252
1687002789.857049,-0.9334093928337097,0.3393819332122803,-0.11647620797157288,-0.012650728225708008,0.02931612730026245,0.10738193988800049,0.07955938577651978,-0.1378849297761917,-0.020395372062921524,-1.4466522681271476,-0.3462597632957763,3.0283086832493202
1687002789.862702,-0.9340003728866577,0.3403477668762207,-0.10865847766399384,0.004358768463134766,0.08148139715194702,0.14674437046051025,0.3342306315898895,-0.3514506220817566,0.10826539993286133,-1.4549802957172373,-0.3472867253405814,3.038723185101287
1687002789.946553,-0.9327661991119385,0.34896114468574524,-0.09040560573339462,0.025158286094665527,0.1227947473526001,0.25536835193634033,0.39981502294540405,-0.7712016701698303,0.4023396372795105,-1.4741760746771606,-0.3564623228757701,3.0608656595201387
1687002789.9649081,-0.9244785904884338,0.37820905447006226,-0.047928307205438614,0.010141491889953613,0.16771984100341797,0.2765201926231384,0.47189587354660034,-1.4101803302764893,0.9397503137588501,-1.5189990896097612,-0.3878608633467414,3.085487177845316
1687002790.0325332,-0.9005263447761536,0.4343537986278534,0.019728390499949455,-0.05122542381286621,0.2339506447315216,0.218034029006958,0.7171346545219421,-2.0783820152282715,1.5696862936019897,-1.5927004449909787,-0.44932075106727337,3.1200851868153583
1687002790.0493479,-0.8469089269638062,0.5214769840240479,0.1039564236998558,-0.16340595483779907,0.2606579661369324,0.08004927635192871,0.7677714228630066,-2.4953856468200684,2.2988781929016113,-1.6929334098514435,-0.5485810136985664,-3.131784257056838
1687002790.089336,-0.7552340030670166,0.6325632333755493,0.1717129349708557,-0.2917324900627136,0.2526600956916809,0.01673305034637451,1.731787085533142,-2.673168897628784,2.763383150100708,-1.7943596145447291,-0.6848582313846365,-3.080612611449083
1687002790.1847649,-0.6320087909698486,0.7466645240783691,0.20750054717063904,-0.36002594232559204,0.019326508045196533,-0.010097652673721313,1.3829238414764404,-2.508087396621704,2.883180618286133,-1.8880272991482563,-0.8430335946540367,-3.028376744516445
1687002790.189563,-0.49397507309913635,0.8411959409713745,0.21994978189468384,-0.32735970616340637,-0.06727021932601929,0.022970080375671387,1.614458441734314,-2.361395835876465,2.7097764015197754,-1.9897056136416138,-0.9994910924973713,-3.003262808694618
1687002790.243318,-0.35325923562049866,0.9103446006774902,0.21559357643127441,-0.32439884543418884,-0.15552282333374023,0.011518150568008423,0.987561821937561,-2.2258245944976807,2.543045997619629,-2.118753859266056,-1.14411600980126,-3.017485898529126
1687002790.3357592,-0.22111830115318298,0.9581995606422424,0.1815497726202011,-0.25292646884918213,-0.27199655771255493,0.06770254671573639,1.4670605659484863,-1.8613362312316895,2.115771770477295,-2.2582430628493753,-1.2806413957775618,-3.058176780899054
1687002790.340864,-0.11201832443475723,0.9854922294616699,0.1275022029876709,-0.21030829846858978,-0.21040689945220947,0.05303977429866791,1.1188832521438599,-1.556018352508545,1.8260242938995361,-2.4207499736382023,-1.4002501919995558,-3.136465996576525
1687002790.42838,-0.021616017445921898,0.9970102310180664,0.07418332993984222,-0.20203204452991486,-0.19523727893829346,0.08980286121368408,1.4953958988189697,-1.5989735126495361,1.4206852912902832,-2.8580568054533657,-1.4934497856592979,2.786692893212428
1687002790.447386,0.04705948755145073,0.9988898634910583,0.0020568356849253178,-0.15797561407089233,-0.2064400315284729,0.03993535041809082,1.1327385902404785,-1.3497323989868164,1.1737911701202393,1.614475670781504,-1.523672560251932,1.0453768797272325
1687002790.4805331,0.09259682148694992,0.994256317615509,-0.053666044026613235,-0.18184545636177063,-0.053140103816986084,0.036957621574401855,1.2070671319961548,-1.4676268100738525,0.7486115097999573,1.045536740593982,-1.463566104254419,0.5479316592280652
1687002790.57052,0.12079628556966782,0.9863324761390686,-0.1120559573173523,-0.14994055032730103,-0.15324842929840088,-0.09167945384979248,0.3188904821872711,-0.9941790699958801,0.6073156595230103,0.8229164780665226,-1.4052743260326332,0.38667539888544694
1687002790.574455,0.1361747682094574,0.9822110533714294,-0.129296213388443,-0.0055900514125823975,-0.047427356243133545,-0.1463233083486557,0.6280149221420288,-0.7060742974281311,0.2300453633069992,0.8113031616497705,-1.3818947066433012,0.4190077769378612
1687002790.6329598,0.14140161871910095,0.9795408844947815,-0.1431952267885208,0.12068334221839905,-0.12752079963684082,-0.2021416872739792,-0.32047343254089355,-0.5152478218078613,0.16186605393886566,0.7790959845247412,-1.3681672890524343,0.41617262652041437
1687002790.6922588,0.14552348852157593,0.9771339893341064,-0.15502318739891052,0.14762841165065765,0.039467573165893555,-0.18363042175769806,0.6433357000350952,-0.15629789233207703,0.17221881449222565,0.7538005804242874,-1.356536278924846,0.40715398485690807
1687002790.8154988,0.15869924426078796,0.9741039276123047,-0.16104675829410553,0.16536693274974823,-0.03335386514663696,-0.11977601051330566,-0.292492151260376,0.15590155124664307,0.3403873145580292,0.7780564491684338,-1.3427234028098283,0.43114297872608703
1687002790.835731,0.1792377382516861,0.9708557724952698,-0.15910017490386963,0.1345592886209488,0.060562074184417725,-0.07513757050037384,0.24367102980613708,0.2341095358133316,0.44526445865631104,0.8448471123621455,-1.3287761880469666,0.489419007215825
1687002790.900867,0.20774060487747192,0.9650511741638184,-0.15974988043308258,0.21082323789596558,0.037329137325286865,-0.06379145383834839,0.12604252994060516,0.26218271255493164,0.6317483186721802,0.9152537134336213,-1.3056384909493526,0.5484076177491406
1687002790.904422,0.2450791746377945,0.9530109763145447,-0.17806187272071838,0.2581403851509094,0.040671706199645996,-0.07317410409450531,0.42508968710899353,0.22808706760406494,0.8284112811088562,0.9424739856408222,-1.2630245660332586,0.5646470529824795
1687002790.996547,0.2841833531856537,0.941312313079834,-0.18212848901748657,0.2770806849002838,-0.012677788734436035,-0.0645604133605957,0.21950663626194,0.11688478291034698,0.6769986152648926,1.0008564793029775,-1.2264974026790125,0.6163587622952491
1687002791.015295,0.3124009668827057,0.928217351436615,-0.20203512907028198,0.1516645848751068,0.04051738977432251,-0.05165758728981018,0.1204434335231781,0.18057534098625183,0.5190414786338806,0.9967322446197137,-1.189592284967068,0.604837758939912
1687002791.081296,0.33382752537727356,0.923212468624115,-0.19036269187927246,0.14397093653678894,0.08835363388061523,0.0036255717277526855,-0.1125718355178833,0.1122218519449234,0.268785297870636,1.0525446771698745,-1.1763577040803113,0.6575542484010567
1687002791.098356,0.3403988778591156,0.9198074340820312,-0.19514788687229156,0.1258181631565094,0.09621423482894897,-0.15803205966949463,0.3091890513896942,0.3030281662940979,-0.027728119865059853,1.0502467360563152,-1.1675893886374813,0.6454449398674347
1687002791.139555,0.33047807216644287,0.9172348380088806,-0.22240546345710754,0.03068217635154724,0.17062509059906006,-0.05103205144405365,1.4138067960739136,0.3017885982990265,-0.5886854529380798,0.978434998989836,-1.1610824707377945,0.550177618170464
1687002791.234803,0.2975930869579315,0.9152920246124268,-0.27143844962120056,-0.11537259817123413,-0.09722262620925903,0.12950116395950317,0.03577229008078575,0.2159406691789627,-0.9292609095573425,0.8313292635673539,-1.1562322635002673,0.3753513614421486
1687002791.252819,0.24752967059612274,0.9350587725639343,-0.2537597417831421,-0.26445168256759644,0.028793036937713623,0.1317046582698822,0.2056843638420105,0.37621474266052246,-1.4215837717056274,0.7729707342528802,-1.2084247753602047,0.29790539146327005
1687002791.291995,0.17516310513019562,0.9522778391838074,-0.2499692589044571,-0.22130566835403442,-0.24063855409622192,0.1303403377532959,-0.3098055422306061,0.3296239376068115,-1.8309853076934814,0.6112215031434891,-1.2606136626039344,0.10611111186271159
1687002791.37952,0.09174634516239166,0.9518738389015198,-0.29243558645248413,-0.39933300018310547,-0.1323854923248291,0.10357752442359924,1.045143723487854,0.5677578449249268,-1.749267578125,0.30400670662652685,-1.2592927978928614,-0.23633255814898516
1687002791.3969011,0.033216722309589386,0.9622236490249634,-0.27022606134414673,-0.1123335063457489,-0.05620265007019043,0.013359606266021729,-1.1521304845809937,0.875464141368866,-1.0695306062698364,0.12230841769486912,-1.2950550936674088,-0.4672589929032758
1687002791.47332,0.008530700579285622,0.9796115159988403,-0.20072036981582642,-0.14857584238052368,0.03984349966049194,0.0015168488025665283,-1.2649798393249512,0.6860968470573425,-0.37468793988227844,0.042474859979163726,-1.3685184248669056,-0.591567187193474
1687002791.477015,0.012254633009433746,0.9901233315467834,-0.13966140151023865,-0.12481871247291565,-0.088115394115448,0.014813974499702454,-1.3001511096954346,0.22017668187618256,0.21868565678596497,0.08752115906296604,-1.4301336954686952,-0.5673616545905974
1687002791.532508,0.02336777187883854,0.9964879155158997,-0.08040941506624222,-0.1167057603597641,-0.18244683742523193,-0.07233113050460815,-1.2683384418487549,0.15564469993114471,0.1686355322599411,0.2828199189142348,-1.4869612974954234,-0.37852769120535845
1687002791.623846,0.029145492240786552,0.9990361332893372,-0.032819390296936035,-0.022324800491333008,-0.10886901617050171,-0.03850024938583374,-0.1744651049375534,0.056988026946783066,0.10316651314496994,0.7261775051336063,-1.526887501286197,0.05831135504280721
1687002791.6289802,0.03277944400906563,0.9983744621276855,-0.046625010669231415,-0.05060170218348503,-0.18820911645889282,-0.021047770977020264,0.3694373369216919,0.022675326094031334,0.030927738174796104,0.6127661505825975,-1.5137701660538707,-0.056629173401666476
1687002791.682395,0.03352395072579384,0.9974945187568665,-0.06229313462972641,-0.05320777744054794,-0.10528284311294556,0.0028906576335430145,0.27397531270980835,-0.0580686554312706,0.05958441644906998,0.4937110252533508,-1.4999935790570154,-0.17592902737746205
1687002791.772865,0.03917824849486351,0.9966974258422852,-0.07112764567136765,-0.08985266089439392,-0.07402908802032471,0.011496253311634064,0.20944242179393768,-0.20031821727752686,0.194416806101799,0.5034695077656621,-1.4895015368033755,-0.15965588725468108
1687002791.779105,0.057439032942056656,0.9956729412078857,-0.07304907590150833,-0.34837833046913147,-0.06107211112976074,-0.011576242744922638,-0.19778206944465637,-0.32653844356536865,0.582084059715271,0.6663358951662622,-1.4777354991611824,0.01985397280911726
1687002791.833492,0.08671590685844421,0.9936807155609131,-0.07126571238040924,-0.06375140696763992,-0.029004931449890137,-0.04209190607070923,0.1732763648033142,-0.37075743079185486,0.6843680739402771,0.8828855846889476,-1.458315790817325,0.2543955363425102
1687002791.89417,0.125912144780159,0.988981306552887,-0.07786007970571518,-0.021130025386810303,0.07383912801742554,-0.04739934951066971,0.5028994679450989,-0.45082658529281616,0.9311493635177612,1.0169800891422442,-1.4222098984535734,0.40533370493760024
1687002791.9856958,0.17700648307800293,0.9782450795173645,-0.1081903949379921,-0.27068015933036804,-0.08583486080169678,0.1419427990913391,-0.023055940866470337,-0.3807428479194641,1.1527793407440186,1.022165610446763,-1.3618260489696157,0.4341487885056573
1687002792.006096,0.22558432817459106,0.9653325080871582,-0.13131967186927795,-0.2630293369293213,0.0319209098815918,0.09155522286891937,0.5588974356651306,-0.5719111561775208,1.0906552076339722,1.0436192683655006,-1.3067143448380074,0.4871764654902401
1687002792.072174,0.27346885204315186,0.9531066417694092,-0.1296229213476181,0.12942418456077576,-0.01662921905517578,0.054213955998420715,0.004670430440455675,-0.7411855459213257,0.9581168293952942,1.1281681135757518,-1.2633406301370607,0.5996794791809686
1687002792.1666079,0.30935078859329224,0.934844970703125,-0.17426078021526337,-0.30462056398391724,-0.10536205768585205,0.044683098793029785,0.04307501018047333,-0.4046202301979065,0.7930408120155334,1.0577908058411785,-1.2078222580759832,0.5623150603569971
1687002792.1868129,0.33628952503204346,0.9297907948493958,-0.14966145157814026,-0.02623090147972107,0.14572501182556152,0.05243240296840668,-0.23271623253822327,-0.39220988750457764,0.4613366425037384,1.1520768721385637,-1.1938440613354393,0.6828572083515437
1687002792.2499871,0.3517705798149109,0.9260860085487366,-0.13646233081817627,-0.008569896221160889,0.018051445484161377,0.0962095856666565,-0.8750646114349365,0.07156617194414139,0.31471604108810425,1.200738275514886,-1.1839037486739286,0.7457685956580394
1687002792.253735,0.36569690704345703,0.9245828986167908,-0.10682646185159683,-0.09485343098640442,0.3401263952255249,0.007125504314899445,0.0075676171109080315,0.7082724571228027,0.28299593925476074,1.2865867878034145,-1.1799393086556125,0.8187806580795634
1687002792.343826,0.376537561416626,0.9226086139678955,-0.08374166488647461,0.2572057247161865,0.04112118482589722,-0.006697237491607666,-0.1785336136817932,0.6414400339126587,0.021844225004315376,1.351958717079205,-1.1747893797976303,0.846060310885808
1687002792.362496,0.36656296253204346,0.9266014695167542,-0.08391208201646805,0.45260509848594666,-0.23191463947296143,-0.13247287273406982,-0.42658495903015137,0.12301897257566452,-0.5092742443084717,1.3457578480448282,-1.1852722092856802,0.815505207566578
1687002792.4304628,0.33673444390296936,0.9407814145088196,-0.03924359753727913,0.6094630360603333,0.06300264596939087,-0.30766505002975464,-0.488681823015213,-0.8489121794700623,-0.640887975692749,1.4547780078038373,-1.224927941171235,0.9539236380595213
1687002792.447964,0.3072627782821655,0.948864758014679,-0.07242336124181747,0.05423322319984436,0.122958242893219,-0.11490881443023682,0.5904467701911926,-0.2609911262989044,-0.4581418037414551,1.3393163886923154,-1.2496200365452483,0.8666485203838744
1687002792.5205941,0.2922186553478241,0.9549793004989624,-0.05121240392327309,0.009859561920166016,-0.029991567134857178,-0.0611686110496521,-0.9303578734397888,0.2784899175167084,-0.21128863096237183,1.397304504531424,-1.269589915686163,0.9229559619714572
1687002792.524189,0.283841997385025,0.9586018919944763,-0.022712498903274536,0.021120131015777588,-0.05114656686782837,0.010383369401097298,-0.2206575721502304,0.19370552897453308,-0.18947173655033112,1.4909483461229185,-1.2820509187619917,1.007252276447889
1687002792.581997,0.2708175480365753,0.9625915884971619,-0.008660450577735901,-0.03882291913032532,-0.1294008493423462,-0.08768361806869507,-0.41189315915107727,0.34237197041511536,-0.37796708941459656,1.5388283082304064,-1.296409764059196,1.0423449985878324
1687002792.6748738,0.2489011436700821,0.9680954217910767,0.028966723009943962,-0.05784587562084198,-0.02803218364715576,-0.10393321514129639,-0.7714769244194031,0.702957034111023,-0.49180683493614197,1.6866535703335437,-1.3175150380322067,1.1698001037156158
1687002792.67998,0.2232183814048767,0.9717394113540649,0.07678500562906265,-0.04928344488143921,-0.027113676071166992,-0.07944011688232422,-0.9016047716140747,0.9918487668037415,-0.5098428726196289,1.9021074883018048,-1.332491070214348,1.3485165982686609
1687002792.7327518,0.18375280499458313,0.9733260869979858,0.13737088441848755,-0.049292370676994324,-0.15566885471343994,-0.08045567572116852,-1.118664026260376,1.1758047342300415,-0.8428871035575867,2.21275019253927,-1.3393083700623467,1.6133781374591025
1687002792.823919,0.12595370411872864,0.9698389172554016,0.20868158340454102,-0.13460543751716614,-0.12546342611312866,-0.06776678562164307,-1.4929949045181274,1.4664709568023682,-1.0666154623031616,2.5985531171738177,-1.324569057810609,1.9424081572158718
1687002792.830178,0.04870007187128067,0.9613246321678162,0.27107739448547363,-0.07474680244922638,-0.10413175821304321,-0.10927331447601318,-0.6317922472953796,1.7051644325256348,-1.391210913658142,2.9638351210972185,-1.2917720182785,2.2372428019406936
1687002792.881535,-0.05420796200633049,0.951295018196106,0.30347880721092224,-0.14488868415355682,-0.13249313831329346,-0.04119548201560974,-0.823797881603241,1.839253306388855,-1.7242828607559204,-2.9648348753577594,-1.2574097398547202,2.516121937595302
1687002792.944604,-0.17174598574638367,0.928274929523468,0.3298610746860504,-0.17641375958919525,-0.1323004961013794,-0.048351824283599854,-0.9060625433921814,2.1594676971435547,-1.9349013566970825,-2.6615527716080694,-1.1897470506604275,2.731807297359423
1687002793.04,-0.3013881742954254,0.8872044682502747,0.3493326008319855,-0.1453891396522522,-0.05535644292831421,0.027971386909484863,-0.8982197642326355,2.3697314262390137,-2.0958950519561768,-2.4297405596115076,-1.0912502441230547,2.861519530592784
1687002793.045086,-0.4352404773235321,0.8341755867004395,0.3386988639831543,-0.18681460618972778,-0.006737232208251953,0.04930153489112854,-0.8201802372932434,2.519644021987915,-2.0665225982666016,-2.232095000095923,-0.9866362692046594,2.947432028220259
1687002793.1262841,-0.5598914623260498,0.7700694799423218,0.305801659822464,-0.1694176197052002,0.071727454662323,0.059157997369766235,-0.47025778889656067,2.543626070022583,-2.1537890434265137,-2.070702191907598,-0.8789500227636479,2.9914331765729005
1687002793.131396,-0.6745250821113586,0.6975225806236267,0.24182240664958954,-0.17630493640899658,0.054888248443603516,0.11071658134460449,-0.4808637797832489,2.555825710296631,-2.1585071086883545,-1.9150301421982114,-0.7719342701565789,3.0302987729028525
1687002793.183588,-0.7725285291671753,0.6123291254043579,0.16808553040027618,-0.19594687223434448,0.00818479061126709,0.10898353159427643,-1.0230066776275635,2.716853618621826,-2.2072784900665283,-1.7850356696749456,-0.6590032482179036,3.0285584637714544
1687002793.273284,-0.851295530796051,0.5172891020774841,0.08779215812683105,-0.17612433433532715,0.11031997203826904,0.20525288581848145,-0.9012700915336609,2.6680405139923096,-2.1283390522003174,-1.6735607500867051,-0.5436803020737166,2.983854889536069
1687002793.3940458,-0.9037954807281494,0.4279506504535675,-0.003448405070230365,-0.1703316569328308,0.14684787392616272,0.27003467082977295,-0.8392148017883301,2.2729368209838867,-1.7660151720046997,-1.5669808747686464,-0.4422240742918349,2.9425249254568766
1687002793.414095,-0.9289335012435913,0.3633156418800354,-0.07130447030067444,-0.010565340518951416,0.17899692058563232,0.24237072467803955,-0.6670544147491455,1.3609126806259155,-1.0668772459030151,-1.4941870527125596,-0.3718242555300795,2.897493275509345
1687002793.4862828,-0.9382882714271545,0.3295535445213318,-0.10492604225873947,0.07039892673492432,0.18883323669433594,0.2679356336593628,-0.24400289356708527,0.500794529914856,-0.4871359169483185,-1.4594319202773358,-0.33583066799289935,2.87069481482517
1687002793.504253,-0.941849946975708,0.3160988390445709,-0.1140180379152298,0.04675418138504028,0.1589529812335968,0.22769594192504883,-0.35849592089653015,0.11273650825023651,-0.14170369505882263,-1.4503250035054387,-0.32161465643585385,2.8516083654232665
1687002793.5069141,-0.941842794418335,0.31765225529670715,-0.10967738181352615,0.035241901874542236,0.14154568314552307,0.16392230987548828,0.28355279564857483,-0.268300861120224,0.16323278844356537,-1.4548686855837007,-0.32325247758820547,2.8534651547421475
1687002793.570991,-0.9407835006713867,0.32382121682167053,-0.10032930970191956,-0.03364264965057373,0.0652778148651123,0.042528994381427765,0.5950249433517456,-0.45977842807769775,0.2247331589460373,-1.4645534611523645,-0.3297655552589975,2.8806029073370056
1687002793.5746021,-0.9386420845985413,0.3334493339061737,-0.08810384571552277,0.032346487045288086,-0.04466158151626587,-0.045120708644390106,0.30569225549697876,-0.35065606236457825,0.2594629228115082,-1.4772074435316622,-0.3399599566645165,2.9043471560426926
1687002793.694948,-0.9356794357299805,0.34394800662994385,-0.07876434922218323,-0.015629708766937256,-0.06413239240646362,-0.09123384952545166,0.08792557567358017,-0.14863264560699463,0.16549992561340332,-1.4868155427443024,-0.3511182117808346,2.911943422196744
1687002793.715331,-0.9341781735420227,0.34867575764656067,-0.07573806494474411,-0.02697288990020752,-0.04104340076446533,-0.05753225088119507,0.15009860694408417,-0.055473536252975464,0.060953810811042786,-1.4898987291129895,-0.3561578307913099,2.917427989154113
1687002793.784597,-0.9332619905471802,0.3515438437461853,-0.07374881953001022,-0.013545811176300049,-0.031094074249267578,-0.009457409381866455,-0.15013253688812256,-0.040705643594264984,0.06430540233850479,-1.4919375659306502,-0.35921970714571644,2.917656219873925
1687002793.801845,-0.9329278469085693,0.3529544174671173,-0.07119535654783249,-0.0008184313774108887,0.008236318826675415,0.0028054118156433105,0.038215138018131256,-0.07321139425039291,0.029595090076327324,-1.494630061474409,-0.3607268575839481,2.915360605802944
1687002793.838424,-0.9325650334358215,0.3546021580696106,-0.06767109036445618,-0.005926609039306641,0.006481736898422241,0.012251146137714386,-0.01963038183748722,-0.08634915947914124,0.05363544821739197,-1.4983588212581704,-0.3624885494998941,2.915197854390223
1687002793.9695191,-0.931617796421051,0.3578384518623352,-0.0635591670870781,0.014244258403778076,0.03518211841583252,0.008841097354888916,0.19951947033405304,-0.1691456437110901,0.11221380531787872,-1.5026773776403037,-0.36595203488603373,2.9200109950537256
1687002793.98698,-0.9296894669532776,0.36401358246803284,-0.056318074464797974,-0.008146286010742188,0.006271421909332275,0.03416227549314499,0.006708414293825626,-0.20537994801998138,0.1606263518333435,-1.5102929676505377,-0.3725735034098432,2.9251413244019036
1687002794.0512938,-0.9266982078552246,0.3730038106441498,-0.04580872133374214,0.0008559823036193848,0.028027623891830444,0.010270953178405762,0.1929931342601776,-0.30159956216812134,0.21584805846214294,-1.5214043407183628,-0.38224437436238073,2.930583190644703
1687002794.05508,-0.9227261543273926,0.3839106261730194,-0.03447996452450752,-0.0012087225914001465,0.032410115003585815,0.030497372150421143,0.3356735110282898,-0.39622047543525696,0.29163336753845215,-1.5334462093842791,-0.39402776004722523,2.943818881854309
1687002794.143783,-0.9157642722129822,0.4012911915779114,-0.01846185512840748,-0.008704543113708496,0.00999411940574646,0.03666555881500244,0.31218472123146057,-0.6328359246253967,0.5110980272293091,-1.5506390055199768,-0.4129260821212698,2.9656935405561624
1687002794.148783,-0.9042353630065918,0.42695149779319763,0.008393465541303158,-0.012375175952911377,0.017277538776397705,0.03472781181335449,0.2857857346534729,-0.7725051045417786,0.6107841730117798,-1.5800784502949425,-0.44111886258592736,2.981663885153114
1687002794.234305,-0.8897528052330017,0.4548988342285156,0.03750782459974289,-0.01854175329208374,0.0015830397605895996,0.01872074604034424,0.05653469264507294,-0.7135611176490784,0.5997099280357361,-1.6129267130131146,-0.47225859956732447,2.991924830237146
1687002794.2539139,-0.8758962750434875,0.47819361090660095,0.06431494653224945,-0.008579373359680176,0.0034194886684417725,-0.0019522905349731445,0.11888528615236282,-0.6024277210235596,0.46263307332992554,-1.6440923710389603,-0.49859674634198775,2.996155620796952
1687002794.320792,-0.8629520535469055,0.4981161952018738,0.08481819182634354,-0.03475308418273926,0.0018685460090637207,-0.016764037311077118,0.1834012269973755,-0.5593317747116089,0.46524298191070557,-1.6687700581382965,-0.5214248907299663,3.0037646314234996
1687002794.324513,-0.8479236960411072,0.5197742581367493,0.10420931130647659,-0.02014857530593872,0.037247657775878906,-0.0014415010809898376,0.49736958742141724,-0.690780758857727,0.5176212191581726,-1.6930825026625533,-0.5465866616080816,3.0151305690627326
1687002794.415299,-0.8264219164848328,0.5521079301834106,0.11046940833330154,-0.07941603660583496,0.16406327486038208,0.13559377193450928,2.218046188354492,-1.3712010383605957,0.7226675748825073,-1.703680519583648,-0.5848902981270168,3.0857105473689908
1687002794.5077682,-0.785660982131958,0.6112743020057678,0.09529101848602295,-0.21293509006500244,0.2986987233161926,0.08168040961027145,3.6604411602020264,-2.0984768867492676,1.5780080556869507,-1.6914944891295434,-0.6576697036058516,-3.0246778106048646
1687002794.513982,-0.7018904685974121,0.7076460123062134,0.08115699887275696,-0.37818753719329834,0.2560836672782898,0.06592237204313278,2.2257590293884277,-2.4463918209075928,2.9376368522644043,-1.685911440431557,-0.786161073247065,-2.8351186392980683
1687002794.595683,-0.5653743743896484,0.8208128809928894,0.08135104924440384,-0.20687294006347656,0.1529725193977356,0.1621333360671997,1.692013144493103,-2.309802532196045,3.533552885055542,-1.7137042728583034,-0.9628327231021196,-2.7171639901270424
1687002794.614019,-0.41345447301864624,0.9085813164710999,0.05945559963583946,0.005373507738113403,-0.10068970918655396,-0.06705452501773834,1.9383412599563599,-1.617123007774353,3.067164182662964,-1.7136192682123814,-1.1398749978253309,-2.602508548290227
1687002794.678955,-0.28323957324028015,0.9585810899734497,0.029959429055452347,0.04088422656059265,-0.4810115098953247,0.007714513689279556,0.29029786586761475,-1.2415343523025513,2.2981951236724854,-1.67617864321294,-1.2819780275506836,-2.4874516300626257
1687002794.695862,-0.19324500858783722,0.9807776808738708,0.027048448100686073,-0.06374351680278778,-0.3187445402145386,-0.021463748067617416,0.5044662356376648,-0.722252368927002,1.4289922714233398,-1.7098625635353681,-1.3744077403945418,-2.47137099031829
1687002794.7710218,-0.13524271547794342,0.9907320737838745,0.012627094984054565,-0.13117572665214539,-0.25087910890579224,0.08744001388549805,0.17830979824066162,-0.4364961087703705,0.9284944534301758,-1.6638926199975927,-1.434544303525471,-2.3974081731797625
1687002794.774519,-0.09981223195791245,0.9949687123298645,0.008652966469526291,-0.11915136873722076,-0.15587258338928223,0.05653250217437744,0.04395032301545143,-0.2762426733970642,0.5046220421791077,-1.6572725602710623,-1.4704415696788629,-2.3734817515487845
1687002794.831912,-0.08126161247491837,0.9965903162956238,0.014292364940047264,-0.08400629460811615,-0.13784098625183105,0.043721556663513184,-0.3302086889743805,-0.3411256670951843,0.24280831217765808,-1.7448965819156828,-1.4881933211196876,-2.44703626350469
1687002794.9248738,-0.07553242892026901,0.9967343211174011,0.028557995334267616,-0.034864895045757294,-0.024108588695526123,0.01656222715973854,-0.022932767868041992,-0.4856703281402588,-0.009307833388447762,-1.9322725914922967,-1.489957800446394,-2.613820334039057
1687002794.930496,-0.08031485229730606,0.9962590932846069,0.03189561888575554,0.0009844303131103516,-0.08712518215179443,-0.011570926755666733,-0.3505948483943939,-0.5238138437271118,-0.1757013350725174,-1.9488281060218327,-1.4842719198200633,-2.605660222528573
1687002794.985968,-0.09086176753044128,0.9940193295478821,0.060577746480703354,-0.004047863185405731,0.027587056159973145,-0.009659171104431152,-0.4492650330066681,-0.6002384424209595,-0.2827457785606384,-2.1588235820736563,-1.4613735944200916,-2.7885034832052544
1687002795.081761,-0.10252397507429123,0.9922316670417786,0.07046308368444443,0.002731531858444214,0.037263453006744385,-0.04377555847167969,0.13181379437446594,-0.6225714087486267,-0.24820217490196228,-2.172936938058341,-1.4460694779312706,-2.7711412428337594
1687002795.100435,-0.1102645993232727,0.991264820098877,0.07235977053642273,0.010960422456264496,-0.004280507564544678,-0.0032985135912895203,-0.17245927453041077,-0.5634751319885254,-0.1750648468732834,-2.1515439795933284,-1.4385242337949589,-2.7204165991970735
1687002795.1267362,-0.11575496941804886,0.9895607233047485,0.08584973216056824,-0.008192121982574463,0.06503510475158691,-0.028018958866596222,-0.1067604199051857,-0.5102864503860474,-0.11937042325735092,-2.2089323156825267,-1.4261761279570697,-2.7505191208385242
1687002795.190382,-0.1173485517501831,0.9886488318443298,0.09382177889347076,0.012307092547416687,0.011030614376068115,0.010273568332195282,-0.2129049003124237,-0.5811303853988647,-0.04900384694337845,-2.2452407094318976,-1.4199805000729995,-2.7604261389600655
