Timestamp,gravityX,gravityY,gravityZ,accelerationX,accelerationY,accelerationZ,rotationRateX,rotationRateY,rotationRateZ,attitudeRoll,attitudePitch,attitudeYaw
1687006900.5636492,-0.10356118530035019,0.33409345149993896,-0.9368333220481873,0.004165433347225189,0.017301201820373535,-0.012263357639312744,0.029265835881233215,0.000276308273896575,-0.005245129577815533,-0.1100968670359914,-0.340643252115044,-1.2814008689796883
1687006900.569107,-0.1038271114230156,0.33308863639831543,-0.9371616244316101,0.0058351680636405945,0.005793839693069458,-0.005511105060577393,0.013852259144186974,-0.0066633569076657295,-0.004739661701023579,-0.11033893389170846,-0.33957737141087796,-1.2815438924180649
1687006900.6152902,-0.10377544164657593,0.33265337347984314,-0.9373219013214111,0.0023197531700134277,0.001743018627166748,0.006093323230743408,0.02474259026348591,-0.0010291733779013157,-0.0029020803049206734,-0.11026575738597078,-0.3391157843921175,-1.2816475903373292
1687006900.705213,-0.1041061207652092,0.33167582750320435,-0.9376316070556641,-0.004627995193004608,-0.015834182500839233,0.012826979160308838,-0.006694628391414881,0.0003621951909735799,-0.006035821978002787,-0.11057802780466357,-0.33807939588012814,-1.2818124316774955
1687006900.720541,-0.1043049544095993,0.33094581961631775,-0.9378674030303955,-0.006168670952320099,-0.006315052509307861,0.008775055408477783,0.024475540965795517,0.0016500998754054308,-0.0076773944310843945,-0.110759874383857,-0.3373056855568456,-1.281898503283541
1687006900.765483,-0.10440431535243988,0.3308080732822418,-0.9379050135612488,-0.01147092878818512,0.005114197731018066,-0.004447281360626221,-0.005555660929530859,0.01470238622277975,-0.00923161581158638,-0.11086011406368287,-0.337159727229263,-1.2822193776810065
1687006900.828975,-0.10411867499351501,0.3299322724342346,-0.9382451772689819,0.012443870306015015,0.00920957326889038,-0.017290711402893066,0.040512565523386,8.788949344307184e-05,-0.007945308461785316,-0.11051952446003015,-0.33623183530409323,-1.282445856256393
1687006900.946856,-0.10473832488059998,0.3306058347225189,-0.9379390478134155,-0.0008372217416763306,0.012991577386856079,-0.0020480751991271973,-0.028125286102294922,-0.00546466838568449,-0.005413440987467766,-0.1112078598508693,-0.3369454290953127,-1.283172188433768
1687006900.960149,-0.10435791313648224,0.3299083113670349,-0.9382269978523254,0.011813364923000336,-0.003522813320159912,0.002390265464782715,0.019562141969799995,-0.008041676133871078,-0.00042134616523981094,-0.11077352507523772,-0.3362064447355343,-1.2830134354965381
1687006901.039289,-0.10487916320562363,0.3303278684616089,-0.9380212426185608,-0.006708353757858276,-0.0035761594772338867,0.013811707496643066,-0.018845167011022568,-0.00043835112592205405,-0.008060356602072716,-0.11134648593905101,-0.3366509180637974,-1.2835240348640746
1687006901.052887,-0.1046215295791626,0.3295648694038391,-0.9383183717727661,-0.006676077842712402,-0.0009668469429016113,0.007730603218078613,0.02685953676700592,0.0080135902389884,-0.011151221580803394,-0.11104033039088892,-0.33584267229710896,-1.2837827546522877
1687006901.1289768,-0.10473271459341049,0.32844993472099304,-0.9386968016624451,-0.005466245114803314,-0.010594099760055542,-0.0010004043579101562,0.005566099192947149,0.01141924038529396,-0.018225643783807755,-0.11111292678217649,-0.33466200324004247,-1.284133388446536
1687006901.141418,-0.10472298413515091,0.3279741406440735,-0.9388642311096191,-0.0019054338335990906,0.014951884746551514,-0.00910329818725586,0.03671649470925331,0.006984411738812923,0.0010383324697613716,-0.11108303379677872,-0.3341582986114602,-1.2843967670787064
1687006901.2181501,-0.10470064729452133,0.32804661989212036,-0.9388414025306702,0.005579560995101929,0.007997691631317139,-0.009019315242767334,-0.021657399833202362,-0.0004451422137208283,-0.008951983414590359,-0.1110622178532949,-0.3342350223659956,-1.2847794597638975
1687006901.223247,-0.10480736941099167,0.3278939425945282,-0.9388828277587891,0.004938602447509766,0.0035422146320343018,0.003259718418121338,0.028360160067677498,-0.008119706995785236,-0.005798800848424435,-0.11116962632067452,-0.33407338964477573,-1.285269929589236
1687006901.338027,-0.10529851168394089,0.32666587829589844,-0.9392558932304382,-0.0009484216570854187,-0.011785507202148438,0.009476900100708008,0.01870773360133171,-0.012128429487347603,-0.008694987744092941,-0.11164227938810653,-0.33277377264577496,-1.2853615166949348
1687006901.351108,-0.10539556294679642,0.3256375193595886,-0.9396020174026489,-0.002011038362979889,-0.006438910961151123,0.012035548686981201,0.031265802681446075,0.001292703440412879,-0.009008708409965038,-0.11170349672378288,-0.3316859143048324,-1.2853339291878694
1687006901.397046,-0.10563754290342331,0.3232632875442505,-0.9403943419456482,-0.01830960065126419,-0.0181942880153656,0.011225700378417969,0.02808845043182373,0.02783443219959736,-0.018599817529320717,-0.11186428287693076,-0.3291758925833914,-1.285659823498058
1687006901.4078321,-0.1048852726817131,0.31962013244628906,-0.9417229294776917,-0.005557842552661896,-0.008737534284591675,-0.00914376974105835,0.10043694823980331,0.012034164741635323,-0.018056532368063927,-0.11091881045819386,-0.32532855791211784,-1.2854955540002744
1687006901.451405,-0.10520648211240768,0.3193768560886383,-0.9417695999145508,0.00022602081298828125,0.017842382192611694,0.005612432956695557,0.027368798851966858,-0.003049580380320549,-0.0073950993828475475,-0.11125023567943823,-0.32507183569922193,-1.285874325173598
1687006901.549665,-0.10513362288475037,0.3181520104408264,-0.9421922564506531,-0.002990148961544037,0.038857877254486084,-0.017661869525909424,0.04642171785235405,0.008665132336318493,0.01173784863203764,-0.1111243655421814,-0.32377958359416686,-1.2861796259246703
1687006901.6397161,-0.1056828573346138,0.3154486417770386,-0.9430394172668457,-0.0022578164935112,-0.042545169591903687,0.002213001251220703,-0.005026757251471281,-0.006980272941291332,-0.013013836927711964,-0.11160058239113914,-0.32092939778305923,-1.2861622075010124
1687006901.6538491,-0.10608598589897156,0.31685349345207214,-0.9425230026245117,-0.0039451345801353455,0.010142356157302856,0.009356558322906494,0.021134939044713974,-0.011712710373103619,-0.0044363271445035934,-0.11208359437731846,-0.3224101928752543,-1.2865626907367116
1687006901.728647,-0.10596638917922974,0.3160371482372284,-0.9428104758262634,-0.0015775486826896667,-0.0013245940208435059,0.009125232696533203,0.0019851461984217167,0.015695611014962196,-0.0009473199024796486,-0.11192444266404478,-0.3215496297547873,-1.2864588991890866
1687006901.7415462,-0.1063351184129715,0.3166615664958954,-0.9425594210624695,-0.027347125113010406,-0.0032918453216552734,-0.024847745895385742,-0.04113629087805748,0.025520943105220795,0.015823669731616974,-0.11234030057618061,-0.3222078516075245,-1.286422198903328
1687006901.816746,-0.105389803647995,0.3159688711166382,-0.9428980350494385,-7.894635200500488e-05,0.025263458490371704,-0.0010411739349365234,0.07999472320079803,0.007120764814317226,-0.004708502441644669,-0.11131021784427628,-0.32147765311606946,-1.2863416244704406
1687006901.8221369,-0.10554526746273041,0.3156524896621704,-0.9429866075515747,-0.026901014149188995,0.05859985947608948,-0.10921370983123779,-0.023051030933856964,0.03243637457489967,-0.011234578676521778,-0.1114626795657377,-0.32114420749492745,-1.2870467986388208
1687006901.877398,-0.10515615344047546,0.3147922158241272,-0.9433175921440125,0.005485743284225464,0.0541042685508728,-0.04948025941848755,0.03734194114804268,0.14132438600063324,-0.0410742349922657,-0.11101647956628638,-0.32023774182092496,-1.2872793219405303
1687006901.970343,-0.10372388362884521,0.29912108182907104,-0.9485609531402588,0.12169873714447021,0.10184940695762634,0.10774070024490356,0.41137951612472534,-0.16345243155956268,-0.034108735620975494,-0.10891593916304047,-0.30377141775200006,-1.283598400507294
1687006901.976213,-0.11306026577949524,0.27691447734832764,-0.9542199969291687,-0.16138431429862976,-0.17345985770225525,0.1044732928276062,0.16896827518939972,-0.12081509828567505,-0.09171637147665024,-0.11793465951212512,-0.2805815201866987,-1.2879233468566667
1687006902.026464,-0.11306224018335342,0.2785368263721466,-0.9537474513053894,0.009195663034915924,0.05837726593017578,-0.017031967639923096,-0.06704072654247284,0.005333917215466499,-0.03241922706365585,-0.11799459261614671,-0.282270319047531,-1.290092760527542
1687006902.117784,-0.11432120949029922,0.27957606315612793,-0.9532932043075562,0.009569622576236725,0.016108781099319458,-0.017242074012756348,-0.0005607688799500465,-0.029532985761761665,-0.03301018103957176,-0.11935242873104296,-0.2833525371059635,-1.2917561513963902
1687006902.12392,-0.11716590821743011,0.28104355931282043,-0.9525159597396851,-0.007971420884132385,-0.012794047594070435,0.0013898611068725586,-0.05309095233678818,-0.061491452157497406,-0.0008764797821640968,-0.1223919441614541,-0.2848813294484736,-1.29274477058219
1687006902.23495,-0.11815562099218369,0.28248023986816406,-0.9519685506820679,0.011115215718746185,0.0012569725513458252,0.0033144354820251465,-0.028210438787937164,-0.024733835831284523,0.005117763765156269,-0.12348562475835644,-0.2863786589648008,-1.2925437650941947
1687006902.239891,-0.11997216194868088,0.2844790518283844,-0.9511458277702332,-0.004310667514801025,2.110004425048828e-05,0.0011031031608581543,-0.058124661445617676,-0.015610380098223686,0.00019757263362407684,-0.12547174374260217,-0.28846298730618386,-1.2930300016474303
1687006902.329076,-0.12000832706689835,0.2853130102157593,-0.9508914351463318,0.008863307535648346,-0.0023997724056243896,-0.05194669961929321,-0.014371456578373909,-0.02026825025677681,0.02259448915719986,-0.1255423942921159,-0.28933301179604654,-1.2925105483199952
1687006902.3429441,-0.11960584670305252,0.28590628504753113,-0.9507639408111572,-0.010902568697929382,0.002515345811843872,0.019184350967407227,0.020547645166516304,0.05354711785912514,-0.006243281997740269,-0.1251423460679705,-0.2899520736930415,-1.291873064380378
1687006902.416826,-0.11333227902650833,0.277069628238678,-0.9541426301002502,0.028462901711463928,0.08439585566520691,-0.0023697614669799805,0.4347217082977295,0.1445210874080658,-0.03283361345529556,-0.118225259936231,-0.2807430001889476,-1.2916901889233794
1687006902.422977,-0.10409592092037201,0.24053677916526794,-0.965041995048523,-0.011168964207172394,0.05525486171245575,0.060516297817230225,1.2517017126083374,0.09932925552129745,0.08336836099624634,-0.10745127000347911,-0.24291883483967208,-1.2860163814873646
1687006902.5083609,-0.11185913532972336,0.18611207604408264,-0.9761402606964111,0.040005505084991455,0.012496352195739746,0.10597735643386841,0.9620416760444641,-0.32975447177886963,0.284679651260376,-0.11409561364059681,-0.18720359081562946,-1.2691465791101555
1687006902.522094,-0.08005031198263168,0.12146275490522385,-0.9893627762794495,-0.14973178505897522,0.15313443541526794,-0.07800471782684326,1.741263508796692,1.7484312057495117,0.43470507860183716,-0.08073510546575785,-0.12176341535728669,-1.242908197656787
1687006902.565633,-0.002561647677794099,0.05495957285165787,-0.998485267162323,0.11433227360248566,0.030810125172138214,0.5838429927825928,1.183902621269226,0.8018161654472351,0.8154697418212891,-0.002565528044739502,-0.05498727950984849,-1.2078937684277795
1687006902.659062,0.02757425792515278,0.0081029012799263,-0.9995869398117065,-0.08862467855215073,-0.2816776633262634,-0.13360702991485596,0.06019885092973709,0.8667027354240417,0.2645685076713562,0.027578659549357,-0.008102990130989139,-1.181875177693979
1687006902.673003,0.05063575878739357,0.024536792188882828,-0.9984157085418701,0.051338713616132736,-0.15667785704135895,0.2135646939277649,-0.5114772319793701,-0.039543140679597855,-0.37224045395851135,0.05067269228507588,-0.024539254705800755,-1.185726886792961
1687006902.7155561,0.0465102456510067,0.03913529962301254,-0.9981508851051331,0.011030636727809906,-0.03481701761484146,-0.010043025016784668,-0.20783552527427673,-0.07408900558948517,-0.15470971167087555,0.046562725221508894,-0.0391452952679294,-1.1988738897800706
1687006902.807132,0.03491733595728874,0.049688920378685,-0.9981541633605957,0.06591273844242096,-0.027868803590536118,-0.03561347723007202,-0.14073698222637177,-0.4681272506713867,-0.18180151283740997,0.03496764504694712,-0.049709389454140114,-1.2038838290080502
1687006902.820785,0.02181379497051239,0.06157015264034271,-0.9978643655776978,-0.012643272057175636,-0.016251500695943832,0.015518784523010254,-0.33918362855911255,-0.1261661797761917,-0.10033542662858963,0.021857000840640524,-0.06160911880574526,-1.2113708939510068
1687006902.8651729,0.012623398564755917,0.07589935511350632,-0.997035562992096,0.025523565709590912,0.05351047217845917,0.007228493690490723,-0.056312382221221924,-0.23107555508613586,-0.08915547281503677,0.012660254904754802,-0.0759724169205175,-1.2166500949757761
1687006902.958208,0.008684823289513588,0.07543228566646576,-0.9971131086349487,-0.043459612876176834,0.019233286380767822,-0.02266228199005127,0.018876444548368454,0.09337776154279709,-0.038624126464128494,0.008709748151263106,-0.07550400526591002,-1.2199013818629387
1687006902.97277,0.013967244885861874,0.0705348327755928,-0.9974115490913391,0.008783601224422455,0.012762941420078278,0.01651555299758911,0.11986837536096573,0.059257738292217255,0.010978315956890583,0.014002576883428703,-0.07059345196007025,-1.220702905529589
1687006903.0150042,0.014248231425881386,0.07075967639684677,-0.9973916411399841,0.0022007357329130173,-0.03152928501367569,-0.02303987741470337,-0.07908274233341217,0.011495674028992653,-0.020037658512592316,0.01428452163780115,-0.07081885958043571,-1.2205670863279452
1687006903.0799952,0.013790009543299675,0.07632607966661453,-0.996987521648407,0.010807149112224579,0.023954719305038452,0.019326448440551758,-0.10733355581760406,-0.04734420403838158,-0.00896183680742979,0.013830794913387158,-0.07640038233700838,-1.2211338990741198
1687006903.1679711,0.011762714013457298,0.07531557232141495,-0.9970903396606445,-0.008558375760912895,0.009508080780506134,0.008549749851226807,0.07203593105077744,-0.02354433573782444,0.007474926300346851,0.011796492115227012,-0.0753869581854142,-1.221091363152638
1687006903.1739612,0.01320241391658783,0.07223039120435715,-0.9973005652427673,0.0021174009889364243,-0.015101447701454163,-0.006178379058837891,0.004020067397505045,0.022646993398666382,0.026963673532009125,0.013237376097463538,-0.07229334953528115,-1.220216855879223
1687006903.224925,0.010967528447508812,0.07833975553512573,-0.9968664050102234,-0.008129402995109558,0.006865367293357849,-0.008779346942901611,-0.15045231580734253,-0.04258101060986519,-0.02186219021677971,0.011001560983803095,-0.07842010830692844,-1.219979647772366
1687006903.321836,0.010688151232898235,0.08099844306707382,-0.9966568946838379,0.004768994636833668,-0.0013170018792152405,0.004713535308837891,-0.04286348447203636,-0.0007934835739433765,-0.034107934683561325,0.010723591250699141,-0.08108727137674791,-1.22134234923544
1687006903.326921,0.010246464982628822,0.08439476788043976,-0.9963797330856323,-0.00572986900806427,0.009477347135543823,-0.004261136054992676,-0.05625046417117119,-0.007141261361539364,-0.010041482746601105,0.010283332153857305,-0.0844952758391343,-1.2219757678881473
1687006903.377846,0.011039109900593758,0.08605532348155975,-0.9962291717529297,0.002098699100315571,0.018330097198486328,-0.011720597743988037,0.02547069825232029,0.017522139474749565,0.008041114546358585,0.011080440317384614,-0.08616189295770853,-1.2222342965801598
1687006903.468956,0.010968470945954323,0.0865812823176384,-0.9961844086647034,-0.0060398876667022705,0.034054748713970184,-0.01089566946029663,-0.03246690332889557,0.005421801470220089,0.014915532432496548,0.011010037152172988,-0.08668982444987765,-1.221799644777636
1687006903.474276,0.011612273752689362,0.08604402095079422,-0.9962236881256104,0.0019680438563227654,-0.004577301442623138,0.01714348793029785,0.030862467363476753,0.001989386510103941,-0.006114385090768337,0.01165576358356397,-0.08615054788708719,-1.221287675390196
1687006903.5274239,0.00815393403172493,0.08914616703987122,-0.9959851503372192,0.015359854325652122,-0.041584476828575134,0.018522441387176514,-0.2336057424545288,-0.19143560528755188,-0.02336288057267666,0.008186619843058936,-0.08926466446085812,-1.2218316016961681
1687006903.618994,-0.0195587407797575,0.10547032952308655,-0.9942300915718079,0.03222353011369705,-0.061021432280540466,0.04009801149368286,-0.3315972089767456,-1.0468676090240479,-0.3225160241127014,-0.019669710056631325,-0.10566685328169798,-1.2309514330381945
1687006903.624762,-0.07404258102178574,0.13169167935848236,-0.9885216355323792,-0.029198385775089264,-0.08879917860031128,0.04836660623550415,-0.7112023830413818,-0.9606756567955017,-0.2689872980117798,-0.07476272836558567,-0.1320753222188379,-1.2446200595222239
1687006903.674697,-0.12311715632677078,0.15216249227523804,-0.9806572794914246,-0.04938344657421112,-0.00810423493385315,-0.12484192848205566,-0.5000928640365601,-0.7322156429290771,-0.24995474517345428,-0.1248921090546859,-0.15275587178516098,-1.259509364112972
1687006903.7681909,-0.14760717749595642,0.2087811976671219,-0.9667587876319885,0.057290419936180115,-0.1329755038022995,-0.037483155727386475,-1.3737773895263672,-0.32350319623947144,-0.003936984576284885,-0.15151241462989198,-0.21032852637900323,-1.2753314249693017
1687006903.774187,-0.15972571074962616,0.2349928766489029,-0.9587836265563965,-0.14017052948474884,0.2441026121377945,0.13903570175170898,0.10060526430606842,0.05581120774149895,-0.03942094370722771,-0.16507605394883024,-0.23721123994146556,-1.2808755445600275
1687006903.825923,-0.15743546187877655,0.24331867694854736,-0.9570841789245605,-0.01088424026966095,-0.08101090788841248,0.019828319549560547,-0.3345130980014801,0.04563247039914131,0.02692931890487671,-0.16303485973046847,-0.24578589213569704,-1.2815720606284806
1687006903.918325,-0.1536695659160614,0.2506902813911438,-0.9557929039001465,0.010511621832847595,-0.004474431276321411,0.054700374603271484,-0.050272002816200256,0.05713852494955063,0.006999020464718342,-0.1594128291031579,-0.25339324098442134,-1.2810622187814684
1687006903.924005,-0.15037404000759125,0.2540355622768402,-0.95543372631073,-0.010423079133033752,0.04871407151222229,0.00838172435760498,-0.008917035534977913,0.06708183884620667,0.010622783564031124,-0.1561076718658696,-0.2568504380726526,-1.2815787357195878
1687006903.978168,-0.1479841023683548,0.25578317046165466,-0.9553406238555908,-0.004893705248832703,0.016723573207855225,-0.03377985954284668,-0.03643960878252983,0.06478193402290344,0.003235706128180027,-0.15368052650720754,-0.25865772363471257,-1.2821227202037593
1687006904.067914,-0.14797767996788025,0.2554727792739868,-0.9554246664047241,-0.008501186966896057,-0.006754487752914429,-0.008350968360900879,0.014091542921960354,-0.008331295102834702,0.010043279267847538,-0.15366066319872065,-0.25833666862272986,-1.2820356008751075
1687006904.073986,-0.1469571590423584,0.25847697257995605,-0.9547739028930664,0.007934361696243286,0.021170824766159058,0.010941565036773682,-0.042879533022642136,0.012260399758815765,-0.00845210812985897,-0.15271978862423025,-0.26144527167517195,-1.2820952609572405
1687006904.1258411,-0.1464853137731552,0.25841423869132996,-0.954863429069519,0.0018167346715927124,-0.005713403224945068,-0.005265355110168457,-0.009573705494403839,0.017576469108462334,0.005089533515274525,-0.1522229428324917,-0.2613803130187753,-1.2823237319635266
1687006904.218817,-0.1462576538324356,0.26058429479599,-0.9543083906173706,-0.0031716525554656982,0.0013175606727600098,-0.0016394257545471191,-0.05486548691987991,0.010533872991800308,-0.006110922899097204,-0.15207703265149627,-0.2636273656333371,-1.2829316487244966
1687006904.225029,-0.1462530642747879,0.2602894604206085,-0.9543895721435547,-0.004656344652175903,0.003046751022338867,0.0049266815185546875,0.021777426823973656,-0.0016174656338989735,-0.003886384889483452,-0.15205960269642332,-0.2633219946267365,-1.2829375210845566
1687006904.312148,-0.1457219421863556,0.26048341393470764,-0.954417884349823,0.007095843553543091,0.013717025518417358,-0.007450401782989502,0.028750579804182053,0.0015571555122733116,-0.005509315058588982,-0.15151138924099544,-0.2635228793191391,-1.2832482194904664
1687006904.323951,-0.14491482079029083,0.25783732533454895,-0.9552589058876038,-0.007032185792922974,0.03113362193107605,-0.005770087242126465,0.09232263267040253,0.0482543520629406,-0.004916228819638491,-0.15055421025427285,-0.26078316515243727,-1.2834937342298134
1687006904.364091,-0.14306201040744781,0.25337791442871094,-0.956730306148529,0.005061551928520203,-0.016485214233398438,-0.003627300262451172,0.06396569311618805,0.009471271187067032,0.00012939609587192535,-0.14843243471859147,-0.25617053727627903,-1.2830629226952301
1687006904.460712,-0.143067866563797,0.252593457698822,-0.9569368362426758,-0.004515111446380615,0.0038457512855529785,0.006604254245758057,0.03132026642560959,0.007670974358916283,0.0005525723099708557,-0.14840685622213198,-0.25535969499209143,-1.2829191062882095
1687006904.474365,-0.14224021136760712,0.25180524587631226,-0.9572678804397583,0.0006386637687683105,-0.005680948495864868,0.006584346294403076,-0.0036379187367856503,0.024398155510425568,-0.014230635017156601,-0.14751046255729297,-0.25454514275321294,-1.282901266664151
1687006904.515823,-0.14201273024082184,0.24959446489810944,-0.957880437374115,-0.005616053938865662,0.013299256563186646,0.00014734268188476562,0.08671814203262329,0.030807984992861748,-0.019425928592681885,-0.1471851178030688,-0.25226143555074637,-1.2833960663259614
1687006904.612683,-0.14154408872127533,0.24796521663665771,-0.9583728313446045,-0.0042994022369384766,0.006459847092628479,-0.014222323894500732,0.013197055086493492,0.0031425354536622763,-0.023814819753170013,-0.14663206300660497,-0.25057930381278076,-1.2841976701765105
1687006904.617557,-0.14265413582324982,0.24674491584300995,-0.9585232138633728,0.001296713948249817,0.002476915717124939,-0.0006442666053771973,0.03912632167339325,-0.017628921195864677,-0.024140523746609688,-0.14774256133596606,-0.249319862612077,-1.2851374169020642
1687006904.667299,-0.14297053217887878,0.24619439244270325,-0.958617627620697,-0.005100756883621216,0.0006012916564941406,0.0065912604331970215,-0.013160251080989838,0.008047012612223625,-0.008867028169333935,-0.14805110627119897,-0.24875182750731928,-1.2860209364925066
1687006904.789593,-0.14319299161434174,0.24592769145965576,-0.9586528539657593,0.0065810829401016235,-0.008241519331932068,0.0037884116172790527,0.004795380402356386,-0.015138333663344383,-0.007490972988307476,-0.14827275197134018,-0.24847665528616233,-1.2863961970384836
1687006904.796309,-0.144208163022995,0.24456489086151123,-0.958849310874939,-0.0013301372528076172,0.0007964521646499634,0.00445789098739624,0.03577493503689766,-0.009530382230877876,-0.007793242111802101,-0.14927829623338423,-0.24707092709439554,-1.2867283558405251
1687006904.879636,-0.1436457633972168,0.24371613562107086,-0.9591497778892517,0.0014796257019042969,7.355213165283203e-05,0.006650447845458984,0.016638124361634254,0.025005755946040154,-0.01904429867863655,-0.14865877822767898,-0.24619569576131348,-1.2871838267824987
1687006904.892637,-0.14386588335037231,0.2430562525987625,-0.959284245967865,0.00031119585037231445,0.0054789334535598755,0.0028175711631774902,0.008765487931668758,-0.006871083751320839,-0.008368751034140587,-0.14886267199085787,-0.2455153491059979,-1.2878724409986109
1687006904.967638,-0.14396624267101288,0.24222776293754578,-0.9594787359237671,-0.005051091313362122,-0.0005437731742858887,-0.00995790958404541,0.01806551218032837,0.003943747375160456,-0.0007358649745583534,-0.14893523760917457,-0.24466133961558,-1.287900292919134
1687006904.973617,-0.14342550933361053,0.24211850762367249,-0.9595872759819031,0.0016866475343704224,0.0034411996603012085,-0.0049664974212646484,0.004536454100161791,0.01193176582455635,-0.0015955334529280663,-0.14836749812993907,-0.244548733299004,-1.2879781322795194
1687006905.060025,-0.14258936047554016,0.24027793109416962,-0.9601743817329407,-0.011814326047897339,0.002138480544090271,0.015289127826690674,0.14059948921203613,0.15241432189941406,-0.017687151208519936,-0.14742616113323787,-0.2426521558196268,-1.2880378420289011
1687006905.072369,-0.12774913012981415,0.2089916169643402,-0.9695373177528381,0.03831736743450165,0.04850047826766968,-0.01508176326751709,1.1042691469192505,0.20690737664699554,-0.05100409686565399,-0.13100828848216498,-0.2105436921675859,-1.2867599090203776
1687006905.1145182,-0.11903034150600433,0.15176446735858917,-0.9812234044075012,-0.03757060319185257,0.02987620234489441,0.0019448399543762207,1.1826565265655518,0.41567283868789673,0.0174306221306324,-0.12071825573124952,-0.15235317219658337,-1.28190573318785
1687006905.1786242,-0.054205164313316345,0.11393723636865616,-0.9920080900192261,0.024053793400526047,0.14137285947799683,-0.11280447244644165,0.8337255716323853,2.3194587230682373,0.46815943717956543,-0.05458757112834482,-0.1141852061647296,-1.2591599434522387
1687006905.268684,0.06539709866046906,0.0684749037027359,-0.9955071210861206,-0.07450661063194275,0.11885729432106018,0.045098185539245605,1.0888068675994873,1.961434006690979,0.5258567929267883,0.06559799427074818,-0.06852852897448454,-1.236000145837269
1687006905.274527,0.1285271793603897,0.01998000219464302,-0.9915046691894531,0.0627417117357254,0.0027098655700683594,-0.0551719069480896,0.6191213130950928,0.8288931846618652,0.37822556495666504,0.12890957949692552,-0.019981331806670406,-1.215410750089864
1687006905.327277,0.14786507189273834,0.011133900843560696,-0.9889448881149292,0.08026906847953796,-0.1973826289176941,0.1117781400680542,-0.23494383692741394,-0.03751261532306671,-0.12126839905977249,0.1484185359077481,-0.011134131226308772,-1.2110668049509032
1687006905.416606,0.14657364785671234,0.017702993005514145,-0.9890413284301758,-0.03121723234653473,0.034161679446697235,0.02724933624267578,-0.038033440709114075,0.05156692489981651,-0.027917418628931046,0.1471268438298269,-0.01770391843901396,-1.2149882386294777
1687006905.4235392,0.1466018110513687,0.014180753380060196,-0.9890939593315125,0.030323833227157593,0.010645346716046333,-0.01787930727005005,0.1389320194721222,0.016306940466165543,-0.003499693237245083,0.14714698829029982,-0.014181228618364468,-1.2162647852619253
1687006905.510675,0.1487974375486374,0.011490922421216965,-0.9888009428977966,0.002737581729888916,-0.042923975735902786,0.01976102590560913,-0.038947708904743195,0.02375207282602787,0.0163419209420681,0.14936199464932617,-0.011491175129617195,-1.214515612523728
1687006905.523659,0.14981462061405182,0.01500132866203785,-0.9886003136634827,-0.0032539665699005127,0.02801324799656868,0.014982759952545166,-0.07230187207460403,0.004416325129568577,-0.046089500188827515,0.1503978204543657,-0.01500189145418365,-1.2158294705203017
1687006905.5650558,0.1498059779405594,0.017106706276535988,-0.9885674118995667,0.009205847978591919,-0.0001388806849718094,-0.02981942892074585,-0.01889031007885933,-0.01437467336654663,0.0034397048875689507,0.15039420312101442,-0.017107540795635496,-1.2166717845072874
1687006905.658993,0.15070931613445282,0.01711670681834221,-0.9884299039840698,-0.013273432850837708,-0.0031243469566106796,-0.0069618821144104,-0.01383456215262413,0.06156456470489502,0.056223560124635696,0.15130807651377734,-0.01711754363062031,-1.2153251478367826
1687006905.673397,0.1518860012292862,0.01666332222521305,-0.9882575273513794,0.008804276585578918,0.004836361855268478,0.0006019473075866699,0.03059934638440609,-0.016039680689573288,0.001968841068446636,0.1524974729457232,-0.016664092956629937,-1.2137686843817193
1687006905.714395,0.15115392208099365,0.017612406983971596,-0.9883533120155334,-0.004043951630592346,-0.005145924165844917,0.010890543460845947,-0.06357581913471222,0.005908627528697252,-0.021053120493888855,0.15175922479058165,-0.017613317654021746,-1.2143957745076992
1687006905.839509,0.1495579332113266,0.023753872141242027,-0.9884675741195679,-0.0011509805917739868,-0.011241616681218147,0.018451154232025146,-0.17872731387615204,-0.0749281644821167,-0.04190034419298172,0.15016385346406713,-0.02375610600107476,-1.214620011084481
1687006905.845168,0.14657385647296906,0.03310590982437134,-0.988645613193512,0.000322490930557251,-0.01059914380311966,0.002470076084136963,-0.19083011150360107,-0.05249569192528725,-0.08680815994739532,0.14718508823909407,-0.033111959210394754,-1.216544545737743
1687006905.92795,0.14254207909107208,0.039425596594810486,-0.9890032410621643,0.005620747804641724,0.021579094231128693,-0.004008233547210693,-0.08865181356668472,-0.12131284177303314,-0.01554703526198864,0.1431412994597673,-0.039435816710717796,-1.2181023820371695
1687006905.940835,0.1377411186695099,0.04168577864766121,-0.9895906448364258,-0.010238707065582275,-0.005415588617324829,-0.005389213562011719,-0.0556844063103199,-0.08696472644805908,0.0025004083290696144,0.13830142318262995,-0.041697859816471304,-1.2175906891046597
1687006906.050417,0.13450254499912262,0.0474734865128994,-0.9897754192352295,-0.009014278650283813,-0.003833301365375519,0.005751371383666992,-0.13388307392597198,-0.07008747011423111,-0.02306780219078064,0.13506464575983043,-0.04749133524117792,-1.2176244924441222
1687006906.056314,0.13232740759849548,0.05096955597400665,-0.9898947477340698,-0.003756880760192871,0.028605077415704727,-0.0022774934768676758,-0.016861645504832268,-0.01150485035032034,-0.014483368955552578,0.1328904265694896,-0.05099164899194733,-1.2184582767293155
1687006906.1390119,0.12762700021266937,0.05206536874175072,-0.9904547333717346,0.010465025901794434,-0.012484021484851837,0.01482301950454712,-0.02915100008249283,-0.1841374635696411,-0.05436953157186508,0.1281508091292648,-0.052088919973357156,-1.2194776847181055
1687006906.145082,0.11660008132457733,0.05794942378997803,-0.9914869070053101,-0.004997320473194122,-0.035839393734931946,0.01683175563812256,-0.23295912146568298,-0.2159968763589859,-0.03624805435538292,0.11706354525024193,-0.057981907924148354,-1.2214139076981563
1687006906.229737,0.1093289852142334,0.06782690435647964,-0.9916887879371643,-0.0017240196466445923,0.0037368610501289368,-0.023432672023773193,-0.1496584415435791,-0.1276993751525879,-0.054505087435245514,0.10980184160381191,-0.06787902102077374,-1.2222654294377473
1687006906.242904,0.10678209364414215,0.07003740221261978,-0.9918126463890076,-0.019257694482803345,0.0156560018658638,-0.006798803806304932,0.015553684905171394,-0.042607638984918594,-0.0064912224188447,0.10725045166903667,-0.0700947891790456,-1.2235412573891018
1687006906.317789,0.10441658645868301,0.0705060213804245,-0.9920312762260437,-0.004639394581317902,-0.004588015377521515,0.0036737918853759766,-0.02661953493952751,-0.0357099212706089,-0.006298409774899483,0.104869203866735,-0.07056457018541398,-1.2235471577018346
1687006906.323464,0.10220979154109955,0.07475963234901428,-0.9919496774673462,-0.003927946090698242,0.0028771311044692993,0.008215546607971191,-0.09239275753498077,-0.012783434242010117,-0.017938287928700447,0.10267693391444638,-0.07482944403152973,-1.2242317160466467
1687006906.411376,0.10110040009021759,0.08147932589054108,-0.9915340542793274,-0.005153156816959381,-0.010953165590763092,0.008089900016784668,-0.19287627935409546,-0.025132380425930023,-0.024658774957060814,0.10161244558684562,-0.08156974989376843,-1.2243888299744754
1687006906.425539,0.10077639669179916,0.08851459622383118,-0.9909638166427612,-0.011207327246665955,0.044816747307777405,-0.00850212574005127,-0.0783555656671524,0.0461825467646122,-0.033084217458963394,0.1013469217278011,-0.08863058965947464,-1.2259967414862827
1687006906.461616,0.09976820647716522,0.0891861766576767,-0.9910055994987488,0.010369710624217987,-0.002226300537586212,0.0038688182830810547,-0.03935849666595459,-0.07679583877325058,0.01096286904066801,0.10033564240063153,-0.08930483213293453,-1.2260685136984883
1687006906.5310888,0.09378943592309952,0.09418080747127533,-0.9911273717880249,-0.00046669691801071167,-0.006152816116809845,-0.006110727787017822,-0.11347579956054688,-0.18232719600200653,-0.03384188562631607,0.09434809152481934,-0.09432059525945362,-1.2256710879288086
1687006906.544744,0.07712604850530624,0.10572421550750732,-0.9914000034332275,0.020163975656032562,-0.023601368069648743,0.011663675308227539,-0.3524475693702698,-0.5531067252159119,-0.15997424721717834,0.07763870999386495,-0.10592217204136575,-1.2292316752136538
1687006906.581368,0.03838523104786873,0.12713423371315002,-0.9911425113677979,0.06003394350409508,0.008134976029396057,-0.0042493343353271484,-0.4551427960395813,-0.9173690676689148,-0.1547621786594391,0.038708922577242205,-0.12747922930227812,-1.2370107107156703
1687006906.644609,-0.012999285012483597,0.15819652378559113,-0.9873220920562744,0.01846192218363285,-0.05092720687389374,-0.002164602279663086,-0.8868052363395691,-1.2411495447158813,-0.18792013823986053,-0.01316544486054378,-0.1588639156445927,-1.2453053690102749
1687006906.711742,-0.07305033504962921,0.20776690542697906,-0.975446879863739,-0.0024043768644332886,-0.016406401991844177,-0.042848408222198486,-1.131192922592163,-0.9738531708717346,-0.1490054875612259,-0.07474956293501414,-0.20929148778879608,-1.258409351043801
1687006906.769309,-0.1112508475780487,0.2443874180316925,-0.9632746577262878,-0.003800421953201294,-0.03929398953914642,0.04979199171066284,-0.5405224561691284,-0.5007818341255188,0.004661562852561474,-0.11498291606417499,-0.24688789876799763,-1.2634717235056319
1687006906.8588262,-0.12646956741809845,0.2580660879611969,-0.9578137993812561,-0.08303359150886536,0.04945957660675049,-0.03750169277191162,-0.19455547630786896,-0.028614595532417297,-0.1463833451271057,-0.13128040528589396,-0.2610199555115573,-1.2668564545784102
1687006906.873322,-0.1315891295671463,0.27050673961639404,-0.953682541847229,-0.06004597246646881,0.08595383167266846,0.02571934461593628,-0.09747632592916489,0.06706932187080383,0.028819363564252853,-0.1371142399499461,-0.273919355416307,-1.2722915953167957
1687006906.915055,-0.12777869403362274,0.26893869042396545,-0.9546436667442322,-0.0029280930757522583,-0.024080902338027954,0.013329029083251953,0.00943553913384676,0.041341185569763184,0.026417192071676254,-0.1330587619645859,-0.27229096604162395,-1.2711064305468327
1687006907.0084782,-0.12556672096252441,0.2721858620643616,-0.9540166854858398,-0.004606008529663086,0.009888142347335815,0.016287803649902344,-0.07244767248630524,0.050104983150959015,0.016435664147138596,-0.13086675805341777,-0.275663925528199,-1.2703699944622808
1687006907.02286,-0.12418050318956375,0.27510184049606323,-0.9533615112304688,0.00044699013233184814,-0.005997806787490845,-0.00028228759765625,-0.06959576159715652,-0.007150715216994286,0.023641377687454224,-0.12952617249419138,-0.27869562199806364,-1.2697240509473278
1687006907.066115,-0.12441697716712952,0.2786082923412323,-0.9523118138313293,-0.004428237676620483,0.025377333164215088,-0.001865983009338379,-0.03719581291079521,-0.003793667769059539,0.0042117564007639885,-0.1299114995929192,-0.2823447123426144,-1.26997576488956
1687006907.128833,-0.12467015534639359,0.2806290090084076,-0.9516851902008057,-0.004892207682132721,-0.0027969777584075928,-0.0031029582023620605,-0.052845343947410583,-0.014053495600819588,0.0011288803070783615,-0.1302576325737501,-0.28444939353710497,-1.2701419432711725
1687006907.217987,-0.12540709972381592,0.2823794186115265,-0.9510704278945923,-0.013356328010559082,0.024169713258743286,-0.002146124839782715,0.014981837943196297,0.008687103167176247,-0.008081129752099514,-0.13110257156416105,-0.28627355961269535,-1.2705157224700552
1687006907.2243938,-0.12612351775169373,0.2830708622932434,-0.9507700800895691,-0.00975598394870758,0.00823470950126648,-0.002736389636993408,-0.036284543573856354,-0.006765089929103851,-0.0006522415205836296,-0.13188407648702757,-0.28699442116152174,-1.271076323290394
1687006907.308681,-0.12659864127635956,0.28386828303337097,-0.9504691362380981,0.004406258463859558,-0.004403561353683472,0.0017386674880981445,0.01565488614141941,-0.018049567937850952,-0.008120810613036156,-0.13241654690230187,-0.28782596117681153,-1.2713773092069454
1687006907.3229408,-0.12778940796852112,0.2833651900291443,-0.950459897518158,-0.003863409161567688,0.0008145272731781006,0.007573544979095459,0.01039760559797287,-0.016911998391151428,0.0005459142848849297,-0.13364861540928247,-0.2873013055119069,-1.2716251776177963
1687006907.363731,-0.1283453404903412,0.2826889753341675,-0.9505863785743713,-0.00608457624912262,0.00016319751739501953,0.006830275058746338,0.0046821292489767075,0.004356404300779104,-0.0009667612612247467,-0.13420545085397292,-0.28659628832954304,-1.2715504842160532
1687006907.458061,-0.12864796817302704,0.28360968828201294,-0.9502711296081543,-0.011275112628936768,0.0066124796867370605,-0.007950246334075928,-0.030763013288378716,0.009502297267317772,0.00409803818911314,-0.1345621732432509,-0.28755627326445266,-1.271810199416628
1687006907.463776,-0.1285928338766098,0.2838096022605896,-0.950218915939331,-0.007256165146827698,0.022495359182357788,-0.006125688552856445,0.047773804515600204,0.004472784232348204,-0.0015678368508815765,-0.1345124983036262,-0.2877647613426576,-1.271866873309135
1687006907.514502,-0.12825749814510345,0.28365570306777954,-0.9503101706504822,-0.006050333380699158,-0.007425844669342041,-0.002357006072998047,-0.030188504606485367,0.015080420300364494,0.003947037272155285,-0.13415320868501615,-0.2876042746846595,-1.271967361353603
1687006907.606647,-0.12822325527668,0.28466302156448364,-0.9500135779380798,-0.005611583590507507,0.017277926206588745,0.011811673641204834,0.018463455140590668,0.013595175929367542,-0.004573213867843151,-0.13415918335577895,-0.28865487966597975,-1.2721467741942998
1687006907.612417,-0.1277734488248825,0.28289175033569336,-0.9506030678749084,0.0017511248588562012,-0.006936550140380859,0.012096047401428223,0.023494433611631393,0.012495290488004684,-0.010384498164057732,-0.13361222837900222,-0.2868076896915777,-1.2723784781038932
1687006907.665724,-0.1274895966053009,0.2829129695892334,-0.9506348371505737,0.002520129084587097,-0.00810214877128601,-0.00044542551040649414,0.004282055888324976,-0.0003412787918932736,-0.0042086271569132805,-0.13331451643300085,-0.28682980199686864,-1.2725411630672232
1687006907.758131,-0.12716221809387207,0.2830229699611664,-0.9506459832191467,-0.003926023840904236,0.007534921169281006,0.0055318474769592285,-0.008763238787651062,0.009500300511717796,-0.006183893885463476,-0.13297466659876225,-0.2869444861082493,-1.2727951582602948
1687006907.7637,-0.1271425187587738,0.2832009494304657,-0.9505956172943115,0.0024019181728363037,0.00830298662185669,-0.015880823135375977,0.004322003573179245,0.00044914730824530125,0.0012362059205770493,-0.13296126854982845,-0.2871300681497473,-1.2730321037004442
1687006907.815823,-0.1268061250448227,0.28430312871932983,-0.9503114819526672,-0.011545300483703613,0.012358248233795166,-0.005300641059875488,-0.011142972856760025,0.01700841635465622,-0.0010365359485149384,-0.1326527710071014,-0.28827947516626695,-1.2731698734871768
1687006907.907584,-0.1264226883649826,0.2838952839374542,-0.9504845142364502,-0.002254679799079895,-0.004995137453079224,0.007537126541137695,-0.005542944651097059,0.005974540952593088,-0.0006855316460132599,-0.1322325401887571,-0.28785412042751346,-1.27320008098092
1687006907.913842,-0.1264621764421463,0.28515028953552246,-0.9501034617424011,0.0017215758562088013,-0.0025880038738250732,0.0048367977142333984,-0.027632666751742363,0.0027262831572443247,0.0005507078021764755,-0.13232578534408146,-0.28916321086441027,-1.27330819737099
1687006907.966537,-0.12662439048290253,0.28479480743408203,-0.9501885175704956,-0.0015646964311599731,0.0043592751026153564,-0.0009680986404418945,0.008655033074319363,0.0014021594543009996,-0.0008714199066162109,-0.13248182714121223,-0.2887923629980371,-1.2733170892676675
1687006908.0547361,-0.11788534373044968,0.2797605097293854,-0.9528048634529114,-0.03310036659240723,0.05613124370574951,0.028168022632598877,0.43961548805236816,0.6304804682731628,-0.054398294538259506,-0.12309896018348704,-0.28354464046098343,-1.274011397471812
1687006908.061604,-0.10097023099660873,0.230556458234787,-0.9678061604499817,-0.014050520956516266,-0.3130607008934021,-0.04630821943283081,0.6678829789161682,0.05953110754489899,0.12746897339820862,-0.10395290969843385,-0.23264950520753497,-1.2683193770705543
1687006908.117779,-0.09221576154232025,0.20601561665534973,-0.9741939306259155,0.03911517560482025,0.20403385162353516,0.024883627891540527,0.915341317653656,0.006118484772741795,0.12334960699081421,-0.0943773175825236,-0.20750147879512537,-1.2599876881334775
1687006908.20298,-0.08429298549890518,0.14648787677288055,-0.985614538192749,-0.07297935336828232,-0.07950176298618317,-0.010036706924438477,0.89888995885849,0.5786274075508118,0.4685879647731781,-0.08531567686322022,-0.1470169107460032,-1.2450637895376604
1687006908.209168,-0.04627547040581703,0.10109914094209671,-0.9937995672225952,-0.015278484672307968,0.05377761274576187,0.015131354331970215,0.968295156955719,0.8591901063919067,0.44957485795021057,-0.04653057961695481,-0.10127216082994756,-1.2204150135531373
1687006908.266786,-0.0017893717158585787,0.05784787982702255,-0.9983237981796265,-0.03655597195029259,-0.04008660092949867,0.004900336265563965,0.7628735303878784,0.812448263168335,0.2531890869140625,-0.0017923741982428755,-0.05788019134837255,-1.2015028219893291
1687006908.3916879,0.04427351430058479,0.028666043654084206,-0.9986081123352051,-0.04970565438270569,-0.011866068467497826,-0.005862712860107422,0.5060887932777405,1.0807362794876099,0.1532507687807083,0.04430621213511102,-0.028669972044441792,-1.1925596123531597
1687006908.397025,0.10903377830982208,0.0018950158264487982,-0.9940362572669983,-0.046289652585983276,0.020779596641659737,-0.04202026128768921,0.5731458067893982,1.3969215154647827,0.05252629145979881,0.10925117665120529,-0.0018950169760777367,-1.1898367009701252
1687006908.4813719,0.16636262834072113,-0.021831264719367027,-0.9858229160308838,0.015628919005393982,-0.024646949023008347,0.07668906450271606,0.19924761354923248,0.740078866481781,0.1834036111831665,0.16717995835690522,0.021832998475702317,-1.1858648555605609
1687006908.49642,0.1897425651550293,-0.01713549718260765,-0.9816843271255493,0.02563522756099701,-0.08016975224018097,0.0001016855239868164,-0.3041984736919403,0.32246431708335876,-0.025438014417886734,0.1909283188250636,0.017136336763690228,-1.1800516688007165
1687006908.5990381,0.19491378962993622,-0.005850234068930149,-0.9808029532432556,0.04574781656265259,0.0258850809186697,0.035032689571380615,-0.14671339094638824,-0.1547541469335556,-0.06929175555706024,0.19617295695485332,0.005850267457086554,-1.1807269319088904
1687006908.613471,0.19065704941749573,0.0014641685411334038,-0.9816555976867676,-0.01861421763896942,0.009232296608388424,-0.014575481414794922,-0.11061716079711914,-0.017302019521594048,-0.008850783109664917,0.19183164395286587,-0.001464169045506503,-1.1813920070828656
1687006908.6893048,0.18839862942695618,0.007288526277989149,-0.9820656180381775,0.0005661845207214355,-0.03994227945804596,0.02460712194442749,-0.17716902494430542,-0.07989935576915741,-0.004827545955777168,0.1895364146919341,-0.007288590948094922,-1.1807479817368947
1687006908.6948109,0.18760725855827332,0.019077064469456673,-0.9820588231086731,-0.026260852813720703,0.016933726146817207,0.006045699119567871,-0.16864211857318878,0.024655284360051155,-0.04701681062579155,0.18876034608018824,-0.019078221492865786,-1.1812217513572765
1687006908.7796922,0.18653900921344757,0.02204935811460018,-0.9822000861167908,0.012862816452980042,0.0008388776332139969,0.013587415218353271,-0.06335464864969254,-0.06454449892044067,-0.01801019348204136,0.18768431499980204,-0.022051144396472606,-1.181788378914272
1687006908.794143,0.18447904288768768,0.025940192863345146,-0.982494056224823,-0.010986626148223877,-0.006103716790676117,-0.013538658618927002,-0.059749193489551544,-0.032762203365564346,-0.03535802289843559,0.18560496223325676,-0.025943103538430785,-1.1822766063412147
1687006908.86811,0.18239057064056396,0.031836483627557755,-0.982710599899292,-0.0040763914585113525,-0.021597784012556076,-0.002000093460083008,-0.17677275836467743,-0.030667094513773918,-0.0757611021399498,0.18351134781279535,-0.03184186287675379,-1.1840560613826931
1687006908.882185,0.18146005272865295,0.04048478975892067,-0.9825646281242371,-0.001391097903251648,0.009182620793581009,-0.00028449296951293945,-0.15298153460025787,-0.013167462311685085,-0.04244043305516243,0.1826223499477871,-0.04049585653260752,-1.185819692397222
1687006908.958159,0.17891885340213776,0.04604508727788925,-0.9827857613563538,0.01970478892326355,0.02499988302588463,-0.01315540075302124,-0.09154320508241653,-0.03963928297162056,-0.02330642193555832,0.18008054533766998,-0.04606137359428478,-1.1860643207152046
1687006908.9633532,0.17595921456813812,0.05208206549286842,-0.983018696308136,6.61611557006836e-05,0.018489882349967957,0.015352129936218262,-0.16529080271720886,-0.1229030191898346,-0.047176335006952286,0.17712302840143365,-0.05210564106314036,-1.1865114275311646
1687006909.017678,0.17159642279148102,0.05732634291052818,-0.9834980368614197,-0.0024222582578659058,0.015824340283870697,-0.0013042092323303223,-0.031884271651506424,-0.0783158391714096,-0.026455076411366463,0.17273682388529243,-0.05735778694263347,-1.1877052852108076
1687006909.110419,0.16512379050254822,0.05973770469427109,-0.9844620823860168,-0.02628408372402191,-0.017470814287662506,0.0007279515266418457,-0.13372448086738586,-0.18221427500247955,0.008924485184252262,0.1661830601757877,-0.05977329244395487,-1.1880464377078208
1687006909.1255999,0.15904265642166138,0.06558877229690552,-0.9850906133651733,-0.007644981145858765,0.014809824526309967,-0.042527735233306885,-0.1071099117398262,-0.044019915163517,-0.05196789279580116,0.16006851822609322,-0.06563588956225695,-1.1893875419415378
1687006909.1647,0.15599606931209564,0.07078330963850021,-0.9852182269096375,0.012689828872680664,0.008669249713420868,0.009205043315887451,-0.10666350275278091,-0.13735611736774445,-0.029110513627529144,0.1570329229539129,-0.07084255052536301,-1.1904722132066843
1687006909.256521,0.14221566915512085,0.07721160352230072,-0.9868196845054626,0.04851917922496796,0.005719959735870361,0.030734479427337646,-0.14938201010227203,-0.46052178740501404,-0.16195911169052124,0.14312968548136343,-0.07728852760072535,-1.192601837230568
1687006909.262908,0.11190181225538254,0.09154532104730606,-0.9894935488700867,0.011801175773143768,-0.02715318650007248,0.01363295316696167,-0.4049944281578064,-0.796602189540863,-0.18224653601646423,0.11261154175994235,-0.09167367315074129,-1.1977887751560523
1687006909.31565,0.06440380215644836,0.11101419478654861,-0.9917297959327698,0.050021834671497345,0.00934717059135437,-0.04724109172821045,-0.3928662836551666,-1.070102572441101,-0.2573178708553314,0.06484981569622283,-0.11124349095755869,-1.2081256078819238
1687006909.410044,0.008959355764091015,0.13886494934558868,-0.9902707934379578,0.0024389540776610374,0.012288659811019897,-0.004541218280792236,-0.5171972513198853,-1.0680705308914185,-0.2412978708744049,0.00904713304008239,-0.13931516072110034,-1.218546070867249
1687006909.425105,-0.052993472665548325,0.15176178514957428,-0.9869954586029053,-0.007751762866973877,0.026201501488685608,-0.07570284605026245,-0.15232498943805695,-1.1372308731079102,-0.2755296230316162,-0.05364020336911454,-0.1523504624914739,-1.2332363700251798
1687006909.464581,-0.09679378569126129,0.15894393622875214,-0.9825313091278076,-0.02989993989467621,0.04329608380794525,0.04712176322937012,-0.025848882272839546,-0.6995372772216797,-0.15084093809127808,-0.09819785116884709,-0.15962090510936924,-1.2443308549298948
1687006909.556984,-0.1274866759777069,0.1540222316980362,-0.9798082709312439,-0.015076160430908203,-0.032501220703125,-0.010944843292236328,-0.048236947506666183,-0.5117169618606567,-0.05969958379864693,-0.12938700950686194,-0.15463780736418214,-1.2481921585720355
1687006909.562848,-0.14933951199054718,0.19375188648700714,-0.9696174263954163,0.07486136257648468,-0.13956789672374725,-0.12651294469833374,-1.4807252883911133,-0.24478751420974731,-0.28405970335006714,-0.15281818158080235,-0.19498506199589397,-1.2613362354231576
1687006909.616457,-0.16452597081661224,0.24405096471309662,-0.9557040929794312,-0.49204444885253906,0.3326092064380646,0.41543614864349365,-0.11403393745422363,0.1585487723350525,-0.05297590047121048,-0.1704805489608383,-0.24654095088289435,-1.2797088955714342
1687006909.706734,-0.16608190536499023,0.24365833401679993,-0.9555351138114929,0.15137244760990143,-0.03334642946720123,-0.056015729904174805,-0.09832654148340225,-0.17030754685401917,-0.012731009162962437,-0.17209114506635456,-0.24613609683462523,-1.2798948106266195
1687006909.713225,-0.16981106996536255,0.2524576187133789,-0.9525908827781677,-0.12102144956588745,0.014739066362380981,0.15754693746566772,-0.021068241447210312,0.015643946826457977,0.008719953708350658,-0.17640929102351605,-0.25521930118662756,-1.280460189375852
1687006909.767174,-0.16834528744220734,0.25353413820266724,-0.9525651335716248,0.013895824551582336,-0.0012758076190948486,-0.09545427560806274,-0.052331022918224335,0.04735087603330612,0.00988056045025587,-0.1749221857344522,-0.2563320291430192,-1.2800714431395175
1687006909.88937,-0.16858938336372375,0.2585870325565338,-0.9511626362800598,-0.026799410581588745,0.007007479667663574,0.017828285694122314,-0.07083532959222794,-0.03035190887749195,-0.01801818236708641,-0.1754236890478762,-0.2615592058132355,-1.2810767516441697
1687006909.895698,-0.17090125381946564,0.2596459686756134,-0.9504613280296326,-0.008099585771560669,-0.013842105865478516,0.013266503810882568,-0.027106227353215218,-0.05580134317278862,0.0007427223026752472,-0.17790768182762412,-0.2626555866064937,-1.2814774668857125
1687006909.980321,-0.17346833646297455,0.26293691992759705,-0.9490906000137329,0.008017301559448242,0.004717528820037842,0.01377260684967041,-0.0408308282494545,-0.06518232822418213,0.026887770742177963,-0.1807778218192972,-0.26606497708021265,-1.2811642283380131
1687006909.995798,-0.17601782083511353,0.2617186903953552,-0.9489578604698181,-0.0036544054746627808,0.003631681203842163,-0.009080469608306885,0.011865606531500816,-0.0573439784348011,-0.0010218890383839607,-0.1834010513953274,-0.2648025195391881,-1.28062330901197
1687006910.0666409,-0.17838452756404877,0.26249146461486816,-0.9483022689819336,-0.006597757339477539,-0.0009405314922332764,0.019896507263183594,-0.011711889877915382,-0.028790896758437157,0.0021912148222327232,-0.18593654818785693,-0.26560331553686806,-1.2808098708760467
1687006910.079479,-0.17865820229053497,0.2630964517593384,-0.9480830430984497,-0.01767660677433014,0.007686018943786621,0.030038058757781982,0.002444208599627018,-0.003806051332503557,0.01814674586057663,-0.18625733417621002,-0.26623032093313453,-1.279759912846028
1687006910.1549659,-0.1793222874403,0.2636707127094269,-0.9477981328964233,-0.0027303099632263184,0.009003907442092896,-0.03109896183013916,-0.02747667394578457,-0.0006877561681903899,-0.0003963122144341469,-0.18698857229334365,-0.266825602003275,-1.2799013512771253
1687006910.159739,-0.180776908993721,0.2649455666542053,-0.9471660256385803,-0.005502372980117798,-0.006507456302642822,0.007575631141662598,-0.025407064706087112,-0.006339916028082371,-0.006648082751780748,-0.1885926598858748,-0.2681474862970437,-1.2805600321041348
1687006910.216712,-0.18031492829322815,0.26538559794425964,-0.9471309185028076,0.010087892413139343,-0.010411202907562256,0.007876157760620117,-0.012293324805796146,-0.003345591016113758,0.00837001483887434,-0.18812882805510758,-0.2686038348146918,-1.2805169200354272
1687006910.311305,-0.18040290474891663,0.2671864330768585,-0.9466077089309692,-0.009004414081573486,0.01960250735282898,0.0030195116996765137,-0.01428303960710764,0.008420919999480247,0.027906697243452072,-0.18832005084747974,-0.2704721233923448,-1.280200161895884
1687006910.325161,-0.17974446713924408,0.2673864960670471,-0.94667649269104,-0.0033457279205322266,-0.0073309242725372314,0.009908914566040039,-0.031972818076610565,0.01662265695631504,0.010258995927870274,-0.1876354617933287,-0.2706797371795845,-1.2793547920337336
1687006910.365769,-0.17954286932945251,0.2695068120956421,-0.9461133480072021,-0.0011974871158599854,0.008844047784805298,-0.013450860977172852,-0.03954518586397171,0.010617628693580627,-0.005155913531780243,-0.1875388683262148,-0.2728808519148323,-1.2798449480553804
1687006910.427902,-0.17928025126457214,0.2706175744533539,-0.9458460211753845,-0.019129768013954163,0.005871683359146118,0.0061945319175720215,-0.017985697835683823,0.01942017674446106,0.00987496692687273,-0.18732262970443816,-0.27403449123389545,-1.2798743195813398
1687006910.516111,-0.17847932875156403,0.27136552333831787,-0.9457831978797913,0.004681721329689026,-0.007281661033630371,-0.0018333792686462402,-0.029206661507487297,0.011692747473716736,0.002541154623031616,-0.18651718665269967,-0.2748115235186548,-1.279638045458554
1687006910.5307689,-0.17864733934402466,0.2724580764770508,-0.9454373121261597,-0.004625961184501648,0.0032835304737091064,0.009402155876159668,-0.020512640476226807,0.007341408170759678,-0.0033122068271040916,-0.18675544771970112,-0.27594683437865325,-1.2799149292571417
