Timestamp,gravityX,gravityY,gravityZ,accelerationX,accelerationY,accelerationZ,rotationRateX,rotationRateY,rotationRateZ,attitudeRoll,attitudePitch,attitudeYaw
1687008689.0348492,-0.9291448593139648,0.3341520428657532,-0.15821515023708344,0.0069953203201293945,-0.0007323324680328369,0.008526399731636047,-0.10605572164058685,0.1494263857603073,0.20761707425117493,-1.4021336716746138,-0.3407054268108228,-2.922115591658099
1687008689.155725,-0.9243853092193604,0.3450499176979065,-0.16264154016971588,-0.012458503246307373,-0.017962545156478882,0.05611991882324219,-0.15159830451011658,0.09948118776082993,0.1846395879983902,-1.3966332942726012,-0.35229197904179094,-2.9270132928229313
1687008689.170347,-0.921489417552948,0.3531067967414856,-0.16177906095981598,-0.021686673164367676,-0.03136005997657776,0.07617725431919098,-0.16711653769016266,0.005804231856018305,0.096888966858387,-1.3970048596262286,-0.3608897466393178,-2.9346104032832683
1687008689.2466521,-0.9217456579208374,0.3563202917575836,-0.1530386060476303,-0.019202768802642822,-0.017453163862228394,0.05576378107070923,-0.1711718738079071,-0.10589247196912766,0.06218158081173897,-1.4062659321167876,-0.3643267302522644,-2.9442761273954634
1687008689.253282,-0.9238646030426025,0.3571220636367798,-0.1376156061887741,-0.006158649921417236,0.012689918279647827,0.0051997750997543335,-0.13929089903831482,-0.13320212066173553,0.08033475279808044,-1.422927101295396,-0.36518495685217656,-2.9539533563853513
1687008689.3317928,-0.9240915775299072,0.3611229658126831,-0.1250786930322647,0.019642233848571777,0.03201967477798462,-0.038877010345458984,-0.2724247872829437,-0.08405042439699173,0.08551540225744247,-1.4362608068210787,-0.3694718498384865,-2.966496914023661
1687008689.335252,-0.922680675983429,0.36645761132240295,-0.11987166851758957,0.01060175895690918,0.05067187547683716,-0.0471511036157608,-0.016106856986880302,-0.0550837516784668,0.11497423052787781,-1.4416031957703508,-0.3751989152316227,-2.9730692421627074
1687008689.424259,-0.9188709259033203,0.3755205571651459,-0.12108080834150314,0.003435075283050537,0.014814525842666626,-0.02036823332309723,-0.05940732732415199,-0.05195879936218262,0.20130272209644318,-1.4397798691366552,-0.3849583592885491,-2.9709955643013957
1687008689.429195,-0.9132314324378967,0.38895344734191895,-0.12134081870317459,-0.008933424949645996,0.006584852933883667,0.010287344455718994,0.01819099485874176,-0.05898461863398552,0.2273673415184021,-1.4387003198999646,-0.39949530087941576,-2.9710107070264344
1687008689.484284,-0.910035252571106,0.3961847126483917,-0.12195631116628647,-0.022810697555541992,-0.0260065495967865,0.022880978882312775,0.11057125777006149,-0.06231570243835449,0.11252811551094055,-1.4375773263812837,-0.4073577734338291,-2.9632060619948173
1687008689.574335,-0.9099949598312378,0.39704158902168274,-0.11944496631622314,-0.009789526462554932,-0.019508689641952515,0.02297884225845337,-0.06652482599020004,-0.03378179296851158,-0.029411185532808304,-1.4402835097193252,-0.40829122474514257,-2.963144358627565
1687008689.589244,-0.9121741056442261,0.39309969544410706,-0.11580559611320496,-0.0018578171730041504,0.014004737138748169,-0.00010019540786743164,0.060093771666288376,-0.04772837087512016,-0.0516592338681221,-1.444516300546262,-0.40400025508118903,-2.9650773539612243
1687008689.631427,-0.9139991402626038,0.3898245096206665,-0.11243818700313568,-0.006121039390563965,0.0038827061653137207,-0.0195809006690979,-0.00497770681977272,-0.03860051557421684,-0.05110689625144005,-1.448393481573023,-0.40044103108418927,-2.965380276719884
1687008689.723388,-0.9152703881263733,0.3868247866630554,-0.11245650053024292,4.83393669128418e-05,0.022995680570602417,-0.02246176451444626,0.09467392414808273,0.004362928681075573,-0.08304538577795029,-1.4485420923806873,-0.39718584990337885,-2.9638022597727596
1687008689.73839,-0.9163112640380859,0.3836199641227722,-0.11493293941020966,0.014730393886566162,0.022416412830352783,-0.01345457136631012,0.007617580238729715,0.01846383512020111,-0.029257789254188538,-1.446017947103307,-0.39371299955835476,-2.961320766667612
1687008689.7814178,-0.9152728319168091,0.3860171139240265,-0.11517887562513351,0.018468201160430908,0.003921151161193848,-0.011698000133037567,-0.101488396525383,0.004102738108485937,0.04539753869175911,-1.4456133344447013,-0.3963101556541022,-2.964168936070929
1687008689.88094,-0.9138635396957397,0.3888137936592102,-0.11694957315921783,0.008117139339447021,-0.0007065534591674805,-0.01589345932006836,0.14738141000270844,0.010916834697127342,0.016156300902366638,-1.4435154615160457,-0.3993437447212082,-2.962746121511341
1687008689.966033,-0.9131795167922974,0.3897273540496826,-0.11922932416200638,-0.01807957887649536,-0.05925256013870239,-0.015261650085449219,0.018786944448947906,0.003798738121986389,0.016312625259160995,-1.440965708212386,-0.4003355164424532,-2.9580001058043073
1687008689.971519,-0.9136066436767578,0.38808923959732056,-0.12128366529941559,0.003129899501800537,-0.05280786752700806,-0.004403010010719299,-0.03199434280395508,0.05548962950706482,-0.06087350472807884,-1.4388154144439027,-0.39855743569648877,-2.9574846100147636
1687008690.056569,-0.9160324335098267,0.3816661536693573,-0.1233498603105545,0.006151020526885986,-0.02915772795677185,-0.008318230509757996,-0.11380405724048615,0.07124582678079605,-0.13047628104686737,-1.4369448165313752,-0.3915982405815276,-2.9620326494817473
1687008690.069953,-0.9192739725112915,0.3731409013271332,-0.12530413269996643,-0.0031960606575012207,0.029843688011169434,0.00012099742889404297,0.005575335584580898,0.06517408043146133,-0.16942740976810455,-1.435323516915531,-0.3823921278825364,-2.967055767327514
1687008690.17908,-0.9218438267707825,0.36612382531166077,-0.1271113157272339,-0.004837632179260254,0.026301652193069458,0.0009668469429016113,-0.14765888452529907,0.06608927994966507,-0.14280511438846588,-1.4337722620800943,-0.3748401989460359,-2.9726310117465387
1687008690.1846309,-0.9229872226715088,0.36276373267173767,-0.1284402459859848,0.0009902119636535645,0.050398439168930054,0.00881129503250122,0.07478269934654236,0.03877776116132736,-0.06446051597595215,-1.432527160635471,-0.3712319601659673,-2.975646938907661
1687008690.265564,-0.9227325916290283,0.3630148470401764,-0.12955528497695923,-0.009380936622619629,0.036689043045043945,-0.004157468676567078,-0.2262974977493286,0.06602136790752411,-0.0005052350461483002,-1.4313042343486313,-0.3715014201735503,-2.978429802414748
1687008690.271689,-0.9214072823524475,0.3671237528324127,-0.12739095091819763,0.002156972885131836,0.061434537172317505,-0.007389947772026062,-0.06686045229434967,0.030724361538887024,0.05455907806754112,-1.433410352595625,-0.3759149662680175,-2.989377952113132
1687008690.385931,-0.919670820236206,0.3708517551422119,-0.12912951409816742,0.0020684003829956055,-0.0058005452156066895,0.0034275799989700317,0.02807791531085968,0.029276400804519653,0.06302180886268616,-1.4312998428205248,-0.3799259939655917,-2.98826669975279
1687008690.400999,-0.9179139733314514,0.3745313584804535,-0.13099676370620728,-0.006783843040466309,-0.016941696405410767,0.027954161167144775,0.09309573471546173,0.004272913560271263,0.03445833921432495,-1.4290421261994726,-0.383891293635617,-2.985333558613016
1687008690.404757,-0.9174770712852478,0.37513110041618347,-0.13233408331871033,-0.009295880794525146,-0.04349663853645325,0.03353339433670044,-0.05937470123171806,-0.000839955871924758,0.04805990308523178,-1.4275473457748598,-0.3845382031771162,-2.980228687538797
1687008690.472096,-0.9173082113265991,0.37718769907951355,-0.12757422029972076,-0.0024306178092956543,0.04017069935798645,0.0040848106145858765,-0.008381959050893784,-0.04578319564461708,0.045791689306497574,-1.4326081621148812,-0.386757828669358,-2.9856985808466154
1687008690.482636,-0.9164555668830872,0.38038817048072815,-0.12415245920419693,-0.005999147891998291,0.03814506530761719,-0.024590246379375458,-0.14163309335708618,-0.010232659056782722,0.11882275342941284,-1.4361458000591523,-0.3902159869073487,-2.988632614195887
1687008690.529933,-0.9129534959793091,0.38923588395118713,-0.12251980602741241,0.002843201160430908,0.0459599494934082,-0.053078338503837585,-0.1864043027162552,0.048847708851099014,0.20982244610786438,-1.4373918033321575,-0.3998018978296754,-2.995975164874409
1687008690.622005,-0.9077185392379761,0.4005623459815979,-0.12488763779401779,0.00876230001449585,0.051189303398132324,-0.03426158428192139,0.1086936667561531,0.05109887570142746,0.2707177400588989,-1.434070620471453,-0.4121305085640516,-2.9951621894656957
1687008690.637169,-0.9008446931838989,0.41517162322998047,-0.12692971527576447,-0.12060904502868652,0.10495463013648987,-0.10530905425548553,-0.47535932064056396,0.20603212714195251,0.34277623891830444,-1.430817043003895,-0.42813144777068396,-3.0012679719348103
1687008690.684042,-0.8853657841682434,0.4467083811759949,-0.12875953316688538,-0.014048218727111816,0.44597649574279785,-0.236657977104187,-1.3328025341033936,0.7343685030937195,0.9817414879798889,-1.426377902451437,-0.46308284872010796,-3.0472008065823837
1687008690.771172,-0.8397759795188904,0.5250427722930908,-0.1382257342338562,0.07555484771728516,0.9185912013053894,-0.3362310528755188,-0.8032876253128052,0.8969593644142151,2.4404666423797607,-1.4076607376717056,-0.5527654004221958,-3.0987337268313477
1687008690.786356,-0.7339884638786316,0.6577451825141907,-0.16921009123325348,-0.20772290229797363,0.9146118760108948,-0.4022163152694702,0.509323239326477,0.8228078484535217,4.106974124908447,-1.3442198065150472,-0.7178213820653723,-3.060830781018574
1687008690.831119,-0.5600351095199585,0.7997674345970154,-0.21617771685123444,-0.433968186378479,0.6195593476295471,-0.11591461300849915,0.056992121040821075,1.223484992980957,4.727781772613525,-1.2024104068005697,-0.9269077434914303,-2.9356593310707373
1687008690.927453,-0.34127235412597656,0.911807119846344,-0.22834397852420807,-0.5287227630615234,0.322323739528656,-0.028781920671463013,-0.6133632659912109,1.2738298177719116,4.722210884094238,-0.981113751812629,-1.147663762458434,-2.7547725005294565
1687008690.9335132,-0.11219863593578339,0.9684696793556213,-0.22243551909923553,-0.5706474184989929,0.19353264570236206,0.06761983036994934,-0.2060791254043579,1.1138780117034912,4.3993682861328125,-0.4671691639131785,-1.3190131097755684,-2.2769937631366433
1687008691.017034,0.10603605210781097,0.9675726294517517,-0.22925813496112823,-0.6329067945480347,0.26518481969833374,0.05968719720840454,0.426505446434021,0.9511349201202393,4.182620048522949,0.4332151411545671,-1.3154372059005373,-1.4037313741816897
1687008691.106378,0.31619152426719666,0.920540988445282,-0.22940611839294434,-0.727171778678894,0.19507479667663574,0.09410637617111206,-0.14285002648830414,0.9360073804855347,4.276192665100098,0.9431414691923882,-1.169463031708316,-0.9182957486043228
1687008691.12039,0.5143709778785706,0.8291260004043579,-0.2190263271331787,-0.7330294847488403,0.24359744787216187,0.06602635979652405,0.760206401348114,0.6519038677215576,4.337023735046387,1.1682364795887747,-0.977542506531471,-0.7092711935187423
1687008691.1988158,0.6900932192802429,0.6837899684906006,-0.23707087337970734,-0.7586053013801575,0.14793610572814941,0.04433709383010864,0.8110675811767578,0.6971285939216614,4.559455871582031,1.2398929220321453,-0.7529440888829909,-0.6577328187893801
1687008691.204757,0.8382158875465393,0.49868661165237427,-0.2206936776638031,-0.7986499071121216,0.15937918424606323,0.04021269083023071,0.04676704481244087,0.8045105934143066,4.833184719085693,1.3133492600493595,-0.522082859843568,-0.5957958242757485
1687008691.312063,0.9413209557533264,0.2796686291694641,-0.1889444887638092,-0.7473819255828857,0.1251012682914734,0.05344642698764801,0.4392906129360199,0.6931875348091125,4.884430408477783,1.3727059600650493,-0.283448934993315,-0.5415728533036861
1687008691.317093,0.9865663647651672,0.0394320972263813,-0.15853022038936615,-0.5778597593307495,0.06089447811245918,0.08585256338119507,1.1108646392822266,0.7666293978691101,4.75102424621582,1.4114694656830469,-0.039442322493966106,-0.5416645341986637
1687008691.40219,0.9733546376228333,-0.20073656737804413,-0.11084001511335373,-0.5621303915977478,0.03092154860496521,-0.06590259075164795,0.9277757406234741,1.1310211420059204,4.640951633453369,1.4574105122116565,0.20210972970567936,-0.5608373820138978
1687008691.4122329,0.9083041548728943,-0.4162615239620209,-0.04134911671280861,-0.43393898010253906,-0.19962891936302185,-0.07733380794525146,-0.09137511253356934,1.5403326749801636,4.316956043243408,1.5253043105313304,0.42932979598175464,-0.5658343625076855
1687008691.497119,0.8061159253120422,-0.5915420055389404,0.015969598665833473,-0.415155291557312,-0.1346389651298523,-0.02788674831390381,-0.4653911292552948,1.5637314319610596,3.7906832695007324,1.590604283757704,0.6329699879397209,-0.542742638986535
1687008691.503045,0.6870054006576538,-0.7245020866394043,0.0558595210313797,-0.3143247365951538,-0.09906047582626343,-0.007687568664550781,-0.3309125304222107,1.3111717700958252,3.2647297382354736,1.6519265662649265,0.8103117136074843,-0.5246307304685234
1687008691.613719,0.5697591304779053,-0.8172293901443481,0.08666197955608368,-0.31939297914505005,-0.15336674451828003,-0.00046516209840774536,0.1937512457370758,0.806166410446167,2.6093318462371826,1.7217422072395108,0.9565870645463559,-0.5470634100827437
1687008691.619453,0.4750427007675171,-0.8718734383583069,0.11904187500476837,-0.21855777502059937,-0.16071921586990356,0.11267805099487305,0.3721911311149597,0.464108407497406,1.6966599225997925,1.8163320304748112,1.0590148138387363,-0.6198708511807279
1687008691.675173,0.41679757833480835,-0.8999278545379639,0.12809891998767853,-0.06616589426994324,-0.17816650867462158,0.14530789852142334,-0.1462656557559967,0.0027971232775598764,0.9594205021858215,1.8689741634749675,1.1196040557468483,-0.6658274459468384
1687008691.7664142,0.3896218240261078,-0.9136929512023926,0.11558620631694794,-0.05017474293708801,-0.1197238564491272,-0.09796236455440521,0.17285548150539398,0.0984852984547615,0.28140369057655334,1.859188443247531,1.1522800171862886,-0.6535054110290196
1687008691.771599,0.3892975449562073,-0.9095169305801392,0.14569197595119476,-0.046310484409332275,-0.02979874610900879,0.08563113212585449,0.636809229850769,0.12137211114168167,-0.17663179337978363,1.9289033902106598,1.1421204231148963,-0.7241767956112067
1687008691.853692,0.39120978116989136,-0.9076467752456665,0.15209250152111053,0.05993160605430603,0.07927769422531128,0.058036208152770996,-0.15186136960983276,-0.019230414181947708,0.04359937459230423,1.9415885101655153,1.137643117356737,-0.7331317174933316
1687008691.867161,0.3905666470527649,-0.9082604646682739,0.15006782114505768,0.0021945536136627197,0.010341942310333252,-0.02757038176059723,0.25860679149627686,-0.10801767557859421,-0.007084308657795191,1.937635290532536,1.139107638207512,-0.7343743646071409
1687008691.950369,0.39231595396995544,-0.9050729274749756,0.1641065776348114,0.01420864462852478,-0.06791889667510986,0.0009171813726425171,0.1855417788028717,-0.03943755105137825,-0.04044892266392708,1.9669801088177166,1.1315511622657997,-0.7692391697818501
1687008691.956186,0.39438748359680176,-0.9043713808059692,0.16300490498542786,0.03517785668373108,-0.012117087841033936,0.05809484422206879,-0.08920596539974213,-0.14703045785427094,-0.014432236552238464,1.9627252471518386,1.1299043356517973,-0.7692996937620568
1687008692.040141,0.394963800907135,-0.90537428855896,0.15588676929473877,-0.016744256019592285,-0.03252226114273071,0.054547056555747986,-0.2249702513217926,-0.18311429023742676,0.025515712797641754,1.9467134903718812,1.1322603584580924,-0.7623757910863053
1687008692.05474,0.39597824215888977,-0.9058801531791687,0.15027287602424622,-0.037747710943222046,0.0427975058555603,-0.025578156113624573,0.014911246486008167,-0.01376321166753769,-0.011578393168747425,1.9335044302727353,1.1334532596051718,-0.7531165352637029
1687008692.092274,0.39678043127059937,-0.9053214192390442,0.15151996910572052,-0.014929264783859253,-0.02787548303604126,0.0189969539642334,-0.06026412919163704,-0.0009767090668901801,-0.029184285551309586,1.9355795140721725,1.1321359458009137,-0.7547923603404807
1687008692.2201219,0.3977077305316925,-0.905689537525177,0.1468157023191452,0.0003635585308074951,-0.019694864749908447,0.027424335479736328,-0.10920118540525436,-0.04151188209652901,-0.02168908342719078,1.9244325854551085,1.133003369227225,-0.7437768964946025
1687008692.2253819,0.3979242444038391,-0.9059788584709167,0.14442428946495056,-0.010564655065536499,0.005573093891143799,-0.005386233329772949,-0.03458886221051216,0.013533257879316807,-0.04865199327468872,1.918955854503626,1.1336863392449583,-0.7379501144130368
1687008692.307637,0.3983134627342224,-0.9060980081558228,0.1425911784172058,-0.0048961639404296875,0.002945840358734131,0.017763346433639526,-0.12754923105239868,0.004803814925253391,-0.016119081526994705,1.9145690110747349,1.133967960465034,-0.7315461636268544
1687008692.321124,0.3985479772090912,-0.9068745970726013,0.13688519597053528,-0.0026130080223083496,-0.00175553560256958,-0.019606247544288635,-0.08590797334909439,0.022321157157421112,-0.03247009217739105,1.9016328144277437,1.1358070774773688,-0.7170186874600585
1687008692.395341,0.3999471068382263,-0.9058483839035034,0.1395735740661621,-0.011778831481933594,-0.0015306472778320312,-0.025270119309425354,0.02286837249994278,0.06005242094397545,-0.05766359716653824,1.9065622392589654,1.1333781748804705,-0.7192524913140831
1687008692.400327,0.40121492743492126,-0.9057165384292603,0.13676223158836365,0.0031429827213287354,0.007080793380737305,4.8041343688964844e-05,-0.11222393810749054,0.027137883007526398,-0.01861206814646721,1.8993146990294303,1.1330670896847412,-0.709304266680567
1687008692.488503,0.40156567096710205,-0.9063230752944946,0.1316184401512146,-0.005310148000717163,-0.03403019905090332,-0.006282806396484375,-0.1420983523130417,0.010401779785752296,-0.03353748843073845,1.8875253926497328,1.134500171571639,-0.6958861292741398
1687008692.503405,0.40381744503974915,-0.9057309031486511,0.12877525389194489,0.0026615262031555176,0.006744086742401123,-0.007574781775474548,-0.026647914201021194,0.032657019793987274,-0.04956306144595146,1.8794963616258828,1.1331009674999981,-0.6859245669322659
1687008692.576083,0.4040762484073639,-0.9058785438537598,0.12691093981266022,0.02019438147544861,0.004557251930236816,0.008602261543273926,-0.07388227432966232,0.02215324528515339,0.0030556777492165565,1.8751169886893082,1.1334493987935195,-0.6792964658867487
1687008692.58083,0.40452027320861816,-0.9059557318687439,0.12492911517620087,-0.004709511995315552,0.007335245609283447,-0.028798818588256836,0.11391625553369522,0.01854732446372509,-0.0386640727519989,1.8703367511147597,1.1336317882003106,-0.6732146737242107
1687008692.630225,0.4352204203605652,-0.8923563957214355,0.1195114403963089,-0.3490387797355652,-0.7667468786239624,0.00789940357208252,-0.5887014269828796,-0.25777241587638855,-1.529000997543335,1.8387904441547802,1.102539486505458,-0.6458660657841307
1687008692.726369,0.5529419779777527,-0.8262573480606079,0.10748939961194992,-0.4539581537246704,-0.5231384038925171,0.0345698744058609,-0.17133352160453796,-0.1352732628583908,-3.5579135417938232,1.7627971291880773,0.9724307399606124,-0.5649155069793903
1687008692.740371,0.6928750276565552,-0.7143428325653076,0.09817418456077576,-0.31402987241744995,0.24363988637924194,-0.1554710865020752,-0.012533027678728104,-0.14288951456546783,-3.415517807006836,1.711550420136809,0.7956845880259998,-0.5069570825539279
1687008692.779364,0.7969266772270203,-0.5980126857757568,0.0853719562292099,-0.2323211431503296,0.1738795042037964,-0.1351308822631836,-0.4679456949234009,-0.24497219920158386,-2.97941255569458,1.6775158170430067,0.6410192392776966,-0.46876326868621343
1687008692.8711882,0.8828302025794983,-0.46469682455062866,0.06831742078065872,-0.4497249126434326,-0.11968415975570679,-0.07030118256807327,-0.06609632074832916,-0.0645090788602829,-3.5510833263397217,1.6480269639509522,0.48329217515466544,-0.43039810207993784
1687008692.883471,0.9585020542144775,-0.2758235037326813,0.0720764696598053,-0.4909728169441223,-0.27010536193847656,-0.06800246238708496,0.2838660776615143,-0.06186829134821892,-4.577790260314941,1.6458520586460967,0.27944634772270793,-0.42496380652771354
1687008692.93969,0.9975597858428955,-0.0278620645403862,0.06401676684617996,-0.566117525100708,-0.22335860133171082,-0.039465419948101044,0.2744969427585602,-0.26828140020370483,-5.436267375946045,1.6348818161709069,0.027865670959769797,-0.4211359116908214
1687008693.029838,0.9649459719657898,0.25821787118911743,0.04692980647087097,-0.7056688666343689,0.04665270447731018,-0.0017180517315864563,0.9019612073898315,-0.3059506118297577,-6.052365779876709,1.619392681693336,-0.2611770544161598,-0.42682836168424987
1687008693.034342,0.8381391763687134,0.5453163385391235,0.012359637767076492,-0.8034865856170654,-0.09248125553131104,-0.02697765827178955,0.8434022665023804,-0.32129228115081787,-6.369350433349609,1.5855417801324199,-0.5767664692828095,-0.47165870750892125
1687008693.082133,0.6190102696418762,0.7842748761177063,-0.04169931262731552,-0.715217113494873,0.09006881713867188,-0.0032531581819057465,1.6433055400848389,-0.2481008917093277,-6.588850021362305,1.5035334580712951,-0.9015265264731325,-0.5744595934327802
1687008693.175071,0.3383762538433075,0.9378498792648315,-0.07706499099731445,-0.9044926762580872,0.14553934335708618,-0.003257274627685547,-0.11118976026773453,-0.20070312917232513,-6.3607096672058105,1.346866499560244,-1.216381995917702,-0.7394887073048758
1687008693.1882272,0.03320104256272316,0.9931098222732544,-0.11238552629947662,-0.7316416501998901,0.29944682121276855,-0.05002903938293457,1.5346051454544067,-0.3101698160171509,-6.133726119995117,0.2872505992143273,-1.4533391023921143,-1.8055212925857607
1687008693.276928,-0.2543269395828247,0.950136125087738,-0.18044103682041168,-0.6691044569015503,0.3801402449607849,-0.06179225444793701,1.4422874450683594,-0.6406059265136719,-5.409674644470215,-0.9537332214580593,-1.253672155753766,-3.0385573740662375
1687008693.3822951,-0.47912678122520447,0.8472936749458313,-0.22919656336307526,-0.40180888772010803,0.2805291414260864,0.07302284240722656,0.783353865146637,-0.7986196875572205,-4.253265857696533,-1.124607586552635,-1.0108689361614254,3.09535232493917
1687008693.386841,-0.6413684487342834,0.7277655601501465,-0.24290654063224792,-0.3257335424423218,0.5550560355186462,-0.11393553018569946,1.6833175420761108,-1.0564824342727661,-3.4483819007873535,-1.2087580790173362,-0.8150582327990541,3.0493457916154134
1687008693.4774919,-0.7577154636383057,0.6001922488212585,-0.2561958432197571,-0.28375786542892456,0.4137541651725769,-0.052108049392700195,1.3277263641357422,-1.183178186416626,-2.6912612915039062,-1.244747426827883,-0.6437414627378885,3.07704963124812
1687008693.480784,-0.8371436595916748,0.48658180236816406,-0.2498570680618286,-0.19096297025680542,0.49759477376937866,-0.11487382650375366,1.9863123893737793,-1.2443974018096924,-2.0624940395355225,-1.280749498589531,-0.508172841481401,3.1231669543093727
1687008693.4841719,-0.8903121948242188,0.3890478014945984,-0.2366136610507965,0.052208006381988525,0.39514708518981934,-0.03557264804840088,1.606816291809082,-1.3366464376449585,-1.2935645580291748,-1.3110360954731468,-0.39959774924317154,-3.0779792869114084
1687008693.535315,-0.923243522644043,0.3299514949321747,-0.1968582272529602,-0.12711036205291748,0.45920246839523315,-0.0808364599943161,1.169560432434082,-1.3284145593643188,-0.7773871421813965,-1.3607177385792346,-0.33625219538868656,-3.0271166311139717
1687008693.623323,-0.9422513246536255,0.30113884806632996,-0.1465529203414917,-0.15831929445266724,0.37593936920166016,-0.2723314166069031,0.3864756226539612,-1.2295016050338745,-0.2983371913433075,-1.4164977640287686,-0.30588670909143323,-2.995088533894039
1687008693.638958,-0.9500870704650879,0.29204773902893066,-0.10973908752202988,-0.046510159969329834,0.5015160441398621,-0.5695364475250244,1.66201651096344,-0.8721147775650024,0.2651256322860718,-1.4558016640933455,-0.29636723037025314,-2.94241281851334
1687008693.747209,-0.9455294013023376,0.30731600522994995,-0.1073824092745781,-0.06267976760864258,0.011821538209915161,-0.2693571448326111,0.7005206346511841,-0.09952365607023239,0.6498945951461792,-1.4577122859367357,-0.3123712646704211,-2.865630038015836
1687008693.752224,-0.9348791837692261,0.33481425046920776,-0.1178998276591301,-0.005565762519836426,-0.017950236797332764,-0.023839130997657776,0.22067704796791077,0.19577190279960632,0.6130404472351074,-1.4453462301668818,-0.3414081047777826,-2.843826428126191
1687008693.837265,-0.9229861497879028,0.3630369007587433,-0.12767334282398224,0.016965150833129883,-0.08126816153526306,0.11180418729782104,0.13009017705917358,0.07448861747980118,0.6478370428085327,-1.4333422080665055,-0.3715251082884486,-2.8332377006990015
1687008693.8536701,-0.9099149703979492,0.39531609416007996,-0.1256171464920044,-0.02595221996307373,-0.09099489450454712,0.11315067112445831,0.027096407487988472,-0.15824155509471893,0.6995468139648438,-1.433609756044753,-0.4064119621893578,-2.8240865716283485
1687008693.923228,-0.9018718004226685,0.4155082702636719,-0.11823752522468567,-0.008894741535186768,-0.08445364236831665,0.03854084014892578,0.13741359114646912,-0.19945451617240906,0.22170120477676392,-1.4404374319706574,-0.4285015313164886,-2.8177029994120195
1687008693.936174,-0.9008718729019165,0.4190833866596222,-0.1131320595741272,-0.04408961534500122,-0.07707291841506958,0.0369907021522522,0.07585462182760239,-0.21231572329998016,0.056438203901052475,-1.445869671077349,-0.4324355348754949,-2.8068193956379446
1687008694.044417,-0.9003735780715942,0.42210277915000916,-0.10562460869550705,-0.038682758808135986,-0.03364455699920654,-0.07047712802886963,0.17404724657535553,-0.21616105735301971,0.10047730803489685,-1.4540180958131657,-0.43576362304220345,-2.801698762850982
1687008694.0598412,-0.8994405269622803,0.4249252378940582,-0.10220196843147278,-0.0013009905815124512,-0.052580296993255615,-0.09773397445678711,0.06143314018845558,-0.07083142548799515,0.049770984798669815,-1.4576532277563001,-0.4388792858370312,-2.7910550032557286
1687008694.169776,-0.8998879790306091,0.4235130250453949,-0.10410650074481964,-0.005309104919433594,0.021631568670272827,-0.08029597997665405,0.11322962492704391,0.12693145871162415,-0.12399254739284515,-1.4556200477124557,-0.4373198066542616,-2.7911055240658733
1687008694.1855931,-0.9020821452140808,0.4144469201564789,-0.12033897638320923,-0.037340402603149414,-0.03366386890411377,-0.01575416326522827,0.04882540553808212,0.201791450381279,-0.1288381814956665,-1.4381779639505048,-0.4273349919614868,-2.7811253439297046
1687008694.253423,-0.9029214382171631,0.40938377380371094,-0.1309112161397934,-0.007753551006317139,0.008340805768966675,0.022024452686309814,-0.015269959345459938,0.2003333568572998,-0.1272384077310562,-1.4268133446533362,-0.4217785356833741,-2.782492383370767
1687008694.266634,-0.9050339460372925,0.4025392234325409,-0.13738909363746643,-0.010523855686187744,0.009936332702636719,0.04696547985076904,0.017785929143428802,0.11941255629062653,-0.1714809685945511,-1.4201411096667982,-0.41428903960600666,-2.7840737406116203
1687008694.3443441,-0.9081953167915344,0.39504316449165344,-0.1382833570241928,0.0017011165618896484,0.004019945859909058,0.051353976130485535,-0.2045964002609253,0.10330042243003845,-0.16781006753444672,-1.419695185370132,-0.4061148460506587,-2.7913238570211987
1687008694.359179,-0.9108988642692566,0.38995540142059326,-0.13489891588687897,0.020319819450378418,0.061735183000564575,0.008052602410316467,0.21957063674926758,-0.017604555934667587,-0.12079489231109619,-1.4237706720835523,-0.40058317373070085,-2.796006103954533
1687008694.4300919,-0.9124228358268738,0.387173593044281,-0.13259384036064148,-0.047751665115356445,0.0031766891479492188,0.010813415050506592,-0.11199396848678589,0.012716332450509071,-0.06842436641454697,-1.4264859173699587,-0.3975641248719106,-2.792901635125559
1687008694.434087,-0.9119207859039307,0.38849252462387085,-0.13218817114830017,-0.0038810372352600098,0.03913494944572449,-0.030897781252861023,0.1422426402568817,0.0031362767331302166,-0.03210124373435974,-1.4268432451022162,-0.3989950584916143,-2.7944701785787407
1687008694.527588,-0.9121818542480469,0.38725462555885315,-0.13400757312774658,0.010753750801086426,-0.018831193447113037,0.004963994026184082,-0.1329251527786255,0.06926416605710983,-0.010099273175001144,-1.4249308819296873,-0.39765199350859654,-2.7925539272244784
1687008694.5400128,-0.9109514951705933,0.38928985595703125,-0.13645687699317932,1.722574234008789e-05,0.009635835886001587,-0.0015588849782943726,-0.055139075964689255,0.058465711772441864,-0.003855758346617222,-1.4221059041533581,-0.39986050611111373,-2.7973807538183424
1687008694.5800729,-0.910397469997406,0.39018407464027405,-0.13759548962116241,-0.016817986965179443,-0.008546590805053711,0.010917022824287415,-0.0623791478574276,0.014497188851237297,0.038582779467105865,-1.420793789789663,-0.40083150977181625,-2.798879844011854
1687008694.675311,-0.9088938236236572,0.3941817283630371,-0.13613556325435638,-0.006862461566925049,-0.02191305160522461,0.0016597956418991089,-0.1370210349559784,0.02878504805266857,0.04817654937505722,-1.4221199805559321,-0.40517733089174374,-2.8060591618550155
1687008694.690979,-0.9091711044311523,0.3936718702316284,-0.1357579231262207,-0.0023888349533081055,-0.04108712077140808,-0.0033717602491378784,-0.02801518142223358,0.031011182814836502,0.006376107223331928,-1.4225709575033498,-0.40462261511823694,-2.8078594490502438
1687008694.766883,-0.9097926020622253,0.3921556770801544,-0.13598313927650452,-0.0035833120346069336,-0.01996329426765442,-0.010379210114479065,0.015743883326649666,0.03527463972568512,-0.0508594885468483,-1.4224285890194315,-0.4029738018734003,-2.810772119658218
1687008694.85666,-0.912901759147644,0.38341206312179565,-0.14001992344856262,-0.01646524667739868,-0.03517603874206543,-0.021524906158447266,-0.03245154395699501,0.13240931928157806,-0.27992409467697144,-1.418603414888575,-0.39348788200131724,-2.8097110573400146
1687008694.872254,-0.9182999134063721,0.36833420395851135,-0.14510424435138702,-0.038365185260772705,0.05714184045791626,-0.08649368584156036,-0.4685533940792084,0.29780852794647217,-0.37094613909721375,-1.4140780867907599,-0.37721662732121153,-2.827825933621285
1687008694.943999,-0.9175947904586792,0.36339956521987915,-0.16112269461154938,-0.06595617532730103,0.08502566814422607,-0.11413061618804932,-1.4433480501174927,0.9102499485015869,0.11433160305023193,-1.3969758993335506,-0.37191434895616565,-2.862274632188576
1687008694.95816,-0.8994702100753784,0.40530240535736084,-0.16334907710552216,0.10892778635025024,0.4748397171497345,-0.2630730867385864,-2.242722272872925,0.9574891924858093,0.8522863388061523,-1.3911483505849727,-0.41730958956898584,-2.9745357713568796
1687008695.034473,-0.8704742193222046,0.4623968303203583,-0.16871142387390137,-0.05429983139038086,0.46437618136405945,-0.2443593144416809,-0.9929860234260559,0.880916953086853,1.1374064683914185,-1.379354390078183,-0.4806964732513388,-3.0481537825359113
1687008695.039504,-0.8282536268234253,0.5289031863212585,-0.18508712947368622,-0.04692941904067993,0.4461181163787842,-0.27862751483917236,-1.3193047046661377,1.2267234325408936,1.5411659479141235,-1.3509417585142298,-0.5573076496539421,-3.097895210646667
1687008695.1562319,-0.7628535032272339,0.6156485676765442,-0.19756349921226501,-0.20467573404312134,0.41555559635162354,-0.19869202375411987,-1.3493634462356567,1.2462491989135742,2.2478458881378174,-1.3173843004295864,-0.6632087276190228,3.1360627989142134
1687008695.171902,-0.6633598804473877,0.718345582485199,-0.20960265398025513,-0.3151862621307373,0.45899200439453125,-0.17923712730407715,-0.08451227843761444,1.186579704284668,2.8919126987457275,-1.264752160003145,-0.8014212789001516,3.12366113912135
1687008695.283586,-0.5258424878120422,0.8097230792045593,-0.2604571282863617,-0.477636456489563,0.3244319558143616,-0.050898462533950806,0.3054002821445465,1.2138968706130981,3.589824914932251,-1.1109045651764335,-0.9436800857845264,-3.0374691258378483
1687008695.288662,-0.3364574909210205,0.8989461660385132,-0.2805211842060089,-0.536452054977417,0.38439422845840454,-0.04778695106506348,-0.2944476008415222,1.348015308380127,4.433512210845947,-0.8758126585689014,-1.1173578474126278,-2.8378910195521847
1687008695.292575,-0.09560202062129974,0.9536791443824768,-0.28523001074790955,-0.6779575943946838,0.42986565828323364,-0.049151092767715454,-0.2632702589035034,1.3659793138504028,5.090513706207275,-0.32340730021025893,-1.2652379296597196,-2.320761589995795
1687008695.328611,0.17359396815299988,0.9483815431594849,-0.26540040969848633,-0.7012429237365723,0.4248635768890381,0.03708314895629883,-0.28060010075569153,1.2439099550247192,5.340710639953613,0.5792403163176324,-1.2480929258415634,-1.4477637773003342
1687008695.4557,0.4333402216434479,0.8684911727905273,-0.2407059222459793,-0.7866117358207703,0.35012155771255493,0.09129175543785095,-0.21828685700893402,1.0289151668548584,5.409333229064941,1.0637659658465801,-1.0521503787336284,-0.9815335216861152
1687008695.468652,0.6582692265510559,0.7223948836326599,-0.2117236703634262,-0.8535971641540527,0.26283448934555054,0.06497986614704132,0.05900027975440025,0.8386200666427612,5.378970146179199,1.259609241719557,-0.8072595124373871,-0.798153044161745
1687008695.545444,0.8350035548210144,0.521487295627594,-0.17555658519268036,-0.9523589015007019,0.16682147979736328,0.053913459181785583,-0.26614126563072205,0.91705721616745,5.319760322570801,1.3635680384481272,-0.5485931107144528,-0.7025678719004659
1687008695.551062,0.9462389349937439,0.29228901863098145,-0.13855940103530884,-0.8045612573623657,0.052117109298706055,0.044183745980262756,0.25334131717681885,0.6793938279151917,4.916030406951904,1.4253979414209128,-0.2966195084719763,-0.6520363362570387
1687008695.6367269,0.9917023777961731,0.06241306662559509,-0.11238633841276169,-0.7215304374694824,-0.1382949948310852,0.04691077768802643,-0.49369940161705017,0.4158581793308258,4.509786605834961,1.4579510878193758,-0.062453659181163766,-0.6160807590809539
1687008695.653291,0.9840385317802429,-0.14943410456180573,-0.09663037210702896,-0.6740410923957825,-0.044032022356987,-0.030460119247436523,-0.6091545820236206,0.3466169238090515,4.151320934295654,1.4729123919549498,0.1499959324860628,-0.5616830781846128
1687008695.691124,0.9373599886894226,-0.33835580945014954,-0.08289296925067902,-0.5511296987533569,-0.1271439492702484,-0.11090897768735886,-0.8620315194129944,0.561784029006958,3.8244049549102783,1.4825933962580065,0.3451691122963961,-0.5116764688216122
1687008695.7477589,0.8620674014091492,-0.5006999969482422,-0.07835421711206436,-0.43297499418258667,-0.009096086025238037,-0.1680905818939209,-0.848250150680542,0.6209860444068909,3.516152858734131,1.4801543223777607,0.5244072194491648,-0.4370547886766891
1687008695.849226,0.7713612914085388,-0.6330080032348633,-0.06559167802333832,-0.37925630807876587,-0.1354091763496399,-0.17241495847702026,-0.6173625588417053,0.9499262571334839,3.0911788940429688,1.485966722259829,0.6854326844187456,-0.3801953821995635
1687008695.854677,0.6711800694465637,-0.739800214767456,-0.04703905060887337,-0.32158607244491577,0.12178891897201538,-0.1367531418800354,-0.17308442294597626,1.1535229682922363,2.906114339828491,1.5008266382071132,0.832773385559557,-0.3274862480887446
1687008695.937087,0.5652062892913818,-0.8249420523643494,-0.003511488437652588,-0.1853998303413391,-0.08854055404663086,-0.020505905151367188,0.3299994170665741,0.927392840385437,2.657407760620117,1.5645836514006641,0.9700996329002652,-0.33815479101388446
1687008695.953161,0.45726096630096436,-0.8886570334434509,0.03465486317873001,-0.11236658692359924,-0.05923408269882202,-0.045931220054626465,0.7686595916748047,0.6859602332115173,2.279917001724243,1.646439649492612,1.094408203956268,-0.38725577355990964
1687008696.030405,0.3690005838871002,-0.9238898754119873,0.10132182389497757,-0.11465182900428772,-0.1856377124786377,0.09457041323184967,1.527496576309204,0.5137810707092285,1.4188029766082764,1.8387761733905548,1.1781243134528148,-0.5640691276412514
1687008696.0354,0.328931599855423,-0.9268152117729187,0.18115486204624176,-0.08602699637413025,-0.3600345253944397,0.2031071037054062,1.3991235494613647,0.0529262013733387,0.38222697377204895,2.074205347302788,1.1858410775777062,-0.8027570098585034
1687008696.084491,0.32405537366867065,-0.9202039241790771,0.21957290172576904,-0.018879622220993042,-0.09706872701644897,0.042313531041145325,0.395795077085495,-0.10563800483942032,-0.04605114832520485,2.166315195705823,1.16860117325997,-0.9051161693584242
1687008696.1727672,0.3252885639667511,-0.9177107214927673,0.22802183032035828,0.059354931116104126,0.00369417667388916,0.009435266256332397,-0.048992834985256195,-0.08238101750612259,0.09725754708051682,2.1821818588947406,1.1622787547543558,-0.9284727022151507
1687008696.188024,0.3178844153881073,-0.9232782125473022,0.21565353870391846,0.07541084289550781,-0.03872722387313843,-0.0209820419549942,-0.17265631258487701,-0.13488470017910004,0.1551983505487442,2.166879718230479,1.1765289515606059,-0.9175365889120329
1687008696.230263,0.31844815611839294,-0.9250100255012512,0.20723730325698853,-0.010418921709060669,-0.10366123914718628,0.023338228464126587,0.0015670782886445522,-0.13432638347148895,-0.04943709075450897,2.1477144056637374,1.181061982730231,-0.9051553048003684
1687008696.330672,0.32486143708229065,-0.9227924942970276,0.2071688175201416,-0.005037218332290649,0.02806299924850464,0.04238855838775635,0.05922917649149895,-0.1457875669002533,-0.13341934978961945,2.1384863782356653,1.1752663323063928,-0.9029773499623006
1687008696.335758,0.3314858675003052,-0.9206468462944031,0.20621861517429352,0.0050161778926849365,0.025505423545837402,0.005176529288291931,0.028178248554468155,-0.09092630445957184,-0.08069061487913132,2.127310248817683,1.1697342162399367,-0.8974833320224745
1687008696.3814468,0.3341464102268219,-0.9191610813140869,0.20853951573371887,0.007589429616928101,0.00512927770614624,0.000139579176902771,-0.027088399976491928,-0.009000679478049278,-0.007721070200204849,2.1287454762623317,1.1659453492440617,-0.9004868753417037
1687008696.481159,0.3345384895801544,-0.9194345474243164,0.20669756829738617,-0.008870184421539307,-0.006804347038269043,0.002408728003501892,0.001935659791342914,-0.05048926919698715,0.03975323587656021,2.124243947723635,1.1666400701722075,-0.897808752829782
1687008696.486428,0.3374142348766327,-0.9177023768424988,0.20969951152801514,-0.022686421871185303,-0.04984217882156372,-0.0164622962474823,-0.16195818781852722,-0.06252489238977432,-0.1520891636610031,2.126867466567772,1.162257765828799,-0.9038007812026377
1687008696.53189,0.3634301424026489,-0.9184850454330444,0.15589489042758942,-0.1519128680229187,-0.2955954670906067,-0.02732446789741516,-1.2888566255569458,-0.034586068242788315,-1.0388823747634888,1.9760114768373014,1.1642323817881692,-0.7470987333646861
1687008696.624933,0.43474408984184265,-0.8917789459228516,0.12541039288043976,-0.26894211769104004,-0.1936091184616089,-0.08660733699798584,-0.49682727456092834,0.12632252275943756,-2.055999994277954,1.851641357016113,1.101261658420653,-0.6051314393627731
1687008696.64028,0.5434262156486511,-0.8337187170982361,0.09798499941825867,-0.30821192264556885,-0.22392898797988892,-0.04326711595058441,-0.44786331057548523,-0.18466252088546753,-2.9888641834259033,1.7491892023860103,0.9858083015798221,-0.4884961829877389
1687008696.681386,0.6787814497947693,-0.7290154099464417,0.08827347308397293,-0.3674106001853943,-0.23877322673797607,0.02667093276977539,0.17727918922901154,-0.5326107740402222,-3.8250133991241455,1.700117526181228,0.8168823999764381,-0.447199416203965
1687008696.780247,0.8181899785995483,-0.5720571875572205,0.05758211761713028,-0.4731125235557556,-0.21526575088500977,-0.03493809700012207,-0.33949676156044006,-0.6720002293586731,-4.571655750274658,1.6410579209888334,0.6090117527004211,-0.40666829049717745
1687008696.785294,0.9334304332733154,-0.3574337959289551,0.030797362327575684,-0.5123032331466675,-0.09572160243988037,-0.10593175888061523,0.0559120737016201,-0.37286677956581116,-5.078482627868652,1.6037781041502197,0.3655187093352482,-0.3871783514377267
1687008696.905194,0.9937494993209839,-0.10973703861236572,0.020485572516918182,-0.5681514739990234,0.010463401675224304,-0.08617472648620605,-0.5302900075912476,-0.0855465903878212,-5.1363959312438965,1.591407831422056,0.1099584888058745,-0.3744812247876458
1687008696.921243,0.9891340732574463,0.1452183872461319,0.022924337536096573,-0.5679304003715515,0.09405472874641418,-0.11578941345214844,0.06181623786687851,0.14956752955913544,-5.152647495269775,1.593968347614233,-0.14573369309863968,-0.3530464381336366
1687008696.982928,0.9216783046722412,0.3873059153556824,0.02243047021329403,-0.5160082578659058,0.09146910905838013,-0.04911816120147705,0.5612167716026306,0.1638411283493042,-4.907370567321777,1.5951280745445742,-0.39770764492661725,-0.36699258557635916
1687008696.9868522,0.8027528524398804,0.5960045456886292,0.019139086827635765,-0.48041099309921265,0.13489145040512085,0.00907433032989502,0.43580329418182373,0.0862700492143631,-4.696022987365723,1.594633628528329,-0.6385160729478768,-0.38311426892177247
1687008697.079642,0.646815836429596,0.7622314691543579,-0.025144262239336967,-0.5305439829826355,0.12113028764724731,-0.01477283239364624,1.89765202999115,-0.12017247080802917,-4.395625591278076,1.531941976082468,-0.8667534580066149,-0.4726526505196887
1687008697.08466,0.47199228405952454,0.8766912221908569,-0.09292774647474289,-0.4877852201461792,0.06471490859985352,0.030244596302509308,1.2383748292922974,-0.29021942615509033,-4.151610374450684,1.3763986723319064,-1.0689402713146055,-0.6491511457766936
1687008697.1323562,0.27990972995758057,0.9436329007148743,-0.1766558587551117,-0.35347241163253784,0.005387365818023682,0.0996294617652893,1.7651859521865845,-0.49288812279701233,-4.171728610992432,1.0078101642947894,-1.2334397484605975,-1.026767615996794
1687008697.227766,0.07005130499601364,0.9694492816925049,-0.23507612943649292,-0.4337903559207916,0.06279247999191284,0.07844460010528564,0.5562021732330322,-0.6891570687294006,-4.268033981323242,0.289615507686986,-1.3229755873979043,-1.7442991952303806
1687008697.320862,-0.14792358875274658,0.9498595595359802,-0.2754729688167572,-0.3156842291355133,0.166839599609375,0.040808022022247314,1.237873911857605,-0.6814271807670593,-4.344205856323242,-0.4927924362667414,-1.2527863448060537,-2.522119817823766
1687008697.338214,-0.3525463044643402,0.8794764876365662,-0.31973743438720703,-0.3474048376083374,0.2944430708885193,-0.011683493852615356,1.3270400762557983,-1.0332883596420288,-3.9507699012756348,-0.834161606217933,-1.0747610792959224,-2.845946060096047
1687008697.341586,-0.521468997001648,0.7788006067276001,-0.348625510931015,-0.3401643633842468,0.2889636754989624,0.004295617341995239,1.0444889068603516,-1.2285948991775513,-3.2620558738708496,-0.9814944293363366,-0.8927514971097338,-2.952188987851512
1687008697.372443,-0.6499020457267761,0.6777778267860413,-0.34386715292930603,-0.12968474626541138,0.35887378454208374,-0.09549447894096375,0.7914187908172607,-1.2060765027999878,-2.679109573364258,-1.0841358604349167,-0.7447361229889939,-3.01042091518327
1687008697.4663138,-0.7474860548973083,0.5777431130409241,-0.3278374969959259,-0.19283682107925415,0.35403478145599365,-0.034101009368896484,0.8712193369865417,-1.2213363647460938,-2.213372230529785,-1.157474046206678,-0.6159609218767952,-3.029079148477871
1687008697.471511,-0.8179842233657837,0.4944254457950592,-0.2940157651901245,-0.14707309007644653,0.2598927319049835,-0.09244358539581299,0.3907777667045593,-1.2840712070465088,-1.5761253833770752,-1.2257370994386214,-0.5171737144174421,-3.036280933614575
1687008697.522571,-0.8666771650314331,0.43239158391952515,-0.24881359934806824,-0.07768923044204712,0.2698330879211426,-0.14233022928237915,0.459175169467926,-1.2384904623031616,-1.211084008216858,-1.2912260386216892,-0.447143451499769,-3.042425029717512
1687008697.6130629,-0.9021340608596802,0.38082045316696167,-0.20280489325523376,-0.19424039125442505,0.20635294914245605,-0.18452423810958862,0.10266859829425812,-1.0352702140808105,-1.040580153465271,-1.349666809884097,-0.3906834545009069,-3.0397744808771416
1687008697.619403,-0.9280469417572021,0.33523666858673096,-0.16231176257133484,0.026679813861846924,0.25796395540237427,-0.23434048891067505,0.1348377913236618,-0.8185057640075684,-0.8771103024482727,-1.3976515022623635,-0.34185641743423933,-3.0475744951426353
1687008697.6706982,-0.9437761306762695,0.3018522262573242,-0.13480208814144135,0.11580383777618408,0.2879609167575836,-0.21976642310619354,0.6594910025596619,-0.6198106408119202,-0.3796384334564209,-1.428923231691017,-0.3066349183582734,-3.034158742776043
1687008697.766788,-0.9483726620674133,0.2944660484790802,-0.11780908703804016,-0.1859046220779419,0.1791819930076599,-0.17407631874084473,0.6501443386077881,-0.5180949568748474,0.17581786215305328,-1.447207087699752,-0.2988967345482884,-2.9933744857319433
1687008697.773133,-0.9464927315711975,0.3043259382247925,-0.10741091519594193,-0.033731818199157715,0.26145467162132263,-0.18642765283584595,0.7334893345832825,-0.34256109595298767,0.4185120165348053,-1.4577966768370134,-0.30923071284928905,-2.961768983887419
1687008697.821394,-0.9398154616355896,0.3250642418861389,-0.10526101291179657,0.009304165840148926,0.007272124290466309,-0.09064660966396332,0.20527906715869904,-0.08265599608421326,0.5335062146186829,-1.4592593770397624,-0.33107965893298796,-2.930027838227897
1687008697.917584,-0.9314691424369812,0.34826335310935974,-0.10524970293045044,-0.04416239261627197,0.010775864124298096,-0.012365087866783142,0.11585544049739838,-0.00022183603141456842,0.4694018065929413,-1.4582803275798804,-0.35571784030736353,-2.92410651455651
1687008697.9230971,-0.9239466786384583,0.3674238622188568,-0.10640537738800049,-0.0448642373085022,-0.1443709433078766,0.023885786533355713,0.08070290833711624,-0.07732167840003967,0.40229547023773193,-1.4561374687754578,-0.37623762161873736,-2.911097747942625
1687008698.00498,-0.9189426302909851,0.38060262799263,-0.10337303578853607,-0.006228208541870117,-0.08265954256057739,0.04810565710067749,-0.04434601962566376,-0.0378606878221035,0.17648738622665405,-1.4587759717317474,-0.390447891012972,-2.910850410962545
1687008698.095438,-0.9178012013435364,0.38318926095962524,-0.1039554625749588,0.022278249263763428,-0.11309352517127991,0.0023166611790657043,0.16517138481140137,-0.0634070634841919,-0.022490162402391434,-1.4580112290651652,-0.39324665106218915,-2.9027361745583184
1687008698.113645,-0.9203290343284607,0.3775706887245178,-0.10214942693710327,-0.00975501537322998,-0.0351940393447876,-0.008659951388835907,0.08268562704324722,-0.05365416780114174,-0.1654995083808899,-1.4602564847085893,-0.3871713761364037,-2.9004258683036053
1687008698.179731,-0.9247598052024841,0.3658854365348816,-0.10462912917137146,-0.009902119636535645,0.00969436764717102,-0.03678937256336212,0.34152331948280334,-0.03163648396730423,-0.15992657840251923,-1.4581334846668927,-0.374584031888741,-2.887171842662978
1687008698.183502,-0.9273430109024048,0.35870879888534546,-0.10659711062908173,-0.01328498125076294,0.021601200103759766,-0.034500956535339355,-0.0049821012653410435,0.02231423184275627,-0.10256741940975189,-1.4563496751341658,-0.3668842630608491,-2.8813036170079678
1687008698.27732,-0.92841637134552,0.354209303855896,-0.1121554970741272,-0.004948437213897705,0.038597673177719116,-0.015148639678955078,0.1598322093486786,0.05873282626271248,-0.08948411047458649,-1.450575858970568,-0.3620684090546528,-2.8762363043185193
1687008698.2937942,-0.9282076954841614,0.3528420925140381,-0.11803761124610901,0.008713126182556152,0.026048868894577026,0.004588484764099121,0.008164194412529469,0.04967661574482918,-0.02696986496448517,-1.44430800821704,-0.36060682682495127,-2.8735336624160657
1687008698.397585,-0.9272996783256531,0.3542577624320984,-0.12089993804693222,0.015144526958465576,-0.009638041257858276,0.008763059973716736,-0.0183218065649271,0.04387185722589493,0.006271178834140301,-1.4411491405036585,-0.36212024084289035,-2.8725655700137875
1687008698.402586,-0.9265758991241455,0.3557128608226776,-0.12216899544000626,-0.009367585182189941,0.005996674299240112,0.01605934649705887,0.039151471108198166,0.03087775781750679,-0.01975802518427372,-1.439702541133498,-0.3636767098109693,-2.87259512056462
1687008698.485718,-0.9266632199287415,0.355594664812088,-0.12185061722993851,0.00045478343963623047,-0.028110593557357788,0.01757204532623291,-0.13714739680290222,0.020678117871284485,-0.015103619545698166,-1.440052473222116,-0.3635502285500356,-2.8762262916347314
1687008698.491767,-0.927205502986908,0.35513097047805786,-0.11904475837945938,0.0005851387977600098,-1.3232231140136719e-05,-0.0015454888343811035,-0.006117406766861677,-0.012614190578460693,-0.014279637485742569,-1.4431039972630526,-0.36305415990472917,-2.8809074779395667
1687008698.5429602,-0.9282594919204712,0.35291528701782227,-0.11740875989198685,-0.0014888644218444824,-0.004969179630279541,-0.0014724582433700562,-0.10183707624673843,0.010704580694437027,-0.020446186885237694,-1.4449817207210691,-0.36068503951018227,-2.8824162557527644
1687008698.557159,-0.9280652403831482,0.3539089858531952,-0.11594536155462265,-0.004261970520019531,0.014346599578857422,-0.00786447525024414,-0.10539738833904266,0.011032816022634506,0.010853945277631283,-1.4465079495159694,-0.36174729600000854,-2.8885980438547385
1687008698.60128,-0.927666187286377,0.3557735085487366,-0.1134028360247612,-0.0030128955841064453,0.003952383995056152,-0.012177035212516785,-0.13336831331253052,-0.0026590279303491116,0.03216056525707245,-1.4491545617518147,-0.36374159864563443,-2.896691292794041
1687008698.665876,-0.9268123507499695,0.35796189308166504,-0.11349926888942719,-0.018500089645385742,0.04548045992851257,-0.051478803157806396,0.03905026987195015,0.026574891060590744,0.05198140814900398,-1.4489410900616013,-0.36608422575863847,-2.897650441889616
1687008698.724479,-0.9242839217185974,0.36313048005104065,-0.11762484163045883,-0.05861103534698486,0.08733946084976196,-0.11487336456775665,-0.6987094283103943,0.41194456815719604,0.14861926436424255,-1.444216225041246,-0.37162552548533173,-2.9081125703373947
1687008698.784713,-0.9163609743118286,0.38174328207969666,-0.12064205855131149,0.019403696060180664,0.26013290882110596,-0.22434395551681519,-1.7510730028152466,0.7410678267478943,0.2926992177963257,-1.4398957292881858,-0.3916816709910132,-2.9795950309319137
1687008698.878701,-0.9028222560882568,0.4110124707221985,-0.12641355395317078,0.03447526693344116,0.38952451944351196,-0.23563174903392792,-1.290432095527649,0.8267338871955872,0.6309019923210144,-1.4316803489461691,-0.42356441699121966,-3.0600790673852565
1687008698.8960629,-0.8761045336723328,0.46048375964164734,-0.14281205832958221,-0.06919258832931519,0.388652503490448,-0.22632859647274017,-1.1989866495132446,1.070742130279541,1.251022458076477,-1.4092095135690272,-0.47854009914082585,-3.117616106842906
1687008698.932396,-0.8287180662155151,0.5352957248687744,-0.163354754447937,-0.06511121988296509,0.4740120768547058,-0.21655863523483276,-0.830776572227478,1.0781340599060059,1.862181544303894,-1.3761740225338597,-0.5648578196117897,3.1212948672115726
1687008699.0199819,-0.7560241222381592,0.6282100081443787,-0.18379177153110504,-0.23057854175567627,0.4273165464401245,-0.19180332124233246,-0.7725481390953064,1.204979658126831,2.46877121925354,-1.3323193661321888,-0.6792504694714683,3.1000678315809456
1687008699.0252628,-0.6501035094261169,0.7296630144119263,-0.21203134953975677,-0.2939271926879883,0.44649964570999146,-0.2219896912574768,-0.2141977697610855,1.3196656703948975,3.032270908355713,-1.2555245328520825,-0.8178290088864394,3.118679775399084
1687008699.081297,-0.5059137940406799,0.8240165710449219,-0.2550446391105652,-0.4552983045578003,0.3527258634567261,-0.0921843945980072,0.25880974531173706,1.418534755706787,3.5139784812927246,-1.1038528492752535,-0.9684642183592749,-3.0572686139544887
1687008699.176639,-0.32802146673202515,0.9014793634414673,-0.28237709403038025,-0.5579344034194946,0.30329352617263794,-0.014635264873504639,-0.4096735417842865,1.4620550870895386,3.787588119506836,-0.8600372302493199,-1.1231753665826125,-2.85911420551861
1687008699.19377,-0.1293725073337555,0.9549533128738403,-0.2670707106590271,-0.5428839921951294,0.19133257865905762,0.08578097820281982,-0.8123279213905334,1.3136684894561768,3.812260389328003,-0.45110039322500767,-1.2695024573490192,-2.495854245837672
1687008699.231106,0.05970107391476631,0.968950092792511,-0.2399400919675827,-0.601723849773407,0.12548643350601196,0.09075488150119781,-0.46541357040405273,0.9392335414886475,3.449272632598877,0.24386455548603844,-1.3209486258286205,-1.8328958423862955
1687008699.356079,0.23233303427696228,0.9499198198318481,-0.2089821994304657,-0.6824826002120972,-0.020690202713012695,0.08807152509689331,-0.6823788285255432,0.7674941420555115,3.4072325229644775,0.83826077339414,-1.2529792507486432,-1.2581398680507787
1687008699.373353,0.40085938572883606,0.9038524031639099,-0.1495409607887268,-0.6418720483779907,-0.07113456726074219,0.10480213165283203,-1.29511559009552,0.5550456643104553,3.5576534271240234,1.2137355227308633,-1.1286898005010941,-0.8900863805683606
1687008699.4430652,0.5606250762939453,0.8234058022499084,-0.08776131272315979,-0.6508961915969849,0.0020487308502197266,0.06665832549333572,-1.1216318607330322,0.2302517145872116,3.7714767456054688,1.415514655222285,-0.9673870637069836,-0.6788481600067534
1687008699.4590092,0.7148494124412537,0.6979522705078125,-0.04304281994700432,-0.6918240189552307,0.030075013637542725,-0.006121039390563965,-1.0587971210479736,-0.09904775023460388,4.284298896789551,1.5106565078590097,-0.7725341373285424,-0.5589721273355153
1687008699.532439,0.85077303647995,0.5247963666915894,-0.027823176234960556,-0.6543771028518677,0.06600874662399292,-0.04834872856736183,-0.4172379672527313,-0.17549686133861542,4.593780517578125,1.5381045703991725,-0.5524758845252227,-0.5041484132462243
1687008699.53643,0.9495070576667786,0.3127177357673645,-0.025374101474881172,-0.6317734122276306,-0.027164757251739502,-0.07685983180999756,-0.7385770678520203,-0.17538033425807953,4.815246105194092,1.5440792395959992,-0.3180529270586827,-0.4678731661948352
1687008699.628077,0.9966548085212708,0.07802750170230865,-0.024303292855620384,-0.5766415596008301,0.017187364399433136,-0.10074251890182495,-0.4941888153553009,-0.05500505864620209,4.7306036949157715,1.5464162944765425,-0.07810689342157763,-0.42461969587772597
1687008699.6448212,0.9880582690238953,-0.15174943208694458,-0.02670111134648323,-0.49820536375045776,-0.014250904321670532,-0.07367128133773804,-0.5550122261047363,-0.00028455344727262855,4.565617561340332,1.543779079962167,0.1523379612798469,-0.3952670741415838
1687008699.712801,0.9320006966590881,-0.3613716959953308,-0.028018640354275703,-0.3478943109512329,-0.14435029029846191,-0.17336690425872803,-0.6914525628089905,0.21820171177387238,4.201130390167236,1.540742481708238,0.3697385765219464,-0.3583485740201902
1687008699.72924,0.84162437915802,-0.539348304271698,-0.027778461575508118,-0.3002731204032898,-0.14307045936584473,-0.16207146644592285,-0.4135146737098694,0.4365094304084778,3.896130323410034,1.5378025337402779,0.5696629974937534,-0.31505217324208795
1687008699.770572,0.7310076355934143,-0.6823253631591797,0.007719617336988449,-0.24959295988082886,-0.05551326274871826,-0.15757620334625244,0.9845312833786011,0.7458683252334595,3.34506893157959,1.5813561759787544,0.7509387779272855,-0.3364980318236535
1687008699.861948,0.6180844306945801,-0.7842229008674622,0.054461948573589325,-0.21085786819458008,-0.35949963331222534,-0.07117044180631638,-0.07656686753034592,0.7996963858604431,2.6717801094055176,1.6586834295167068,0.9014427276633482,-0.38890110656586535
1687008699.8780851,0.5195717215538025,-0.8528621196746826,0.05168406292796135,-0.13112878799438477,-0.14835846424102783,0.04252362251281738,-0.3888564705848694,0.3663175404071808,1.9847867488861084,1.6699445113086842,1.0214425242647664,-0.3687848636171104
1687008699.92359,0.4522520899772644,-0.8897954821586609,0.061087485402822495,-0.05302122235298157,-0.2564902901649475,0.06205081194639206,0.4306708872318268,0.09471666067838669,1.1255269050598145,1.70505770098446,1.096896871314527,-0.39447761544881704
1687008699.979762,0.42023715376853943,-0.9025079607963562,0.09423379600048065,-0.027643799781799316,-0.22488754987716675,0.11085951328277588,0.9532693028450012,-0.17784149944782257,0.3768252730369568,1.791386851174416,1.1255578003853257,-0.4927223315796438
1687008700.0429811,0.41481727361679077,-0.901553213596344,0.12299786508083344,-0.029837995767593384,-0.12876605987548828,0.051333799958229065,0.516694962978363,-0.36801597476005554,-0.0036387108266353607,1.8590490922471958,1.1233460280931753,-0.5852704673177554
1687008700.1051788,0.42159271240234375,-0.8992651700973511,0.11654067784547806,-0.024208039045333862,-0.04021841287612915,-0.05848096311092377,-0.16947104036808014,-0.19855795800685883,-0.17794525623321533,1.8404910698281454,1.1180866701427878,-0.5802990183874241
1687008700.1964731,0.42879268527030945,-0.8951854109764099,0.12157250195741653,0.03341129422187805,0.04675102233886719,-0.02657139301300049,0.4399348199367523,-0.04504390433430672,-0.08708300441503525,1.8470687176962615,1.10884698328628,-0.5930376384723033
1687008700.216438,0.4286141097545624,-0.893743634223938,0.13233251869678497,0.03731295466423035,0.016271889209747314,0.0031959861516952515,0.03495972231030464,-0.05722799524664879,0.08665763586759567,1.8702567336078233,1.1056225290914252,-0.6215518522006959
1687008700.281621,0.4234606921672821,-0.8958709836006165,0.1345207393169403,0.00454828143119812,0.014569342136383057,0.00349484384059906,0.08734256774187088,-0.03718464821577072,0.14986030757427216,1.878384221127387,1.110387596933862,-0.6331893347583023
1687008700.2853441,0.4216669797897339,-0.8952724933624268,0.14381901919841766,-0.037404924631118774,0.02138650417327881,-0.022664308547973633,0.4377557337284088,-0.003854920621961355,0.034832246601581573,1.899495919982639,1.1090424045564455,-0.6582513778506718
1687008700.3802009,0.42245855927467346,-0.8931246995925903,0.1544574797153473,-0.036350101232528687,-0.028551995754241943,-0.0032276958227157593,0.14292053878307343,-0.06579378992319107,-0.04273604601621628,1.9213143948339617,1.1042446233500873,-0.6850175328677002
1687008700.397709,0.4235807955265045,-0.8916308879852295,0.15991665422916412,0.0002015233039855957,0.007613122463226318,-0.014759913086891174,0.22718122601509094,-0.035728033632040024,-0.07789003849029541,1.9317877648727153,1.100934597042095,-0.6999383820410634
1687008700.462795,0.4255485534667969,-0.8887810707092285,0.17022481560707092,-0.000286102294921875,-0.0037969350814819336,0.004259347915649414,0.26927030086517334,-0.01138980221003294,-0.08682334423065186,1.9513136272319065,1.094678813661796,-0.7232403145792188
1687008700.478879,0.4292545020580292,-0.8851030468940735,0.17981280386447906,-0.0015507340431213379,0.013506054878234863,-0.00990632176399231,0.28325149416923523,0.001695107202976942,-0.10172532498836517,1.967485103031451,1.086715419600395,-0.7423911518066634
1687008700.520829,0.43625685572624207,-0.8798954486846924,0.18831753730773926,-0.07215172052383423,-0.10766839981079102,-0.057626157999038696,0.14497517049312592,-0.013156676664948463,-0.3667391538619995,1.978300128059041,1.075642158047891,-0.7545947752293319
1687008700.6130319,0.47187671065330505,-0.8595656156539917,0.19616135954856873,-0.17114120721817017,-0.2929154634475708,0.004384905099868774,0.0855155736207962,-0.006601305678486824,-1.2868629693984985,1.9647674878814116,1.0344189885773172,-0.7385872083789791
1687008700.617115,0.5443530082702637,-0.815827488899231,0.19520573318004608,-0.18558835983276367,-0.26136672496795654,0.029754549264907837,0.09875388443470001,-0.25992733240127563,-2.166841983795166,1.9151131826816852,0.9541586334493538,-0.6847087238047952
1687008700.673266,0.6553694605827332,-0.7314118146896362,0.18848711252212524,-0.2812240719795227,-0.4908781051635742,0.05414281785488129,0.48373204469680786,-0.7900444269180298,-3.3163461685180664,1.850842539567999,0.8203899282462926,-0.6364874976719849
1687008700.735909,0.7902343273162842,-0.5874568819999695,0.1744244396686554,-0.34484559297561646,-0.3049989938735962,0.028441056609153748,0.4842546284198761,-1.21297025680542,-4.159425735473633,1.7880380237332085,0.6279127250232264,-0.6187116325198447
1687008700.82894,0.9072315096855164,-0.4036174714565277,0.11842037737369537,-0.41144317388534546,-0.20230889320373535,-0.07522287219762802,-0.7254949808120728,-1.1198053359985352,-4.484930515289307,1.7005918863935043,0.41546725760362924,-0.5638687684311673
1687008700.8474488,0.9796587824821472,-0.18894286453723907,0.06759592145681381,-0.4238574504852295,-0.026862144470214844,-0.04774439334869385,-0.8250896334648132,-0.660092830657959,-4.659642219543457,1.6396865966158072,0.19008551020817616,-0.500692058812831
1687008700.91501,0.9980894327163696,0.045325662940740585,0.041986919939517975,-0.5039184093475342,-0.0349191278219223,-0.061304569244384766,0.11399675160646439,-0.34795013070106506,-4.870578289031982,1.6128388297298746,-0.045341198359144574,-0.46260761223050906
1687008700.9187288,0.9582936763763428,0.2852180600166321,0.01799854449927807,-0.5673330426216125,0.02690047025680542,-0.013573527336120605,1.226569414138794,-0.4166046679019928,-4.903375625610352,1.5895759872392026,-0.2892339459184353,-0.4889508951440201
1687008700.9705892,0.8605211973190308,0.5087854862213135,-0.025311235338449478,-0.5973986387252808,-0.07853341102600098,-0.1089814305305481,1.4024738073349,-0.29179149866104126,-4.871798038482666,1.5413909609981344,-0.5337734732604061,-0.5618206238769535
1687008701.067045,0.712460994720459,0.697381854057312,-0.07783228158950806,-0.5456519722938538,0.0004178285598754883,-0.07278728485107422,1.3448405265808105,-0.21186497807502747,-4.917362213134766,1.4619835570277953,-0.771737910598431,-0.6705084221277322
1687008701.072238,0.5260022282600403,0.8429983854293823,-0.11258471012115479,-0.5734266638755798,0.0408516526222229,-0.02184528112411499,0.3445066809654236,-0.20089274644851685,-4.633303642272949,1.3599394069759527,-1.0028331489192457,-0.7887764417737467
1687008701.1184568,0.3286428451538086,0.9319953322410583,-0.15290015935897827,-0.5488425493240356,0.13721847534179688,0.03165382146835327,1.202980637550354,-0.42160317301750183,-4.175932884216309,1.135335435822214,-1.199879301103513,-1.0200678877113607
1687008701.188247,0.13252870738506317,0.9633626341819763,-0.2331702709197998,-0.37937018275260925,0.06036466360092163,0.02951115369796753,1.390026330947876,-0.7806769013404846,-3.777139663696289,0.5168429753645215,-1.2992699872219433,-1.636833907406359
1687008701.2432408,-0.050121381878852844,0.958060085773468,-0.28214994072914124,-0.39064404368400574,0.09882456064224243,0.014419227838516235,0.9557151794433594,-0.8792246580123901,-3.4128620624542236,-0.1758069838527861,-1.2801542761046965,-2.312361851205384
1687008701.337075,-0.22294995188713074,0.9156554341316223,-0.3344672620296478,-0.34041982889175415,0.10845333337783813,0.013117164373397827,1.6888742446899414,-1.209373950958252,-3.3572933673858643,-0.5879441806958368,-1.1571354428161107,-2.6944307316129885
1687008701.3432112,-0.39521026611328125,0.8275322318077087,-0.3987470269203186,-0.31230926513671875,0.08561468124389648,0.017124712467193604,1.7065942287445068,-1.4627479314804077,-3.3019487857818604,-0.7809435866412946,-0.9746977384547824,-2.8354448252756863
1687008701.4305,-0.5489758253097534,0.7342268824577332,-0.3994198143482208,-0.4376879334449768,0.1508132815361023,-0.03927034139633179,0.4773971140384674,-1.3860608339309692,-3.144301414489746,-0.9418038933183073,-0.8245272300959522,-2.9484753984428393
1687008701.446454,-0.6778391003608704,0.6220517754554749,-0.39189979434013367,-0.23678791522979736,0.2431824803352356,0.010445356369018555,1.2625665664672852,-1.4938243627548218,-2.6433632373809814,-1.046590060752049,-0.6713604611511681,-2.9975165566890456
1687008701.513465,-0.7735855579376221,0.5174792408943176,-0.36576005816459656,-0.21890699863433838,0.3555980324745178,-0.09894636273384094,1.1250783205032349,-1.5398130416870117,-2.0813543796539307,-1.1291352180691088,-0.5439024692225102,-3.0074289398055183
1687008701.5301728,-0.8426789045333862,0.4239988923072815,-0.3318389058113098,-0.247958242893219,0.39539802074432373,-0.18837898969650269,1.549133539199829,-1.6056768894195557,-1.4172645807266235,-1.1956544237663334,-0.43785620574006895,-2.9787368571592223
1687008701.573371,-0.8877075910568237,0.35407114028930664,-0.29429349303245544,-0.09221172332763672,0.2783598303794861,-0.20628634095191956,0.9101134538650513,-1.3365435600280762,-0.8442796468734741,-1.2506779636684848,-0.36192068706931974,-2.929830991926737
1687008701.665025,-0.9147021770477295,0.3204905688762665,-0.24618227779865265,-0.010499238967895508,0.21074417233467102,-0.10000917315483093,0.07267254590988159,-1.1901570558547974,-0.4023275077342987,-1.3078869107387674,-0.32624732199869644,-2.9179601735753287
1687008701.6697989,-0.9328095316886902,0.3021305203437805,-0.19642652571201324,-0.03513169288635254,0.2526332437992096,-0.17153918743133545,0.5756421685218811,-1.1369887590408325,-0.2837204337120056,-1.363253320485361,-0.3069268235492619,-2.9063703884213545
1687008701.7226648,-0.9458751082420349,0.286678671836853,-0.15210279822349548,-0.12913691997528076,0.2050662636756897,-0.2284971922636032,0.015261651948094368,-0.8140935897827148,-0.32068750262260437,-1.4113548604269697,-0.29075819424876564,-2.8936331463419345
1687008701.845227,-0.9537169933319092,0.2722032368183136,-0.12778650224208832,-0.013430893421173096,0.4258863627910614,-0.43251627683639526,1.2494373321533203,-0.531900942325592,0.015086241997778416,-1.4376017479973144,-0.2756819884895991,-2.8710129356997562
1687008701.8651872,-0.9505322575569153,0.2791292667388916,-0.1362900584936142,0.02333211898803711,0.009063422679901123,-0.2348342388868332,2.140730381011963,-0.288074254989624,0.8386839628219604,-1.4283840784553348,-0.2828872078687361,-2.757933981359351
1687008701.933115,-0.9385837912559509,0.31137531995773315,-0.1486792415380478,-0.034652113914489746,0.0004074573516845703,-0.016817614436149597,0.5167618989944458,0.056330788880586624,0.7714444398880005,-1.4136936508168718,-0.3166399699549368,-2.693551115529855
1687008701.936738,-0.9254984259605408,0.3427652418613434,-0.1611352562904358,-0.04517412185668945,-0.04514262080192566,0.07423645257949829,0.23185527324676514,0.21044565737247467,0.6724169254302979,-1.3984177725907168,-0.34985889566119704,-2.666887701003714
1687008702.027184,-0.9146784543991089,0.3677859306335449,-0.16762103140354156,-0.03441816568374634,-0.12324860692024231,0.08990800380706787,-0.4014259874820709,0.1809219866991043,0.38632848858833313,-1.3895506100596047,-0.37662695725382517,-2.6682196290417672
1687008702.04458,-0.9085786938667297,0.38255974650382996,-0.16772836446762085,0.0026643872261047363,-0.03951162099838257,0.09801094233989716,-0.013284172862768173,0.015277228318154812,0.20364657044410706,-1.3882463152311308,-0.39256522191020266,-2.6798769922282903
1687008702.112123,-0.90561443567276,0.39062342047691345,-0.16515345871448517,-0.015116095542907715,-0.10090482234954834,0.08806604146957397,-0.1998792141675949,-0.0377042293548584,0.10674559324979782,-1.3904124040746815,-0.4013087110523743,-2.6830849900243603
1687008702.1281528,-0.9053546786308289,0.39334437251091003,-0.16004091501235962,0.013859927654266357,-0.005145519971847534,0.01694391667842865,0.32212764024734497,-0.18121744692325592,0.001455649733543396,-1.3958323182779024,-0.4042663688740503,-2.6839654013107688
1687008702.170549,-0.9076238870620728,0.38725605607032776,-0.16202247142791748,0.0070198774337768555,0.0014767646789550781,0.003926172852516174,0.7612218856811523,-0.2604881823062897,-0.016469554975628853,-1.3941442973507232,-0.39765355794274315,-2.6494394215970094
1687008702.262949,-0.9098142981529236,0.38271477818489075,-0.16052164137363434,-0.005560398101806641,-0.012353479862213135,-0.016816020011901855,0.2403157353401184,-0.20873188972473145,-0.0006162887439131737,-1.396160172372981,-0.39273300005424583,-2.624345090039642
1687008702.267367,-0.911584734916687,0.37916305661201477,-0.15889765322208405,0.0022983551025390625,0.07202401757240295,-0.031654104590415955,0.8824350237846375,-0.27246105670928955,0.005520432256162167,-1.3982209672645949,-0.38889165192508895,-2.5997384599751268
1687008702.357976,-0.9133277535438538,0.3715342879295349,-0.16671736538410187,-0.017687201499938965,-0.0183238685131073,0.004531681537628174,0.8863353729248047,-0.19422166049480438,0.030797291547060013,-1.390245765689871,-0.38066104918776844,-2.5434378886620403
1687008702.376113,-0.9143866896629333,0.3685362637042999,-0.1675642877817154,0.0173988938331604,0.027932822704315186,0.0024031400680541992,0.4658898115158081,-0.21620672941207886,0.013106181286275387,-1.389554083006206,-0.37743395679184144,-2.5162021681685114
1687008702.408588,-0.9159337878227234,0.3633671998977661,-0.1703805774450302,-0.013112783432006836,-0.0373174250125885,0.0008706450462341309,0.5719152688980103,-0.16880817711353302,0.048876695334911346,-1.3868800020104282,-0.37187961286990007,-2.4799368666621877
1687008702.473388,-0.9160360097885132,0.36381348967552185,-0.16887234151363373,0.0035756826400756836,-0.02438172698020935,0.016604825854301453,0.044837988913059235,-0.1315004974603653,0.052400853484869,-1.3884919609591397,-0.37235869758238027,-2.4669620853634857
