Timestamp,gravityX,gravityY,gravityZ,accelerationX,accelerationY,accelerationZ,rotationRateX,rotationRateY,rotationRateZ,attitudeRoll,attitudePitch,attitudeYaw
1687013429.161438,-0.17059898376464844,0.23048770427703857,-0.9580038785934448,0.003011748194694519,0.0015832781791687012,-0.004139065742492676,0.0060038380324840546,-0.004733896814286709,-0.010918728075921535,-0.17623019710434248,-0.23257885897565414,2.19373303651592
1687013429.174339,-0.1708868443965912,0.2304951697587967,-0.95795077085495,0.002002626657485962,0.00732836127281189,-0.005290806293487549,0.007399467751383781,-0.008724643848836422,-0.007500560488551855,-0.176531018519269,-0.2325865307244578,2.193399178566538
1687013429.220526,-0.17092500627040863,0.23125866055488586,-0.9577599167823792,-0.009037107229232788,-0.0028498172760009766,-0.00574105978012085,-0.034516558051109314,0.0017719395691528916,0.0033550160005688667,-0.17660407039326134,-0.2333712216965129,2.1932109458531492
1687013429.316235,-0.170533686876297,0.23231615126132965,-0.9575737714767456,-0.0057205259799957275,-0.0008250176906585693,-0.008612751960754395,-0.005913209170103073,0.01853693649172783,-0.0029508164152503014,-0.1762416414168029,-0.23445831091338823,2.19304703894349
1687013429.329622,-0.17073854804039001,0.23171080648899078,-0.9576839208602905,-0.0019451230764389038,-0.003073066473007202,0.006389975547790527,0.010514434427022934,0.004104069899767637,-0.007454754319041967,-0.17642911436431877,-0.23383598226998678,2.1926787375050343
1687013429.403156,-0.17020376026630402,0.2330620437860489,-0.9574511647224426,0.0030285269021987915,0.0016486942768096924,0.001518547534942627,-0.034701645374298096,0.014080271124839783,0.0034610098227858543,-0.1759297212981122,-0.23522525640781586,2.1925498962502603
1687013429.495019,-0.17014604806900024,0.23410901427268982,-0.9572060108184814,0.0022536516189575195,0.002646416425704956,0.006583452224731445,-0.011226946488022804,0.004353874363005161,-0.00013718660920858383,-0.17591542168328725,-0.2363020151242663,2.1922769185066784
1687013429.510088,-0.17034177482128143,0.23435834050178528,-0.9571101665496826,-0.0010448992252349854,-0.0013413280248641968,-0.002560853958129883,-0.01461641862988472,-0.010826276615262032,-0.001407780684530735,-0.1761308921355316,-0.23655846790003512,2.1920573948673394
1687013429.586506,-0.17052696645259857,0.23514313995838165,-0.9568846821784973,-0.009847119450569153,-0.00014247000217437744,0.0037291646003723145,-0.014068805612623692,0.007030616980046034,-0.0012392029166221619,-0.17635913969244654,-0.23736583448257534,2.1918751412185142
1687013429.591806,-0.17008346319198608,0.23564741015434265,-0.9568395614624023,-0.0030884891748428345,-0.003576427698135376,-0.005486488342285156,-0.026371944695711136,0.015176162123680115,-0.0005065668374300003,-0.17591800172930563,-0.23788467978639266,2.1918077753810272
1687013429.675324,-0.1705881506204605,0.23564617335796356,-0.9567499756813049,-0.0012562721967697144,-0.0038956552743911743,0.010140538215637207,0.005441711284220219,-0.005230443086475134,0.0011605722829699516,-0.1764454281223717,-0.23788341106889244,2.1916728452078917
1687013429.68062,-0.17014500498771667,0.23633921146392822,-0.9566579461097717,0.006494536995887756,0.000980764627456665,0.0042195916175842285,-0.026811633259058,0.002388461260125041,-0.006164452526718378,-0.1760130601304071,-0.238596601230171,2.191488049504596
1687013429.763651,-0.17048203945159912,0.2366938441991806,-0.9565103054046631,0.0029863566160202026,0.0038305073976516724,-0.003023386001586914,0.008075710386037827,-0.004652271047234535,-0.005334345158189535,-0.17638121081022282,-0.2389615854387734,2.1911451617357987
1687013429.777272,-0.1707869917154312,0.23711667954921722,-0.9563511610031128,-0.02060393989086151,0.027241885662078857,0.013220667839050293,-0.022873615846037865,-0.026992863044142723,0.0015874765813350677,-0.17671899369137703,-0.23939681118777742,2.190850107267617
1687013429.8198771,-0.16923421621322632,0.2381422072649002,-0.9563723802566528,0.0222463458776474,0.015809878706932068,0.03194916248321533,-0.023636147379875183,0.01553954929113388,0.0035331817343831062,-0.17514127155244485,-0.24045257494193928,2.1909108220242506
1687013429.945776,-0.17116734385490417,0.23793306946754456,-0.9560803174972534,-0.027563080191612244,0.021222233772277832,0.005564570426940918,0.01232671458274126,-0.02287827804684639,-0.00065623689442873,-0.17715349942720482,-0.24023725639049356,2.1903009975393193
1687013429.959554,-0.1695137917995453,0.2381361573934555,-0.9563243389129639,0.008548885583877563,0.01261158287525177,0.008021116256713867,-0.006685391999781132,0.015971779823303223,0.008505037985742092,-0.17543335195816728,-0.24044635241590115,2.1906111360502094
1687013430.03762,-0.17038948833942413,0.23945288360118866,-0.9558398127555847,0.0006202459335327148,0.022296428680419922,-0.015290558338165283,-0.023125218227505684,-0.0013076068134978414,0.002574443817138672,-0.17640854090442992,-0.241802299536214,2.1900285331170735
1687013430.0428329,-0.17004720866680145,0.23875758051872253,-0.9560746550559998,0.0010714232921600342,-0.0029176920652389526,0.006367623805999756,0.012980187311768532,-0.007394261658191681,-0.004117014817893505,-0.17601908414776457,-0.24108623310593016,2.1903193978824445
1687013430.048784,-0.16967914998531342,0.238750621676445,-0.9561418294906616,0.002793818712234497,-0.0035668611526489258,0.005580306053161621,0.009539050981402397,-0.0031911274418234825,-0.003972138278186321,-0.17563381848141224,-0.2410790558186046,2.1902636809459444
1687013430.089165,-0.1699550300836563,0.2394239902496338,-0.955924391746521,0.007815182209014893,0.015458866953849792,-0.002510666847229004,-0.01176124345511198,-0.01494485605508089,-0.0008453214541077614,-0.17595271763025389,-0.24177254952677998,2.189993011463622
1687013430.153743,-0.1703207641839981,0.2392224222421646,-0.955909788608551,-0.00961083173751831,0.0016223788261413574,-0.016532838344573975,-0.01815050095319748,0.01237398386001587,-0.0020980723202228546,-0.17632621078941377,-0.24156493465226428,2.189784791741343
1687013430.275334,-0.16940802335739136,0.23933613300323486,-0.9560434818267822,-0.003809705376625061,-0.008470594882965088,0.0022013187408447266,-0.003569560358300805,0.014999327249825,-0.005355384200811386,-0.17537657012144584,-0.24168205610632726,2.189632006626205
1687013430.281142,-0.1694679856300354,0.2400294691324234,-0.9558590054512024,-0.005687594413757324,0.0010136663913726807,0.012514889240264893,0.009163678623735905,0.0011277208104729652,-0.0019950075075030327,-0.17547055093414143,-0.2423962039554331,2.1894312472352295
1687013430.422371,-0.1691657155752182,0.2389131784439087,-0.9561921954154968,0.003455325961112976,0.00803510844707489,-0.006561100482940674,0.03380198031663895,0.007049659267067909,-0.003965746611356735,-0.17510415493164472,-0.24124646494273583,2.189277774112488
1687013430.428314,-0.16893599927425385,0.23887985944747925,-0.9562410712242126,0.008276253938674927,0.008800849318504333,0.0007205009460449219,-0.004144003614783287,-0.0042350864969193935,-0.0033012880012392998,-0.1748624145975837,-0.24121215072981816,2.1890237177071663
1687013430.5134978,-0.16908888518810272,0.2388671189546585,-0.9562172889709473,-0.0008939653635025024,-0.007543832063674927,0.0017495155334472656,-0.012530098669230938,-0.0037593129090964794,0.008950850926339626,-0.17502173828600384,-0.24119903696734832,2.1892926221999223
1687013430.524838,-0.15886478126049042,0.2317560762166977,-0.9597140550613403,-0.1737462431192398,-0.019109532237052917,-0.04730492830276489,0.598421037197113,0.8672674298286438,-0.02902715653181076,-0.16404587807966178,-0.23388251757456763,2.190898806779746
1687013430.528028,-0.12234644591808319,0.21196280419826508,-0.9695891737937927,-0.21006622910499573,-0.1104002594947815,-0.022598326206207275,0.7084760665893555,1.704498291015625,1.0339666604995728,-0.12552041300708278,-0.21358296963910897,2.2165251443809937
1687013430.573433,0.02549489587545395,0.16882462799549103,-0.9853163361549377,-0.26849105954170227,0.19856128096580505,-0.22253888845443726,1.3595221042633057,3.5716347694396973,1.7272740602493286,0.025869061366902497,-0.1696370559116348,2.288735595880893
1687013430.695774,0.1830899566411972,0.1505669802427292,-0.971497654914856,0.08480866253376007,-0.2977226972579956,0.38293564319610596,-0.4388202726840973,1.6261112689971924,0.7234045267105103,0.18627669384923165,-0.15114176210714322,2.3550853635625244
1687013430.7099628,0.22219747304916382,0.16984039545059204,-0.9600950479507446,0.05162155628204346,0.026128262281417847,-0.1755402684211731,-0.26762792468070984,0.6932613253593445,0.12118950486183167,0.2274287664736824,-0.17066770838275067,2.374148122836445
1687013430.7850971,0.24533243477344513,0.17986401915550232,-0.9526074528694153,0.057524099946022034,0.03421683609485626,0.10974246263504028,-0.024028029292821884,0.081552654504776,0.029597271233797073,0.25206040060449847,-0.18084820737699672,2.3795848563973365
1687013430.80027,0.2439955770969391,0.17096063494682312,-0.9545881748199463,0.017967388033866882,0.08091624081134796,-0.0017868876457214355,0.24112726747989655,-0.05294936150312424,0.16544565558433533,0.2502450536134074,-0.1718045750231233,2.3822558743744584
1687013430.873643,0.24262699484825134,0.1598336100578308,-0.9568622708320618,0.04309388995170593,-0.04758991301059723,0.03126412630081177,0.13779862225055695,-0.11554190516471863,-0.02229202352464199,0.2483313520123501,-0.16052208868224968,2.3845189247238423
1687013430.878686,0.23480470478534698,0.1565319001674652,-0.9593563079833984,-0.0367455780506134,-0.047568872570991516,-0.03954499959945679,0.021786529570817947,-0.08652836084365845,-0.05496315285563469,0.24003362908539075,-0.15717828358669264,2.3799049533560237
1687013430.965066,0.23671646416187286,0.1538948118686676,-0.959313154220581,-0.015524998307228088,-0.019693732261657715,0.06476670503616333,0.07609371095895767,-0.03158468380570412,0.01036152709275484,0.2419233473244973,-0.15450883788062222,2.3799506449236554
1687013430.979694,0.23091642558574677,0.15188489854335785,-0.9610455632209778,-0.007512420415878296,0.03982657194137573,-0.06715267896652222,-0.036869924515485764,-0.026026269420981407,-0.012735003605484962,0.2358061720315534,-0.15247501341195896,2.3781195628123872
1687013431.019465,0.23310360312461853,0.15300865471363068,-0.9603390097618103,0.007436037063598633,-0.02340047061443329,0.04726839065551758,0.039152733981609344,-0.029454423114657402,-0.010423912666738033,0.23812519363787743,-0.153612065009762,2.379002710445213
1687013431.113215,0.22877201437950134,0.15374566614627838,-0.9612625241279602,-0.0067260414361953735,0.0289173424243927,-0.045222461223602295,-0.10240259766578674,0.03496704250574112,-0.04869513586163521,0.23364471019517463,-0.15435789348172507,2.376129960222385
1687013431.129092,0.23134063184261322,0.15569718182086945,-0.9603332281112671,0.011289417743682861,0.012454703450202942,0.037451207637786865,0.0254973117262125,-0.06512147188186646,-0.020167887210845947,0.23639219960532418,-0.1563331970319514,2.376045692963581
1687013431.170994,0.22828921675682068,0.15703274309635162,-0.9608458280563354,-0.01211787760257721,0.029338136315345764,-0.06745916604995728,-0.06099863350391388,0.07469674199819565,0.02832667902112007,0.23326681842317223,-0.1576853959672805,2.3749644853223932
1687013431.264587,0.2321663796901703,0.1575787216424942,-0.9598269462585449,0.03875347971916199,-0.022233232855796814,0.03300809860229492,0.006221418268978596,-0.06887053698301315,-0.03636176884174347,0.23732522666168598,-0.1582382653966695,2.376698972921075
1687013431.279428,0.2266581952571869,0.16270801424980164,-0.9602875709533691,-0.017124444246292114,0.002056419849395752,-0.04897451400756836,-0.17218933999538422,0.03242092579603195,-0.07445961982011795,0.23178933977040472,-0.1634346238787459,2.372649293206787
1687013431.320376,0.23011265695095062,0.1641325205564499,-0.9592229723930359,0.005177944898605347,0.004736542701721191,0.04824274778366089,0.07836151868104935,-0.09033828228712082,0.028631344437599182,0.23544556545809195,-0.16487853417331627,2.373634739096345
1687013431.4159532,0.22590051591396332,0.16213230788707733,-0.9605634212493896,-0.021203801035881042,-0.007652297616004944,-0.012535333633422852,-0.04362916201353073,0.017550235614180565,0.030949626117944717,0.23097781027733993,-0.16285117639437244,2.373802117982567
1687013431.430974,0.2267274707555771,0.16489864885807037,-0.9598974585533142,-0.0032318979501724243,-0.008572325110435486,-0.001253664493560791,-0.07608111202716827,-0.01960565522313118,-0.03755566477775574,0.23194855519062701,-0.16565525389766145,2.3743593698761023
1687013431.4689898,0.22538727521896362,0.1697181910276413,-0.959372878074646,0.002197638154029846,0.011754617094993591,0.005500197410583496,-0.10757225751876831,0.04583873599767685,-0.022545821964740753,0.2307474136695421,-0.170543708424399,2.3732918890675743
1687013431.563274,0.22542697191238403,0.16911734640598297,-0.9594696760177612,0.00829198956489563,0.01618543267250061,-0.0045653581619262695,0.031683966517448425,-0.003934282809495926,0.03386978060007095,0.23076415600993824,-0.16993404087233172,2.3740485860047724
1687013431.578432,0.21919214725494385,0.17431676387786865,-0.9599835872650146,0.020386159420013428,-0.049270957708358765,0.05379462242126465,-0.2965070307254791,-0.3968484103679657,-0.18763597309589386,0.2244808230616539,-0.17521186808310926,2.3731034777598436
1687013431.619937,0.17116956412792206,0.1934741735458374,-0.9660583734512329,0.06065729260444641,-0.05922730267047882,0.04291689395904541,-0.17213600873947144,-1.544034481048584,-0.2635453939437866,0.1753634527398852,-0.19470199384875936,2.3651527034819733
1687013431.713484,0.08363457024097443,0.20068438351154327,-0.9760794043540955,0.06365858763456345,0.2766715884208679,-0.06542444229125977,0.20027245581150055,-2.1749229431152344,-0.8825008273124695,0.08547541039062524,-0.20205647339411506,2.3403259604329643
1687013431.729224,-0.07394713908433914,0.18951421976089478,-0.9790894389152527,-0.11523126810789108,0.1562805026769638,-0.19151902198791504,0.043456804007291794,-3.798988103866577,-1.544390082359314,-0.0753833230462263,-0.190667376826158,2.2689882932136483
1687013431.7693229,-0.16119462251663208,0.221745565533638,-0.961688756942749,0.17254722118377686,0.5895185470581055,-0.07366585731506348,-0.11107185482978821,-0.4714583158493042,0.1306658387184143,-0.16607241892310917,-0.22360424085145886,2.2235325777949644
1687013431.84027,-0.17001031339168549,0.20982350409030914,-0.9628450274467468,-0.03908081352710724,-0.30906665325164795,0.1172792911529541,-0.08221263438463211,0.08904333412647247,-0.038858216255903244,-0.17476936779819227,-0.21139444663300255,2.222028027754239
1687013431.845751,-0.16605861485004425,0.22039350867271423,-0.9611718058586121,-0.027712702751159668,-0.030070573091506958,-0.06405097246170044,-0.19317923486232758,0.11235690116882324,0.10486087203025818,-0.17107803715349604,-0.22221787770453108,2.221978010373592
1687013431.88828,-0.16607728600502014,0.22383369505405426,-0.9603732824325562,-0.0014641731977462769,-0.02043399214744568,0.018371939659118652,0.058624837547540665,0.004720857832580805,-0.0033420342952013016,-0.1712364010309777,-0.22574620550290153,2.2236977610633684
1687013431.954804,-0.16506516933441162,0.22497627139091492,-0.9602807760238647,-0.014683306217193604,0.0010827332735061646,0.012908339500427246,-0.05714324116706848,0.08609574288129807,-0.01831219531595707,-0.1702290376607652,-0.22691868972182294,2.222382304299053
1687013432.047235,-0.16274124383926392,0.22850239276885986,-0.9598447680473328,0.0069185346364974976,0.005353838205337524,-0.029748737812042236,-0.09483729302883148,0.009013873524963856,0.006239219568669796,-0.16795231889971726,-0.23053910130127736,2.220821300527271
1687013432.162519,-0.16394133865833282,0.23022252321243286,-0.9592292904853821,-0.016005516052246094,-0.0015695244073867798,-0.00443953275680542,-0.0199977345764637,-0.007869902066886425,0.010745287872850895,-0.16927391381969598,-0.23230634425979116,2.2214728294244264
1687013432.178679,-0.16203969717025757,0.23058421909809113,-0.959465503692627,0.007712364196777344,0.01051996648311615,-0.006995677947998047,-0.00670523289591074,0.03370470553636551,-0.002208060584962368,-0.16730665383313073,-0.23267803339869383,2.221688648893937
1687013432.254561,-0.16238591074943542,0.23361186683177948,-0.9586742520332336,-0.0170573890209198,0.008133172988891602,0.0030773282051086426,-0.08865049481391907,0.01641320064663887,-0.012226339429616928,-0.16779325773205184,-0.23579068020393737,2.220577269631776
1687013432.259455,-0.16073475778102875,0.23426732420921326,-0.9587925672531128,0.0009447634220123291,-0.00816255807876587,0.013434290885925293,0.0014053576160222292,-0.014178264886140823,-0.018206467851996422,-0.16609836270901765,-0.23646485822582938,2.220151815980155
1687013432.263381,-0.16145552694797516,0.23397569358348846,-0.9587426781654358,0.001818135380744934,0.003313794732093811,0.005816042423248291,0.0014481679536402225,0.015016771852970123,-0.012435664422810078,-0.16683800372031457,-0.23616487860871924,2.2192063442147134
1687013432.31148,-0.16052131354808807,0.23571164906024933,-0.9584742784500122,-0.0018474012613296509,-0.008721843361854553,0.009438633918762207,-0.05727406591176987,0.032990045845508575,-0.009152253158390522,-0.16593590592397708,-0.2379507861272346,2.2183152726196966
1687013432.4325972,-0.16025413572788239,0.23641908168792725,-0.9583447575569153,-0.004128739237785339,-0.0013573765754699707,-0.004408538341522217,-0.037611283361911774,0.007881230674684048,-0.0098577244207263,-0.16568673318326765,-0.2386787895406102,2.217821818314658
1687013432.447653,-0.15959559381008148,0.23704689741134644,-0.9582995176315308,-0.005992725491523743,0.0012038499116897583,-0.010236799716949463,-0.004215376451611519,0.017693648114800453,0.011411079205572605,-0.16502582414014982,-0.23932498475625674,2.2176582969134624
1687013432.5261889,-0.15838627517223358,0.23922967910766602,-0.9579576849937439,0.005630597472190857,-0.007967427372932434,-0.0032697319984436035,-0.044578246772289276,0.025151830166578293,0.008991596288979053,-0.16385510100014528,-0.24157241077626665,2.217806523009449
1687013432.531169,-0.15849462151527405,0.23827342689037323,-0.9581781029701233,0.0011307895183563232,-0.012275442481040955,0.002611696720123291,0.03186146914958954,0.0047750528901815414,-0.009064102545380592,-0.163928150733681,-0.24058767932942424,2.2178412299625796
1687013432.605794,-0.15795239806175232,0.23948676884174347,-0.957965075969696,0.010064288973808289,-0.0067596882581710815,0.00967717170715332,-0.024299006909132004,0.006016352213919163,0.002269778400659561,-0.1634129684693172,-0.24183720984605675,2.2175061100448676
1687013432.609192,-0.15740855038166046,0.24087293446063995,-0.9577070474624634,0.006117716431617737,-0.0002570301294326782,0.001820206642150879,-0.05179474502801895,0.014978555962443352,-0.022482972592115402,-0.16290333598818008,-0.24326516726603226,2.2166869031094656
1687013432.6678429,-0.156609445810318,0.24295347929000854,-0.9573124647140503,0.010521858930587769,0.0036438703536987305,-0.011635899543762207,-0.05743618682026863,-0.0009102632175199687,0.0006385920569300652,-0.16215643084394626,-0.24540939415771434,2.2159978812391663
1687013432.793298,-0.15748758614063263,0.24451851844787598,-0.9567697644233704,-0.010053858160972595,0.005542561411857605,-0.005754649639129639,-0.012054325081408024,-0.00028575194301083684,0.0030436934903264046,-0.16314054409190615,-0.24702311412095687,2.215683609577953
1687013432.8006082,-0.15680626034736633,0.2437862902879715,-0.9570684432983398,-0.0022055059671401978,0.003528192639350891,-0.005730569362640381,0.02667083404958248,0.013114475645124912,-0.004693589173257351,-0.16239732144812324,-0.2462680317755287,2.2158416803667333
1687013432.885119,-0.14309179782867432,0.23274022340774536,-0.961954653263092,0.04262799024581909,0.001405954360961914,0.08039337396621704,0.3522185683250427,0.28453344106674194,0.049533430486917496,-0.14766829864857467,-0.23489433123956854,2.2169448448340012
1687013432.90047,-0.11270221322774887,0.22475530207157135,-0.9678756594657898,-0.07902441173791885,0.4275580048561096,0.017619311809539795,0.8708650469779968,1.7508596181869507,1.035311222076416,-0.11592082787953713,-0.22669190009693183,2.2386585224604914
1687013432.979357,0.055640630424022675,0.1703752875328064,-0.9838070869445801,0.0960775762796402,0.017353639006614685,-0.06668424606323242,1.3121048212051392,3.051600694656372,0.806067943572998,0.05649625996422168,-0.17121050795963558,2.303422276114953
1687013432.994534,0.1320929080247879,0.15308250486850739,-0.9793453216552734,0.17381535470485687,-0.3866334855556488,0.32855796813964844,0.216306671500206,-0.13134630024433136,-0.04219435900449753,0.13406968728963306,-0.15368678824153603,2.3250738160572513
1687013433.097717,0.14497247338294983,0.15781056880950928,-0.9767695665359497,-0.09191760420799255,0.08660474419593811,-0.10033303499221802,-0.20418894290924072,0.7297903895378113,0.014363725669682026,0.14734468458355712,-0.15847304367953374,2.3220465629162796
1687013433.111948,0.15651120245456696,0.15971332788467407,-0.974677324295044,0.10531441867351532,0.021545857191085815,-0.02495640516281128,0.057018887251615524,-0.08814769238233566,-0.03473804146051407,0.15921825225232925,-0.16040024088729474,2.3204396889769736
1687013433.184886,0.16246359050273895,0.15489061176776886,-0.9744816422462463,-0.01619279384613037,0.07763810455799103,0.0007115602493286133,0.2036687731742859,0.19314149022102356,0.20386894047260284,0.16519858751440553,-0.15551672285237877,2.323849292625253
1687013433.198524,0.16793827712535858,0.13920719921588898,-0.9759191274642944,0.025115996599197388,-0.0946820080280304,0.043637633323669434,0.23545293509960175,0.019823778420686722,0.165302112698555,0.1704131411417333,-0.13966077005795205,2.3307590047064934
1687013433.273758,0.17062190175056458,0.13227789103984833,-0.9764173030853271,-0.025358155369758606,-0.006469130516052246,-0.05669426918029785,0.048223596066236496,0.07715431600809097,0.06757421791553497,0.17299610025881185,-0.13266671029895155,2.335577505110319
1687013433.279386,0.17190343141555786,0.1334163099527359,-0.9760375618934631,-0.010419607162475586,0.001685023307800293,-0.00539243221282959,-0.05822621285915375,0.005403026472777128,-0.01910475268959999,0.17433584849901906,-0.13381531459644944,2.336020054225923
1687013433.368706,0.17407886683940887,0.13564236462116241,-0.9753448963165283,0.003106251358985901,0.005837172269821167,0.029040634632110596,-0.07343419641256332,0.043665993958711624,0.010221445001661777,0.17661956256800324,-0.13606178901452776,2.3368940187369858
1687013433.382362,0.1723901778459549,0.1380205750465393,-0.9753112196922302,0.0005682706832885742,-0.013707190752029419,-0.0005798935890197754,-0.10630053281784058,-0.031004514545202255,-0.0653739795088768,0.17494705505428335,-0.13846258306292158,2.335227268754252
1687013433.420133,0.1734485775232315,0.14535263180732727,-0.9740576148033142,0.004499495029449463,0.006243467330932617,-0.02116638422012329,-0.10362565517425537,0.020581182092428207,-0.04714091494679451,0.176221032825834,-0.1458693867615292,2.333912938248175
1687013433.512553,0.17235301434993744,0.14655040204524994,-0.9740725755691528,-0.00427737832069397,0.008570477366447449,0.005124270915985107,-0.033638712018728256,-0.018143845722079277,-0.0005979137495160103,0.17512800483089408,-0.147080116257158,2.332599184200459
1687013433.5189319,0.1743990182876587,0.1473635733127594,-0.9735856056213379,0.0007414370775222778,0.0015317201614379883,0.006178438663482666,-0.010143373161554337,0.05186639726161957,0.050139833241701126,0.17725074093446103,-0.14790221579876744,2.3346861406879063
1687013433.573182,0.17327451705932617,0.1471882462501526,-0.9738128781318665,0.0027509480714797974,0.035215362906455994,-0.01272881031036377,0.03609536215662956,-0.044606346637010574,-0.004470681771636009,0.17609114729913175,-0.1477249510930895,2.334982930613704
1687013433.696494,0.17516069114208221,0.14622615277767181,-0.9736203551292419,0.001108899712562561,-0.004288867115974426,0.02308940887451172,-0.06711098551750183,0.062362052500247955,0.04355410113930702,0.1780024302092938,-0.1467523386601016,2.336889122466216
1687013433.7117429,0.17267699539661407,0.15320026874542236,-0.972991406917572,-0.0034722089767456055,-0.009813398122787476,-0.028839588165283203,-0.1876421868801117,-0.05993962660431862,-0.14141228795051575,0.17564146895819818,-0.15380596819855882,2.334564475901623
1687013433.786778,0.17374254763126373,0.160325825214386,-0.9716528058052063,0.011865437030792236,0.0315077006816864,-0.008388698101043701,0.009156354703009129,0.04242536053061485,0.008225937373936176,0.1769413480676073,-0.1610207455818962,2.3331926437980393
1687013433.80166,0.17236220836639404,0.15450412034988403,-0.9728410840034485,0.0009471774101257324,0.0024630874395370483,-0.014692485332489014,0.11434309929609299,-0.05150992423295975,0.049406398087739944,0.17535435328324134,-0.15512552682391464,2.333921294992584
1687013433.87166,0.17214864492416382,0.15748777985572815,-0.9724003672599792,-0.015272974967956543,-0.01788508892059326,-0.03890639543533325,-0.12603828310966492,0.0559903047978878,-0.0523093119263649,0.175219264041363,-0.15814617478319518,2.33496129227878
1687013433.8842669,0.1718634068965912,0.16037572920322418,-0.9719787240028381,0.013012155890464783,-0.0099240243434906,0.031655848026275635,-0.061369072645902634,-0.10658463090658188,-0.08833548426628113,0.17500917325050888,-0.16107129232070044,2.3323877522825773
1687013433.963419,0.1480754315853119,0.1752467304468155,-0.9733253717422485,0.06277057528495789,-0.1602167785167694,0.07224810123443604,-0.6420109272003174,-1.03110933303833,-0.32760053873062134,0.1509758844203099,-0.17615636454493772,2.323630878226421
1687013433.976327,0.05930979177355766,0.1909361481666565,-0.979809045791626,0.1382153034210205,0.2404603809118271,0.10540413856506348,0.20553764700889587,-2.0744595527648926,-1.1756881475448608,0.060458221800513086,-0.1921157462585146,2.29739150986371
1687013434.05785,-0.08747266232967377,0.1909441500902176,-0.9776957035064697,-0.12090130895376205,-0.02289906144142151,-0.16750693321228027,-0.7624211311340332,-3.2648749351501465,-1.3386845588684082,-0.0892306097317633,-0.19212390524145154,2.229706622378623
1687013434.1449819,-0.1889667510986328,0.24999554455280304,-0.9496282339096069,-0.0965098887681961,1.283604383468628,0.34420526027679443,0.2452891319990158,-0.7444908022880554,0.10666622966527939,-0.19642444469963496,-0.2526756610046333,2.1822217407425164
1687013434.1509829,-0.1739233136177063,0.23595690727233887,-0.9560726881027222,0.20437991619110107,-0.3761698603630066,0.13168615102767944,-0.5343016386032104,0.16015079617500305,0.1476818323135376,-0.17994655740167606,-0.23820316241252823,2.193084533341742
1687013434.236518,-0.17173945903778076,0.25698789954185486,-0.9510324597358704,-0.005399778485298157,0.13784855604171753,-0.05146998167037964,-0.046806447207927704,0.0002663212944753468,0.04321747645735741,-0.17865673056256323,-0.2599041415682383,2.192951023267622
1687013434.25146,-0.1713084876537323,0.25551939010620117,-0.9515057802200317,0.005186095833778381,0.016102343797683716,-0.008973956108093262,-0.04341571033000946,0.06833485513925552,-0.05485875532031059,-0.1781310508435237,-0.2583848875154719,2.1923826253811893
1687013434.325594,-0.16977693140506744,0.26035335659980774,-0.9504693150520325,-0.032630860805511475,-0.06409478187561035,0.00949031114578247,-0.2921847701072693,0.05879860743880272,-0.052109841257333755,-0.17676010813947265,-0.2633881740899285,2.188826271496744
1687013434.3311749,-0.16708004474639893,0.26759180426597595,-0.9489356875419617,0.013851329684257507,-0.006284981966018677,0.0003730654716491699,-0.05991346016526222,0.030535541474819183,0.005896736867725849,-0.1742846397847447,-0.27089282656037533,2.1869730838847588
1687013434.4155998,-0.1654926836490631,0.27323639392852783,-0.9476043581962585,-0.011997506022453308,0.022524774074554443,-0.041622936725616455,-0.0016367712523788214,0.05554116144776344,0.004935336299240589,-0.17289947297551198,-0.2767558508312001,2.1850365605311675
1687013434.42889,-0.16882209479808807,0.2671948969364166,-0.9487391710281372,0.0018299669027328491,0.0032213926315307617,0.017647862434387207,0.17543266713619232,-0.14706069231033325,-0.005490939132869244,-0.17610040106654887,-0.2704809276772539,2.187133308212538
1687013434.4694018,-0.17062295973300934,0.2635226547718048,-0.9494438171386719,-0.014527127146720886,-0.05221891403198242,0.04273611307144165,-0.007223417051136494,0.05612119659781456,-0.005654723383486271,-0.1778103916240733,-0.266672126906904,2.187314286272987
1687013434.5669231,-0.16880181431770325,0.26397955417633057,-0.9496424198150635,0.013009637594223022,-4.824995994567871e-05,0.004589378833770752,0.007322834804654121,-0.027930961921811104,0.022445619106292725,-0.17591562186622822,-0.26714579511531683,2.1880326195672146
1687013434.581352,-0.1708734780550003,0.2634788751602173,-0.9494109153747559,0.004888430237770081,0.0428871214389801,-0.004461705684661865,0.040074653923511505,-0.02098623663187027,-0.003912216983735561,-0.17807202783841056,-0.2666267387671937,2.188271809422063
1687013434.620854,-0.17042893171310425,0.2617262899875641,-0.9499754309654236,-0.008053064346313477,-0.0032881498336791992,-0.011190950870513916,0.006533807143568993,0.006529943086206913,-0.01741044968366623,-0.17751512017988366,-0.2648104230900464,2.1882467071087905
1687013434.709599,-0.1703578680753708,0.2634712755680084,-0.9495056867599487,-0.005896329879760742,0.012651801109313965,-0.008853018283843994,-0.016074366867542267,0.011732028797268867,-0.009645204059779644,-0.17752859484858358,-0.2666188555963077,2.187475719301067
1687013434.714807,-0.1705409735441208,0.2643531560897827,-0.9492276906967163,-0.0013492405414581299,0.0007225871086120605,0.0032438039779663086,-0.015307375229895115,0.013342441990971565,0.014563462696969509,-0.17776637036164625,-0.26753314764110314,2.1870833635368316
1687013434.773092,-0.1709035038948059,0.26502081751823425,-0.9489762783050537,0.0035451501607894897,0.020043939352035522,0.013581991195678711,0.01792507991194725,-0.019248656928539276,-0.01070753950625658,-0.17818252644830707,-0.26822552662223376,2.187062207983901
1687013434.866823,-0.17006173729896545,0.2639305293560028,-0.9494312405586243,0.01722976565361023,-0.00012126564979553223,-0.003907382488250732,0.018122952431440353,0.003758125239983201,-0.005591873079538345,-0.1772400339585732,-0.2670949666218061,2.1868796204310903
1687013434.8809218,-0.17040742933750153,0.2647961676120758,-0.9491281509399414,0.0029270201921463013,0.01126590371131897,-0.0035238265991210938,0.010031003504991531,-0.004759329836815596,0.0036069517955183983,-0.17764832082000864,-0.2679925306882523,2.186621361094735
1687013435.012058,-0.16986018419265747,0.26483243703842163,-0.9492161273956299,-0.00137387216091156,0.0005484223365783691,-0.0003840327262878418,-0.02061685360968113,0.005568541586399078,0.003664475865662098,-0.1770736244775879,-0.2680301532733514,2.186924285591453
1687013435.018721,-0.17015647888183594,0.26529574394226074,-0.9490336775779724,-0.007364213466644287,0.010979950428009033,-0.005357801914215088,0.012996367178857327,0.006427145097404718,-0.0012730248272418976,-0.17740945827903165,-0.2685106358261311,2.186797130738783
1687013435.105259,-0.16997821629047394,0.2651838958263397,-0.9490968585014343,-0.0029801130294799805,-0.0033430159091949463,-0.0010373592376708984,-0.029078716412186623,0.007052855100482702,-0.004594252444803715,-0.17721589982244434,-0.26839465631516796,2.186582918481004
1687013435.122316,-0.16990762948989868,0.26620811223983765,-0.9488227367401123,-0.002959117293357849,-0.0068239569664001465,0.01031571626663208,0.002429609652608633,0.008113192394375801,0.0038482332602143288,-0.17719396016702157,-0.26945703887940464,2.186476695438611
1687013435.126096,-0.16993021965026855,0.2664748430252075,-0.9487438201904297,0.00492173433303833,-0.006175130605697632,0.005476057529449463,-0.020008321851491928,0.0038539988454431295,-0.010169846937060356,-0.17723146099804496,-0.2697337730542996,2.1861080826911197
1687013435.1605601,-0.1699449121952057,0.26622334122657776,-0.9488118290901184,0.003334254026412964,-0.0015595853328704834,0.012151062488555908,0.017127862200140953,-0.0015333096962422132,-0.003429385833442211,-0.1772340353879706,-0.26947282849838056,2.1859175539577085
1687013435.286303,-0.16970907151699066,0.26725712418556213,-0.9485633969306946,0.007569223642349243,0.006378799676895142,-0.00294417142868042,-0.0032580371480435133,-0.0005254364805296063,0.006131627596914768,-0.1770385718984435,-0.2705454856242394,2.1858994712877946
1687013435.301832,-0.15064877271652222,0.24917609989643097,-0.9566693305969238,0.07662844657897949,0.07153317332267761,0.04095888137817383,0.6491624712944031,0.3353516459465027,0.10849688202142715,-0.15618953707709557,-0.2518294319684577,2.1901033882131102
1687013435.374665,-0.11903861165046692,0.2253110408782959,-0.9669874906539917,-0.1760205328464508,0.5064395070075989,0.1169050931930542,1.058874487876892,1.6386768817901611,0.9046845436096191,-0.12248629327885084,-0.22726227833145723,2.2129849744814543
1687013435.379854,0.0166733767837286,0.1609804779291153,-0.9868167638778687,-0.33852696418762207,0.047805577516555786,-0.10996973514556885,1.442914366722107,2.7089245319366455,0.7669772505760193,0.016894516081896665,-0.1616840120855696,2.276246134931478
1687013435.495683,0.11422627419233322,0.13675670325756073,-0.9839969277381897,0.09414781630039215,-0.15863777697086334,0.2346988320350647,-0.14345143735408783,0.7750492691993713,0.23552434146404266,0.11556672203036873,-0.13718661633316515,2.300690298374355
1687013435.5015879,0.14681392908096313,0.15139831602573395,-0.9775092005729675,-0.01892995834350586,0.025618940591812134,-0.06704646348953247,-0.30933740735054016,0.7953485250473022,0.17616407573223114,0.1490775936588558,-0.15198274013596919,2.3104690870811413
1687013435.5889049,0.1693280041217804,0.157948836684227,-0.9728207588195801,0.06730535626411438,0.015436828136444092,0.010616779327392578,-0.03280074894428253,0.10142942517995834,0.14631031453609467,0.17233228096242825,-0.1586130643817903,2.3201956154984043
1687013435.603279,0.17698296904563904,0.154612198472023,-0.9719938635826111,-0.0017357021570205688,0.008031278848648071,0.007760524749755859,0.08062800765037537,0.17046189308166504,0.18903087079524994,0.18010923646139457,-0.15523491331268927,2.327872919329246
1687013435.6761,0.18466638028621674,0.15008802711963654,-0.9712733626365662,0.03293928503990173,-0.000872299075126648,0.025243699550628662,0.10462182015180588,-0.0020628792699426413,0.048089463263750076,0.18788559802476987,-0.15065731475649938,2.334155250520562
1687013435.68121,0.18207240104675293,0.1461554318666458,-0.972362220287323,-0.02016131579875946,-0.03330138325691223,-0.0814250111579895,-0.0022548907436430454,0.060179322957992554,0.045070771127939224,0.18510402351764776,-0.14668083891267075,2.334820893647995
1687013435.767719,0.18922720849514008,0.15024174749851227,-0.9703713059425354,-0.007296621799468994,-0.034397006034851074,0.051807522773742676,-0.1048293337225914,0.03529767692089081,-0.038197487592697144,0.19258804461733972,-0.1508127916636255,2.337058411528968
1687013435.7816901,0.18715889751911163,0.15531574189662933,-0.9699735045433044,-0.008676767349243164,0.011676475405693054,-0.004773199558258057,-0.17961755394935608,0.06209786608815193,-0.03480488434433937,0.19061011441611087,-0.15594706524016075,2.3345451792298344
1687013435.913815,0.19050365686416626,0.1600368469953537,-0.9685538411140442,-0.0019049495458602905,0.01960490643978119,0.014406561851501465,0.0015678107738494873,0.008588832803070545,0.025037940591573715,0.19420965039668464,-0.1607279876292773,2.3355808264961606
1687013435.919454,0.18890608847141266,0.16030582785606384,-0.9688222408294678,0.0023171156644821167,0.01823727786540985,-0.02873629331588745,-0.04420613497495651,0.02828117646276951,0.03787730634212494,0.19256910281468062,-0.16100047852886065,2.3364295506330195
1687013436.0019488,0.1914498507976532,0.16300690174102783,-0.9678717255592346,-0.001996666193008423,0.0047177523374557495,-0.0031822919845581055,-0.032936304807662964,0.012489697895944118,-0.002845888026058674,0.19528407856233043,-0.16373755168272305,2.338403874163823
1687013436.017381,0.18948854506015778,0.1682882010936737,-0.9673537015914917,0.019160211086273193,-0.02244466543197632,-0.0113755464553833,-0.18909746408462524,-0.014773746952414513,-0.09546476602554321,0.19343418398734988,-0.16909284911922123,2.336295185608288
1687013436.021121,0.19106340408325195,0.17766433954238892,-0.9653652906417847,0.003913462162017822,0.011956676840782166,0.017657220363616943,-0.16544407606124878,0.029486658051609993,-0.04233044758439064,0.19539307185213792,-0.17861251914960344,2.334804966010506
1687013436.0630941,0.18954437971115112,0.18039754033088684,-0.9651578664779663,0.006973639130592346,0.01312972605228424,0.005029082298278809,-0.07541059702634811,-0.0404072068631649,-0.0035095475614070892,0.1939190399377745,-0.18139060115914754,2.3344813283344608
1687013436.156917,0.1872183233499527,0.186584010720253,-0.9644354581832886,0.0049967169761657715,0.0431065708398819,0.0037573575973510742,-0.07332520931959152,-0.10745388269424438,-0.024954386055469513,0.19173749126739306,-0.18768394171034564,2.3362781131314723
1687013436.171701,0.17249241471290588,0.19479310512542725,-0.965557873249054,0.02031770348548889,-0.03372129797935486,0.00951850414276123,-0.25211039185523987,-0.4870017468929291,-0.10557731986045837,0.1767804802907521,-0.19604651098304943,2.3339910360340976
1687013436.210709,0.15649713575839996,0.20111744105815887,-0.9669852256774902,-0.001422002911567688,-0.04413497447967529,0.009038448333740234,-0.0856703519821167,-0.2093082219362259,-0.08288931846618652,0.16044906253314453,-0.2024985364619508,2.330803619558258
1687013436.305388,0.12251587212085724,0.2106412798166275,-0.9698557257652283,0.07684027403593063,-0.08709083497524261,0.007819592952728271,-0.17794176936149597,-1.387171983718872,-0.36268287897109985,0.12565822896058057,-0.2122309114830923,2.3212617293919267
1687013436.320663,-0.00044429636909626424,0.23034235835075378,-0.9731095433235168,0.11999697238206863,-0.023829862475395203,-0.047520339488983154,-0.5749484896659851,-3.684680938720703,-1.4684611558914185,-0.0004565738183166116,-0.23242949462082735,2.280081163456729
1687013436.3578038,-0.17894722521305084,0.2513056993484497,-0.9512220025062561,0.2513654828071594,-0.12249097228050232,0.8544203042984009,1.1775840520858765,-0.2910812497138977,-0.09181863069534302,-0.18595021443374588,-0.25402899667577566,2.2124657071183265
1687013436.457138,-0.17555733025074005,0.23273220658302307,-0.9565643668174744,0.022008195519447327,-0.04286704957485199,0.08267825841903687,-0.289512038230896,0.15988075733184814,0.045851875096559525,-0.18150910327437966,-0.23488608429114022,2.219187239694679
1687013436.4725099,-0.1703552007675171,0.24871480464935303,-0.9534778594970703,-0.005761668086051941,0.07744185626506805,-0.017499864101409912,-0.06542208045721054,0.09025799483060837,0.08084208518266678,-0.1768016467004589,-0.2513531370116693,2.2196302145373337
1687013436.513854,-0.1708228886127472,0.24699032306671143,-0.9538424015045166,0.025574535131454468,0.02370065450668335,0.0410311222076416,0.09365972131490707,-0.12424151599407196,-0.03859376534819603,-0.17721060251906567,-0.24957311234601545,2.222047732064068
1687013436.6396642,-0.17137107253074646,0.24658262729644775,-0.9538495540618896,-0.006546348333358765,-0.011475145816802979,-0.014152765274047852,-0.013603951781988144,-0.001154874567873776,-0.04011629521846771,-0.17776609456984893,-0.24915240445782463,2.2215685868913506
1687013436.653996,-0.17170041799545288,0.24709178507328033,-0.9536585211753845,-0.0032568126916885376,0.020059138536453247,-0.0076146721839904785,0.01978662796318531,0.028599824756383896,0.010385761968791485,-0.1781354754644429,-0.24967782827596371,2.2206779607659883
1687013436.725543,-0.171438068151474,0.25031623244285583,-0.9528645277023315,0.006292253732681274,0.028507649898529053,-0.002946019172668457,-0.13173018395900726,0.006977087818086147,0.019076988101005554,-0.17801411425120156,-0.2530068871735091,2.2201994912063294
1687013436.7306361,-0.17015103995800018,0.2526540160179138,-0.9524781107902527,-0.0018154382705688477,-0.02761736512184143,0.010690450668334961,-0.1051710844039917,0.036691173911094666,-0.0016581173986196518,-0.1767756612228038,-0.2554222743572273,2.2203551094997738
1687013436.8113961,-0.16779491305351257,0.25543680787086487,-0.9521538019180298,0.0065706223249435425,0.002329915761947632,-0.00045233964920043945,0.01816955767571926,0.044426459819078445,-0.01663333922624588,-0.1744356557444597,-0.258299473535895,2.219488182986898
1687013436.815028,-0.16783663630485535,0.25656965374946594,-0.9518418312072754,-0.011209949851036072,0.03501063585281372,5.9604644775390625e-05,-0.018170474097132683,0.010409369133412838,0.005251719616353512,-0.17453418757180653,-0.2594713563167863,2.218537118491313
1687013436.904512,-0.1669800877571106,0.257161408662796,-0.9518327713012695,-0.005032196640968323,0.024195462465286255,-0.01758861541748047,-0.029155079275369644,0.009760890156030655,-0.0013372069224715233,-0.1736629165248511,-0.26008365623429835,2.2185525483913997
1687013436.916729,-0.1659393459558487,0.25724175572395325,-0.9519930481910706,-0.005081087350845337,-0.005807399749755859,-0.003176569938659668,0.03588777035474777,0.044324059039354324,0.00855377409607172,-0.17257347779319476,-0.2601668151977836,2.218613787095965
1687013436.991335,-0.1657457947731018,0.25843310356140137,-0.9517040848731995,-0.007853388786315918,0.01666763424873352,-0.024568498134613037,-0.01953800767660141,0.019508326426148415,0.02247065305709839,-0.17242746279383728,-0.2613998581726873,2.2190311823896502
1687013437.089359,-0.1655634045600891,0.2614341378211975,-0.9509158730506897,0.0031641721725463867,0.023279637098312378,0.017612040042877197,-0.07933882623910904,-0.0012596698943525553,-0.012801582925021648,-0.17238142279236734,-0.2645077189926635,2.2186687439486352
1687013437.103692,-0.16541455686092377,0.26061901450157166,-0.951165497303009,-0.0011808574199676514,-0.022047817707061768,0.005929291248321533,0.02041100710630417,-0.007841805927455425,-0.023053422570228577,-0.17218516887115903,-0.26366332035357526,2.218153665127443
1687013437.175342,-0.16499638557434082,0.2607710361480713,-0.9511964321136475,0.003070160746574402,-0.0028364062309265137,0.015512228012084961,0.01480511948466301,0.019345473498106003,0.0013893377035856247,-0.17175292476702053,-0.2638207985465791,2.217702859621919
1687013437.180234,-0.16514752805233002,0.2623979449272156,-0.9507226943969727,-0.0026075541973114014,0.0362623929977417,-0.024664878845214844,-0.01608395390212536,-0.001910812803544104,0.006593420170247555,-0.17199116230345454,-0.2655063803737765,2.217159440404521
1687013437.265691,-0.16531673073768616,0.26122429966926575,-0.9510164260864258,-0.005993649363517761,-0.02210378646850586,-0.0035429000854492188,-0.02784041315317154,0.002176739973947406,-0.005705323535948992,-0.1721117814247068,-0.26429033859106854,2.217233252946418
1687013437.280354,-0.16489554941654205,0.264509379863739,-0.9501811861991882,-0.014883458614349365,0.002351611852645874,0.012635409832000732,-0.021312804892659187,0.017326263710856438,0.010530105791985989,-0.17182983092310986,-0.2676951615467868,2.216867406842079
1687013437.354877,-0.1640053242444992,0.2654033899307251,-0.9500859379768372,0.014118298888206482,0.00502815842628479,0.012296020984649658,-0.05292985215783119,0.010121614672243595,0.0031318431720137596,-0.1709369832808437,-0.2686223074454224,2.216966556892622
1687013437.370157,-0.1642833799123764,0.2669374942779541,-0.9496080279350281,-0.007698386907577515,0.022933781147003174,-0.003928959369659424,-0.012336554005742073,0.014861642383038998,-0.0007497137412428856,-0.17130565662086916,-0.27021381672372324,2.2164345002452364
1687013437.476156,-0.16239088773727417,0.2673996686935425,-0.9498034715652466,0.014807939529418945,-0.012242138385772705,0.001301884651184082,-0.018206028267741203,0.007590413559228182,-0.008646252565085888,-0.16933582174073483,-0.2706934173058926,2.216592163910169
1687013437.4819322,-0.16351687908172607,0.26972460746765137,-0.9489524960517883,0.0053748637437820435,0.01945999264717102,-0.018103718757629395,-0.021775396540760994,-0.01497228629887104,-0.007493370212614536,-0.17063735278219103,-0.2731070425128019,2.2155413756936673
1687013437.5919871,-0.1634213775396347,0.27025914192199707,-0.9488168954849243,-0.010467737913131714,0.001957714557647705,-0.012669920921325684,-0.05213909223675728,0.007140872534364462,-0.00026981160044670105,-0.17056351763055397,-0.2736621742585817,2.215117994222759
1687013437.597608,-0.16280953586101532,0.2717475891113281,-0.9484968781471252,-0.005708485841751099,-0.01875680685043335,-0.00018781423568725586,-0.01350241806358099,0.024966608732938766,0.0021097222343087196,-0.16999342231861705,-0.27520850232610583,2.2150637398085555
