Timestamp,gravityX,gravityY,gravityZ,accelerationX,accelerationY,accelerationZ,rotationRateX,rotationRateY,rotationRateZ,attitudeRoll,attitudePitch,attitudeYaw
1687013412.779881,-0.16493503749370575,0.2725936770439148,-0.9478866457939148,0.003787025809288025,0.0077408552169799805,-0.002796947956085205,0.014065492898225784,0.02368123270571232,0.0065910229459404945,-0.17227804632912885,-0.27608778074171597,2.2069337176514314
1687013412.866718,-0.16522781550884247,0.27332672476768494,-0.9476245641708374,0.00790974497795105,-0.008586674928665161,0.012184500694274902,-0.02200942113995552,0.007167503237724304,-0.003954561427235603,-0.1726246146054554,-0.27684974915143024,2.2063518655592906
1687013412.88309,-0.16444529592990875,0.2736431360244751,-0.9476693272590637,0.004289090633392334,-8.350610733032227e-05,0.005927443504333496,-0.018288252875208855,0.0016809925436973572,-0.0011630365625023842,-0.17181513217549518,-0.27717869637644227,2.2064665507351635
1687013412.922571,-0.16421955823898315,0.2746945321559906,-0.9474042654037476,0.00670313835144043,0.005655229091644287,-0.0023638010025024414,0.01020544022321701,-0.005239231511950493,-0.0023545343428850174,-0.17163095601694456,-0.27827200924758044,2.206287015185505
1687013413.009803,-0.1644590198993683,0.2738915681838989,-0.9475951790809631,-0.013107463717460632,-0.00538259744644165,-0.0033325552940368652,-0.011895867064595222,0.00855274684727192,0.00872900988906622,-0.17184237297346863,-0.27743701223970846,2.2063945312005537
1687013413.01318,-0.16362620890140533,0.2747938632965088,-0.9474781155586243,0.001806795597076416,0.004365712404251099,-0.009019076824188232,0.013219540007412434,0.020603951066732407,0.0018029259517788887,-0.1710097931273206,-0.27837531127274145,2.206593232240879
1687013413.104649,-0.16383643448352814,0.2749428451061249,-0.9473986029624939,-0.004437446594238281,-0.0063270628452301025,0.0069994330406188965,-0.02381524257361889,0.021354028955101967,-0.0012192288413643837,-0.17123933723470797,-0.2785302545708269,2.2063494568468105
1687013413.1984391,-0.16305319964885712,0.2749175727367401,-0.9475409984588623,0.010770559310913086,0.0019531846046447754,0.00897294282913208,0.021641720086336136,-0.009864875115454197,-0.00863000750541687,-0.17041139468923927,-0.27850398435621143,2.2064411693993735
1687013413.202849,-0.16339749097824097,0.2751217186450958,-0.947422444820404,0.012381315231323242,-0.00577351450920105,0.007481038570404053,-0.021640239283442497,-0.011013763956725597,-0.0011808797717094421,-0.17078522704657081,-0.27871630113135354,2.2061688950345566
1687013413.287221,-0.16363020241260529,0.2758322060108185,-0.9471756815910339,-0.002186998724937439,0.008210211992263794,-0.010404884815216064,-0.006272335536777973,-0.011884084902703762,-0.0016163066029548645,-0.17106744472334218,-0.27945537670981807,2.2058969502235253
1687013413.302484,-0.16343052685260773,0.27572494745254517,-0.9472413659095764,0.0017942339181900024,-0.005247592926025391,-0.008782804012298584,-0.017537906765937805,-0.0012133308919146657,-0.002546016126871109,-0.17085111237810188,-0.27934379788345287,2.20582478749792
1687013413.4123468,-0.16360943019390106,0.2754886746406555,-0.9472792148590088,-0.0019025802612304688,-0.0016544163227081299,-0.015519797801971436,0.011206123046576977,0.002010159194469452,-0.004998254589736462,-0.171027815130341,-0.2790980012747591,2.205777318892105
1687013413.4170299,-0.163357213139534,0.2751306891441345,-0.9474267959594727,-0.004123210906982422,0.0009313821792602539,-3.719329833984375e-05,-0.003143987152725458,0.021857233718037605,-0.0010218890383839607,-0.170743165886788,-0.27872562443913285,2.2057806347349467
1687013413.500821,-0.163148432970047,0.27516695857048035,-0.9474522471427917,0.006227090954780579,-0.0021261274814605713,0.017718970775604248,0.004567195661365986,0.0008076087688095868,0.00457767304033041,-0.1705246647694019,-0.27876336861983986,2.2058195424702842
1687013413.521401,-0.1631612330675125,0.275403767824173,-0.9473811984062195,0.019148826599121094,-0.0005166232585906982,0.04631924629211426,0.0293232761323452,-0.027381950989365578,-0.028698522597551346,-0.17055031983020566,-0.27900967606959964,2.205723494449572
1687013413.622534,-0.16328972578048706,0.2755126953125,-0.9473273754119873,-0.00725768506526947,0.0125732421875,0.01153641939163208,0.04388564079999924,-0.005747096613049507,-0.0005097631365060806,-0.17069155630507102,-0.27912301255357735,2.2055855781676104
1687013413.6414108,-0.16401146352291107,0.2752390503883362,-0.9472822546958923,-0.0014395266771316528,0.042159050703048706,-0.018705904483795166,-0.016647344455122948,-0.019313504919409752,0.00487887766212225,-0.1714393547904562,-0.27883835330894846,2.2051298687899292
1687013413.707677,-0.1638256311416626,0.2753428518772125,-0.9472842812538147,-0.011757194995880127,-0.0023630857467651367,-0.012768208980560303,-0.016394412145018578,0.014982549473643303,0.007986786775290966,-0.1712485324467705,-0.2789463236604047,2.205162656514107
1687013413.724732,-0.16332541406154633,0.2755810022354126,-0.9473013877868652,-0.003758266568183899,-0.023337900638580322,0.006764888763427734,-0.010390914045274258,0.004248013719916344,-0.011655624024569988,-0.1707327420757011,-0.2791940484141224,2.2052335242219394
1687013413.796484,-0.16339555382728577,0.2765180170536041,-0.947016179561615,0.012852415442466736,0.03647029399871826,0.0012307167053222656,0.019736094400286674,-0.0074818795546889305,0.006730838678777218,-0.17085508522179305,-0.2801689518294503,2.2050198863387993
1687013413.800008,-0.16359952092170715,0.27598485350608826,-0.9471365213394165,0.003672197461128235,0.009690254926681519,0.003533005714416504,-0.039749134331941605,0.004606341477483511,0.0039803264662623405,-0.17104291604134092,-0.27961418716478453,2.2049381445780774
1687013413.890837,-0.16309726238250732,0.27683186531066895,-0.9469759464263916,0.0116385817527771,-0.018866747617721558,-0.0065762996673583984,-0.004531361162662506,-0.02166920341551304,-0.0030168630182743073,-0.1705563065039293,-0.28049555652117947,2.205029202043115
1687013413.9086251,-0.16352319717407227,0.27659329771995544,-0.9469721913337708,0.005762621760368347,-0.002362281084060669,0.019268333911895752,-0.00021510920487344265,-0.006443512625992298,-0.004736465401947498,-0.17099375590083227,-0.2802472828713349,2.205082683893862
1687013413.945935,-0.16340215504169464,0.27654606103897095,-0.94700688123703,-0.00020253658294677734,0.02876707911491394,-0.02984553575515747,0.009735059924423695,-0.0004427452804520726,0.007913283072412014,-0.1708635014970866,-0.2801981320328134,2.2051092371978
1687013414.039532,-0.16414375603199005,0.2763913571834564,-0.9469237923622131,-0.013056516647338867,-0.007882386445999146,-0.011312901973724365,-0.027388140559196472,0.006743395235389471,-0.003295695409178734,-0.1716386275568727,-0.28003714457033163,2.2050052750295013
1687013414.056777,-0.16330486536026,0.27666351199150085,-0.9469893574714661,0.003942131996154785,-0.004721313714981079,0.013410866260528564,0.024036169052124023,0.010006566531956196,-0.0023968787863850594,-0.17076683764450526,-0.280320353099789,2.205144842439964
1687013414.12915,-0.16346313059329987,0.2769570052623749,-0.9468762278556824,0.011363565921783447,0.021566003561019897,-0.0011522769927978516,0.0034202388487756252,-0.004364383406937122,0.0004865257069468498,-0.17094914719918378,-0.28062576810488077,2.2048053428228322
1687013414.1325579,-0.1637994349002838,0.2763585150241852,-0.9469929933547974,0.007137492299079895,-0.0012882649898529053,0.0030995607376098633,0.0022787414491176605,-0.004799676593393087,0.0057025933638215065,-0.17127331334074872,-0.28000297799104895,2.204842960701555
1687013414.187389,-0.16366606950759888,0.2767205536365509,-0.9469103217124939,0.0013736337423324585,-0.013536900281906128,0.0068010687828063965,-0.011303979903459549,-0.018200038000941277,-0.008058492094278336,-0.17115122077357062,-0.28037970930794875,2.205065314571016
1687013414.28126,-0.16369159519672394,0.27703580260276794,-0.946813702583313,0.0003158152103424072,0.009066492319107056,-0.011285603046417236,0.018872231245040894,-0.003940540831536055,0.003605886362493038,-0.1711945319017526,-0.28070779246388866,2.2049024464416176
1687013414.287156,-0.16420960426330566,0.27698594331741333,-0.946738600730896,-0.005040809512138367,0.005484789609909058,-0.01958519220352173,-0.009110932238399982,0.006222347728908062,0.005959854461252689,-0.17173906493425972,-0.280655889348014,2.2047155278032897
1687013414.3734431,-0.1641063392162323,0.2767752408981323,-0.9468181133270264,-0.009447053074836731,-0.011592745780944824,0.0025585293769836426,0.0009368411265313625,-0.0018133411649614573,-0.005087736528366804,-0.17161904404815878,-0.2804366364986614,2.204746785069593
1687013414.391288,-0.1637752503156662,0.2766760289669037,-0.9469044804573059,0.004443034529685974,-0.011112004518508911,0.003941833972930908,0.011835294775664806,-0.0006503387121483684,0.004898584447801113,-0.17126422461588592,-0.2803333777358836,2.2049589909780964
1687013414.4266648,-0.16426494717597961,0.27719324827194214,-0.9466683268547058,-0.0014759600162506104,-0.000337749719619751,0.01452416181564331,-0.017135437577962875,0.0009373047505505383,0.002035686746239662,-0.17180832385446096,-0.28087166365260696,2.204640795593203
1687013414.522682,-0.16383019089698792,0.27755308151245117,-0.9466382265090942,0.004253819584846497,0.007282763719558716,-0.013017535209655762,-0.0026807966642081738,-0.0035044485703110695,-0.001450924202799797,-0.17136779899395183,-0.2812461869353375,2.2045659592280313
1687013414.538883,-0.16439208388328552,0.2768689692020416,-0.9467411637306213,-0.002355903387069702,-0.005964368581771851,-0.0018824934959411621,0.0015337220393121243,-0.010983269661664963,-0.008075270801782608,-0.17192572793665237,-0.28053415938007065,2.2045120448278506
1687013414.57555,-0.16428135335445404,0.27740588784217834,-0.9466031789779663,-0.003656834363937378,0.0015553534030914307,-0.008642792701721191,0.01606053300201893,0.007588949054479599,0.005003779195249081,-0.17183672832058008,-0.28109296765780595,2.2043161184026467
1687013414.666175,-0.15958862006664276,0.26913923025131226,-0.9497871398925781,0.0017364919185638428,0.03312215209007263,0.030658721923828125,0.25822338461875916,0.12448174506425858,-0.08673066645860672,-0.16647066191155577,-0.2724991711657302,2.2032622944118554
1687013414.670823,-0.15104444324970245,0.258893758058548,-0.9540228843688965,0.048123955726623535,0.043504953384399414,0.049222469329833984,0.15581996738910675,-0.08808311074972153,0.18989694118499756,-0.15702039115828315,-0.2618767511192783,2.2106191747147736
1687013414.727961,-0.1442597657442093,0.23729157447814941,-0.9606673717498779,0.059985533356666565,-0.07870694994926453,-0.0838119387626648,0.26869675517082214,0.024248620495200157,0.031118202954530716,-0.14905247984004302,-0.239576835080386,2.220904528438487
1687013414.8499331,-0.1492500603199005,0.23759645223617554,-0.9598293304443359,0.04285058379173279,0.08878910541534424,-0.020181655883789062,-0.056611739099025726,-0.14948469400405884,-0.030555278062820435,-0.1542610752547898,-0.2398906940156763,2.2196934781105817
1687013414.855325,-0.15260012447834015,0.2348715215921402,-0.9599732160568237,-0.02170097827911377,-0.051292985677719116,0.05775153636932373,0.03018547222018242,0.023016508668661118,0.02639002725481987,-0.15764387893440823,-0.23708638854563566,2.2202785942659875
1687013414.941924,-0.14852091670036316,0.23708485066890717,-0.960068941116333,-0.0024494826793670654,0.057882845401763916,-0.04351687431335449,0.022559845820069313,0.06770608574151993,0.07450775802135468,-0.1534815529350141,-0.23936404945619108,2.222815414308366
1687013414.960341,-0.14896264672279358,0.23468592762947083,-0.9605897665023804,-0.005639359354972839,-0.013189300894737244,0.012317061424255371,0.004053538665175438,0.01186438836157322,-0.013787484727799892,-0.15384871336774353,-0.23689545863539088,2.2247610895313525
1687013415.027374,-0.14620760083198547,0.23509134352207184,-0.9609138369560242,-0.010774761438369751,0.04301540553569794,-0.03948289155960083,0.007138810586184263,0.03290868550539017,0.023899439722299576,-0.15099660866158052,-0.2373125466159752,2.2263607642115
1687013415.0308928,-0.14929181337356567,0.23877474665641785,-0.9595304131507874,-0.01260387897491455,0.05658969283103943,0.058300554752349854,0.011388416402041912,0.01538668479770422,-0.014329970814287663,-0.15435086001768286,-0.24110391026894318,2.224872491145105
1687013415.088419,-0.14413125813007355,0.23530901968479156,-0.9611741900444031,0.009731903672218323,-0.04994522035121918,-0.032630741596221924,0.030676892027258873,0.02161075733602047,0.050477784126996994,-0.1488442884636534,-0.2375365097204023,2.227383821188041
1687013415.183811,-0.1454712450504303,0.2375200241804123,-0.9604282379150391,0.0013367682695388794,0.04289080202579498,0.029642105102539062,0.02756512351334095,0.022434206679463387,0.0054807523265480995,-0.15032237923524405,-0.23981200765837046,2.2277780645190317
1687013415.189987,-0.1445964276790619,0.2366262823343277,-0.9607808589935303,0.003727346658706665,0.0003274977207183838,-0.04431557655334473,-0.056526586413383484,-0.05420943722128868,-0.013187208212912083,-0.14937780028733075,-0.23889205008520914,2.2280741964027455
1687013415.2723289,-0.14600154757499695,0.2399832308292389,-0.9597351551055908,-0.04125423729419708,0.015830397605895996,0.020800888538360596,-0.012690087780356407,0.07998205721378326,-0.003268797881901264,-0.1509694095399479,-0.2423485781353257,2.2265198825242702
1687013415.289538,-0.14204581081867218,0.23816269636154175,-0.9607816934585571,0.041536226868629456,-0.01196637749671936,-0.012637436389923096,-0.014464352279901505,-0.04847831651568413,0.016960307955741882,-0.14678071924532607,-0.24047366635323839,2.2281744595263597
1687013415.329457,-0.14577414095401764,0.2407882958650589,-0.9595680832862854,-0.02643650770187378,0.04322358965873718,0.0343208909034729,0.03263404965400696,0.051969729363918304,-0.007517604622989893,-0.15076365456185178,-0.24317796737931857,2.2268067868809336
1687013415.387722,-0.14272814989089966,0.23925115168094635,-0.9604101181030273,0.020245909690856934,-0.022835716605186462,-0.018776893615722656,-0.06986761838197708,-0.05503221973776817,0.007241101004183292,-0.14753189045714563,-0.24159453122452818,2.2279162788899756
1687013415.483002,-0.1450609564781189,0.24120144546031952,-0.9595723748207092,-0.024555698037147522,-0.0014400482177734375,0.02248436212539673,0.034550659358501434,0.03666920214891434,-0.005108509212732315,-0.1500364403381044,-0.24360366460001368,2.227463064296194
1687013415.487953,-0.14326007664203644,0.2399299442768097,-0.9601615071296692,-0.0014694631099700928,0.023101091384887695,-0.06622087955474854,-0.010061548091471195,-0.04038643464446068,0.012925351969897747,-0.14811151514479062,-0.2422936896429559,2.2280895476283957
1687013415.537641,-0.1441623717546463,0.241139218211174,-0.9597234129905701,-0.0016963332891464233,-0.02075648307800293,-0.007119178771972656,-0.015527951531112194,0.023975512012839317,-0.013508917763829231,-0.14909768215475536,-0.24353953786142224,2.227994732628024
1687013415.6340818,-0.1451738178730011,0.24217599630355835,-0.9593098163604736,0.011018604040145874,-0.005786776542663574,0.005864381790161133,-0.03485924005508423,-0.05698338896036148,-0.002970789559185505,-0.150191913278918,-0.24460797690449623,2.228213192112815
1687013415.639817,-0.1441042572259903,0.24248580634593964,-0.9593928456306458,0.0004885941743850708,0.0008156448602676392,0.00011855363845825195,0.019878439605236053,0.07413548231124878,0.027738120406866074,-0.14908906175140227,-0.24492730556156075,2.227797989405707
1687013415.6873012,-0.14748266339302063,0.24515940248966217,-0.9581992030143738,0.021002620458602905,0.044910237193107605,0.03962010145187378,-0.06913205981254578,-0.12242697924375534,-0.02805323898792267,-0.15271804315799697,-0.24768410289992424,2.2276701094366875
1687013415.780386,-0.14447352290153503,0.24331508576869965,-0.9591273069381714,-0.00535246729850769,-0.06573326885700226,-0.05327808856964111,0.002672289963811636,0.04762611538171768,0.022852282971143723,-0.14950621551919,-0.2457821957797975,2.2280612394327495
1687013415.786481,-0.14917150139808655,0.24815116822719574,-0.9571670889854431,-0.029707223176956177,0.10396069288253784,0.05468606948852539,0.030057374387979507,-0.024189619347453117,-0.01539949607104063,-0.15460319893255353,-0.2507712566710644,2.2266149710298664
1687013415.875527,-0.14543703198432922,0.24529694020748138,-0.9584766626358032,0.013875812292098999,-0.009502828121185303,-0.04205739498138428,-0.053237184882164,0.0018985727801918983,0.018115319311618805,-0.15058896672828884,-0.2478259720737962,2.2276797432968545
1687013415.891841,-0.1490376740694046,0.24881677329540253,-0.9570151567459106,-0.07039891183376312,0.042015790939331055,-0.0050820112228393555,0.011754601262509823,0.02515782229602337,-0.0071362401358783245,-0.15449083344401185,-0.25145841241441413,2.2270196445544737
1687013415.9063292,-0.1474558711051941,0.24718990921974182,-0.9576815366744995,0.03130601346492767,-0.005444854497909546,-0.004842877388000488,-0.0176236592233181,-0.04300498589873314,-0.0029556099325418472,-0.15277198287155205,-0.24977908077193955,2.22726769739991
1687013415.953387,-0.15174123644828796,0.2527719736099243,-0.9555526971817017,0.02713802456855774,-0.004450410604476929,-0.07815396785736084,-0.18708813190460205,-0.18624085187911987,-0.039880603551864624,-0.15748445611973813,-0.2555441981052644,2.225410795673683
1687013416.017181,-0.17156776785850525,0.25571408867836,-0.9514067769050598,-0.014268964529037476,0.05497017502784729,0.07498770952224731,-0.04368722066283226,-0.33400675654411316,-0.24762234091758728,-0.1784131653775188,-0.2585862694689496,2.2201564841487214
1687013416.076345,-0.17509262263774872,0.25555503368377686,-0.9508071541786194,-0.2095203548669815,-0.02932816743850708,0.010835230350494385,-0.04844488948583603,0.09854695200920105,-0.20193102955818176,-0.18211128877857363,-0.2584217715728811,2.2105115639339856
1687013416.136339,-0.16830000281333923,0.26516419649124146,-0.9494014382362366,-0.02032908797264099,-0.01646113395690918,0.12457233667373657,-0.1476270705461502,0.10532163083553314,0.11880198121070862,-0.17544696968851398,-0.2683742014905575,2.2089297617810315
1687013416.2258182,-0.1665678322315216,0.2725068926811218,-0.9476260542869568,0.011691182851791382,-0.014511287212371826,-0.014226913452148438,-0.1627293825149536,-0.02415419928729534,0.0017352821305394173,-0.17399636374614516,-0.2759975745167637,2.2106512243425094
1687013416.242289,-0.16654221713542938,0.27675604820251465,-0.9463983178138733,-0.018501058220863342,0.02097347378730774,-0.002362668514251709,0.022567369043827057,0.003067301120609045,0.02554500475525856,-0.17419131193437923,-0.28041666517491143,2.211366972356879
1687013416.315685,-0.16605696082115173,0.2754398286342621,-0.9468674659729004,0.004237562417984009,-0.01201203465461731,0.02024698257446289,0.003952937666326761,0.010136928409337997,0.0022604577243328094,-0.17360958326313583,-0.27904720516951126,2.211903095058343
1687013416.3212829,-0.16774743795394897,0.27837076783180237,-0.9457116723060608,-0.00447845458984375,0.013072162866592407,0.01704651117324829,-0.01345787663012743,-0.03792434185743332,-0.012109959498047829,-0.17555104717934128,-0.28209740277616746,2.2104830345773006
1687013416.379655,-0.16733305156230927,0.27876871824264526,-0.9456678628921509,-0.0009865909814834595,0.011789172887802124,0.03326857089996338,-0.030507033690810204,0.03553176671266556,-0.00218915194272995,-0.17513414675227443,-0.282511775262851,2.2103735179685278
1687013416.4733849,-0.16558867692947388,0.2781408131122589,-0.9461596608161926,-3.0174851417541504e-05,0.0011103451251983643,-0.03939026594161987,0.018187999725341797,0.018879154697060585,-0.014424513094127178,-0.17325667495088148,-0.28185798950412416,2.2102096414461427
1687013416.49121,-0.16594238579273224,0.2791801691055298,-0.945791482925415,-0.004009947180747986,-0.01614910364151001,0.005270242691040039,-0.005530579015612602,0.01672106236219406,-0.0026560043916106224,-0.1736856128233418,-0.28294023892761194,2.2089677163082255
1687013417.059891,-0.16508635878562927,0.27892211079597473,-0.9460174441337585,-0.014845237135887146,0.009606391191482544,-0.011853039264678955,0.008977390825748444,0.014870431274175644,-0.006384962238371372,-0.17276695845105297,-0.2826714768614987,2.209213221942239
1687013417.074646,-0.16555005311965942,0.27940958738327026,-0.9457924962043762,-0.0020066499710083008,-0.0037289857864379883,0.006568253040313721,-0.01188388280570507,0.008076041005551815,-0.02156444825232029,-0.1732829756780399,-0.2831791578567551,2.2084066404253164
1687013417.078103,-0.16541235148906708,0.2794525921344757,-0.9458038806915283,-0.00014545023441314697,0.00469660758972168,0.027179062366485596,0.007458123844116926,0.0009813799988478422,-0.007233978249132633,-0.17313965157627384,-0.28322392737195046,2.2077041685389838
1687013417.094068,-0.16478589177131653,0.2793923020362854,-0.945931077003479,0.00379045307636261,0.015956878662109375,-0.028678297996520996,0.024632316082715988,-0.017238903790712357,0.002973119728267193,-0.17247415853476816,-0.2831611503660598,2.207843215540158
1687013417.0969481,-0.1662728637456894,0.27911022305488586,-0.9457541108131409,-0.013262003660202026,-0.006756037473678589,0.01524263620376587,-0.00840679369866848,-0.006847381591796875,-0.012035391293466091,-0.17403131524125945,-0.28286737717227367,2.2070733203321753
1687013417.099759,-0.16560350358486176,0.2789140045642853,-0.9459294080734253,-0.0020447373390197754,-0.004789829254150391,-0.03173166513442993,-0.0193423330783844,-0.002225864678621292,-0.006179366260766983,-0.1733132241711737,-0.2826630561782242,2.2068596904035442
1687013417.102508,-0.1667003035545349,0.27934542298316956,-0.9456093907356262,-0.010057464241981506,0.0029727518558502197,-0.00972813367843628,-0.006575535982847214,0.004178505390882492,-0.008501110598444939,-0.17449584918607214,-0.2831123341327837,2.206264147677077
1687013417.105125,-0.1659475564956665,0.27937260270118713,-0.9457337856292725,-0.009681060910224915,0.011932969093322754,0.002267599105834961,0.01103015523403883,0.014751387760043144,-0.0037564225494861603,-0.1737013058425081,-0.2831406480609721,2.2059642651059366
1687013417.116825,-0.16588495671749115,0.279015451669693,-0.9458501935005188,0.010291144251823425,-0.00347214937210083,-0.004467189311981201,-0.022312821820378304,0.003197662765160203,-0.009455320425331593,-0.17361614841502623,-0.282768679742436,2.2058651465123345
1687013417.119494,-0.16632568836212158,0.2810033857822418,-0.945184051990509,0.004521533846855164,-0.003629058599472046,0.05704623460769653,-0.019929492846131325,0.0030390715692192316,0.001269495114684105,-0.17418837923027097,-0.2848394516289385,2.2048846835597034
1687013417.1289802,-0.1648939549922943,0.2800898551940918,-0.9457058906555176,0.021507158875465393,0.012054979801177979,-0.033679425716400146,0.01358838751912117,-0.012363587506115437,0.0037704696878790855,-0.17262530299341686,-0.28388769605598363,2.205609676602814
1687013417.130571,-0.1657920628786087,0.2807697653770447,-0.9453471899032593,0.007680565118789673,-0.011970937252044678,0.011768758296966553,-0.02334652654826641,-0.0045476085506379604,-0.009271828457713127,-0.1736113474687308,-0.2845960574199427,2.204937825431745
1687013417.16081,-0.16464173793792725,0.2806702256202698,-0.9455777406692505,0.0030817538499832153,0.004363983869552612,-0.015481770038604736,-0.006075061857700348,-0.0018760585226118565,0.009536213241517544,-0.1723893678281326,-0.28449233675701846,2.2051952429025246
1687013417.185289,-0.16478481888771057,0.2819698452949524,-0.9451661109924316,0.0004934966564178467,0.006543397903442383,-0.01586294174194336,-0.052745964378118515,0.005223529413342476,0.003907621838152409,-0.17260989383083766,-0.28584663585557546,2.205111827857846
1687013417.186829,-0.16522827744483948,0.28260934352874756,-0.9448976516723633,-0.003778025507926941,0.007582366466522217,0.006512641906738281,0.007250064052641392,-0.010658364742994308,-0.0007600998505949974,-0.17311338334951065,-0.28651325983724474,2.205159429910765
1687013417.201015,-0.1629583239555359,0.27980709075927734,-0.9461250305175781,-0.00023438036441802979,-0.009543389081954956,-0.028636932373046875,0.13635118305683136,0.08458133041858673,0.023238174617290497,-0.17056411838738098,-0.2835931730914526,2.2058338943416955
1687013417.289191,-0.1652272343635559,0.27254539728164673,-0.9478496313095093,0.0010274648666381836,0.02222391963005066,-0.0030933022499084473,0.21618151664733887,0.01716407760977745,-0.0625867173075676,-0.1725838313777465,-0.27603759831828234,2.2053080876875737
1687013417.3037739,-0.16648921370506287,0.2619037330150604,-0.950624942779541,0.02893128991127014,-0.02287474274635315,0.034258365631103516,0.03625494986772537,-0.047362320125103,-0.0838208943605423,-0.17337819764235163,-0.2649942659497409,2.204115544976486
1687013417.346339,-0.16449162364006042,0.26305752992630005,-0.9506540894508362,-0.0220012366771698,0.01640722155570984,-0.05981338024139404,-0.029385443776845932,0.022703852504491806,0.025777768343687057,-0.17133350400501537,-0.26618997696593705,2.2056231415119205
1687013417.404433,-0.162617489695549,0.2608931362628937,-0.9515725374221802,-0.025630131363868713,-0.05727985501289368,0.06790560483932495,0.0990772619843483,0.10540339350700378,0.08758760988712311,-0.16925834845985732,-0.26394726993205647,2.2077153867764188
1687013417.45792,-0.1595345139503479,0.25884872674942017,-0.9526521563529968,0.024540051817893982,0.007768154144287109,-0.07571393251419067,0.04997842013835907,-0.020232561975717545,0.054708752781152725,-0.16592392507033013,-0.2618301167648614,2.2135640529582408
1687013417.592509,-0.16060799360275269,0.25471529364585876,-0.9535854458808899,0.018548712134361267,-0.03508022427558899,0.024477779865264893,0.09011565148830414,0.010022678412497044,0.04647612199187279,-0.1668593678792293,-0.25755325937481305,2.2167860733793265
1687013417.607477,-0.1579907238483429,0.25260332226753235,-0.9545839428901672,0.003465026617050171,0.004019021987915039,-0.050726115703582764,-0.029584914445877075,0.029087714850902557,0.014663063921034336,-0.16402055014693023,-0.2553699071625987,2.2198989054818012
1687013417.6110358,-0.15782679617404938,0.252767950296402,-0.9545674920082092,0.006291821599006653,-0.02123105525970459,0.0027089715003967285,0.03962205350399017,0.022952990606427193,-0.003827795386314392,-0.16385617941665007,-0.2555400523694942,2.219681261852806
1687013417.726522,-0.15609955787658691,0.25291895866394043,-0.9548114538192749,-0.0034920573234558105,0.007792741060256958,0.007484793663024902,-0.018793586641550064,0.020310070365667343,0.01971614733338356,-0.16205366189509518,-0.2556961300846104,2.220560509369833
1687013417.743953,-0.15525811910629272,0.2520693242549896,-0.9551732540130615,0.027130126953125,0.039053142070770264,-0.016903162002563477,0.044666875153779984,-0.0028692844789475203,-0.00785103254020214,-0.16113522350462905,-0.2548180460424163,2.2211883071660776
1687013417.775934,-0.15601037442684174,0.2518244981765747,-0.9551152586936951,-0.02599640190601349,-0.02095898985862732,-0.014153540134429932,0.009827537462115288,0.03423627093434334,0.02423233538866043,-0.1619120736168976,-0.2545650497773279,2.2211031528227116
1687013417.835988,-0.15429747104644775,0.2520550489425659,-0.9553326964378357,0.01289433240890503,0.015843570232391357,-0.0029345154762268066,-0.020075898617506027,-0.019995009526610374,-0.01067797839641571,-0.16012895069907626,-0.25480327984891804,2.221608885490423
1687013417.95156,-0.15333563089370728,0.2521699368953705,-0.9554572105407715,0.0027314573526382446,-0.023562729358673096,-0.01014941930770874,-0.019505849108099937,0.0364307165145874,0.03926508128643036,-0.1591271826924454,-0.25492200360021994,2.221795036111167
1687013417.971013,-0.1537322998046875,0.2528086304664612,-0.9552246928215027,0.019851744174957275,0.012816429138183594,0.0044953227043151855,-0.019594864919781685,-0.06171648949384689,-0.012497982010245323,-0.15957006907052,-0.25558208004011,2.2227205217724135
1687013417.9843612,-0.15257245302200317,0.2519320845603943,-0.9556421041488647,-0.006851300597190857,-0.03234285116195679,-0.04812675714492798,0.017612557858228683,0.0353112556040287,0.03718088939785957,-0.15831825286204604,-0.25467622835027787,2.222900354240246
1687013418.009022,-0.15319253504276276,0.25269487500190735,-0.9553414583206177,-0.022024080157279968,-0.0008027851581573486,0.009998500347137451,-0.030136987566947937,0.004905148409307003,0.001166963018476963,-0.15900010205586607,-0.255464520646458,2.223640389038837
1687013418.060093,-0.1520778387784958,0.2523418366909027,-0.95561283826828,-0.00629308819770813,0.007118642330169678,-0.04211360216140747,0.02431553415954113,0.011846278794109821,0.011452890001237392,-0.15781825374544484,-0.2550996544410787,2.224271910703108
1687013418.1062841,-0.1530483365058899,0.25353485345840454,-0.9551420211791992,0.010882258415222168,0.009664028882980347,0.03003215789794922,-0.010851974599063396,-0.02305538021028042,0.012671287171542645,-0.15888557247291651,-0.2563327671440161,2.224391185127486
1687013418.1935868,-0.1511928290128708,0.25334665179252625,-0.9554874300956726,0.008340105414390564,0.01337704062461853,-0.008532345294952393,0.017888527363538742,-0.015389869920909405,-0.00028898660093545914,-0.15693515684496548,-0.25613819923698206,2.225513859297992
1687013418.218204,-0.1529926210641861,0.25381219387054443,-0.9550772905349731,-0.014274179935455322,0.002337157726287842,0.0069876909255981445,-0.001630180049687624,0.005824871361255646,0.004027198068797588,-0.15883927303473927,-0.2566194855683786,2.225261612176559
1687013418.2557468,-0.15108399093151093,0.25387126207351685,-0.9553654193878174,0.005621999502182007,-0.01650547981262207,-0.023684263229370117,-0.02019374445080757,-0.0018492937088012695,0.01505188550800085,-0.15684372191638501,-0.2566805462185923,2.225741391154335
1687013418.3391519,-0.15195351839065552,0.2549465298652649,-0.9549410343170166,-0.007012501358985901,0.016446352005004883,-0.0075070858001708984,-0.008216909132897854,0.002534935250878334,0.00422240886837244,-0.15780047758275184,-0.25779240619726274,2.2258789130620724
1687013418.354531,-0.15126249194145203,0.25438791513442993,-0.9551997184753418,0.004137307405471802,-0.005135536193847656,-0.0342564582824707,0.007291875779628754,-0.006294509395956993,0.00987443421036005,-0.15705280300451585,-0.2572147405124324,2.226253458630036
1687013418.4085112,-0.15183216333389282,0.2551078796386719,-0.9549172520637512,0.009299859404563904,-0.0005759596824645996,-0.0013815760612487793,-0.03771428018808365,-0.018914829939603806,-0.001930825412273407,-0.1576803976316487,-0.257959280851119,2.2262297957971766
1687013418.498262,-0.15131257474422455,0.25505051016807556,-0.9550150632858276,-0.005776599049568176,-0.006332188844680786,0.010480761528015137,0.024436108767986298,0.022587206214666367,0.012068879790604115,-0.15713383023705196,-0.25789995455187564,2.2262942297825634
1687013418.51899,-0.1513148695230484,0.25393351912498474,-0.9553123116493225,0.019250094890594482,0.007495373487472534,0.00952678918838501,-0.00871012732386589,-0.03289416432380676,0.0004007723182439804,-0.15708806840656253,-0.25674491593193316,2.226825911083678
1687013418.5698261,-0.1518009603023529,0.25466734170913696,-0.9550397992134094,0.003683939576148987,-0.017515182495117188,-0.004402339458465576,-0.01640220172703266,-0.019743073731660843,0.003703358583152294,-0.15762862499938265,-0.2575036791444138,2.226649828474618
1687013418.625633,-0.15228591859340668,0.2546396553516388,-0.9549700021743774,0.014575392007827759,-0.009888619184494019,-0.01562631130218506,-0.020046072080731392,-0.03141330927610397,-0.013931562192738056,-0.1581352356442524,-0.2574750525838911,2.226605330183313
1687013418.671255,-0.15875355899333954,0.25626063346862793,-0.953481912612915,0.029526934027671814,0.019481003284454346,-0.05312514305114746,-0.02563571371138096,-0.25172343850135803,-0.0900588184595108,-0.1649853063609425,-0.25915164877947816,2.2241433753024595
1687013418.7224112,-0.16385997831821442,0.2561166286468506,-0.9526563882827759,-0.077228844165802,-0.05637902021408081,0.17383253574371338,-0.03168468549847603,0.0434299036860466,0.01372589822858572,-0.1703364750182136,-0.2590026828311593,2.219101718599313
1687013418.7950501,-0.15563370287418365,0.2610473334789276,-0.9526974558830261,0.07361775636672974,0.07058724761009216,-0.09077483415603638,-0.19943460822105408,-0.052973732352256775,0.0792018473148346,-0.16193073141168166,-0.26410698312669234,2.2233263575942375
1687013418.811585,-0.1581839621067047,0.26805704832077026,-0.95032799243927,0.04275126755237579,-0.031820446252822876,0.06710350513458252,-0.15589405596256256,-0.03978309407830238,-0.017938287928700447,-0.16493976814834496,-0.27137571911728176,2.222544170264568
1687013418.858025,-0.1583055853843689,0.271946519613266,-0.9492020010948181,-0.004139438271522522,0.008983075618743896,0.07559055089950562,-0.01674974523484707,-0.008212384767830372,0.04383506253361702,-0.16525655887764026,-0.2754152135294172,2.2225468050141357
1687013418.934622,-0.15692418813705444,0.2733762562274933,-0.9490206837654114,0.03232097625732422,0.0025484859943389893,0.018142998218536377,-0.015252514742314816,0.05417083203792572,-0.006262723356485367,-0.16387104517108672,-0.27690124520531206,2.2228859540408332
1687013418.963093,-0.1594867706298828,0.27486899495124817,-0.9481619000434875,0.012025877833366394,-0.0065583884716033936,0.01842862367630005,-0.027315502986311913,-0.030436065047979355,-0.03774741291999817,-0.16664627959653597,-0.2784534467116911,2.2204998660610884
1687013419.005752,-0.15958043932914734,0.27277737855911255,-0.9487500190734863,-0.00539754331111908,-0.007564336061477661,-0.029445171356201172,0.05393427982926369,0.032304149121046066,-0.005419832654297352,-0.1666408939949251,-0.27627871625266504,2.2200946784309736
1687013419.098707,-0.16068723797798157,0.27553704380989075,-0.9477652311325073,0.0015839040279388428,0.004477024078369141,-0.022922635078430176,-0.057566482573747635,-0.033082179725170135,-0.015107347629964352,-0.16794624178511613,-0.2791483366911874,2.218644252745349
1687013419.14214,-0.16244691610336304,0.2782549262046814,-0.9466705918312073,-0.007368102669715881,0.006886124610900879,0.045288145542144775,-0.05025983601808548,-0.03372639790177345,-0.006527175195515156,-0.16994299829661894,-0.2819767971605236,2.2175402208618302
1687013419.156736,-0.161627396941185,0.2766209840774536,-0.9472895264625549,0.013067871332168579,-0.003152906894683838,0.01804453134536743,0.058665186166763306,0.008538499474525452,0.003665008582174778,-0.16899355477849648,-0.28027608853082925,2.2179596573133096
1687013419.20315,-0.1619918793439865,0.2779381573200226,-0.9468415975570679,0.0002792924642562866,0.0027015209197998047,0.006625533103942871,-0.03732253238558769,-0.01217703241854906,0.004797917790710926,-0.16944601921760455,-0.2816470280142254,2.2176967281474447
1687013419.2763472,-0.16276992857456207,0.2772647440433502,-0.9469056129455566,-0.005839645862579346,-0.003995060920715332,0.0032410621643066406,0.027497144415974617,0.000621187558863312,-0.005955127999186516,-0.17023297609695612,-0.28094607465070115,2.217472348080295
1687013419.317089,-0.16217251121997833,0.27840012311935425,-0.9466749429702759,-0.0008675903081893921,-0.006427407264709473,-0.02480638027191162,-0.04382776841521263,-0.0013820421881973743,0.009141000919044018,-0.16966065053582874,-0.28212796892588515,2.217149700792696
1687013419.395671,-0.1631239503622055,0.28236159682273865,-0.9453372359275818,-0.009986966848373413,0.015123814344406128,-0.012365400791168213,-0.07273571193218231,-0.000872313161380589,0.0037467675283551216,-0.17087364714280714,-0.28625498533866384,2.2167138456621918
1687013419.4121199,-0.16213977336883545,0.2816393971443176,-0.9457219243049622,-0.005477979779243469,-0.011329889297485352,0.016400635242462158,0.02441893145442009,0.02200610376894474,-0.006124505307525396,-0.16979471949710231,-0.2855022261514562,2.2169241261320884
1687013419.457341,-0.1620435267686844,0.2828362286090851,-0.9453811645507812,0.013285636901855469,-0.010268449783325195,-0.01073455810546875,-0.03526730462908745,-0.005285437684506178,0.006485561840236187,-0.16975585040505758,-0.28674979868809736,2.2165903354010483
1687013419.501293,-0.16293615102767944,0.2837335765361786,-0.9449587464332581,-0.0003175884485244751,0.0036352574825286865,0.015439152717590332,0.02049875818192959,-0.01006980612874031,-0.006203068420290947,-0.17074776965974142,-0.2876854581452262,2.2163491092579726
1687013419.564883,-0.16260991990566254,0.2826386094093323,-0.945343017578125,-0.005663946270942688,0.00909423828125,-0.024017333984375,0.00978812389075756,-0.005361470393836498,-0.010955212637782097,-0.17034456153365696,-0.2865437673652276,2.2160636058325855
1687013419.606605,-0.16373208165168762,0.2836546003818512,-0.9448449015617371,-0.021219640970230103,-0.005395293235778809,0.0038811564445495605,-0.015301983803510666,0.003156783292070031,0.0008268775418400764,-0.1715859115724755,-0.287603117776786,2.215817841909998
1687013419.698262,-0.16311199963092804,0.28381046652793884,-0.9449053406715393,-0.014378175139427185,0.010974138975143433,-0.015452325344085693,0.032476458698511124,0.020673193037509918,-0.012454306706786156,-0.17093796873047548,-0.2877656576479231,2.215617627595637
1687013419.716755,-0.16346703469753265,0.2828611433506012,-0.9451286196708679,-9.18656587600708e-05,0.004812866449356079,0.00959700345993042,-0.009569861926138401,0.010187394917011261,-0.011497432366013527,-0.1712631243373108,-0.28677575768898783,2.2155361101617
1687013419.760098,-0.16345429420471191,0.2840433716773987,-0.944776177406311,0.00795203447341919,0.008910149335861206,0.0023476481437683105,0.008239361457526684,0.0006932260585017502,0.010142349638044834,-0.1713126702183259,-0.28800854590500735,2.215196178568899
1687013419.802253,-0.16293585300445557,0.2847418487071991,-0.9446554780006409,-0.0011723637580871582,0.0037866532802581787,0.01402193307876587,-0.03512222692370415,-0.008329297415912151,-0.0005576992407441139,-0.17080123260148175,-0.28873712405334534,2.21539991966511
1687013419.879805,-0.1629306823015213,0.28462353348731995,-0.9446920156478882,0.0074589550495147705,-0.004350095987319946,-0.000361025333404541,0.005393308587372303,-0.006639921106398106,-0.00429464690387249,-0.17078943971750918,-0.2886137013715283,2.2154058675859627
1687013419.9181771,-0.16320227086544037,0.2834976017475128,-0.9449836611747742,-0.00937458872795105,0.00875401496887207,-0.01833420991897583,0.058549538254737854,0.02594425342977047,0.002732369117438793,-0.1710168290081643,-0.2874393999822772,2.2152875447381954
1687013419.989294,-0.15767410397529602,0.27957433462142944,-0.9470887184143066,-0.023371383547782898,-0.019411951303482056,-0.0028319358825683594,0.19534987211227417,0.17669035494327545,0.02048633247613907,-0.16496989241125012,-0.2833507430297893,2.2170710942644214
1687013420.004421,-0.15615533292293549,0.2683575749397278,-0.9505786299705505,-0.0015289336442947388,0.3746325969696045,0.11517518758773804,0.40239763259887695,0.0343562476336956,0.11193369328975677,-0.1628197631885615,-0.2716876541965849,2.2219892555576477
1687013420.0555658,-0.1536446064710617,0.2540782392024994,-0.9549018740653992,-0.04854956269264221,0.18795368075370789,0.02017897367477417,0.3266891539096832,-0.08800534904003143,0.10735971480607986,-0.15953357938353935,-0.2568945388378162,2.226236917278184
1687013420.105804,-0.15503069758415222,0.2431555986404419,-0.9575180411338806,0.026841670274734497,-0.011481359601020813,-0.005372524261474609,0.009867618791759014,-0.11515720933675766,-0.0697128027677536,-0.16051596385231906,-0.24561776353038975,2.229840325533754
1687013420.164531,-0.1587691605091095,0.2406286746263504,-0.9575438499450684,-0.05642548203468323,-0.12896482646465302,0.02385854721069336,0.011346938088536263,-0.011587276123464108,0.009494402445852757,-0.16431385233912207,-0.24301351064885798,2.228505606583492
1687013420.280262,-0.15734140574932098,0.24189764261245728,-0.9574597477912903,-0.02118636667728424,0.036422714591026306,-0.03527700901031494,-0.02474488690495491,0.08452274650335312,0.011111206375062466,-0.16287637602042157,-0.2443210994813531,2.2307767346857887
1687013420.286664,-0.15542419254779816,0.23964662849903107,-0.9583385586738586,0.013136044144630432,-0.04529537260532379,0.03223687410354614,0.07159989327192307,0.04469916597008705,0.01516720186918974,-0.160780986784036,-0.242001856314209,2.2313174127140285
1687013420.302522,-0.15516015887260437,0.238469660282135,-0.9586749076843262,0.015313416719436646,-0.007329493761062622,-0.019779682159423828,0.00040587340481579304,-0.04089749604463577,0.023106884211301804,-0.1604571702522967,-0.24078975026895624,2.2340114986411423
1687013420.351552,-0.1545546054840088,0.2372940331697464,-0.9590643644332886,-0.005922034382820129,0.060374483466148376,0.052539706230163574,0.10140073299407959,0.0770828053355217,-0.019076788797974586,-0.15977775614027617,-0.23957937108080815,2.233983258791381
1687013420.468642,-0.15139445662498474,0.23583029210567474,-0.9599290490150452,0.04314866662025452,-0.027028962969779968,-0.006745755672454834,0.0009138714522123337,-0.0632302314043045,0.025573767721652985,-0.15642574267093043,-0.23807286679535786,2.2342952046827977
1687013420.486837,-0.15205274522304535,0.23662589490413666,-0.9596291780471802,0.009261056780815125,0.03864268958568573,-0.010158419609069824,0.04484337940812111,0.03626466915011406,-0.005226753652095795,-0.15714308725260204,-0.23889165131193008,2.235059799552257
1687013420.554593,-0.15209518373012543,0.23613789677619934,-0.9597426652908325,-0.003468126058578491,0.007514476776123047,0.01641380786895752,-0.01562662236392498,0.017477398738265038,-0.027059081941843033,-0.15716793518506247,-0.23838942237496993,2.234283108543619
1687013420.5696502,-0.14951792359352112,0.23562182486057281,-0.960274338722229,-0.0081053227186203,-0.028926238417625427,-0.054282546043395996,0.010888608172535896,-0.008872982114553452,0.022734306752681732,-0.1544630666570636,-0.23785836282002343,2.2348337932369096
1687013420.611981,-0.1529397964477539,0.23780028522014618,-0.9591978192329407,-0.03274434804916382,0.014809027314186096,0.039428532123565674,-0.018348772078752518,0.000859274179674685,-0.014048208482563496,-0.15811458207296933,-0.24010053686124397,2.2342007785023097
1687013420.666373,-0.14973227679729462,0.23657046258449554,-0.9600076079368591,0.04112027585506439,-0.01183900237083435,-0.029280662536621094,-0.054433673620224,-0.048845965415239334,0.01772676408290863,-0.1547232832761822,-0.23883459903431364,2.234982075415236
1687013420.7131681,-0.1526140421628952,0.23926547169685364,-0.9588853120803833,-0.026035815477371216,0.015556350350379944,0.0370255708694458,-0.0031120292842388153,0.03561912104487419,0.011265137232840061,-0.15783393990212446,-0.2416092864513954,2.234784292375764
1687013420.8066158,-0.14966131746768951,0.24006709456443787,-0.9591503143310547,0.03445751965045929,0.006453946232795715,-0.0066394805908203125,-0.038329072296619415,-0.04878723993897438,-0.012547783553600311,-0.1547871686106054,-0.24243496845345708,2.235117702082693
1687013420.850501,-0.15205053985118866,0.24095362424850464,-0.9585520029067993,-0.01997697353363037,-0.012972012162208557,0.015253722667694092,0.0007737891282886267,0.03611287102103233,0.009311442263424397,-0.15731452992957246,-0.24334830495333698,2.2343632937900364
1687013420.85519,-0.15118658542633057,0.24112474918365479,-0.9586456418037415,0.00044505298137664795,-0.01263958215713501,-0.029544055461883545,-0.06403157860040665,-0.06351065635681152,0.0027603330090641975,-0.15642018173411776,-0.24352463543069552,2.235330001574258
1687013420.918071,-0.1521068811416626,0.24321338534355164,-0.9579722285270691,-0.03232605755329132,-0.01369062066078186,0.006785094738006592,-0.021019257605075836,0.08003851771354675,0.013380485586822033,-0.1574655364012505,-0.24567733821028045,2.23496951597549
1687013420.973784,-0.15064513683319092,0.244334414601326,-0.9579179286956787,0.0077161043882369995,-0.0012618601322174072,-0.008543252944946289,-0.05094173550605774,-0.03885005787014961,0.004194977693259716,-0.15598553380586816,-0.24683325025596106,2.235550525427038
1687013421.0111818,-0.15120457112789154,0.24510012567043304,-0.9576341509819031,-0.0007881671190261841,-0.006254270672798157,0.002876460552215576,0.011360986158251762,0.04598454013466835,0.021262910217046738,-0.15660104502458408,-0.24762296993026758,2.2353896100433044
1687013421.070238,-0.1506919413805008,0.2460516095161438,-0.9574708938598633,0.015010863542556763,0.005291193723678589,-0.006045281887054443,-0.04857545346021652,-0.04850521311163902,-0.01608392968773842,-0.15610489559376814,-0.24860450123578554,2.2355608924719075
1687013421.157568,-0.1591494083404541,0.24834230542182922,-0.9555090665817261,0.05989103019237518,0.06727054715156555,-0.06692135334014893,-0.018423141911625862,-0.3353481590747833,-0.11444804817438126,-0.16504470164531732,-0.25096856638225606,2.231988532279359
1687013421.174711,-0.16930800676345825,0.24321115016937256,-0.9550827741622925,-0.05577433109283447,-0.04300054907798767,0.13293921947479248,0.07337994873523712,0.026499655097723007,-0.13577596843242645,-0.17544785247905853,-0.24567504013992908,2.225784825705317
1687013421.230606,-0.16182030737400055,0.2479916214942932,-0.9551514983177185,0.10453887283802032,-0.07987023890018463,-0.019549429416656494,-0.2893531620502472,0.05487150698900223,0.08256541937589645,-0.16782490995461036,-0.25060655840066326,2.2263701635495714
1687013421.264828,-0.16224367916584015,0.25509288907051086,-0.9532075524330139,-0.0015898793935775757,0.011035710573196411,0.015249788761138916,0.009248632937669754,0.04536282271146774,-0.0002477075904607773,-0.16859244162529957,-0.2579437555678307,2.2264294145466956
1687013421.357555,-0.161008819937706,0.25449585914611816,-0.9535764455795288,-0.005830720067024231,-0.028360575437545776,-0.04410421848297119,-0.009746896103024483,0.014323950745165348,0.051401372998952866,-0.16726963528052624,-0.2573263630454848,2.2262485629291007
1687013421.372532,-0.16069677472114563,0.252081960439682,-0.9542700052261353,-0.01726643741130829,0.032326698303222656,0.022934556007385254,0.1510179489850998,0.02498604916036129,0.015034842304885387,-0.16683234766197755,-0.25483108126546633,2.228967628933073
1687013421.4583812,-0.16063492000102997,0.25175803899765015,-0.9543659090995789,0.0038356631994247437,0.0017209947109222412,-0.004908323287963867,-0.06562913209199905,-0.017400024458765984,-0.010362126864492893,-0.16675285833424183,-0.2544963621884469,2.2285828568191515
1687013421.473044,-0.16238366067409515,0.25418466329574585,-0.9534263014793396,-0.0024112164974212646,0.005977749824523926,-0.0017128586769104004,-0.01424497552216053,-0.020987700670957565,-0.030496954917907715,-0.16869716221792808,-0.2570045692616868,2.227051607521651
1687013421.516059,-0.16181522607803345,0.2544284164905548,-0.9534579515457153,-0.0010723024606704712,-0.036181896924972534,-0.016573786735534668,-0.023674562573432922,0.007469506468623877,-0.02246379852294922,-0.16811224161141414,-0.2572566155288245,2.2258913030434417
1687013421.567882,-0.16251088678836823,0.25499776005744934,-0.9531874656677246,-0.016734063625335693,-0.008827656507492065,0.01437520980834961,-0.007630880922079086,0.01216572429984808,-0.004727411083877087,-0.16886834080553015,-0.25784538480679947,2.2252250891837684
1687013421.6093302,-0.16037610173225403,0.25675901770591736,-0.9530762434005737,-0.0012601912021636963,0.016327589750289917,0.0023926496505737305,-0.0657074972987175,0.04451034963130951,-0.005100786220282316,-0.16671027587416704,-0.25966728558517077,2.2248743589621474
1687013421.662164,-0.16142235696315765,0.25813421607017517,-0.9525279998779297,0.00961272418498993,0.010802000761032104,-0.015474319458007812,-0.0020861132070422173,-0.011123220436275005,-0.01566820964217186,-0.16787238772925409,-0.26109048215601954,2.223564561361328
1687013421.752318,-0.16189421713352203,0.25867989659309387,-0.9522998332977295,-0.010270640254020691,-0.015668392181396484,0.016615629196166992,-0.0002734323497861624,0.005949241109192371,-0.0008423915132880211,-0.16839346938692762,-0.2616553251247735,2.223103345417338
1687013421.7686338,-0.1602649688720703,0.2592944800853729,-0.9524082541465759,0.020494505763053894,0.0008068680763244629,-0.008575022220611572,0.015523373149335384,-0.007413436193019152,-0.019000357016921043,-0.16671156566637071,-0.26229163075076606,2.2227224721647767
1687013421.823053,-0.16188301146030426,0.25968241691589355,-0.9520288705825806,-0.004391968250274658,0.008399277925491333,0.0014673471450805664,-0.06866913288831711,-0.0045297653414309025,3.645196557044983e-05,-0.16842905688659116,-0.2626933282691335,2.221868414932139
1687013421.878088,-0.16047009825706482,0.26233699917793274,-0.9515401721000671,-0.012961253523826599,-0.012672632932662964,-0.0012033581733703613,-0.05796775594353676,0.0351521335542202,-0.013387477956712246,-0.16707047262600866,-0.26544322691608263,2.2213843358707983
1687013421.968783,-0.16067877411842346,0.2621696889400482,-0.9515510201454163,-0.0019493401050567627,0.00102919340133667,0.007337212562561035,0.02289247326552868,0.010408171452581882,-0.011033509857952595,-0.1672818358471278,-0.2652698513824426,2.2208862754197454
1687013421.987949,-0.16058862209320068,0.2631997764110565,-0.9512818455696106,-0.00014740228652954102,0.01258760690689087,0.006640791893005371,-0.04048136994242668,0.004458536393940449,0.0013469932600855827,-0.16723614319233976,-0.2663374397121893,2.2204121042680134
1687013422.0285459,-0.15987750887870789,0.26441511511802673,-0.9510645866394043,0.009258046746253967,0.004460066556930542,0.005843639373779297,-0.0018004223238676786,-0.006257224828004837,0.0035704663023352623,-0.16654657138805612,-0.26759739669611493,2.220455340147406
1687013422.050116,-0.16006185114383698,0.26457080245018005,-0.9509902596473694,-0.00010959804058074951,-0.002577364444732666,-0.006300389766693115,-0.011703386902809143,-0.0036127057392150164,0.005984622053802013,-0.1667478686076369,-0.2677588426482592,2.220368934176053
1687013422.155995,-0.15977399051189423,0.2659345269203186,-0.9506582617759705,-0.003998547792434692,-0.008030414581298828,0.001119077205657959,-0.03744969516992569,0.01813559979200363,-0.0029561426490545273,-0.16651055043581064,-0.26917324152097344,2.2201545138555674
1687013422.173923,-0.15968452394008636,0.26674389839172363,-0.9504464864730835,-0.00565965473651886,0.028620481491088867,-0.013252794742584229,0.02333555743098259,-0.001886444864794612,0.005401388742029667,-0.16645542555426568,-0.2700129423625115,2.219814753777682
1687013422.214803,-0.15968932211399078,0.2667391002178192,-0.9504470229148865,-0.005181849002838135,-0.010620266199111938,-0.00656890869140625,-0.054000843316316605,0.015616515651345253,-0.003972138278186321,-0.1664602388025757,-0.2700079469076414,2.2197375355272704
