Timestamp,gravityX,gravityY,gravityZ,accelerationX,accelerationY,accelerationZ,rotationRateX,rotationRateY,rotationRateZ,attitudeRoll,attitudePitch,attitudeYaw
1687007728.616061,-0.06727486848831177,0.33348238468170166,-0.9403529167175293,-0.0019084885716438293,0.0072769224643707275,-0.011063098907470703,0.011780252680182457,-0.020727377384901047,-0.005780957639217377,-0.07142046493395336,-0.3399949946805335,-1.2878436897023224
1687007728.710484,-0.06751027703285217,0.3340837061405182,-0.9401225447654724,-0.006754249334335327,0.0028914213180541992,-0.008623123168945312,-0.04136699065566063,0.0071463314816355705,-0.0030349716544151306,-0.07168702874570533,-0.3406329189838075,-1.2881183095051445
1687007728.723383,-0.06754600256681442,0.33540546894073486,-0.939649224281311,0.0008498355746269226,0.0009440183639526367,0.0023934245109558105,-0.02334817312657833,-0.0016349093057215214,-0.002026965841650963,-0.07176083792047386,-0.3420355887432165,-1.288304645883925
1687007728.764013,-0.06748760491609573,0.3373696208000183,-0.9389500021934509,-0.0008107349276542664,-0.01836937665939331,0.006958484649658203,-0.08037743717432022,0.011984629556536674,0.003887115977704525,-0.07175222175120483,-0.3441213079171742,-1.2884516111077529
1687007728.8559818,-0.06692211329936981,0.3398130536079407,-0.9381090402603149,0.002987779676914215,-1.5050172805786133e-05,0.010130524635314941,-0.029657669365406036,0.007280687801539898,-0.00922655500471592,-0.07121659808523935,-0.3467181057774199,-1.288531116783183
1687007728.867001,-0.06705937534570694,0.3401719033718109,-0.9379691481590271,-0.0018035471439361572,0.008109956979751587,-0.0047340989112854,0.012867754325270653,0.0012634086888283491,0.0005094287917017937,-0.07137278232737489,-0.34709970998770956,-1.2888902068800472
1687007728.9124641,-0.06709511578083038,0.3399161398410797,-0.9380592703819275,-0.0003945082426071167,-0.001109987497329712,-0.008992671966552734,-0.015689054504036903,-0.003237333381548524,0.0074272556230425835,-0.07140385345948837,-0.3468277393169537,-1.288835425956359
1687007729.038769,-0.0670175701379776,0.34080493450164795,-0.937742292881012,-0.0004567950963973999,0.01765453815460205,-0.011552691459655762,-0.005159715656191111,0.00373615394346416,0.008030728437006474,-0.0713456333625675,-0.3477729546448959,-1.2887297834406743
1687007729.044756,-0.06711195409297943,0.34085342288017273,-0.9377179145812988,0.0003547593951225281,0.0038578808307647705,0.0033612847328186035,-0.008744729682803154,-0.003188065020367503,0.002358728088438511,-0.071447626719495,-0.3478245354367866,-1.2886701128725027
1687007729.125051,-0.06743883341550827,0.3408149480819702,-0.9377084970474243,0.0034434646368026733,-0.016489356756210327,0.011438965797424316,-0.015148766338825226,-0.0055922335013747215,-0.0050637680105865,-0.07179514821782419,-0.3477835990209563,-1.2888309559276796
1687007729.137333,-0.0678892657160759,0.3408550024032593,-0.9376614093780518,0.006457380950450897,-0.005863547325134277,0.013070344924926758,0.027819804847240448,-0.015210905112326145,-0.008857707493007183,-0.07227663327972032,-0.34782621815899784,-1.289157356091411
1687007729.216323,-0.06805067509412766,0.3403068780899048,-0.9378488063812256,0.000728897750377655,-0.0055900514125823975,0.004667043685913086,0.007862409576773643,0.0023282738402485847,-0.004063485190272331,-0.0724334486910173,-0.3472432298949293,-1.289239888795054
1687007729.222392,-0.06828194111585617,0.3407404124736786,-0.9376745223999023,-0.0030681639909744263,0.006763279438018799,-0.004036843776702881,0.0037249226588755846,-0.001184701919555664,-0.0055165053345263,-0.07269219971082333,-0.34770432014804253,-1.2895295388210175
1687007729.302222,-0.06871335953474045,0.3404026925563812,-0.9377657175064087,-0.005886867642402649,0.024190843105316162,-0.01804482936859131,0.0030456166714429855,-0.0024261344224214554,-0.00333377905189991,-0.0731427684695483,-0.3473451254660216,-1.289905295159002
1687007729.305564,-0.06889506429433823,0.34004032611846924,-0.9378837943077087,-0.00015095621347427368,0.0021990537643432617,-0.0005469322204589844,0.014448007568717003,0.002986341016367078,-0.009538943879306316,-0.07332629127905933,-0.34695977405014405,-1.2904449747228897
1687007729.362361,-0.06860833615064621,0.3404851257801056,-0.9377434253692627,-0.0013989806175231934,-0.008072435855865479,0.007048904895782471,-0.03672396391630173,0.011344671249389648,-0.003103948198258877,-0.07303309949898669,-0.34743281458530134,-1.290714100125448
1687007729.46018,-0.06859485805034637,0.33990612626075745,-0.9379544854164124,0.0015629976987838745,-0.005174070596694946,0.007854998111724854,0.038424111902713776,-0.001449819654226303,-0.013099323958158493,-0.07300243813885288,-0.3468170733602552,-1.2909882926402603
1687007729.472005,-0.06875820457935333,0.33773237466812134,-0.9387273788452148,0.0011922866106033325,-0.002954542636871338,0.0015936493873596191,0.04475557804107666,0.00042597786523401737,-0.010007128119468689,-0.07311561890108106,-0.3445066823771585,-1.291431422957053
1687007729.515008,-0.06855340301990509,0.3375622034072876,-0.9388036131858826,-0.011173777282238007,0.015129446983337402,-0.01659494638442993,-0.03722430765628815,0.020875725895166397,0.012188456021249294,-0.07289271329278983,-0.3443258779954824,-1.2915429317250398
1687007729.6031299,-0.06858200579881668,0.3361855149269104,-0.9392954111099243,-0.003439478576183319,-0.0134163498878479,-0.016148924827575684,0.012716020457446575,0.011443475261330605,-0.006240086629986763,-0.07288497818814126,-0.34286372966206025,-1.2917327626114083
1687007729.6090832,-0.06870273500680923,0.33508622646331787,-0.9396792650222778,-0.0012130290269851685,0.009503006935119629,-0.0008113980293273926,0.0508127398788929,-0.013738177716732025,-0.013574165292084217,-0.07298309914810674,-0.3416967494320719,-1.2920595942515867
1687007729.700502,-0.06859375536441803,0.3341539800167084,-0.9400191307067871,0.00328613817691803,0.009367167949676514,0.004960596561431885,0.04461030289530754,0.004085959866642952,-0.004888532217592001,-0.07284148856659312,-0.34070745664502317,-1.2920889430773308
1687007729.78859,-0.06887242943048477,0.3319183588027954,-0.9407905340194702,-0.0019588693976402283,-0.01914370059967041,0.006342291831970215,-0.011155622079968452,0.01316307857632637,-0.004170278087258339,-0.07307661669836951,-0.3383365024923082,-1.2924821103501791
1687007729.794846,-0.069138303399086,0.33126553893089294,-0.9410010576248169,-0.0028679147362709045,-0.007992833852767944,0.01158827543258667,0.030629772692918777,-0.014691988006234169,-0.010622051544487476,-0.07334136007714673,-0.3376445321714785,-1.2928249124143074
1687007729.877821,-0.06916384398937225,0.33101382851600647,-0.9410877823829651,0.006572291254997253,-0.010686039924621582,0.008653700351715088,0.011443628929555416,-0.003381144255399704,-0.008443852886557579,-0.07336162095996847,-0.3373777818920435,-1.2928874662077474
1687007729.8901238,-0.06961801648139954,0.3311966359615326,-0.9409899711608887,-0.013176172971725464,0.029109179973602295,-0.015568256378173828,0.003578315721824765,0.0010592775652185082,0.002607467584311962,-0.07384925598963324,-0.3375714920014836,-1.2933152606997462
1687007729.9673119,-0.06985605508089066,0.3281087279319763,-0.942053496837616,0.0003370121121406555,-0.0030507445335388184,-0.014870941638946533,0.05008123815059662,-0.006615686230361462,-0.01603386178612709,-0.07401749721824828,-0.3343007730781337,-1.2936839899173214
1687007729.972557,-0.07050134986639023,0.326642781496048,-0.9425147771835327,-0.012613274157047272,0.00015473365783691406,-0.00024950504302978516,0.03194204717874527,0.0012510251253843307,-0.005935687106102705,-0.07466227776768714,-0.3327493135708852,-1.294315900986989
1687007730.08637,-0.07048110663890839,0.32693347334861755,-0.9424154758453369,0.0009620562195777893,-0.0013566911220550537,0.025224924087524414,0.018735630437731743,0.006620889995247126,-0.013306251727044582,-0.07464875172955338,-0.33305691204896437,-1.2946890237149609
1687007730.091381,-0.07072322070598602,0.3254404366016388,-0.9429139494895935,0.0013262555003166199,-0.021241217851638794,0.003964424133300781,-0.009149663150310516,0.0017299946630373597,-0.008394051343202591,-0.07486477815422318,-0.3314774785418705,-1.2951731560165616
1687007730.180548,-0.0706070065498352,0.32501736283302307,-0.9430685639381409,-0.004496753215789795,-0.006749540567398071,0.0061484575271606445,0.024954311549663544,0.009380057454109192,-0.011308614164590836,-0.07473001013405682,-0.33103008041447485,-1.2955340478412198
1687007730.1930351,-0.07042230665683746,0.32386258244514465,-0.943479597568512,-0.004238948225975037,0.014836758375167847,-0.003099381923675537,0.07163999229669571,0.007857128977775574,-0.013394935056567192,-0.07450289895577555,-0.329809283299312,-1.2960280312450778
1687007730.26783,-0.07037612795829773,0.3221437931060791,-0.9440712928771973,-0.0002873241901397705,0.009338140487670898,-0.019841670989990234,-0.01258121244609356,-0.010313218459486961,0.0011304784566164017,-0.07440773156461904,-0.3279931424877409,-1.2964177571628368
1687007730.273351,-0.07055899500846863,0.3206852376461029,-0.9445540904998779,-0.003659754991531372,0.004204928874969482,-0.01140904426574707,0.028405766934156418,0.0072804223746061325,-0.00492661539465189,-0.07456237123406578,-0.32645283429090144,-1.2967823917192636
1687007730.388163,-0.07012548297643661,0.3185150921344757,-0.9453203678131104,0.007396593689918518,-0.00647282600402832,0.02156853675842285,0.09054303914308548,-0.004270240664482117,-0.0222784411162138,-0.07404608870128183,-0.3241625685977738,-1.2968812019433924
1687007730.394786,-0.07054102420806885,0.3141207695007324,-0.9467587471008301,-0.003906615078449249,0.016521960496902466,0.004635334014892578,0.14689186215400696,0.0040064649656414986,-0.0318668857216835,-0.0743704980130215,-0.3195303903814989,-1.2977917385809288
1687007730.476587,-0.07082272320985794,0.30423927307128906,-0.9499592781066895,-0.0018091201782226562,0.023702651262283325,0.011742115020751953,0.3187682032585144,0.006846060045063496,-0.03804462030529976,-0.07441575869460959,-0.30913974810948025,-1.2988556043612267
1687007730.488968,-0.07036584615707397,0.2809644639492035,-0.9571350812911987,0.008506715297698975,-0.03700694441795349,0.020291268825531006,0.5259872674942017,0.03390231356024742,-0.05881967395544052,-0.0733851325455878,-0.28479891747879627,-1.2993111230426722
1687007730.568375,-0.07060659676790237,0.2624742388725281,-0.9623523354530334,-0.007594704627990723,-0.0048295557498931885,-0.0015606284141540527,0.3106061518192291,-0.015577489510178566,-0.042711012065410614,-0.07323753646876653,-0.2655854510214803,-1.2997506107718642
1687007730.574288,-0.07094530016183853,0.2510596811771393,-0.9653682112693787,-0.0020680055022239685,-0.013709187507629395,-0.015604078769683838,0.15267784893512726,0.025211885571479797,-0.03553805500268936,-0.07335852864214244,-0.25377484402693473,-1.3007991494338846
1687007730.658321,-0.07126538455486298,0.24636715650558472,-0.9665528535842896,-0.00014575570821762085,-0.010725647211074829,0.0010377764701843262,0.051379527896642685,-0.007773894816637039,-0.03738495707511902,-0.07359831400121589,-0.24893007829182573,-1.3023563872255974
1687007730.670166,-0.07140667736530304,0.24278809130191803,-0.9674476981163025,0.0007737353444099426,-0.004354223608970642,0.00449603796005249,0.09322810918092728,0.019358256831765175,-0.03373482823371887,-0.07367574449397728,-0.24523891084486968,-1.3037546872719978
1687007730.715475,-0.0717010349035263,0.2373802661895752,-0.9687670469284058,0.0023345723748207092,-0.0004875361919403076,-0.007520794868469238,0.10451371967792511,-0.015233941376209259,-0.0359622947871685,-0.07387796630438508,-0.23966814176107054,-1.3054624034448115
1687007730.809393,-0.07259254902601242,0.23276984691619873,-0.9698188304901123,-0.005059428513050079,-0.0008362084627151489,-0.0038750171661376953,0.1101120114326477,0.002447716426104307,-0.03919963538646698,-0.07471233838067105,-0.23492478754638219,-1.3069897364490948
1687007730.8221521,-0.07238319516181946,0.2297237366437912,-0.9705604910850525,-0.001255720853805542,-0.009142637252807617,-0.0029655098915100098,0.04789544641971588,0.010132134892046452,-0.02186032384634018,-0.07444094675998492,-0.23179381314249042,-1.3080926343965287
1687007730.898623,-0.07274527102708817,0.2260071188211441,-0.9714056253433228,-0.00040537118911743164,0.0043243467807769775,-0.010070204734802246,0.08094054460525513,0.005657890811562538,-0.02390430122613907,-0.07474708664979479,-0.2279767749996966,-1.3091807042594859
1687007730.980422,-0.07343744486570358,0.22178758680820465,-0.9723256826400757,-0.005328424274921417,-0.005555257201194763,-0.0015512704849243164,0.06997191905975342,-0.0194245595484972,-0.010420982725918293,-0.07538449704587087,-0.223647334349663,-1.3095963382629567
1687007730.988656,-0.07351606339216232,0.2201084941625595,-0.9727011919021606,0.00503462553024292,-0.010193318128585815,0.01791304349899292,0.03730298951268196,0.002237726468592882,-0.01670231483876705,-0.07543587270569807,-0.22192568379461983,-1.3103454192153712
1687007731.081602,-0.07357530295848846,0.21777570247650146,-0.9732216596603394,-0.003908827900886536,0.0007759630680084229,-0.0022116899490356445,0.05593020096421242,0.0031405379995703697,-0.008462494239211082,-0.0754562036277416,-0.21953489565572035,-1.310843936423487
1687007731.093913,-0.07374416291713715,0.2140759527683258,-0.9740294218063354,-0.001969955861568451,5.067884922027588e-05,-0.0036927461624145508,0.06869532912969589,0.002250110264867544,-0.014133695513010025,-0.07556624296808073,-0.2157457485998542,-1.311287402139053
1687007731.1675081,-0.0737978145480156,0.21307042241096497,-0.9742457866668701,-0.0026181936264038086,-0.005260959267616272,-0.004971683025360107,0.012478400021791458,0.0033521263394504786,-0.006918659899383783,-0.07560427899932469,-0.21471646769982128,-1.3115227679545571
1687007731.1731992,-0.07434193789958954,0.21104982495307922,-0.9746441841125488,0.0025798529386520386,0.003351449966430664,-0.010097026824951172,0.039908356964588165,-0.017371661961078644,-0.006680839695036411,-0.07612856587121937,-0.21264885737561628,-1.311893872050786
1687007731.259522,-0.07445749640464783,0.21180424094200134,-0.9744716882705688,4.0374696254730225e-05,-0.005139186978340149,-0.006622672080993652,-0.05016074702143669,-0.012548010796308517,0.004146774299442768,-0.0762598894688124,-0.2134207246707412,-1.3119275858504005
1687007731.271253,-0.07496470212936401,0.21233652532100677,-0.9743169546127319,0.00045602768659591675,0.007725760340690613,0.0016149282455444336,0.0033373660407960415,-0.012238818220794201,-0.007892844267189503,-0.07678948438147071,-0.21396538697113737,-1.3121394484313256
1687007731.311933,-0.07574300467967987,0.2111109048128128,-0.9745230674743652,-0.0029923543334007263,-0.009786412119865417,0.005162715911865234,0.010411853902041912,-0.010320143774151802,0.0021685780957341194,-0.07756720992788815,-0.21271133533804631,-1.312286941977926
1687007731.406938,-0.07642114907503128,0.21230468153953552,-0.9742107391357422,-0.0027261972427368164,0.004141286015510559,-0.0017871856689453125,-0.0038630221970379353,-0.013608481734991074,-0.0082025695592165,-0.0782838546951256,-0.21393280162637138,-1.312429819842693
1687007731.411384,-0.07741208374500275,0.21139682829380035,-0.9743298888206482,0.0038799867033958435,0.00813138484954834,-0.0020647048950195312,0.03647248074412346,-0.029655225574970245,-0.014411729760468006,-0.07928506540304081,-0.21300386701590607,-1.312585203035064
1687007731.460586,-0.07927939295768738,0.20898911356925964,-0.974699079990387,0.000177823007106781,-0.002766549587249756,-0.025102555751800537,0.0320107564330101,-0.03341640904545784,-0.004645918495953083,-0.08115863903539612,-0.21054113727401752,-1.3128650521005332
1687007731.558189,-0.08009624481201172,0.2095312625169754,-0.9745159149169922,-0.0016298294067382812,-0.011701032519340515,-0.0009937286376953125,-0.029940230771899223,-0.007393862120807171,-0.0003046989440917969,-0.08200647324821392,-0.21109555715993922,-1.3128010454746053
1687007731.5698528,-0.08010691404342651,0.2102757692337036,-0.97435462474823,0.0019056275486946106,0.0017756372690200806,-0.016963064670562744,-0.007834394462406635,-0.009727590717375278,0.009022490121424198,-0.0820308660861544,-0.2118570308391027,-1.3125654370535877
1687007731.67656,-0.0815407931804657,0.21078068017959595,-0.9741265773773193,0.003049589693546295,-0.016963526606559753,0.007085621356964111,-0.08069368451833725,-0.044331107288599014,0.01427104789763689,-0.08351188415613425,-0.21237351352157224,-1.3123431255611815
1687007731.689641,-0.08543974161148071,0.21403253078460693,-0.9730827808380127,0.008626997470855713,0.004686981439590454,0.0017998218536376953,-0.057037826627492905,-0.10865669697523117,-0.014578177593648434,-0.08757855744521113,-0.21570130639367427,-1.3127531530287904
1687007731.766179,-0.0892447978258133,0.22129741311073303,-0.9711142182350159,-0.0051308125257492065,-0.029891133308410645,-0.005768716335296631,-0.2942326068878174,-0.09640975296497345,0.023518342524766922,-0.09164197310065021,-0.22314467040584543,-1.3131583468420587
1687007731.7791991,-0.0929289385676384,0.2354641854763031,-0.9674299955368042,0.0017729327082633972,0.00042144954204559326,0.004569947719573975,-0.2787337899208069,-0.07607544958591461,-0.0012858081609010696,-0.09576371041949738,-0.23769615905074978,-1.3138696287100753
1687007731.823798,-0.09667330235242844,0.2511196434497833,-0.9631164073944092,-0.012549109756946564,-0.0068721771240234375,-0.00610661506652832,-0.3964978754520416,-0.051194872707128525,0.01282175537198782,-0.10004043813390569,-0.25383680189963315,-1.3154814503597896
1687007731.918706,-0.09739118069410324,0.26243606209754944,-0.9600220322608948,0.007593214511871338,0.004760622978210449,0.009048521518707275,-0.14381113648414612,-0.022290252149105072,0.010395881719887257,-0.101100945041385,-0.26554589439652626,-1.3160509969926677
1687007731.925616,-0.09789800643920898,0.2717614769935608,-0.9573723077774048,-0.0028862953186035156,-0.024416476488113403,0.009572625160217285,-0.21036507189273834,0.00030866567976772785,0.025889087468385696,-0.10190279004720158,-0.275222913645677,-1.3159443008628668
1687007732.0120249,-0.09765777736902237,0.2777121067047119,-0.9556877017021179,0.0012222304940223694,0.013334065675735474,0.00836104154586792,-0.08540815114974976,-0.0004251683712936938,0.016917962580919266,-0.10183240755608251,-0.2814117238727254,-1.315829860116565
1687007732.0243778,-0.09754808247089386,0.2819110155105591,-0.9544687271118164,-0.0013136118650436401,-0.005894750356674194,0.0017709732055664062,-0.09416075795888901,0.0024102991446852684,0.029058516025543213,-0.1018478250619664,-0.28578531704055166,-1.3152452269000268
1687007732.06562,-0.09754755347967148,0.2859871983528137,-0.9532553553581238,-0.003206223249435425,0.004082381725311279,0.0020987987518310547,-0.06961739808320999,-0.006805969402194023,0.02109726145863533,-0.10197601818898018,-0.290036500265608,-1.31452614421297
1687007732.159004,-0.0979260727763176,0.28882214426994324,-0.9523614048957825,-0.008229322731494904,0.01913076639175415,-0.01133793592453003,-0.022046953439712524,-0.004990492481738329,0.012213756330311298,-0.1024643831060743,-0.2929963099277858,-1.3140879644185897
1687007732.1701121,-0.09818776696920395,0.2882753908634186,-0.9525001049041748,0.003262847661972046,-0.0001284182071685791,-0.00335615873336792,0.001775355776771903,-0.01169273629784584,0.006412859074771404,-0.10272142858231845,-0.292425268553593,-1.3136973168509953
1687007732.2536612,-0.09852223843336105,0.28953802585601807,-0.9520825147628784,-0.0012397244572639465,-0.0014520585536956787,0.005793452262878418,-0.02035358175635338,-0.0004410143010318279,0.007896238006651402,-0.10311377085972799,-0.29374416265680753,-1.3133831098955389
1687007732.2580562,-0.09847894310951233,0.289992094039917,-0.9519487619400024,-0.00023015588521957397,0.002152681350708008,0.012495696544647217,0.01885540597140789,-0.003844134509563446,0.0034586144611239433,-0.10308314836759583,-0.29421857644023797,-1.312952936544869
1687007732.302217,-0.09894326329231262,0.2889188528060913,-0.9522269368171692,-0.002329319715499878,-0.0001157224178314209,0.0035422444343566895,0.02246791683137417,2.135639078915119e-06,0.0020239688456058502,-0.10353568512930006,-0.29309733147775613,-1.312746407925036
1687007732.378237,-0.09902011603116989,0.2889571487903595,-0.9522073268890381,-0.0038698986172676086,-0.0031905174255371094,-0.004671335220336914,-0.010669795796275139,0.0037159142084419727,-5.169864743947983e-05,-0.10361764888254872,-0.29313732565940304,-1.3125166021893677
1687007732.459476,-0.09906971454620361,0.28907573223114014,-0.9521661400794983,-0.005666613578796387,0.006349682807922363,-0.008908629417419434,0.009657647460699081,0.0012363778660073876,0.0036378437653183937,-0.10367362523552183,-0.29326122293038104,-1.3123825123036574
1687007732.472001,-0.09912946820259094,0.28813332319259644,-0.9524455666542053,-0.0011055096983909607,0.008177101612091064,-0.012566030025482178,0.000794979277998209,-0.002487120684236288,0.004972620867192745,-0.10370550136218902,-0.29227693016354234,-1.3122746357032078
1687007732.510737,-0.09909266233444214,0.28776922821998596,-0.9525594711303711,0.0008870884776115417,-0.004276186227798462,0.004317283630371094,0.016920287162065506,0.0074288928881287575,0.0004068976268172264,-0.10365495955612845,-0.2918967303827301,-1.3120717749484876
1687007732.6081991,-0.09863381832838058,0.28779929876327515,-0.952597975730896,-0.0010213255882263184,-0.009631544351577759,0.002478957176208496,-0.020603785291314125,0.011946945451200008,0.014794091694056988,-0.10317425749001255,-0.29192810334730906,-1.3117581824367361
1687007732.62007,-0.09799603372812271,0.28842389583587646,-0.9524748921394348,-0.0004078969359397888,0.002301812171936035,0.0028594136238098145,0.009065958671271801,0.01378639042377472,0.011964484117925167,-0.10252494083453098,-0.29258038587460944,-1.311207694611281
1687007732.667856,-0.09771472215652466,0.28690698742866516,-0.952961802482605,-0.003863029181957245,0.007877558469772339,0.004826486110687256,0.06151025742292404,0.016275648027658463,0.0017070528119802475,-0.10218081053867548,-0.29099650690257245,-1.3109667615492069
1687007732.753384,-0.09661936014890671,0.2837173640727997,-0.9540278315544128,-0.003615632653236389,0.015888988971710205,0.004366636276245117,0.12110234797000885,0.030982689931988716,-0.00492714811116457,-0.1009310620889697,-0.2876685641694119,-1.3105189892633342
1687007732.7597399,-0.09565644711256027,0.27838996052742004,-0.9556928873062134,-0.002762742340564728,0.005835533142089844,-0.013438582420349121,0.09333676844835281,0.014054038561880589,0.007686913944780827,-0.09975895230952796,-0.2821173876035678,-1.3098597763468898
1687007732.814398,-0.09481346607208252,0.2745261490345001,-0.9568938612937927,-0.009953372180461884,0.025766849517822266,-0.0034943222999572754,0.13832728564739227,0.027203397825360298,0.028393790125846863,-0.09876226027786128,-0.2780968846290441,-1.308792160589712
1687007732.906392,-0.0932646170258522,0.2708587646484375,-0.9580904245376587,-0.0020875558257102966,-0.005935639142990112,0.008505463600158691,0.01815253123641014,0.034534014761447906,0.014304603450000286,-0.09703853919555369,-0.2742850257286262,-1.3074201163309316
1687007732.9126549,-0.0919877216219902,0.2683921754360199,-0.9589076638221741,-0.0125654935836792,0.00809711217880249,0.013061106204986572,0.10087117552757263,0.04499637708067894,0.0030684610828757286,-0.09563705106427227,-0.2717235672343563,-1.3069236906700081
1687007732.9979,-0.08991040289402008,0.25947070121765137,-0.961556613445282,-0.00020801275968551636,0.03725174069404602,0.004449069499969482,0.32586610317230225,0.04747950658202171,0.005668771453201771,-0.0932339631327024,-0.26247408256289595,-1.305960399000014
1687007733.0887198,-0.08826792240142822,0.24637579917907715,-0.9651464819908142,0.0028339698910713196,-0.006629690527915955,-0.006456851959228516,0.20862933993339539,0.04041813686490059,-0.008668090216815472,-0.09120175416971611,-0.24893898741307305,-1.3050647221393876
1687007733.0953,-0.08725064992904663,0.24062398076057434,-0.966688871383667,-0.002760954201221466,-0.008080005645751953,-0.015000522136688232,0.07018956542015076,0.023409325629472733,0.0023075956851243973,-0.09001331597438791,-0.24300866829544965,-1.3049800808806242
1687007733.1770859,-0.08544128388166428,0.23395365476608276,-0.9684861898422241,0.0017925947904586792,0.005761951208114624,-0.005619645118713379,0.16812685132026672,0.030657781288027763,0.006678641773760319,-0.08799366386955758,-0.23614221123872006,-1.304071706709212
1687007733.188617,-0.08521317690610886,0.2282816618680954,-0.9698588252067566,0.003853313624858856,-0.01096595823764801,-0.0007374286651611328,0.07559472322463989,0.012311665341258049,-0.004697583615779877,-0.08763637702030985,-0.23031238293865589,-1.303778155816047
1687007733.2665482,-0.08428127318620682,0.22541485726833344,-0.9706105589866638,0.007056541740894318,-0.012814119458198547,0.006529748439788818,0.04830670356750488,0.0035225683823227882,-0.0028365664184093475,-0.08661599613898675,-0.22736882974942338,-1.3035093366745003
1687007733.277995,-0.08396371454000473,0.22258761525154114,-0.9712902903556824,0.00589974969625473,0.00635528564453125,0.005622565746307373,0.06937870383262634,0.003971044905483723,-0.004057626239955425,-0.08623116633104974,-0.2244678697317757,-1.303455715094539
1687007733.3617182,-0.0839601680636406,0.22024674713611603,-0.9718241095542908,-0.0014432743191719055,-0.0014967173337936401,-0.0037313103675842285,0.04083367437124252,0.00214052083902061,-0.0032264534384012222,-0.08618042107822091,-0.22206742224486337,-1.303576148696443
1687007733.374546,-0.0839703306555748,0.21911384165287018,-0.9720792770385742,-0.004408575594425201,0.0028100162744522095,-0.008831977844238281,0.02759690023958683,-0.0030280088540166616,-0.005371363367885351,-0.08616828666967924,-0.22090614666259353,-1.303589041364061
1687007733.415536,-0.0838918387889862,0.21685639023780823,-0.9725921154022217,-0.001236945390701294,-0.00816190242767334,-0.009112536907196045,0.026210257783532143,-0.004715254530310631,0.0011238204315304756,-0.08604296516134599,-0.21859306992881325,-1.3033889151541205
1687007733.503495,-0.08380886167287827,0.21597860753536224,-0.9727945923805237,-0.0037460699677467346,0.005579039454460144,0.0017252564430236816,0.04300754889845848,0.009288311935961246,-0.005126885138452053,-0.08594047269317315,-0.21769398642964508,-1.3034531905002582
1687007733.5072951,-0.08346859365701675,0.2147156298160553,-0.973103404045105,0.007052570581436157,-0.01180422306060791,0.01105201244354248,-0.010952424257993698,-0.00753847137093544,0.002589890733361244,-0.0855662258362793,-0.2164006545611108,-1.3032415513870432
1687007733.562539,-0.08357138931751251,0.21524269878864288,-0.9729781150817871,-0.0014658421277999878,-0.0007803887128829956,-0.005201816558837891,-0.0017567947506904602,-0.0025016351137310266,0.0030442262068390846,-0.08568206919615047,-0.21694034637279783,-1.3032633723150082
1687007733.657251,-0.08344835042953491,0.21423913538455963,-0.9732101559638977,0.0009745955467224121,0.00269511342048645,0.001072704792022705,0.027150487527251244,0.006969897076487541,-0.002181694842875004,-0.08553624186468894,-0.2159128050093511,-1.303309972445461
1687007733.663137,-0.08336793631315231,0.21491475403308868,-0.9730680584907532,-0.0014709308743476868,-0.006494924426078796,-0.004516780376434326,-0.0441136360168457,0.009738386608660221,-0.0009582387283444405,-0.08546663184917819,-0.21660453886255535,-1.303349750192491
1687007733.712362,-0.08301585912704468,0.215841606259346,-0.9728929996490479,0.00032848119735717773,0.004998877644538879,-0.013007879257202148,0.005309969652444124,0.001517208176665008,0.0035251928493380547,-0.08512267863222438,-0.21755367112850724,-1.303332514171485
1687007733.806778,-0.08345812559127808,0.21446530520915985,-0.9731594920158386,0.002952754497528076,0.008328303694725037,-0.001755058765411377,0.023121722042560577,-0.014613558538258076,-0.00868699885904789,-0.08555064484016953,-0.21614435799362142,-1.3034294272162925
1687007733.8130379,-0.08385633677244186,0.21357020735740662,-0.9733220934867859,-0.000997789204120636,-0.012047350406646729,0.015543162822723389,0.007682513445615768,-0.0014262506738305092,-0.0020807618275284767,-0.08594254618817818,-0.21522802805967778,-1.3034833498219038
1687007733.865032,-0.08343558758497238,0.21426790952682495,-0.9732049107551575,0.004303507506847382,-0.012272030115127563,-0.0021979212760925293,-0.030908355489373207,0.0007065419340506196,0.010362059809267521,-0.08552367707273305,-0.21594226804483124,-1.3031949500909048
1687007733.953289,-0.08386601507663727,0.2145790308713913,-0.9730993509292603,-0.0007134526968002319,0.004460930824279785,0.003372788429260254,0.00054590729996562,-0.0007639225805178285,-0.0019526630640029907,-0.08597199260661965,-0.21626079891857708,-1.3033500387319146
1687007733.959497,-0.08397960662841797,0.21476152539253235,-0.9730492830276489,-0.0028429031372070312,0.0008452087640762329,-0.0004462003707885742,-0.0009063808247447014,0.0033995304256677628,-0.0017667748034000397,-0.08609227110311883,-0.2164476496985663,-1.3033836005561237
1687007734.014246,-0.0838802307844162,0.2158527821302414,-0.9728163480758667,0.0013606995344161987,0.0006389468908309937,-0.0097275972366333,-0.03461321070790291,-0.001474054530262947,0.0027472833171486855,-0.08601138295994044,-0.2175651218025925,-1.303302135989848
1687007734.103786,-0.08419252187013626,0.21622778475284576,-0.9727060794830322,0.001810319721698761,0.0057571083307266235,-0.013118445873260498,-0.016178211197257042,-0.013992909342050552,0.004239185713231564,-0.08633976174346876,-0.2179491846978779,-1.3032369233310637
1687007734.107463,-0.08490198105573654,0.2185867577791214,-0.972117006778717,0.0014669150114059448,-0.011189267039299011,0.005762636661529541,-0.08688826858997345,-0.016548611223697662,0.004798184148967266,-0.08711614756359756,-0.22036597451667428,-1.3032152125184684
1687007734.228558,-0.08609577268362045,0.22405534982681274,-0.9707660675048828,0.012365303933620453,-0.02152542769908905,0.008516311645507812,-0.1515825092792511,-0.046563368290662766,0.004993659444153309,-0.0884570495487522,-0.22597364233845646,-1.3031522988452873
1687007734.240629,-0.08785475045442581,0.23165476322174072,-0.9688227772712708,-0.0007835626602172852,-0.006053537130355835,0.013012290000915527,-0.1961132287979126,-0.0490073524415493,0.016260430216789246,-0.09043461132211301,-0.23377837499589416,-1.3033139846529442
1687007734.3137,-0.08947237581014633,0.23873573541641235,-0.9669539332389832,0.009790979325771332,-0.010784655809402466,-0.01014256477355957,-0.1792425513267517,-0.06845388561487198,0.006297276355326176,-0.09226740118057249,-0.24106373297064074,-1.3032626043481674
1687007734.32366,-0.09315349906682968,0.2508341073989868,-0.9635375738143921,-0.012376278638839722,0.042806029319763184,0.004324376583099365,-0.24779778718948364,-0.07454106956720352,0.020950254052877426,-0.09637910386038327,-0.25354180865067316,-1.3042450543332118
1687007734.403197,-0.09504188597202301,0.26385921239852905,-0.9598673582077026,-0.01831565797328949,0.002147287130355835,-0.022829174995422363,-0.29358553886413574,-0.023422762751579285,0.05134570971131325,-0.09869394969319031,-0.267021026284524,-1.3038013624961273
1687007734.409556,-0.09504798799753189,0.2720222771167755,-0.9575853943824768,0.00035194307565689087,0.025096893310546875,-0.00020879507064819336,-0.06648799031972885,0.0031583812087774277,0.005695401690900326,-0.09893392160305305,-0.2754939348523471,-1.3036394282244494
1687007734.495105,-0.09520898759365082,0.2738485038280487,-0.9570487141609192,0.000772334635257721,0.014985144138336182,0.01133948564529419,-0.01961948163807392,-0.006975878961384296,0.006120442412793636,-0.09915561493633133,-0.2773922424868165,-1.3035847385837227
1687007734.507729,-0.09512291103601456,0.27513933181762695,-0.9566869735717773,0.0011592954397201538,-0.002266407012939453,0.005209982395172119,-0.021538157016038895,-0.0025715429801493883,0.007375325076282024,-0.09910377413632057,-0.2787346121982226,-1.3035281006153938
1687007734.5549278,-0.09549209475517273,0.2767485976219177,-0.9561858773231506,-0.0015690624713897705,-0.003021150827407837,0.00373232364654541,-0.03809143602848053,-0.0019664729479700327,0.009144994430243969,-0.09953767083495783,-0.28040889141470576,-1.303329922663401
1687007734.617858,-0.09532447904348373,0.27809980511665344,-0.9558104872703552,-0.0018282309174537659,0.009955644607543945,-0.0003509521484375,-0.000778349582105875,-0.001488302368670702,3.2456591725349426e-05,-0.09940286777056563,-0.2818153049537527,-1.3030929409482872
1687007734.708578,-0.09543508291244507,0.2785549461841583,-0.9556668996810913,-0.005425512790679932,0.010873794555664062,-0.015966951847076416,-0.013329227454960346,0.0038650508504360914,0.002574443817138672,-0.09953230086045704,-0.28228918290469224,-1.3030901839929072
1687007734.714867,-0.09555140137672424,0.27890118956565857,-0.9555543065071106,0.0014046728610992432,0.00811663269996643,-0.008541762828826904,0.0038791196420788765,-0.0084436796605587,0.001036735251545906,-0.09966447468956917,-0.28264971566590014,-1.3031073689392736
1687007734.761843,-0.09592633694410324,0.278109610080719,-0.9557474255561829,0.003000304102897644,-0.0034513771533966064,0.009000658988952637,0.021160239353775978,-0.011894604191184044,-0.006275240331888199,-0.10003286470054991,-0.28182551138883927,-1.3031809783462478
1687007734.8622699,-0.09653741866350174,0.27811187505722046,-0.9556852579116821,-0.0022174641489982605,-0.0025991499423980713,0.007473587989807129,0.0016894687432795763,-0.012893023900687695,-0.0005723470821976662,-0.10067233474976707,-0.2818278793218912,-1.303209856910711
1687007734.872988,-0.09663771837949753,0.2776917517185211,-0.9557972550392151,0.0007514879107475281,0.0049926042556762695,3.254413604736328e-05,0.027389973402023315,0.00065967021510005,-0.0010479874908924103,-0.10076449094899391,-0.28139052771195444,-1.3032553345294728
1687007734.912644,-0.09688005596399307,0.2766904830932617,-0.9560630917549133,0.00015459954738616943,-0.001254051923751831,0.00129014253616333,0.009882284328341484,-0.0011964199366047978,0.002378435805439949,-0.10098757145484741,-0.2803484054872847,-1.3032359253930765
1687007735.003298,-0.09738580882549286,0.27726033329963684,-0.9558466076850891,-0.004924379289150238,0.007102489471435547,-0.007257640361785889,-0.0011788224801421165,-0.010546112433075905,0.0034141382202506065,-0.10153399174762222,-0.28094146255975433,-1.303192038264707
1687007735.009657,-0.09743942320346832,0.2767338752746582,-0.95599365234375,-0.0031465142965316772,0.016448527574539185,-0.011245667934417725,0.03164263814687729,0.0017142819706350565,0.00010090041905641556,-0.10157398964844921,-0.28039356726736353,-1.303131314273021
1687007735.067216,-0.097368985414505,0.27623888850212097,-0.9561439752578735,-0.00019571930170059204,-0.002938687801361084,0.0005318522453308105,-0.004710906185209751,0.0074231671169400215,0.00022740010172128677,-0.10148521191730527,-0.2798785116948745,-1.303166216888996
1687007735.158042,-0.0972883328795433,0.2756863236427307,-0.9563116431236267,0.0025312528014183044,-0.007452040910720825,0.011411190032958984,0.02784077823162079,0.0022608956787735224,-0.0021457429975271225,-0.10138406775775526,-0.27930362896815625,-1.3032466800727953
1687007735.163878,-0.09719683974981308,0.27247029542922974,-0.9572422504425049,0.0011885389685630798,0.009527415037155151,0.009488344192504883,0.11423179507255554,0.008232900872826576,-0.014843162149190903,-0.10119158223911327,-0.2759595238731161,-1.3033377173480512
1687007735.213515,-0.09691569209098816,0.268126904964447,-0.9584963917732239,-0.005089312791824341,0.005325883626937866,-0.001189887523651123,0.14057743549346924,0.03345903009176254,-0.011263340711593628,-0.10076973112862041,-0.2714482075969802,-1.3035089432817948
1687007735.33897,-0.09641124308109283,0.26160526275634766,-0.9603476524353027,-0.0023283734917640686,0.003623068332672119,-0.0002541542053222656,0.13306887447834015,0.01153841707855463,-0.010810070671141148,-0.1000567840906887,-0.2646849967776533,-1.3036803051792247
1687007735.344582,-0.09611856192350388,0.2588955760002136,-0.9611109495162964,-0.007656469941139221,-0.004485756158828735,-0.011972486972808838,0.0458298996090889,0.01586032845079899,-0.003030977211892605,-0.09967633893047237,-0.2618786049749933,-1.3035009701110698
1687007735.459269,-0.09525817632675171,0.2553502321243286,-0.9621445536613464,-0.004046022891998291,-0.004053205251693726,-0.009382545948028564,0.03934703394770622,0.010918432846665382,0.007675728760659695,-0.09868449216581913,-0.2582099254912467,-1.3031198693405923
1687007735.4653811,-0.09496545046567917,0.2524862289428711,-0.9629290103912354,0.004007808864116669,-0.010817497968673706,0.01621270179748535,0.0831981748342514,0.005437781102955341,-0.014517723582684994,-0.09830356352354687,-0.2552488742740106,-1.3028916159583128
1687007735.545076,-0.09431682527065277,0.2476976066827774,-0.9642355442047119,0.002519957721233368,-0.03264021873474121,-0.0026223063468933105,0.07346944510936737,0.021298902109265327,-0.004772950895130634,-0.09750495171886703,-0.25030308300710025,-1.3026449093045598
1687007735.557654,-0.09262067824602127,0.24217525124549866,-0.965801477432251,-0.007202319800853729,0.01319587230682373,-0.008212745189666748,0.17341382801532745,0.06565877050161362,-0.0058336881920695305,-0.09560794454366703,-0.24460722042735158,-1.3024030360697363
1687007735.561314,-0.09092189371585846,0.234968364238739,-0.9677412509918213,-0.0032553523778915405,0.010637149214744568,0.001249551773071289,0.16401658952236176,0.03519141674041748,-0.019683990627527237,-0.09367770764418795,-0.23718601396184005,-1.3021376469124126
1687007735.601974,-0.08963872492313385,0.22841933369636536,-0.9694274067878723,-0.00270746648311615,-0.0030164867639541626,-0.01183474063873291,0.10698120296001434,0.03400857374072075,-0.0036147423088550568,-0.09220345584008915,-0.2304537830132421,-1.302102958801443
1687007735.702703,-0.08827678859233856,0.22575382888317108,-0.9701764583587646,0.005207940936088562,0.0015563815832138062,-0.014488399028778076,0.023805223405361176,0.008264060132205486,0.009542605839669704,-0.09074057175970532,-0.2277167751044831,-1.3017896466584762
1687007735.71224,-0.08752967417240143,0.22251683473587036,-0.9709916710853577,0.007558360695838928,0.00627349317073822,0.012327730655670166,0.10784626007080078,0.005912089720368385,-0.006633169017732143,-0.08990163257468792,-0.2243952635131431,-1.3013483086661137
1687007735.752291,-0.0870630294084549,0.21999230980873108,-0.9716086983680725,0.001339152455329895,-0.005056977272033691,0.0004935860633850098,0.01770039275288582,0.012752684764564037,0.002376304939389229,-0.08936840836851714,-0.2218065811481769,-1.3014026882522713
1687007735.8152962,-0.08682586252689362,0.21846434473991394,-0.9719746112823486,0.0006747394800186157,0.004817545413970947,-0.0004069805145263672,0.0436217375099659,-0.007428749464452267,-0.0031486889347434044,-0.08909287859445905,-0.2202405312495806,-1.301360494288954
1687007735.905476,-0.087039053440094,0.2173115611076355,-0.9722139239311218,-0.003186166286468506,-0.0032154619693756104,0.004593074321746826,0.016498908400535583,0.0048486897721886635,-0.007727728225290775,-0.08928860745440806,-0.2190593637970606,-1.3016740467708539
1687007735.911463,-0.0868968591094017,0.21637919545173645,-0.9724345803260803,0.002881966531276703,0.0035305172204971313,-0.010521352291107178,0.025398459285497665,-0.00651648361235857,0.00011102017015218735,-0.08912338635819404,-0.21810426739268415,-1.3016707778591525
1687007735.964011,-0.08709099888801575,0.215891495347023,-0.9725255966186523,-0.003332585096359253,-0.004221528768539429,-0.014885902404785156,-0.013600405305624008,0.004115520976483822,0.009195595048367977,-0.08931313275786475,-0.21760475797761547,-1.301484244589512
1687007736.0546951,-0.08710314333438873,0.21588803827762604,-0.9725252389907837,0.001135125756263733,0.00249578058719635,0.002691924571990967,0.011038629338145256,-0.006119539029896259,0.0006878608837723732,-0.08932555244760729,-0.21760122501817636,-1.3011873319173237
1687007736.06021,-0.08738207072019577,0.21561135351657867,-0.9725616574287415,-2.0273029804229736e-05,-0.005986079573631287,0.009823620319366455,0.0044664135202765465,-0.00711835827678442,0.0025784391909837723,-0.08960673485610095,-0.21731785949717955,-1.3009384755016065
1687007736.147867,-0.08703877031803131,0.21528567373752594,-0.9726645350456238,-0.001630045473575592,-0.001143813133239746,-0.0031197071075439453,0.002702934667468071,0.01006315927952528,0.004416019655764103,-0.08924717220064415,-0.216984357201183,-1.3007327921940899
1687007736.1605191,-0.08690301328897476,0.21506237983703613,-0.9727261066436768,-0.001018129289150238,-0.004948809742927551,0.005624055862426758,0.0073606036603450775,0.00897645577788353,0.004259160719811916,-0.08910309980595886,-0.21675569894169755,-1.3005205237409074
1687007736.204581,-0.08649158477783203,0.21648231148719788,-0.9724477529525757,-0.0034132003784179688,0.004556536674499512,-0.004374146461486816,-0.022199951112270355,0.006821426562964916,0.003368598408997059,-0.0887087183556313,-0.21820989710808397,-1.300186086094881
1687007736.297435,-0.08610875904560089,0.21633701026439667,-0.9725140333175659,-0.004467412829399109,0.004472941160202026,-0.013798773288726807,0.0038116085343062878,0.0005178570281714201,-0.0020000673830509186,-0.0883121263533334,-0.218061062833225,-1.3000225168682973
1687007736.309663,-0.08629881590604782,0.2168150544166565,-0.9723907113075256,-0.000920422375202179,-0.0021543949842453003,-0.00606381893157959,-0.029478369280695915,-0.006325268652290106,0.004589923657476902,-0.08851719783798749,-0.21855073223720445,-1.299984679698378
1687007736.351962,-0.08632443845272064,0.21795697510242462,-0.9721331596374512,0.001851782202720642,-0.005340978503227234,0.011455059051513672,-0.017208721488714218,-0.0006526024080812931,0.004969424568116665,-0.08856668415834182,-0.21972063322246835,-1.299823119369955
1687007736.419198,-0.0862402617931366,0.21835917234420776,-0.9720503687858582,0.0003485381603240967,0.00020775198936462402,-0.0011704564094543457,-0.01999512128531933,-0.002269274555146694,0.009505587629973888,-0.08848827028044705,-0.22013275589087608,-1.2996045280852293
1687007736.506463,-0.08658598363399506,0.2195756435394287,-0.9717455506324768,0.003013603389263153,0.001295343041419983,-0.003825068473815918,-0.024848997592926025,-0.012451604008674622,0.009067230857908726,-0.08886885831358164,-0.22137947889612886,-1.2994471492197734
1687007736.512467,-0.08702564239501953,0.22092625498771667,-0.9714000821113586,0.003529556095600128,-0.009591996669769287,0.0034435391426086426,-0.024846067652106285,-0.009954357519745827,0.0008910596370697021,-0.08934932209595574,-0.22276408999038025,-1.29930137270792
1687007736.563966,-0.08764208108186722,0.22253607213497162,-0.9709771275520325,-0.003208748996257782,-0.003740265965461731,-0.01551884412765503,-0.065692238509655,-0.013429383747279644,0.014780511148273945,-0.09001780322979107,-0.22441500703568834,-1.299276316975884
1687007736.658018,-0.08838602155447006,0.2276669442653656,-0.9697193503379822,0.005897007882595062,0.004022538661956787,-0.011924266815185547,-0.14022710919380188,-0.04217834025621414,0.013119763694703579,-0.09089482823476253,-0.2296810358270588,-1.298940016118358
1687007736.66383,-0.09066716581583023,0.23642878234386444,-0.9674093723297119,-0.002686113119125366,-0.0018859058618545532,0.005663156509399414,-0.22786003351211548,-0.04344654083251953,0.014261194504797459,-0.09344863685769797,-0.23868878120065543,-1.2992936439101992
1687007736.7163181,-0.09319435060024261,0.25223323702812195,-0.9631683230400085,0.004525527358055115,-0.03523799777030945,-0.00024110078811645508,-0.5107598304748535,-0.09408002346754074,0.032666031271219254,-0.09645784350006514,-0.2549874321113283,-1.2996307162453387
1687007736.804391,-0.09514525532722473,0.26666611433029175,-0.9590811133384705,0.0014562904834747314,0.04262956976890564,-0.001047670841217041,-0.13817362487316132,-0.03678850084543228,0.013558651320636272,-0.0988810681852968,-0.2699322310284324,-1.3000750198038582
1687007736.811372,-0.09725574404001236,0.2725759744644165,-0.9572061896324158,-0.0017890557646751404,-0.006203263998031616,-0.0043264031410217285,-0.13494393229484558,-0.04002757370471954,0.00536463875323534,-0.10125628193263492,-0.2760693631725528,-1.3003977399464524
1687007736.927043,-0.09869241714477539,0.2794133424758911,-0.9550853371620178,0.0032639503479003906,-0.004877179861068726,0.018500864505767822,-0.12419682741165161,-0.01945878006517887,0.013277688063681126,-0.10296815625167385,-0.28318305742697764,-1.3007936363853436
1687007736.93333,-0.0987742468714714,0.2856639325618744,-0.9532259702682495,-0.002513594925403595,-0.0022471845149993896,-0.003927290439605713,-0.09780716150999069,0.00250910222530365,0.019804563373327255,-0.10325251818693969,-0.2896991493924609,-1.3007159418393144
1687007737.01741,-0.09847918897867203,0.2888046205043793,-0.9523096680641174,0.0002431049942970276,0.016157567501068115,0.00040543079376220703,-0.047884274274110794,0.0007510166615247726,0.014728046022355556,-0.1030446134793812,-0.29297801819316577,-1.3002762405612864
1687007737.0307121,-0.09863314777612686,0.2900409996509552,-0.9519178867340088,-0.0010525211691856384,-0.0019245147705078125,0.010252296924591064,-0.019066743552684784,0.002286595292389393,-0.0006101643666625023,-0.10324674401334412,-0.2942696679348823,-1.3003131750073844
1687007737.105037,-0.09852344542741776,0.2914547026157379,-0.9514973759651184,0.003827407956123352,-0.007946401834487915,-0.0026346445083618164,-0.029085887596011162,0.0035591870546340942,0.0074517568573355675,-0.10317798021918566,-0.2957472102523035,-1.300306234616887
1687007737.110859,-0.098569355905056,0.2919639050960541,-0.9513365030288696,0.00044008344411849976,0.003308922052383423,0.001293778419494629,0.005002707242965698,-0.0021508969366550446,0.002039414830505848,-0.10324305332065693,-0.2962795814336027,-1.3001982673404813
1687007737.163264,-0.09859862923622131,0.29192623496055603,-0.9513450264930725,-0.0015905722975730896,0.007649600505828857,0.0024772286415100098,0.011731583625078201,0.004265723749995232,-0.0015667714178562164,-0.10327258116374852,-0.29624018665087454,-1.3001588108080016
1687007737.254955,-0.09873185306787491,0.29148393869400024,-0.9514668583869934,-0.0074693188071250916,0.0036210715770721436,-0.014979064464569092,0.007941173389554024,-0.001491365022957325,0.0024641891941428185,-0.10339798021793181,-0.2957777633227259,-1.300147870692928
1687007737.259953,-0.09894943982362747,0.2913440763950348,-0.9514870643615723,0.0016441494226455688,0.01140555739402771,-0.003896176815032959,0.0031097321771085262,-0.009219725616276264,-0.004040847532451153,-0.10362203348553664,-0.2956315543239649,-1.300165272481404
1687007737.3427582,-0.09933710098266602,0.2908902168273926,-0.9515855312347412,0.004015445709228516,0.0027346909046173096,0.005784749984741211,0.018361521884799004,-0.0033956582192331553,-0.004212355241179466,-0.10401440086779362,-0.2951571535524594,-1.3002935803487172
1687007737.348038,-0.09937047958374023,0.29096758365631104,-0.9515584111213684,-0.0026192665100097656,-0.0025001466274261475,0.008992493152618408,0.004259685520082712,0.005393572151660919,-0.0001560952514410019,-0.10405205102176254,-0.29523802014072387,-1.3003829814639698
1687007737.4052072,-0.09923712909221649,0.29120397567749023,-0.9514999985694885,-0.0025389939546585083,0.0021615326404571533,-0.007789552211761475,-0.01612328365445137,-0.001039160299114883,0.005232811905443668,-0.103919752728125,-0.2954851062278432,-1.3003252304507151
1687007737.496273,-0.09930387139320374,0.2916054129600525,-0.9513700604438782,-0.0009768903255462646,0.0071159303188323975,0.0035551786422729492,0.02077401429414749,0.006034461781382561,-0.0047202203422784805,-0.10400323610237261,-0.29590476228101714,-1.3003446489092967
1687007737.675169,-0.09932174533605576,0.2908058166503906,-0.9516129493713379,-0.004834748804569244,0.0006676018238067627,-0.0036177635192871094,0.0054374015890061855,0.007608124054968357,-0.003735383041203022,-0.10399546553926335,-0.29506894271198353,-1.3004368220503573
1687007737.681673,-0.0993443951010704,0.2908080518245697,-0.9516098499298096,-0.002752155065536499,0.008386284112930298,-0.019001662731170654,-0.0157178845256567,-0.009363269433379173,0.0017802892252802849,-0.1040193461597399,-0.29507128718330333,-1.3005297992286367
1687007737.6866941,-0.09928646683692932,0.290800005197525,-0.9516183733940125,0.0024541914463043213,0.0014363527297973633,0.0065195560455322266,0.011694232001900673,0.004453343339264393,-0.005646467674523592,-0.10395819943926059,-0.2950628596984917,-1.3005770314075327
1687007737.73683,-0.09933695197105408,0.2904302775859833,-0.9517260193824768,-4.353374242782593e-05,-7.078051567077637e-05,0.008763432502746582,0.010235220193862915,-0.0003773646312765777,-0.0010503847151994705,-0.10399900106068614,-0.2946764662628161,-1.3006110756098788
1687007737.746673,-0.0993049368262291,0.29057762026786804,-0.9516844153404236,0.0035713016986846924,-0.008137404918670654,0.004968106746673584,-0.023599110543727875,-0.006342180073261261,0.010276838205754757,-0.10397024321219721,-0.29483043512617896,-1.3005378526019626
1687007737.750479,-0.09947894513607025,0.29183337092399597,-0.9512819051742554,-0.00031353533267974854,0.0009522736072540283,-0.0003172159194946289,-0.017036084085702896,-9.160750778391957e-05,0.005200055427849293,-0.10419486142983214,-0.2961431027251762,-1.3002075877593193
1687007737.790804,-0.09958730638027191,0.29210200905799866,-0.9511880874633789,0.0010918229818344116,0.0033386647701263428,0.007081031799316406,0.004746444523334503,-0.00021144974743947387,5.296338349580765e-05,-0.10431775073730759,-0.29642397345868493,-1.3001092191498684
1687007737.850914,-0.09971669316291809,0.29237163066864014,-0.9510917067527771,-0.004363499581813812,0.007402539253234863,-0.0159645676612854,-0.013292277231812477,-0.006255360320210457,0.004794455133378506,-0.10446280991910394,-0.2967059074685722,-1.3000238645321762
1687007737.947701,-0.09995658695697784,0.2920171618461609,-0.9511753916740417,0.001247495412826538,0.006475269794464111,-0.0054132938385009766,0.014926577918231487,-0.004202595911920071,-0.0042270030826330185,-0.10470314502491702,-0.2963352378629663,-1.2999894549255653
1687007737.9601278,-0.1001686230301857,0.29182368516921997,-0.951212465763092,0.00022355467081069946,-0.0002282261848449707,0.005014955997467041,-0.0027667987160384655,-0.001562604564242065,0.0039283959195017815,-0.10491956194031192,-0.2961329763275194,-1.2999602267099777
1687007738.0686479,-0.09999613463878632,0.29269471764564514,-0.9509629607200623,0.0013022944331169128,-0.005615860223770142,0.007863044738769531,-0.020431945100426674,0.005680661182850599,0.008195844478905201,-0.10476749019510605,-0.29704376644064806,-1.2996692290371752
1687007738.0811172,-0.09985192120075226,0.2928747236728668,-0.9509226679801941,-0.0007340162992477417,-0.004758268594741821,0.0018718242645263672,-0.0013001961633563042,0.005564813502132893,0.002612261101603508,-0.10462189823551324,-0.2972320295401077,-1.299587944397552
1687007738.1562428,-0.09994272887706757,0.29269182682037354,-0.9509694576263428,-0.0010399296879768372,0.007021307945251465,-0.0006753802299499512,0.018623843789100647,-0.0005471411859616637,-0.0012573124840855598,-0.10471123554646253,-0.2970407378591613,-1.2995808004325486
1687007738.1613631,-0.0996527299284935,0.2933914065361023,-0.9507843255996704,-0.0007958784699440002,0.0013016164302825928,-0.01033627986907959,-0.032659515738487244,0.0023550386540591717,0.009437144733965397,-0.10442978984481552,-0.2977724337228339,-1.2994380215628345
1687007738.2475982,-0.09947798401117325,0.29435011744499207,-0.9505062699317932,-0.0008943304419517517,0.011512339115142822,-0.007471024990081787,-0.008433871902525425,-0.0006392865907400846,0.0070959581062197685,-0.10427826944079668,-0.2987754290525305,-1.2992766064138217
1687007738.2592301,-0.09928568452596664,0.293921560049057,-0.9506589770317078,0.0003324374556541443,-0.003424704074859619,0.005285441875457764,0.006619112566113472,0.0038984736893326044,-0.0015633096918463707,-0.10406155147732155,-0.29832704160227236,-1.2992519760032997
1687007738.303422,-0.09904290735721588,0.29450467228889465,-0.9505038261413574,0.0007305294275283813,-0.007975101470947266,0.011630535125732422,-0.017338750883936882,0.0018762022955343127,0.004843457601964474,-0.10382574419216711,-0.2989371478175235,-1.299146131880138
1687007738.367861,-0.09882326424121857,0.295093834400177,-0.950343906879425,-0.0008471459150314331,0.0012929141521453857,-0.0028878450393676758,-0.019527137279510498,0.0027626354712992907,0.010404136963188648,-0.10361444328702381,-0.299553731071498,-1.2988387264151133
1687007738.457241,-0.09889651834964752,0.29578056931495667,-0.9501227736473083,8.059293031692505e-05,0.0035053491592407227,0.006137847900390625,0.01229817047715187,-0.00028268934693187475,0.001534479670226574,-0.10371465610391906,-0.3002725370531961,-1.2987175669043483
1687007738.46308,-0.0988030657172203,0.2961023449897766,-0.9500322937965393,-0.003934353590011597,0.0023901164531707764,-0.004023492336273193,-0.012590933591127396,0.002614829922094941,0.0021462077274918556,-0.10362715830019978,-0.30060941478680264,-1.2983572328059405
1687007738.545743,-0.09873821586370468,0.2967095673084259,-0.949849545955658,-0.0014662444591522217,0.008649319410324097,-0.014109194278717041,-0.0052221002988517284,-0.006328331306576729,0.007796903140842915,-0.10357940850785556,-0.30124521777358343,-1.2980588984943704
1687007738.558382,-0.09881126880645752,0.2972120940685272,-0.9496848583221436,0.0020705461502075195,0.000319063663482666,0.0021903514862060547,-0.019374605268239975,-0.0027249411214143038,0.008103965781629086,-0.10367334299794191,-0.3017714664154117,-1.2977528224948047
1687007738.60444,-0.09859917312860489,0.297689825296402,-0.9495572447776794,-0.0015747696161270142,-0.0005706548690795898,0.007815301418304443,0.005570626351982355,0.005646039731800556,0.006472778506577015,-0.1034662006836895,-0.30227185175536053,-1.297566990911003
1687007738.6958408,-0.098518967628479,0.297602117061615,-0.9495930671691895,0.002586968243122101,-0.0015968382358551025,0.004677295684814453,0.000876938458532095,-0.004632962867617607,0.001793338917195797,-0.10337876308555768,-0.3021799842293792,-1.2973551603565832
1687007738.709522,-0.0984753668308258,0.2981250584125519,-0.9494335055351257,-0.0016680657863616943,0.00747796893119812,0.0013744831085205078,-0.0036497698165476322,0.005965619347989559,-0.00062534399330616,-0.10335057455808823,-0.30272779414637135,-1.2972916667033794
1687007738.753052,-0.09824640303850174,0.29819297790527344,-0.9494359493255615,-0.0031024813652038574,0.0015048980712890625,-0.0059473514556884766,-0.007148630451411009,0.007568842265754938,0.006484230048954487,-0.10311171526917394,-0.3027989577454018,-1.2970469208219826
