Timestamp,gravityX,gravityY,gravityZ,accelerationX,accelerationY,accelerationZ,rotationRateX,rotationRateY,rotationRateZ,attitudeRoll,attitudePitch,attitudeYaw
1687015328.933137,-0.989448606967926,0.14010894298553467,0.03689303994178772,-0.00603485107421875,-0.009768456220626831,-0.006085630506277084,-0.037422265857458115,0.026139996945858,-0.04183190315961838,-1.6080655266715729,-0.14057144211962272,-2.0735314173806123
1687015328.938297,-0.9897659420967102,0.13798187673091888,0.036389488726854324,-0.012446463108062744,0.00035421550273895264,-0.009396795183420181,-0.06665864586830139,0.04300566390156746,-0.048739343881607056,-1.6075455264638994,-0.13842351017078344,-2.0773253448021514
1687015328.9821339,-0.9902490377426147,0.1351490467786789,0.033786382526159286,0.0011133551597595215,-0.015199825167655945,-0.005359292030334473,-0.07326502352952957,0.04547414928674698,-0.03949950635433197,-1.604902173186834,-0.13556388913172016,-2.0796757360720077
1687015329.073633,-0.9906205534934998,0.13288690149784088,0.03181243687868118,-0.0012007355690002441,0.0029009580612182617,0.007005810737609863,-0.12094372510910034,0.042006708681583405,-0.04178076982498169,-1.6028989396857103,-0.13328114663496568,-2.085165737865676
1687015329.092685,-0.9910655617713928,0.12968537211418152,0.031150512397289276,-0.0009691715240478516,0.01263323426246643,0.004722829908132553,-0.06459223479032516,0.015544609166681767,-0.0512312650680542,-1.602217316079245,-0.1300516717972914,-2.0902417736991175
1687015329.132446,-0.9913750290870667,0.12722909450531006,0.031437940895557404,-0.0002784132957458496,0.021986529231071472,0.001551508903503418,0.024842705577611923,0.013522738590836525,-0.05901355296373367,-1.6024971553884417,-0.12757486335225574,-2.091114614731539
1687015329.2288451,-0.9915040731430054,0.12628622353076935,0.03116697445511818,-0.010769426822662354,0.0238448828458786,-0.006997108459472656,0.011533093638718128,0.0107273506000638,-0.029545675963163376,-1.6022200160280637,-0.12662433628040476,-2.0902738212318237
1687015329.243541,-0.9913519024848938,0.12759636342525482,0.03066917695105076,-0.008754909038543701,0.01754513382911682,-0.005629539489746094,0.008813006803393364,0.012569592334330082,0.0006841327995061874,-1.601723184027238,-0.1279451471154381,-2.089879778355126
1687015329.2801728,-0.9911473393440247,0.129601389169693,0.028816482052206993,0.009946227073669434,-0.00327397882938385,-0.009209036827087402,0.051831912249326706,0.014589467085897923,0.012686465866863728,-1.599862001646573,-0.12996696736259386,-2.0879465372495862
1687015329.3754802,-0.9910616278648376,0.1306222379207611,0.02710144780576229,-0.004146993160247803,-0.01740214228630066,0.004941938444972038,-0.03385516256093979,0.035281695425510406,-0.01464342512190342,-1.5981353884711653,-0.13099656560392528,-2.087317687208575
1687015329.3946729,-0.9911919832229614,0.12989862263202667,0.025788983330130577,0.002880096435546875,-0.0004736483097076416,0.0059950388967990875,-0.025565072894096375,0.006520222406834364,-0.00842094887048006,-1.596808609920707,-0.13026673050924867,-2.0897227568197625
1687015329.431968,-0.9914541244506836,0.1278104931116104,0.026135051622986794,-0.002289712429046631,-0.0012389421463012695,-0.009823443368077278,-0.03583735227584839,0.010104171931743622,-0.04242765158414841,-1.5971505482541881,-0.12816104830850444,-2.091500901895186
1687015329.523209,-0.9919391870498657,0.1241157278418541,0.025535089895129204,0.004130959510803223,-0.020966388285160065,-0.011497139930725098,-0.14188648760318756,0.044332582503557205,-0.09757212549448013,-1.596533238634867,-0.12443661662256174,-2.0965327523514894
1687015329.5397859,-0.9926567077636719,0.118628591299057,0.02366284839808941,-0.0102272629737854,-0.0007239952683448792,-0.015163775533437729,-0.13034527003765106,0.0570174865424633,-0.09649061411619186,-1.5946297100842501,-0.11890860597256087,-2.1037400718169907
1687015329.5855289,-0.9934505820274353,0.11221370846033096,0.02153893932700157,-0.017825603485107422,-0.028977110981941223,-0.003152132034301758,-0.21482586860656738,0.04993494227528572,-0.09989067167043686,-1.5924738665345368,-0.11245055243867873,-2.110597952250961
1687015329.675928,-0.9939469695091248,0.10817932337522507,0.019154759123921394,-0.0066024065017700195,0.00938957929611206,-0.0017750244587659836,-0.12607869505882263,0.04901135712862015,-0.08259477466344833,-1.590065350609163,-0.10839144183288724,-2.1210419447049813
1687015329.692442,-0.9947312474250793,0.1009993776679039,0.01757543534040451,-0.011723220348358154,-0.008836381137371063,-0.017789125442504883,-0.01043126080185175,0.022488802671432495,-0.12649884819984436,-1.5884630149261996,-0.10117188590413287,-2.1229456184889295
1687015329.798528,-0.9952266812324524,0.09628915786743164,0.01587616465985775,-0.012051641941070557,-0.0257020965218544,-0.024222852662205696,-0.109491266310215,0.0737575814127922,-0.11089672148227692,-1.5867472838224277,-0.09643857633442147,-2.1256523685966084
1687015329.802452,-0.9959383010864258,0.089273601770401,0.011704660952091217,-0.017641961574554443,-0.014261476695537567,-0.007508635520935059,-0.04104636237025261,0.08753318339586258,-0.1828521341085434,-1.5825481813157314,-0.08939260986758628,-2.1306522359947286
1687015329.891268,-0.9970908761024475,0.07611103355884552,0.004072288982570171,-0.015466928482055664,-0.04022245854139328,-0.013288736343383789,0.028382912278175354,0.1564217060804367,-0.30124402046203613,-1.574880474461408,-0.07618471315325903,-2.12974444860077
1687015329.90904,-0.9981107711791992,0.061378490179777145,-0.002713777357712388,0.00865471363067627,-0.02129373326897621,-0.002123355632647872,0.09978771954774857,0.1387162059545517,-0.28596919775009155,-1.5680774194956266,-0.06141709498418827,-2.125569247683464
1687015329.974992,-0.9988739490509033,0.046644289046525955,-0.008670903742313385,0.0009797215461730957,-0.012861430644989014,0.016223907470703125,0.009371005930006504,0.14097537100315094,-0.29384762048721313,-1.5621158665553347,-0.04666121973541711,-2.1237909346326767
1687015329.9910111,-0.9993686079978943,0.03245032578706741,-0.014467625878751278,-0.004110395908355713,-0.0031840652227401733,0.02394324541091919,-0.05190986394882202,0.08689574897289276,-0.266357421875,-1.5563205711980248,-0.032456025365437874,-2.1221975738103103
1687015330.033356,-0.9996018409729004,0.02138591557741165,-0.018410533666610718,0.010786473751068115,0.042288921773433685,0.039528608322143555,-0.2148457169532776,0.06069757416844368,-0.19318173825740814,-1.5523805420582784,-0.021387546774582475,-2.1328585741017476
1687015330.128141,-0.9996886849403381,0.012565091252326965,-0.021552981808781624,0.00208437442779541,0.025413937866687775,0.0331648588180542,-0.16158044338226318,0.04093598574399948,-0.18113254010677338,-1.549239972349102,-0.012565422346359642,-2.142223963547534
1687015330.1441379,-0.9997509121894836,0.0044923629611730576,-0.021859779953956604,0.018763422966003418,0.04221469908952713,0.013207972049713135,-0.03696879744529724,-0.040848489850759506,-0.14172972738742828,-1.5489345835304433,-0.004492378000023493,-2.1477381262776127
1687015330.1896381,-0.9998472929000854,0.0037817233242094517,-0.017054734751582146,0.0048675537109375,0.03872917592525482,-0.005970833823084831,0.006088859401643276,-0.012218045070767403,-0.09270866215229034,-1.5537406423764746,-0.0037817324210095943,-2.1462481520899885
1687015330.275451,-0.9998824000358582,0.004894535057246685,-0.014532241970300674,-0.02047276496887207,0.009204497560858727,-0.012811601161956787,-0.5192022919654846,0.01990167424082756,-0.055411629378795624,-1.5562633990957955,-0.004894554799207567,-2.1551791698121696
1687015330.291985,-0.9998524188995361,0.005864796694368124,-0.01615026965737343,-0.03811144828796387,-0.056752949953079224,0.03856533765792847,-1.5005697011947632,0.112113356590271,-0.025742948055267334,-1.5546450782814663,-0.005864830239987086,-2.2052410912053113
1687015330.336133,-0.9995008111000061,0.005391829181462526,-0.03112352266907692,0.01588892936706543,-0.06725103408098221,0.026896778494119644,-1.6841615438461304,0.4559420943260193,-0.00922469049692154,-1.5396673197322002,-0.005391855502484363,-2.288621588951716
1687015330.397626,-0.9988245964050293,0.005276466254144907,-0.048179857432842255,0.06918305158615112,0.05208123102784157,-0.1056593582034111,-0.5766175389289856,-0.013650160282850266,-0.1551741659641266,-1.5225971312911413,-0.00527649075634862,-2.3343847470533197
1687015330.4927158,-0.9986760020256042,0.0012510300148278475,-0.05142807960510254,-0.06379354000091553,-0.34062182903289795,-0.008371241390705109,-3.0805201530456543,0.28005602955818176,-0.014681507833302021,-1.51934551388406,-0.0012510303645799678,-2.410394276094457
1687015330.5092669,-0.9973902106285095,0.019245103001594543,-0.06958751380443573,0.012633740901947021,0.14400862157344818,-0.04644042253494263,-4.213040828704834,0.2806013226509094,0.061152804642915726,-1.50113960543029,-0.01924629145652231,-2.6209230904471585
1687015330.5709782,-0.9960789680480957,0.04741367697715759,-0.07469101995229721,-0.009597301483154297,0.294718861579895,0.01475435495376587,-2.7992377281188965,0.17169958353042603,0.266708105802536,-1.4959513521188696,-0.04743146123323861,-2.7975368290257125
1687015330.585717,-0.9946552515029907,0.06995511800050735,-0.07594150304794312,0.006923377513885498,-0.05175141245126724,0.11054831743240356,-3.0080554485321045,0.257325142621994,0.292040079832077,-1.4945945921848556,-0.07001229710704686,-2.9362061588149184
1687015330.631587,-0.9924736618995667,0.09542383998632431,-0.07674841582775116,0.021862149238586426,0.0848282054066658,-0.011371254920959473,-2.0417094230651855,0.1911904662847519,0.2820183336734772,-1.4936194945206045,-0.09556925322300588,-3.0649446806908034
1687015330.7194018,-0.9906134605407715,0.11025003343820572,-0.08080677688121796,-0.011858344078063965,-0.016896791756153107,-0.012302450835704803,-1.018174648284912,0.2934313714504242,0.12281882762908936,-1.4894040767876504,-0.11047461656683724,-3.1351869364486564
1687015330.722633,-0.9891061782836914,0.11861338466405869,-0.08717826008796692,0.006989419460296631,-0.08501353114843369,0.0030563995242118835,-1.0864689350128174,0.2127603441476822,0.06441757082939148,-1.4828850721586029,-0.11889329297900673,3.0956563340466525
1687015330.786223,-0.988154411315918,0.12217641621828079,-0.0928654745221138,-0.019825994968414307,0.028931371867656708,-0.019469864666461945,-0.2633151113986969,0.21048946678638458,-0.0702960342168808,-1.4770928352404047,-0.12248243412313056,3.0588444686931626
1687015330.8764858,-0.9877763986587524,0.12027066200971603,-0.09915909171104431,0.018858671188354492,-0.04654020816087723,-0.02597837895154953,-0.3672511577606201,0.11495029926300049,-0.07493899017572403,-1.4707453429201491,-0.12056251745490738,3.042038678437251
1687015330.892336,-0.9877870082855225,0.1177813708782196,-0.10200241953134537,-0.016637980937957764,0.0264294296503067,-0.019961237907409668,-0.12170985341072083,0.0885184183716774,-0.10263320058584213,-1.4678974634557986,-0.11805540813481342,3.0251472915619306
1687015330.935399,-0.9880252480506897,0.11171380430459976,-0.10642460733652115,0.006778359413146973,-0.04214899241924286,0.0016881227493286133,-0.06452672183513641,0.056363947689533234,-0.1157711073756218,-1.4634955686571498,-0.11194748040025498,3.0284775130397703
1687015331.059773,-0.9880805611610413,0.10890062898397446,-0.10879944264888763,0.011350274085998535,0.08162060379981995,-0.025493323802947998,-0.01401401124894619,0.10419537872076035,-0.09331772476434708,-1.461126229566189,-0.10911703565635571,3.0158391429837565
1687015331.0784612,-0.9880411028862,0.10341037809848785,-0.11437300592660904,-0.0022085905075073242,0.04270779341459274,-0.03336276113986969,0.08524540066719055,0.1216093972325325,-0.06323066353797913,-1.4555519085799669,-0.1035955798810138,3.0179575730037356
1687015331.147049,-0.9872392416000366,0.10239395499229431,-0.12195885181427002,-0.009052753448486328,-0.010368213057518005,-0.025044433772563934,-0.13869328796863556,0.16389372944831848,-0.08039020746946335,-1.4478838028521595,-0.10257372808709049,3.014940263209083
1687015331.150959,-0.9863492250442505,0.10151583701372147,-0.12965095043182373,-0.01642763614654541,0.04039087891578674,-0.016604632139205933,0.032836850732564926,0.1478579193353653,-0.04102629795670509,-1.4401003199059925,-0.10169101339031857,3.0078311532969475
1687015331.229629,-0.9855868816375732,0.09738578647375107,-0.13832774758338928,-0.0036708712577819824,-0.025898367166519165,-0.017754554748535156,-0.0025556283071637154,0.1699080914258957,-0.08240196108818054,-1.4313565073979972,-0.09754038296636067,3.0100822589510714
1687015331.243153,-0.9845579862594604,0.09549490362405777,-0.14671769738197327,0.0193634033203125,-0.0038658902049064636,-0.010753139853477478,0.3723292350769043,0.15213482081890106,-0.1261659562587738,-1.4228660825362733,-0.09564064635699171,3.017793297475922
1687015331.318068,-0.984147846698761,0.08531484752893448,-0.15548130869865417,0.005861163139343262,-0.017153844237327576,0.017724812030792236,0.3986407518386841,0.13794229924678802,-0.11806754767894745,-1.4141056832700811,-0.08541868366399143,3.038955451583822
1687015331.3216162,-0.983600914478302,0.07885283976793289,-0.1622084677219391,0.013736963272094727,0.030094914138317108,0.015632376074790955,0.23120953142642975,0.0787317082285881,-0.0799662321805954,-1.4073545129942848,-0.0789347815521197,3.048263734850131
1687015331.382069,-0.9834200739860535,0.07252605259418488,-0.166207417845726,-0.021706819534301758,-0.04718121141195297,0.015954017639160156,0.011097999289631844,0.06285592913627625,-0.07767804712057114,-1.40336892086974,-0.07258978628595866,3.059932340914642
1687015331.474853,-0.9832364320755005,0.07062312215566635,-0.16810280084609985,-0.014032185077667236,-0.015340536832809448,0.016338765621185303,-0.026472613215446472,0.017658226191997528,-0.061189889907836914,-1.4014646781063826,-0.07068195967263213,3.0585294335502295
1687015331.4933019,-0.9836030006408691,0.06694924831390381,-0.1674603372812271,0.010595858097076416,0.020331017673015594,-0.0015461444854736328,0.14886945486068726,-0.007010233588516712,-0.055414024740457535,-1.4021613046112151,-0.06699936065792084,3.060481627403626
1687015331.538508,-0.9837074875831604,0.06429485231637955,-0.16788670420646667,0.006443023681640625,0.014150574803352356,-0.0029356032609939575,0.17566804587841034,0.013656162656843662,-0.03053983300924301,-1.4017576791473392,-0.06433923561289456,3.067107519523489
1687015331.6260052,-0.9837327003479004,0.0625685602426529,-0.1683892160654068,0.014219880104064941,0.06812295317649841,0.01696087419986725,0.7128059267997742,-0.06372784078121185,0.06658964604139328,-1.401265615438555,-0.06260945491837197,3.091577311670553
1687015331.639207,-0.9845712184906006,0.05894450098276138,-0.16475728154182434,0.009214222431182861,0.027710143476724625,0.1694720983505249,1.08187735080719,-0.2059788554906845,0.10297881811857224,-1.4049934361333078,-0.05897868937464348,-3.137851303355258
1687015331.683155,-0.9857059121131897,0.06430099904537201,-0.15572123229503632,0.04664963483810425,0.1786341518163681,0.14883942902088165,0.6897741556167603,-0.30194321274757385,0.3021574318408966,-1.414111840579272,-0.06434539108105529,-3.109199735993088
1687015331.7747788,-0.9877175688743591,0.07146274298429489,-0.13894954323768616,0.060151100158691406,0.3585146367549896,0.18211650848388672,3.062140941619873,-0.6683095097541809,0.6332167983055115,-1.4310360666794035,-0.0715237071387518,-3.0130747919136978
1687015331.791713,-0.9893934726715088,0.10308887809515,-0.10233905166387558,-0.062135398387908936,0.06965583562850952,0.17820560932159424,1.4400486946105957,-1.0998423099517822,1.2414751052856445,-1.4677267148166213,-0.10327235236542447,-2.879004513047025
1687015331.837029,-0.9848173260688782,0.16457195580005646,-0.05523444339632988,-0.05805981159210205,0.25420546531677246,0.11114251613616943,1.3150795698165894,-1.093030333518982,1.3975269794464111,-1.514769048843854,-0.16532403515906458,-2.8186705087151145
1687015331.926107,-0.971338152885437,0.23731860518455505,-0.013492471538484097,-0.1268826127052307,0.07684455811977386,0.10756278038024902,1.5174049139022827,-1.2822978496551514,1.7514715194702148,-1.556906618437208,-0.23960466113051943,-2.7350511702440277
1687015331.939754,-0.9414132833480835,0.3350995182991028,0.038067348301410675,-0.19846391677856445,0.023832887411117554,0.05931412801146507,0.7802332043647766,-1.5387674570083618,2.2813403606414795,-1.6112106939033113,-0.3417108440885341,-2.675081157260665
1687015331.984754,-0.8881123065948486,0.4485473334789276,0.10030833631753922,-0.22835803031921387,-0.015487700700759888,0.05107402801513672,0.32742711901664734,-1.6369760036468506,2.628390073776245,-1.6832652500927379,-0.4651393331674412,-2.6565721027662144
1687015332.076243,-0.8028310537338257,0.5764204859733582,0.15232057869434357,-0.35796600580215454,0.1410934329032898,-0.015769854187965393,0.9266315698623657,-1.5973397493362427,3.1188108921051025,-1.7582970053341362,-0.6143414201399665,-2.6463693238607826
1687015332.094548,-0.6856168508529663,0.7053440809249878,0.18005385994911194,-0.39836758375167847,0.07505142688751221,0.04711891710758209,1.0108604431152344,-1.652408480644226,3.3738694190979004,-1.8276130509963737,-0.7829084292394213,-2.6273298212242815
1687015332.134869,-0.5347602963447571,0.8218686580657959,0.19637593626976013,-0.44627314805984497,0.14102202653884888,0.05858305096626282,0.7034026980400085,-1.6227612495422363,3.681874990463257,-1.9227308808424681,-0.964683472514908,-2.643765798195486
1687015332.2277908,-0.3555985391139984,0.9083790183067322,0.21999292075634003,-0.380760133266449,-0.017281174659729004,0.030541032552719116,0.1334335058927536,-1.6337976455688477,3.723214626312256,-2.1248201476668287,-1.1393910178036677,-2.781693217060194
1687015332.2423801,-0.1544221192598343,0.9615606665611267,0.22705642879009247,-0.5347869396209717,0.31997913122177124,0.20217321813106537,0.5848122239112854,-1.7756012678146362,4.094635486602783,-2.544344480816433,-1.2926303755270607,-3.1341926455018214
1687015332.289044,0.08456514775753021,0.9738453030586243,0.21088819205760956,-0.6785441040992737,0.37825119495391846,0.3536869287490845,0.18457911908626556,-2.0603814125061035,4.890588760375977,2.760228663339186,-1.3415824250100292,2.2459368831621864
1687015332.410747,0.34939807653427124,0.9217372536659241,0.16829007863998413,-0.540010929107666,0.12677055597305298,0.03961087763309479,1.0726118087768555,-1.9031246900558472,5.490479469299316,2.0196622834701583,-1.1725364954486512,1.570790534015513
1687015332.428535,0.5880097150802612,0.8075427412986755,0.04603669047355652,-0.5729341506958008,-0.27044856548309326,-0.005158424377441406,1.6927400827407837,-1.462358832359314,5.173586845397949,1.6489293344239146,-0.9399739582756235,1.2442010473517078
1687015332.49792,0.7597151398658752,0.6501380801200867,-0.012383611872792244,-0.53815758228302,-0.6991492509841919,-0.2264164686203003,0.5024252533912659,-0.5197683572769165,4.1545939445495605,1.5544974344652922,-0.7077661379199168,1.1810819483720176
1687015332.501791,0.8589190244674683,0.5109367966651917,-0.03466321527957916,-0.2819996476173401,-0.7536888718605042,-0.2724505066871643,0.7237972021102905,0.3260002136230469,2.360440969467163,1.530461424147392,-0.5362742205493856,1.1460458735220183
1687015332.593124,0.890089213848114,0.4529855251312256,-0.050449199974536896,-0.22874289751052856,-0.4574410915374756,-0.022869344800710678,1.2211204767227173,0.028346290811896324,0.40736934542655945,1.5141780912958465,-0.47011131630716485,1.0889678864308232
1687015332.610701,0.8917690515518188,0.4485044479370117,-0.05992995575070381,-0.1293179988861084,0.11452960968017578,0.18857675790786743,0.20709188282489777,0.05172205716371536,-0.04990581050515175,1.503693774530504,-0.4650913363811448,1.0465186770903225
1687015332.676399,0.8927109837532043,0.44497910141944885,-0.07113666087388992,-0.003993511199951172,-0.07602152228355408,0.03457654267549515,0.26855894923210144,-0.16606593132019043,-0.029176294803619385,1.4912782529550657,-0.46115090931090474,1.0342739993774763
1687015332.692009,0.8858533501625061,0.45608967542648315,-0.08512229472398758,-0.02698206901550293,-0.08182212710380554,-0.041525714099407196,0.21634157001972198,-0.09389959275722504,-0.44565901160240173,1.4749997120823732,-0.47359627640461255,1.0191849395192616
1687015332.734696,0.8767482042312622,0.47257325053215027,-0.0893707349896431,0.009527921676635742,0.05286318063735962,0.011703431606292725,-0.09539036452770233,-0.09479653835296631,-0.2640761435031891,1.4692128726160096,-0.49220837786402066,1.0168641031375891
1687015332.7981272,0.8718920946121216,0.48121267557144165,-0.0907655730843544,0.030436217784881592,0.012622803449630737,0.012426860630512238,-0.003932282794266939,0.011320703662931919,-0.09637956321239471,1.4670681166468171,-0.502037570005118,1.0154039967799102
1687015332.893882,0.871422529220581,0.48252737522125244,-0.0882616937160492,0.03665846586227417,-0.009306520223617554,0.006779670715332031,-0.19954098761081696,-0.00853356160223484,0.043268609791994095,1.4698559384205745,-0.5035379485220146,1.0220950314879464
1687015332.90992,0.8698996901512146,0.48578810691833496,-0.08534976840019226,0.0226326584815979,-0.11991274356842041,-0.019554503262043,-0.16424106061458588,-0.10523586720228195,-0.1882317215204239,1.472994853619271,-0.5072645822590481,1.0322553713167448
1687015332.9770021,0.8654201626777649,0.4941859841346741,-0.0826314240694046,0.01716327667236328,-0.026427805423736572,0.01105237752199173,-0.4578869342803955,-0.08232203125953674,-0.19983485341072083,1.4756036280178906,-0.5168982365314169,1.0473152258625749
1687015332.992886,0.8607568144798279,0.5031700134277344,-0.0769248977303505,0.04813283681869507,-0.08375167846679688,-0.04867028445005417,-0.1033313125371933,0.13175763189792633,-0.2777847647666931,1.4816642129786564,-0.5272630720317549,1.0605881775585453
1687015333.0331202,0.846644401550293,0.5272652506828308,-0.07200510054826736,0.1158953309059143,-0.32093584537506104,-0.0757153108716011,0.08733571320772171,0.07455772906541824,-0.8671378493309021,1.4859528641763966,-0.5553788875673015,1.0621254696895448
1687015333.126576,0.8129236698150635,0.5783411264419556,-0.06838668882846832,0.19916123151779175,-0.44931280612945557,-0.012744367122650146,-0.31201326847076416,0.09856293350458145,-1.5516514778137207,1.486869569667067,-0.6166937966574018,1.055714804349718
1687015333.142784,0.7612057328224182,0.6456420421600342,-0.06092766299843788,0.22812825441360474,-0.1708342432975769,0.05413740873336792,0.137253075838089,0.1678922027349472,-1.8255047798156738,1.4909256101066926,-0.7018637255116617,1.056138963510619
1687015333.187093,0.6880407333374023,0.7248738408088684,-0.03402433544397354,0.2500694990158081,-0.3595326542854309,0.13844019174575806,-2.0751092433929443,-0.06071633845567703,-2.445192575454712,1.5213855284304083,-0.8108512044696436,1.0943724980219285
1687015333.2769299,0.6027276515960693,0.797911524772644,-0.0075417072512209415,0.1413213610649109,0.4673016667366028,0.11461257934570312,0.8618932366371155,-0.031330887228250504,-2.1076292991638184,1.5582843513695848,-0.9238224130607465,1.1614399803625108
1687015333.295261,0.5049371123313904,0.8617095351219177,-0.049950141459703445,0.1664799451828003,-0.230010986328125,0.08292430639266968,-0.05246919393539429,-0.5229043364524841,-2.9672844409942627,1.4721936405277891,-1.0386293257512704,1.0632666004182605
1687015333.336526,0.34900128841400146,0.9362366199493408,-0.04073009639978409,-0.24745416641235352,0.1829344630241394,-0.06562376022338867,0.5421455502510071,0.2928800880908966,-4.018118858337402,1.454617164702216,-1.2117621591472687,1.0387507512787053
1687015333.428904,0.1252443939447403,0.9892447590827942,-0.07555541396141052,-0.9049075841903687,-0.06421118974685669,0.14420461654663086,1.0884448289871216,-1.0438835620880127,-4.8544206619262695,1.0279804106803057,-1.423999854064662,0.6272824112124264
1687015333.445066,-0.046551138162612915,0.9882765412330627,-0.14540421962738037,-0.5147129893302917,-0.03596031665802002,0.059603989124298096,0.8748499751091003,1.0030461549758911,-2.110299825668335,-0.3098388675543441,-1.4175224652611447,-0.7425060294593459
1687015333.49103,-0.1102299615740776,0.9851818084716797,-0.13140106201171875,-0.07426415383815765,0.11543464660644531,-0.07268531620502472,-0.5183001756668091,0.3721727728843689,-0.49803298711776733,-0.6980038984455766,-1.3984308964939398,-1.1631930794769896
1687015333.6099849,-0.10783649981021881,0.9870957732200623,-0.11837824434041977,-0.029706329107284546,-0.09976661205291748,-0.10359145700931549,-0.2408120036125183,-0.1131899356842041,0.16316679120063782,-0.7388312434395782,-1.4099729465381097,-1.2032129987912055
1687015333.6287951,-0.11561814695596695,0.9879174828529358,-0.10320524126291275,-0.06941000372171402,-0.027804076671600342,-0.07491069287061691,-0.11951660364866257,0.3188467025756836,-0.3492211401462555,-0.8420631256881059,-1.4151883536974772,-1.3134051965411
1687015333.698379,-0.12188500910997391,0.9867676496505737,-0.1069268062710762,-0.002962462604045868,0.05066198110580444,-0.049018070101737976,0.03407229110598564,0.04070961847901344,0.1161462813615799,-0.8506786828699067,-1.4079368214637775,-1.3292399532255537
1687015333.702018,-0.1150081679224968,0.9877104163169861,-0.10583454370498657,-0.039929650723934174,-0.00460207462310791,0.009032733738422394,-0.02961021475493908,0.16160421073436737,0.02747233584523201,-0.8269134497503738,-1.4138580255382251,-1.3099981018093596
1687015333.7902951,-0.11159864813089371,0.9877621531486511,-0.1089569702744484,-0.01729242503643036,0.0174715518951416,0.046456873416900635,0.001107816118746996,0.047404807060956955,0.20119114220142365,-0.7973749764127782,-1.4141890745429462,-1.2843100690580829
1687015333.807962,-0.10386084020137787,0.987867534160614,-0.11545795202255249,-0.010122403502464294,-0.001341104507446289,0.019022345542907715,0.20440182089805603,0.016422921791672707,0.1714734584093094,-0.732569476037894,-1.4148663265087873,-1.2200757070544659
1687015333.87672,-0.0987185463309288,0.9885309338569641,-0.11428666859865189,0.0038240402936935425,-0.013723134994506836,0.02572457492351532,0.031917594373226166,0.06004243716597557,0.1502869427204132,-0.7124399176919403,-1.4191977966036198,-1.200790431506854
1687015333.892675,-0.09356673061847687,0.9889794588088989,-0.11473892629146576,-0.007324472069740295,-0.0029869675636291504,0.005455419421195984,0.06603508442640305,-0.024227702990174294,0.17853376269340515,-0.6841059793333257,-1.4221973602274367,-1.1709046332573163
1687015333.935206,-0.08655991405248642,0.9895967841148376,-0.11491581052541733,0.010250620543956757,-0.03334379196166992,-0.009138226509094238,-0.01945711299777031,0.018286067992448807,0.12610331177711487,-0.6455755333134454,-1.4264265251021448,-1.1322961016636088
1687015334.02947,-0.08143922686576843,0.9902985692024231,-0.11258912831544876,0.008868344128131866,0.005520462989807129,-0.02248173952102661,0.10721021890640259,0.020109934732317924,0.1289030909538269,-0.6262134688926364,-1.4313894860195902,-1.1145151564527016
1687015334.0467548,-0.07794329524040222,0.9901054501533508,-0.11668824404478073,-0.006590493023395538,-0.048424482345581055,0.010685369372367859,-0.06818564236164093,0.032063134014606476,0.05359368398785591,-0.5888987182170125,-1.4300061518863734,-1.077590867858968
1687015334.088265,-0.07490246742963791,0.9906392097473145,-0.11412080377340317,0.015179477632045746,0.02773231267929077,0.0030825138092041016,0.07890793681144714,-0.02875654026865959,0.08622460067272186,-0.580821821757765,-1.4338626442038926,-1.070866119128879
1687015334.174959,-0.0720241367816925,0.990443766117096,-0.11761593073606491,0.003985114395618439,-0.0477253794670105,0.007310092449188232,-0.04279805347323418,-0.048969537019729614,0.093499556183815,-0.5494634455432552,-1.432438319718915,-1.036664641732016
1687015334.191283,-0.06753378361463547,0.9913368225097656,-0.11265212297439575,-0.018388547003269196,0.0010032057762145996,-0.022235631942749023,0.0454382598400116,-0.014759765937924385,0.04097136855125427,-0.5400441848226503,-1.439071486074142,-1.025352800100117
1687015334.2682161,-0.06873030960559845,0.9907283782958984,-0.11719049513339996,0.02855382114648819,0.006845533847808838,0.0093107670545578,-0.012172102928161621,-0.05356615036725998,0.04016362875699997,-0.5304217461340791,-1.4345171267631165,-1.0142824651562334
1687015334.2726831,-0.06115131080150604,0.9917111992835999,-0.11300257593393326,-0.03514700010418892,0.03389310836791992,-0.09189249575138092,-0.13001851737499237,-0.12250540405511856,0.34983548521995544,-0.4960229590961952,-1.4419530159612466,-0.975605289027609
1687015334.328258,-0.04044554755091667,0.9930910468101501,-0.11015459150075912,-0.074209064245224,-0.08119547367095947,-0.10981617122888565,-0.11603251844644547,0.022047249600291252,0.3851942718029022,-0.35188908453785483,-1.4531788180334284,-0.8274891753573868
1687015334.391767,-0.019573329016566277,0.9960975646972656,-0.08606123924255371,-0.03363415226340294,-0.1290016770362854,-0.043531715869903564,-0.6980955004692078,0.05973244458436966,0.5861180424690247,-0.2236307986040918,-1.4824224206927847,-0.7018869909765254
1687015334.4797559,0.027579981833696365,0.9981765747070312,-0.05369284749031067,-0.15190869569778442,-0.04384613037109375,-0.074587881565094,-0.5899789333343506,-0.4405483603477478,1.4094334840774536,0.4745174763344605,-1.510397597257653,0.00977103443791615
1687015334.49791,0.10467083007097244,0.9941908717155457,-0.02506275661289692,-0.2599443793296814,-0.10117048025131226,-0.0375593863427639,-0.7568458318710327,-0.19512847065925598,1.613224983215332,1.3357775437973225,-1.4629563049319594,0.8927085782118354
1687015334.566657,0.18766215443611145,0.9822311401367188,-0.0021850946359336376,-0.1703130155801773,0.11432641744613647,-0.045681774616241455,-0.004891153424978256,-0.2815505862236023,1.8331466913223267,1.5591530850180615,-1.382001552852961,1.12500117298796
1687015334.571316,0.28324130177497864,0.958651065826416,-0.027614394202828407,-0.2773820161819458,0.13140630722045898,0.07604575157165527,0.45957937836647034,-0.3331452012062073,2.0707645416259766,1.4736092453840433,-1.28222368681011,1.0576298542318034
1687015334.628038,0.3844297528266907,0.9226665496826172,-0.030001342296600342,-0.27384939789772034,0.1583881378173828,-0.020566344261169434,-0.44132113456726074,-0.12826955318450928,2.232731819152832,1.492913027065993,-1.1749396366104239,1.0914134798010182
1687015334.720199,0.4803176522254944,0.8770795464515686,-0.005127269309014082,-0.11602944135665894,0.19921433925628662,-0.0402371883392334,-0.1560869961977005,0.05923217162489891,2.0576248168945312,1.560121985354974,-1.0697481108764046,1.1635797795927034
1687015334.8112721,0.5680516958236694,0.8228193521499634,-0.016901792958378792,-0.09405273199081421,0.09650743007659912,0.005884885787963867,0.5799996256828308,0.07502192258834839,1.9693784713745117,1.5410511311334802,-0.9663543916920342,1.1382711628112578
1687015334.830196,0.6480796337127686,0.761362612247467,-0.017879027873277664,-0.05745774507522583,0.20425933599472046,-0.0901227593421936,0.13543686270713806,0.06879398226737976,2.2819013595581055,1.5432156185504218,-0.8654122390253611,1.1354984024333405
1687015334.9019809,0.7318796515464783,0.6802842617034912,-0.039569225162267685,-0.22505903244018555,0.44671475887298584,0.04063725098967552,0.8562934398651123,0.11647308617830276,2.4820871353149414,1.5167837075695618,-0.7481504083614632,1.0998425838961063
1687015334.90604,0.817976713180542,0.5695582628250122,-0.0807306244969368,-0.04595839977264404,0.6526860594749451,-0.14493167400360107,1.612877368927002,-0.09090633690357208,2.550100803375244,1.4724194225252494,-0.6059683398518504,1.0253903602438457
1687015334.909595,0.8732979893684387,0.4796465337276459,-0.08538082987070084,0.08849400281906128,-0.4530808627605438,-0.23715955018997192,1.1478173732757568,1.5355854034423828,1.3200793266296387,1.4733377970833537,-0.5002518459155104,0.9614122696926068
1687015334.958785,0.896075427532196,0.44258156418800354,-0.03421371057629585,0.17178040742874146,-0.8816378116607666,0.15080606937408447,1.7266618013381958,2.177747964859009,0.14070142805576324,1.5326331362524195,-0.4584755163896111,0.8785545572275631
1687015335.0170121,0.8924118876457214,0.4505601227283478,-0.02442977763712406,0.24867093563079834,-0.4387802183628082,1.1069034337997437,1.8697659969329834,0.4068489670753479,-0.3451624810695648,1.5434281598269628,-0.46739264274543335,0.7439197720024473
1687015335.078865,0.89255291223526,0.44777098298072815,-0.05338769778609276,0.05283576250076294,-0.34739869832992554,0.490536630153656,-0.9615393877029419,-1.0306342840194702,0.41670557856559753,1.5110529042117276,-0.46427088993827204,0.7342528405154174
1687015335.169281,0.8988162279129028,0.43301939964294434,-0.06799516081809998,-0.17451220750808716,-0.30376219749450684,-0.3482799530029297,0.3667588233947754,0.018191659823060036,0.16202136874198914,1.4952904598411618,-0.4478398400365468,0.7681247598203635
1687015335.175085,0.8993709087371826,0.4304240047931671,-0.07659672200679779,-0.04480254650115967,-0.029865503311157227,0.16834771633148193,0.7029678225517273,0.1551610827445984,-0.15239062905311584,1.4858343563474696,-0.44496247611228773,0.715636032341959
1687015335.2261791,0.8982696533203125,0.4323795437812805,-0.07848244905471802,0.02177417278289795,0.17160913348197937,0.07253146916627884,-0.2978512644767761,-0.19758005440235138,0.08741716295480728,1.4836469279771312,-0.44713007473249455,0.7191896574699864
1687015335.290983,0.8989906907081604,0.4307391047477722,-0.07924306392669678,-0.02705782651901245,-0.17672601342201233,-0.18767905235290527,-0.11136313527822495,0.1601293534040451,-0.0242097657173872,1.482876862318116,-0.44531159799250064,0.725533021125962
1687015335.3838181,0.8973427414894104,0.43507489562034607,-0.07406552135944366,-0.004108607769012451,-0.07814133167266846,0.04710311442613602,0.36651530861854553,0.20890994369983673,-0.16581963002681732,1.488444276636264,-0.45012146211913484,0.7099686139934317
1687015335.387076,0.8961473703384399,0.43853193521499634,-0.06789465993642807,0.08136117458343506,-0.049951523542404175,0.129677414894104,-0.4001238942146301,-0.010662226006388664,0.05262083187699318,1.495177961148292,-0.4539645117133465,0.7166724824996613
1687015335.4698172,0.8990294337272644,0.4335940182209015,-0.061176199465990067,0.07445091009140015,-0.03825393319129944,-0.0462457612156868,-0.2504068613052368,-0.010444113984704018,0.12275119125843048,1.502854122465958,-0.4484773944225102,0.7354467620698218
1687015335.474671,0.8999608159065247,0.4318724274635315,-0.059638381004333496,0.010195374488830566,0.02598285675048828,-0.006844282150268555,-0.08072499930858612,-0.11910001933574677,-0.01196455117315054,1.504625323221638,-0.4465677470899188,0.7461465424297649
1687015335.523768,0.8998838067054749,0.43081405758857727,-0.06788542121648788,-0.02914106845855713,0.08330035209655762,-0.006241858005523682,0.10427754372358322,-0.11822876334190369,0.07146190106868744,1.495500957653712,-0.44539465036679254,0.74425586990446
1687015335.6224961,0.9005520343780518,0.4292869567871094,-0.06869220733642578,-0.02834451198577881,-0.07189556956291199,-0.034670889377593994,-0.36243191361427307,0.012579446658492088,0.006754274480044842,1.4946658602374965,-0.4437031434258081,0.749420933600321
1687015335.639658,0.8987120389938354,0.4338109493255615,-0.06422331184148788,0.0010071396827697754,0.031460076570510864,0.02519124746322632,-0.06858590990304947,-0.045206353068351746,-0.06476811319589615,1.4994560942501531,-0.44871815684809463,0.7618842704825967
1687015335.676392,0.8975432515144348,0.43579110503196716,-0.06709938496351242,0.011377096176147461,-0.0311126708984375,-0.02401096373796463,0.00013982364907860756,0.0034694382920861244,-0.06689837574958801,1.4961761891086662,-0.45091706084638405,0.7620429219310094
1687015335.765634,0.8958901166915894,0.43969327211380005,-0.06364431977272034,-0.014115333557128906,-0.02550867199897766,0.01339704543352127,-0.10448651760816574,0.03142450749874115,-0.09768158197402954,1.499875155057754,-0.4552571357061121,0.7648715893129997
1687015335.770321,0.894067645072937,0.4433886408805847,-0.0636337623000145,-0.04659473896026611,-0.10752740502357483,0.06203151494264603,-0.367149293422699,-0.015076415613293648,-0.26675155758857727,1.4997428229359102,-0.45937571329347787,0.7713925136592431
1687015335.82882,0.8852324485778809,0.4628738462924957,-0.045947879552841187,-0.11004030704498291,-0.12859955430030823,0.03775382414460182,-1.1104189157485962,0.09714559465646744,-0.5873863101005554,1.5189379903255422,-0.4812345455482926,0.8136566613146149
1687015335.91953,0.863154411315918,0.504874587059021,-0.008125406689941883,-0.20893394947052002,-0.2679513096809387,0.01010894775390625,-1.1221022605895996,0.3421086072921753,-1.352152705192566,1.5613829863875623,-0.5292366820541419,0.8804662035140997
1687015335.92523,0.8113707900047302,0.583669900894165,0.03173373267054558,-0.3090972304344177,-0.307806134223938,-0.03864609822630882,-0.049371205270290375,0.7696759104728699,-2.338541269302368,1.6098876577230676,-0.6232410085735878,0.920198954462826
1687015335.975134,0.7186645269393921,0.6904911994934082,0.08211743831634521,-0.30747073888778687,-0.4539036750793457,-0.006769657135009766,-0.8433487415313721,1.3617932796478271,-3.2562129497528076,1.684566837780511,-0.7621679096548039,0.9527714990326573
1687015336.043237,0.5805761218070984,0.8043506145477295,0.12630003690719604,-0.28165650367736816,0.10756057500839233,-0.050128206610679626,1.82670259475708,1.361423373222351,-3.672184944152832,1.7850014516455663,-0.9345816676879507,0.9980413973911172
1687015336.1299272,0.3998646140098572,0.916547954082489,-0.006933471653610468,-0.07970482110977173,-0.210554301738739,0.23099344968795776,4.000518321990967,0.15572768449783325,-4.55019474029541,1.5534585170731288,-1.1593615265833073,0.6871784393022019
1687015336.150132,0.1691654622554779,0.9712238907814026,-0.16765131056308746,-0.11814017593860626,-0.36401575803756714,0.08446027338504791,2.4803357124328613,-1.053646445274353,-4.982111930847168,0.7898935966158206,-1.330316752086958,-0.08132972598896915
1687015336.250561,-0.07812836021184921,0.948186457157135,-0.3079582154750824,-0.13018468022346497,0.29818183183670044,-0.011774510145187378,3.3104288578033447,-1.8110923767089844,-4.685121059417725,-0.24845600929248499,-1.2474783676058667,-1.0930419819718225
1687015336.2561378,-0.3387479782104492,0.8381859660148621,-0.42742714285850525,-0.02245810627937317,-0.3532923460006714,0.17945650219917297,2.505859851837158,-2.7494561672210693,-4.979224681854248,-0.6701682319826024,-0.9939485105846673,-1.4381323938852555
1687015336.341847,-0.586521565914154,0.6662558317184448,-0.4605382978916168,-0.5501666069030762,0.5052222609519958,0.022549957036972046,3.094146251678467,-3.1739096641540527,-4.611717700958252,-0.9051435204196318,-0.7291765793511266,-1.545619848440032
1687015336.360862,-0.7905513048171997,0.4678703248500824,-0.3951278626918793,-0.4013737440109253,-0.12054982781410217,0.029344141483306885,0.36176833510398865,-4.1116228103637695,-4.319982528686523,-1.1072982957786368,-0.48687953451495486,-1.584997954831745
1687015336.424924,-0.9241982698440552,0.3074609637260437,-0.22655054926872253,-0.9371450543403625,0.16287583112716675,-0.08434729278087616,-1.903307318687439,-2.1015079021453857,-3.5233685970306396,-1.3304045525511317,-0.3125235916876696,-1.709427686977105
1687015336.441158,-0.973452091217041,0.1977410912513733,-0.11528019607067108,-0.505826473236084,0.16274769604206085,-0.1240081787109375,-3.200052261352539,-1.25409734249115,-1.9564108848571777,-1.4529212101352798,-0.19905297635412844,-1.8707206367335536
1687015336.516529,-0.9879318475723267,0.14797136187553406,-0.04577002674341202,-0.1997358798980713,0.4245840311050415,-0.21263760328292847,-1.6216343641281128,-0.8496289253234863,-0.6722306609153748,-1.5245002998691273,-0.14851674067059892,-2.006307404790778
1687015336.520073,-0.9918346405029297,0.12752774357795715,-0.0007972901221364737,-0.08514589071273804,0.18330895900726318,-0.25384145975112915,-1.5914613008499146,-0.4447745084762573,-0.23699846863746643,-1.5699924730604005,-0.12787597205208093,-2.0697035607710084
1687015336.585063,-0.991326093673706,0.1313326060771942,-0.0049157701432704926,0.1125267744064331,0.4664151072502136,-0.5491614937782288,-1.4336564540863037,0.19003106653690338,0.21253113448619843,-1.5658375849928212,-0.13171310838502695,-2.1816504863006156
1687015336.669361,-0.9914905428886414,0.1301194429397583,-0.003910299390554428,0.010701417922973633,0.15813423693180084,0.013630032539367676,0.4539712965488434,0.06832233816385269,-0.03876793757081032,-1.5668524879100942,-0.13048945063743625,-2.1986163111290575
1687015336.6751099,-0.9919636845588684,0.1260976642370224,-0.010347769595682621,0.006658077239990234,-0.08201512694358826,0.1485312581062317,0.08154479414224625,0.15433138608932495,-0.07885543256998062,-1.5603651034002204,-0.12643425269080674,-2.1774164150449726
1687015336.7265491,-0.992361307144165,0.12223987281322479,-0.016623480245471,0.030630409717559814,-0.024003878235816956,0.09339034557342529,-0.4654213488101959,0.10800543427467346,-0.09173687547445297,-1.554046453541756,-0.12254636663980796,-2.1929765380019024
1687015336.8171558,-0.9928036332130432,0.11867547780275345,-0.0160363782197237,-0.0001468062400817871,-0.0030291900038719177,0.057372331619262695,-0.041087906807661057,-0.039570439606904984,-0.06542591005563736,-1.5546451129022085,-0.11895582884700565,-2.2067463895089916
1687015336.82108,-0.9932692050933838,0.11516836285591125,-0.012344034388661385,-0.00642549991607666,-0.003352046012878418,0.03157001733779907,-0.0022419746965169907,-0.062384940683841705,-0.06626374274492264,-1.55836928392936,-0.1154244879687914,-2.2064782189739724
1687015336.875794,-0.9936164021492004,0.11267441511154175,-0.005546008702367544,0.009622931480407715,0.04371282458305359,-0.02272862195968628,0.11275392025709152,-0.025843309238553047,-0.04255974292755127,-1.5652147448930216,-0.1129142007428234,-2.206045947243226
1687015336.937515,-0.9938343167304993,0.11082565784454346,-0.003336746711283922,-0.022492587566375732,0.02488592267036438,-0.05835461616516113,0.20481912791728973,-0.019085006788372993,-0.02711287885904312,-1.5674388916306798,-0.11105378934657603,-2.1972883031691257
1687015337.0323439,-0.9935400485992432,0.1133284717798233,-0.005901912227272987,-0.0053917765617370605,-0.023240678012371063,-0.03287076950073242,-0.047371502965688705,0.022647393867373466,-0.013701731339097023,-1.564856110363628,-0.11357247391048364,-2.1924903945464917
1687015337.0384579,-0.9934139847755432,0.11368376016616821,-0.014316048473119736,-0.005228102207183838,-0.01944556087255478,0.005023358389735222,0.004836374893784523,0.020856551826000214,-0.0541817806661129,-1.5563863649783005,-0.11393006855492908,-2.1917745521126295
1687015337.120322,-0.9938609004020691,0.10892338305711746,-0.019394293427467346,-0.007893800735473633,-0.004080332815647125,0.020630180835723877,-0.03260946646332741,0.025287916883826256,-0.056611914187669754,-1.5512847115611685,-0.10913992308310437,-2.1922427088912833
1687015337.125987,-0.9941688179969788,0.10613033175468445,-0.019100919365882874,-0.00725024938583374,0.006815128028392792,0.008053481578826904,-0.006966555491089821,0.01809045858681202,-0.03542114049196243,-1.5515857357967078,-0.10633058366247156,-2.1936125135231945
1687015337.176766,-0.994380533695221,0.10453879833221436,-0.016706325113773346,-0.006306111812591553,0.02210906893014908,0.0006692409515380859,0.06268981844186783,0.010269952937960625,-0.025094734504818916,-1.5539971708963665,-0.10473014383319093,-2.1926798668467353
1687015337.269975,-0.9944010376930237,0.10428497940301895,-0.017071310430765152,-0.0006704330444335938,0.018136203289031982,-0.008761884644627571,0.07946586608886719,0.029391184449195862,-0.019446436315774918,-1.5536305825021255,-0.10447493193039446,-2.1896827296622914
1687015337.2750359,-0.994356632232666,0.10457222908735275,-0.01788106933236122,-0.01319652795791626,0.012660972774028778,0.02148204855620861,0.13250824809074402,0.008884177543222904,-0.02969001978635788,-1.5528157136111398,-0.10476376370421284,-2.18375131653737
1687015337.4160461,-0.9942997694015503,0.10484769195318222,-0.019355759024620056,-0.003823220729827881,-0.004231341183185577,0.0007704515010118484,0.14283491671085358,0.007586153224110603,-0.044340599328279495,-1.5513320612802721,-0.10504074854134225,-2.177312479892157
1687015337.422409,-0.9944647550582886,0.10349039733409882,-0.018158169463276863,-0.004909694194793701,-0.01936878263950348,-0.0059508103877305984,0.07023482024669647,0.008205204270780087,-0.01729486882686615,-1.5525391161916333,-0.10367602797105646,-2.1717248674153513
1687015337.508302,-0.9946226477622986,0.10205087065696716,-0.017651250585913658,-0.007666230201721191,-0.016006648540496826,0.005123673006892204,-0.03142642229795456,-0.02550668641924858,-0.01759873516857624,-1.5530515092517216,-0.10222883961029262,-2.1696882387851906
1687015337.523994,-0.9948397874832153,0.09983143955469131,-0.018089205026626587,-0.005984067916870117,-0.014611199498176575,0.014076055958867073,-0.10544732213020325,0.014516230672597885,-0.00600785855203867,-1.5526152959811637,-0.0999980093627184,-2.174422752398515
1687015337.603067,-0.9950699210166931,0.09771780669689178,-0.016939736902713776,0.02627420425415039,0.02213989943265915,-0.023541925475001335,-0.11895407736301422,-0.015750860795378685,-0.01597021147608757,-1.5537743057879863,-0.09787399027665383,-2.1795577857936537
1687015337.608432,-0.9952526092529297,0.0961306095123291,-0.01520127896219492,-0.002168595790863037,0.05450405925512314,-0.016872763633728027,0.0498826801776886,-0.0007739093853160739,0.00019384454935789108,-1.5555237243564344,-0.0962792871567681,-2.182839615972686
1687015337.691942,-0.9950804710388184,0.09769202768802643,-0.016457000747323036,-0.03014218807220459,-0.008123032748699188,0.028404535725712776,0.12911145389080048,-0.002536123152822256,0.006508198566734791,-1.5542594718640368,-0.09784808751467529,-2.1753391519883905
1687015337.708839,-0.9946790337562561,0.10158293694257736,-0.01715826988220215,0.004032731056213379,0.07848594337701797,0.026496589183807373,0.030737746506929398,-0.043521907180547714,0.04347607120871544,-1.5535479809185553,-0.10175845714054756,-2.1715994321395407
1687015337.777462,-0.9943150877952576,0.10589691996574402,-0.011110990308225155,0.05506026744842529,0.11651512235403061,0.050524353981018066,0.12991440296173096,-0.1445438712835312,0.11615453660488129,-1.5596222754507327,-0.10609584879252101,-2.1698388162909645
1687015337.793328,-0.993173360824585,0.1165631040930748,-0.00442163273692131,0.06899434328079224,0.20295584201812744,0.009670555591583252,0.5618366599082947,-0.1552034318447113,0.30842411518096924,-1.5663443313365368,-0.11682868999049396,-2.154173359089948
1687015337.866743,-0.9909060597419739,0.1345483809709549,-0.001434155274182558,0.008026361465454102,0.28255054354667664,-0.0787203311920166,1.0771130323410034,-0.15370526909828186,0.4297931492328644,-1.5693490107502115,-0.13495768648162054,-2.113078061182689
1687015337.870503,-0.9869678616523743,0.16087189316749573,-0.003826875239610672,-0.05049246549606323,0.24015948176383972,-0.038516342639923096,1.0204353332519531,-0.06120076775550842,0.6431770324707031,-1.5669189401447272,-0.16157398872296974,-2.053526280084398
1687015337.927748,-0.9793587923049927,0.2018919289112091,-0.00980362482368946,-0.0483207106590271,0.283047616481781,0.006583928130567074,0.2788653075695038,0.0836593508720398,1.00548255443573,-1.5607864125509965,-0.20328924655616976,-2.027318906890923
1687015338.021484,-0.9658567905426025,0.2582799792289734,-0.020303966477513313,-0.06763625144958496,0.34486934542655945,0.03855341672897339,0.6299239993095398,0.11526042222976685,1.3477245569229126,-1.5497777075989148,-0.26124134241134817,-2.0028442409767973
1687015338.0271049,-0.9421393871307373,0.3338797986507416,-0.029958805069327354,-0.1221611499786377,0.21873238682746887,0.04088401794433594,0.34214815497398376,-0.05538082867860794,1.8626296520233154,-1.5390083408645476,-0.34041659616938946,-1.9699341388772065
1687015338.075274,-0.9015589356422424,0.4316804111003876,-0.02904210053384304,-0.19339650869369507,0.24982279539108276,0.06534266471862793,-0.18856371939182281,0.03150919824838638,2.3516061305999756,-1.5385942602573055,-0.4463548921964184,-1.9635717482249284
1687015338.168551,-0.838915228843689,0.5437414646148682,-0.023796269670128822,-0.22311162948608398,0.22459948062896729,-0.0221174918115139,-0.2287827730178833,-0.07731208950281143,2.8328373432159424,-1.5424384062170353,-0.57488878072792,-1.9730946472568547
1687015338.174223,-0.7410682439804077,0.6713661551475525,-0.009238292463123798,-0.40637749433517456,0.20616668462753296,0.005301475524902344,-0.28520750999450684,-0.23810376226902008,3.6135478019714355,-1.5583307890381064,-0.7360505654820514,-1.983006260798765
1687015338.227576,-0.5949375033378601,0.8036141395568848,0.01592288166284561,-0.5227382779121399,0.16821801662445068,0.02721369080245495,-0.23553182184696198,-0.5119712948799133,4.293521404266357,-1.5975538974618864,-0.9333431657248258,-2.0107225282808314
1687015338.321361,-0.40208950638771057,0.9150723218917847,0.03109285607933998,-0.5904794931411743,-0.03744786977767944,0.05402064323425293,-0.020517518743872643,-0.5232571959495544,4.613909721374512,-1.6479709407785643,-1.1556871721630384,-2.0396185774093376
1687015338.3268151,-0.1715681552886963,0.9846460223197937,0.03219442069530487,-0.720353901386261,0.14789175987243652,0.09253084659576416,0.39385131001472473,-0.7035611867904663,5.091610908508301,-1.7562872415918924,-1.3953343472500133,-2.1230289539971063
1687015338.3771381,0.09231048077344894,0.995682954788208,0.009710784070193768,-0.7187448740005493,0.017805874347686768,0.013543606735765934,0.41157570481300354,-0.46155521273612976,5.406181812286377,1.6756078184413883,-1.477843001797428,1.334930366522693
1687015338.469737,0.3524065315723419,0.9356979727745056,-0.01670854352414608,-0.6830645799636841,0.11322182416915894,0.09394848346710205,0.6678466796875,-0.4283926486968994,5.405245304107666,1.5234191088961473,-1.2102322088376354,1.2041481454729752
1687015338.475587,0.5919579267501831,0.8052394390106201,-0.03428114578127861,-0.6640710830688477,-0.09614825248718262,0.027948681265115738,0.09249119460582733,-0.09004027396440506,5.441843509674072,1.5129494769812457,-0.9360791551872433,1.2080235735510485
1687015338.5265021,0.7869866490364075,0.6153727173805237,-0.04436485469341278,-0.611876904964447,0.06475728750228882,-0.0008774958550930023,0.18954163789749146,-0.24216336011886597,5.532970905303955,1.5144828566605761,-0.662858730763174,1.2242085931271607
1687015338.621509,0.9211228489875793,0.3808436989784241,-0.08056440204381943,-0.5196184515953064,0.041809529066085815,0.17951756715774536,0.7141426801681519,-0.9844925999641418,5.428445816040039,1.4835550816602259,-0.39070858165615974,1.2212636349908128
1687015338.627361,0.9812409281730652,0.10880623757839203,-0.1591457575559616,-0.51572585105896,-0.07403139770030975,0.19086867570877075,1.5061897039413452,-1.5453892946243286,5.214876651763916,1.4100081577523074,-0.10902207579332472,1.195049227080013
1687015338.7131019,0.9703147411346436,-0.09915531426668167,-0.22058425843715668,-0.35184556245803833,-1.2261466979980469,-0.2197386622428894,2.486556053161621,-0.5863047242164612,1.869602918624878,1.34726271697468,0.09931851413728672,1.1160735494273613
1687015338.8011389,0.9732161164283752,-0.11670751869678497,-0.19806484878063202,-0.5721389055252075,-0.8861457705497742,-0.09562116861343384,0.0120407585054636,1.541054129600525,-0.30329546332359314,1.3700224976975557,0.11697409532327914,1.0741519622314022
1687015338.8075209,0.9841576218605042,-0.09929794818162918,-0.14687949419021606,-0.009685635566711426,0.5741820931434631,0.3093549609184265,-1.3646914958953857,0.1452871561050415,-0.4163210690021515,1.422645947945787,0.09946185573179718,1.0788334834569382
1687015338.889581,0.9838541150093079,-0.08825447410345078,-0.15569941699504852,-0.0008218288421630859,0.37783586978912354,0.18067793548107147,-0.6186314821243286,-0.3542526066303253,0.1806483119726181,1.4138433890024065,0.08836944118882803,1.1349454865432604
1687015338.895345,0.9792750477790833,-0.10096532851457596,-0.17557395994663239,0.031192362308502197,-0.07853896170854568,-0.06130354106426239,0.11063744127750397,-0.43460455536842346,0.1242060661315918,1.3933914557815017,0.10113766347037843,1.1389228782112895
1687015338.982393,0.9772863984107971,-0.10189671069383621,-0.18581855297088623,-0.019064903259277344,-0.24569842219352722,-0.08444519340991974,-0.2208557426929474,0.03676307946443558,-0.04148569330573082,1.3829019058516812,0.10207387429928078,1.1424243151155262
1687015339.001028,0.9796267151832581,-0.09269333630800247,-0.17815494537353516,-0.019360721111297607,-0.008746989071369171,0.018425896763801575,0.09799341857433319,0.221012681722641,-0.16756080090999603,1.3909023228745088,0.0928265888641452,1.1419950936347563
1687015339.0640001,0.9809566736221313,-0.08931288868188858,-0.17247353494167328,0.020752251148223877,0.15835899114608765,0.09578275680541992,-0.31750625371932983,0.09080208092927933,0.17154349386692047,1.396753423549857,0.08943205600939695,1.1479507831661873
1687015339.080164,0.9795140624046326,-0.09898166358470917,-0.17537060379981995,0.027947425842285156,0.039914995431900024,-0.020659148693084717,0.015009516850113869,-0.0657300055027008,0.2616845667362213,1.3936350021375938,0.09914400620910438,1.16012086531369
1687015339.127225,0.9782669544219971,-0.10660551488399506,-0.17784464359283447,-0.0047106146812438965,-0.1316603720188141,-0.04072229564189911,0.0963127613067627,-0.0038602466229349375,0.03360000252723694,1.39096466798542,0.10680847974055323,1.1565890276844002
1687015339.2215161,0.9786122441291809,-0.1062806248664856,-0.17613133788108826,-0.009328305721282959,-0.007153086364269257,-0.022080346941947937,-0.08870603144168854,0.046833958476781845,0.017864983528852463,1.392722054005598,0.10648173361134136,1.1585195442391039
1687015339.2259212,0.9782952070236206,-0.11048419028520584,-0.17530399560928345,0.033484458923339844,0.041178859770298004,0.023997798562049866,-0.06118658185005188,-0.048819467425346375,0.036527082324028015,1.3934848304080676,0.1107102069542064,1.1632051125187404
1687015339.276267,0.9786565899848938,-0.1096089780330658,-0.1738307923078537,-0.011630892753601074,-0.08724455535411835,0.003283262252807617,0.1298241764307022,0.0032121771946549416,-0.17148949205875397,1.3950078568340032,0.10982965253896516,1.1624021325040497
1687015339.370377,0.9811634421348572,-0.09344209730625153,-0.16907614469528198,-0.05027055740356445,-0.1608760505914688,0.011223912239074707,0.021272139623761177,0.17642523348331451,-0.5183846354484558,1.400150162470812,0.09357861822313114,1.1536110786559903
1687015339.376439,0.9854543805122375,-0.05443368852138519,-0.16098640859127045,-0.018871188163757324,-0.23302654922008514,0.025259435176849365,-0.3579479455947876,0.15846846997737885,-1.1587432622909546,1.4088641096329175,0.05446060565085818,1.1535340553726021
1687015339.429457,0.9882766008377075,0.03484061732888222,-0.1486443728208542,-0.045344650745391846,-0.5588883757591248,0.08828051388263702,-1.0644458532333374,0.4873594045639038,-2.4046506881713867,1.4215077131133256,-0.03484766911628956,1.1761264086193977
1687015339.5206962,0.9773024916648865,0.1831032633781433,-0.10655046999454498,-0.04349517822265625,-0.5212379693984985,-0.07124501466751099,-0.6072422862052917,0.9204403758049011,-3.4337680339813232,1.4622001782520444,-0.18414216501077896,1.2061716901956607
1687015339.526537,0.9260573983192444,0.37182894349098206,-0.06450453400611877,-0.09039467573165894,-0.4581020772457123,0.10733592510223389,-0.04602993279695511,0.8482046723365784,-4.371955871582031,1.5012536420738645,-0.38097846422019405,1.1958161472521314
1687015339.574545,0.8164708614349365,0.576991856098175,-0.02134362794458866,0.07983028888702393,-0.23409634828567505,-0.04582566022872925,-0.23243556916713715,0.24641191959381104,-4.744978904724121,1.5446609555851947,-0.6150408064136798,1.2111336708264882
1687015339.670706,0.6459603905677795,0.7633369565010071,0.007185519207268953,-0.25651049613952637,-0.18765342235565186,0.28384530544281006,-2.7142722606658936,0.9678056836128235,-5.549246311187744,1.5819196443933916,-0.8684630586938655,1.2423969394772316
1687015339.677053,0.43742674589157104,0.8811639547348022,0.17946533858776093,-0.2190888226032257,0.5045782327651978,-0.048789143562316895,-0.6328210830688477,0.93983393907547,-4.145381927490234,1.9601291268484975,-1.0783183968014658,1.6366591949335803
1687015339.727114,0.19661197066307068,0.9763508439064026,0.08990240842103958,-0.9404475688934326,-0.2819845676422119,0.11921917647123337,1.967309594154358,0.6143330335617065,-5.656405925750732,1.9996696273105532,-1.3528836898164263,1.6168369696576461
1687015339.8188438,-0.020970840007066727,0.9995864629745483,-0.01967490278184414,-0.46457916498184204,0.6536117196083069,0.047537386417388916,1.9118930101394653,1.147110104560852,-2.4698469638824463,-0.8172710369044672,-1.5420365224743457,-1.254259747519584
1687015339.8249469,-0.07580789923667908,0.9967368245124817,-0.027728110551834106,-0.023755788803100586,0.13804399967193604,-0.006970465183258057,-1.074565052986145,0.19546949863433838,-0.3094918429851532,-1.2201438457519855,-1.4899882600373346,-1.6802948639426263
1687015339.878529,-0.08735118806362152,0.9961224794387817,-0.010482239536941051,-0.013478979468345642,0.10283082723617554,-0.028076767921447754,0.207395538687706,0.1720523238182068,-0.36713942885398865,-1.4513663082804726,-1.4827049134124273,-1.9188518429665522
1687015339.9686599,-0.10708563774824142,0.9941596388816833,-0.01338806003332138,0.07122739404439926,0.020275115966796875,-0.047952353954315186,-0.3139447271823883,0.004821524955332279,-0.45831459760665894,-1.446419672499192,-1.462666243638768,-1.9214935755328961
1687015339.974704,-0.1262391060590744,0.9919856190681458,0.005300162360072136,0.0013763457536697388,0.1581149697303772,-0.00035643577575683594,-0.2507895231246948,0.19415457546710968,-0.26143378019332886,-1.6127567898948647,-1.4441070708740493,-2.0978012965207062
1687015340.02885,-0.12725378572940826,0.9918067455291748,0.0112059460952878,0.005519092082977295,0.11648470163345337,0.012063621543347836,0.039652347564697266,-0.01602436788380146,0.1832403689622879,-1.658629586575742,-1.4426990719330481,-2.147661526205261
1687015340.113853,-0.11979769170284271,0.9927725791931152,0.007149694953113794,-0.031203366816043854,0.02730792760848999,0.019110560417175293,0.0946887657046318,0.08511409908533096,0.09119778871536255,-1.6304070264264432,-1.4504954674418327,-2.120385670400048
1687015340.134129,-0.11354999244213104,0.9935129284858704,0.006196076516062021,0.0006501302123069763,0.016145825386047363,0.006453394889831543,-0.011407509446144104,-0.03135751932859421,0.17947198450565338,-1.6253092147931685,-1.4568307866230814,-2.1166492459431776
1687015340.176733,-0.10509458929300308,0.9944616556167603,0.0009802725398913026,-0.012504972517490387,-0.009476423263549805,0.019420623779296875,0.14234431087970734,-0.03741634264588356,0.143915593624115,-1.5801235825492288,-1.465501825501918,-2.0701703175120723
1687015340.267037,-0.09940378367900848,0.9950448870658875,-0.0021004199516028166,-0.0038677752017974854,-0.011448204517364502,0.020914435386657715,0.0530397891998291,-0.04037471488118172,0.1556904911994934,-1.5496692893893653,-1.4712049746209972,-2.0383087844140206
1687015340.2716022,-0.09532254189252853,0.9954424500465393,-0.0027752879541367292,-0.0036307647824287415,0.021128416061401367,-0.0076160430908203125,0.1857220083475113,-0.07872596383094788,0.20333337783813477,-1.5416898407889499,-1.4752868236513694,-2.0267258059541455
1687015340.328018,-0.08873079717159271,0.9960436224937439,-0.0048810685984790325,0.0033425241708755493,-0.05598020553588867,-0.008684098720550537,-0.007996266707777977,-0.012767588719725609,0.09306865930557251,-1.5158418524778123,-1.481813254478317,-1.99802980464448
1687015340.421527,-0.08483698219060898,0.9963570833206177,-0.008665703237056732,0.01708788424730301,-0.02463167905807495,-0.026582181453704834,0.16413149237632751,-0.049655698239803314,0.10742869228124619,-1.4690040242449038,-1.4854134965016628,-1.949868870334015
1687015340.427185,-0.08163411170244217,0.9964991807937622,-0.018033629283308983,0.010131336748600006,-0.00020706653594970703,-0.02282947488129139,0.1305166631937027,-0.023608919233083725,0.06953856348991394,-1.3533801016138762,-1.4870964315061412,-1.8330767496010836
1687015340.479302,-0.07735280692577362,0.9968084692955017,-0.0197406318038702,0.0024015381932258606,0.034182190895080566,-0.007084371522068977,0.02809915319085121,0.008217588067054749,0.0775938332080841,-1.320927189874435,-1.4908807906943367,-1.8003831378352337
1687015340.5691361,-0.0730067789554596,0.9970679879188538,-0.02292097918689251,-0.0043553560972213745,0.011965155601501465,-0.010465322062373161,0.033681873232126236,-0.0038013907615095377,0.11498114466667175,-1.2665847772420784,-1.494200409477545,-1.745828823564458
1687015340.575202,-0.06553549319505692,0.9975020885467529,-0.026352079585194588,-0.007508412003517151,-0.0073593854904174805,-0.009597716853022575,0.03601846098899841,-0.028582504019141197,0.17562106251716614,-1.1884775090398674,-1.500100453779858,-1.6668077116476003
1687015340.6276069,-0.06196855753660202,0.9976667165756226,-0.028656750917434692,0.012209553271532059,-0.005357086658477783,-0.0018304027616977692,0.060849178582429886,0.0535828061401844,0.02742360159754753,-1.137645429308229,-1.50247061052919,-1.6173723684356078
1687015340.719239,-0.05882968381047249,0.9977520704269409,-0.0320950523018837,0.016684819012880325,0.012013673782348633,0.012716289609670639,-0.0007850255351513624,-0.04108324646949768,0.16130150854587555,-1.0713692685405298,-1.5037324572256903,-1.551006567255933
1687015340.725175,-0.0508553683757782,0.9982494711875916,-0.030194958671927452,0.010709397494792938,0.0014758706092834473,-0.006426218897104263,0.04724987596273422,-0.04870494827628136,0.13060298562049866,-1.0349911571200854,-1.5116181815128942,-1.512618427804585
1687015340.778893,-0.04725097492337227,0.998373806476593,-0.03189500421285629,0.01944936439394951,-0.029227018356323242,-0.007198099046945572,0.061583012342453,-0.03110012225806713,0.031651102006435394,-0.9770380283690451,-1.5137586495678255,-1.4531487299238455
1687015340.869699,-0.04425050690770149,0.9984112977981567,-0.034884996712207794,0.0005950219929218292,-0.02548038959503174,-0.026028156280517578,0.08568335324525833,-0.047995880246162415,0.07404410094022751,-0.9031980018518322,-1.5144198915973308,-1.3765789172213947
1687015340.875688,-0.04506970942020416,0.9982258081436157,-0.038912516087293625,0.001353185623884201,-0.06783628463745117,-0.08482104539871216,0.10096210986375809,0.018173947930336,-0.1012084037065506,-0.8585826458518949,-1.5112187863902833,-1.3312386008040313
1687015340.928966,-0.0480467826128006,0.9973948001861572,-0.05380738154053688,-0.012637518346309662,-0.13264864683151245,-0.10277838259935379,0.43548575043678284,0.005511150695383549,-0.02480311691761017,-0.728901034470952,-1.4985975931492914,-1.201551254220324
1687015341.0182261,-0.0486258789896965,0.995491623878479,-0.0814366266131401,-0.07886139303445816,-0.21889561414718628,-0.013549380004405975,0.44358524680137634,-0.05293644964694977,-0.07989220321178436,-0.5382850266555937,-1.4758039454890217,-1.006040144471401
1687015341.0247068,-0.04747956246137619,0.9955450892448425,-0.0814584419131279,-0.07846656441688538,-0.21930009126663208,-0.023064307868480682,-0.4921875298023224,-0.10726253688335419,0.27408984303474426,-0.5277275964547402,-1.476369672059921,-0.9923327528151145
1687015341.078098,-0.013689466752111912,0.9988160729408264,-0.04668232053518295,-0.15972676873207092,0.019006311893463135,-0.06423389911651611,-0.5881233215332031,-0.39374396204948425,1.165392518043518,-0.28525024896032575,-1.5221305849079505,-0.7359320692050858
1687015341.167162,0.06391232460737228,0.9979529976844788,-0.0021957745775580406,-0.31624701619148254,0.07318335771560669,0.00944364070892334,-1.3811250925064087,-0.4220608174800873,1.9279592037200928,1.5364537921552175,-1.5068013980203228,1.1089583692469536
1687015341.173874,0.17770366370677948,0.9814257621765137,0.07228411734104156,-0.35099780559539795,0.43025636672973633,-0.09822416305541992,-1.519638180732727,-0.33101600408554077,2.6493778228759766,1.957123316913,-1.3777572740989603,1.550204088200084
1687015341.261303,0.3232792615890503,0.9389495253562927,0.11774704605340958,-0.28798577189445496,0.5205841660499573,-0.09833788871765137,-0.6704584956169128,-0.3438251316547394,3.193481922149658,1.9200889196140793,-1.2195642408665899,1.5311607357502481
1687015341.35073,0.47464069724082947,0.866392195224762,0.15517936646938324,-0.14767548441886902,0.47238337993621826,0.0045343488454818726,-1.0737708806991577,-0.20674598217010498,3.516749382019043,1.886782524453747,-1.047931611868429,1.509185824371734
1687015341.3561149,0.6215590834617615,0.7620781660079956,0.18138666450977325,-0.14582067728042603,0.3472968339920044,0.10164856910705566,-0.8382634520530701,-0.5858339071273804,3.4764204025268555,1.8547366121770152,-0.8665166632996844,1.4930391773167078
1687015341.441453,0.7523199915885925,0.6350045204162598,0.17545269429683685,-0.24243247509002686,0.45844030380249023,0.34912919998168945,-0.77999347448349,-1.3938980102539062,3.4590659141540527,1.7999165223917153,-0.6880143881272524,1.4826164733655245
1687015341.461976,0.86757493019104,0.49068036675453186,0.08090953528881073,0.03501284122467041,0.2756008207798004,0.1193162128329277,2.9669528007507324,-2.0389583110809326,3.4754292964935303,1.6637867815815832,-0.5128703990657025,1.395791892452788
1687015341.5305982,0.9228569865226746,0.37802496552467346,-0.07370291650295258,0.06617188453674316,-1.392520785331726,-0.2757081389427185,5.314877986907959,-0.7856577634811401,1.1062743663787842,1.491101619206839,-0.38766201610390133,1.1604370544019438
1687015341.548054,0.9148351550102234,0.3814506530761719,-0.13255944848060608,-0.48691779375076294,-1.5615348815917969,0.12195450067520142,0.4541204869747162,1.0794283151626587,-1.3079655170440674,1.426898035384121,-0.3913651125815291,1.0048181084876597
1687015341.6149049,0.8920987844467163,0.43205487728118896,-0.13224291801452637,0.12383121252059937,0.3186165392398834,0.5506998896598816,1.898866891860962,0.04222508892416954,-1.5337954759597778,1.423630081751617,-0.446770051573968,0.8991063298068638
1687015341.6307468,0.8757758736610413,0.45800936222076416,-0.15245996415615082,0.13188397884368896,0.21276706457138062,0.40401631593704224,-0.832472026348114,-0.5924733281135559,0.2204575091600418,1.3984380277662753,-0.4757545755682512,0.8844213856659078
1687015341.673789,0.8773475289344788,0.4489964246749878,-0.169302836060524,-0.03986901044845581,-0.3559025526046753,-0.273049533367157,0.2033526599407196,-0.04276822879910469,0.038223251700401306,1.380168236523555,-0.46564187772212406,0.8956516095177358
1687015341.765476,0.8778805732727051,0.45264509320259094,-0.15632690489292145,-0.043728411197662354,-0.06675028800964355,-0.09272712469100952,0.37291499972343445,0.5268061757087708,-0.19935548305511475,1.3945704523325901,-0.4697295030508546,0.8859134171974052
1687015341.783524,0.8752049207687378,0.4597492218017578,-0.1504889726638794,0.059441566467285156,0.055799514055252075,0.20990663766860962,0.17262950539588928,0.012953088618814945,-0.21185769140720367,1.400514343281946,-0.4777127994714972,0.8600775272546566
1687015341.82448,0.8698814511299133,0.46772319078445435,-0.15665678679943085,0.03792494535446167,0.018406689167022705,0.0019936412572860718,-0.02512218989431858,-0.30258941650390625,-0.16611656546592712,1.392616391756655,-0.4867130640717774,0.8642237246294383
1687015341.91557,0.8608601093292236,0.47910669445991516,-0.17139600217342377,-0.017491698265075684,-0.14112445712089539,-0.08481442928314209,0.09078830480575562,-0.10584466904401779,-0.4434688091278076,1.374267695389294,-0.4996367226802773,0.8502670049725934
1687015341.932872,0.848312258720398,0.5027119517326355,-0.1662740409374237,-0.025649964809417725,0.03421437740325928,0.03867995738983154,-0.4210788309574127,-0.04582420736551285,-0.44704410433769226,1.377244369800117,-0.5267330942281605,0.8626116483727468
1687015341.974463,0.8371785879135132,0.5202328562736511,-0.16878947615623474,-0.009175658226013184,0.03524821996688843,0.005016788840293884,0.09954430907964706,-0.05641786381602287,-0.34140050411224365,1.3718464040863407,-0.5471236112366572,0.861430479008897
1687015342.064631,0.8306240439414978,0.5316202640533447,-0.1656607985496521,0.033175885677337646,-0.03537392616271973,-0.04184351861476898,-0.27982091903686523,0.07098656892776489,-0.2208447903394699,1.3739379665757214,-0.5605123781746078,0.8651093748747527
1687015342.081368,0.8244631886482239,0.5432972311973572,-0.15839363634586334,0.04377710819244385,0.005179941654205322,-0.028435051441192627,0.03303978219628334,0.009187644347548485,-0.30043789744377136,1.3809916586579127,-0.5743595877383096,0.872948032944159
1687015342.122781,0.8143601417541504,0.5572674870491028,-0.16208188235759735,0.019120633602142334,-0.06910824775695801,0.055300772190093994,-0.17415888607501984,-0.17413251101970673,-0.39777055382728577,1.3743338882756018,-0.5910912632586535,0.8681247771566188
1687015342.2189531,0.7955330014228821,0.584716796875,-0.15885072946548462,-0.08722001314163208,-0.21063226461410522,0.14169971644878387,-0.620965838432312,-0.3341505229473114,-0.8933103084564209,1.3737100567139584,-0.6245309176949766,0.8902637543818529
1687015342.223222,0.7463021278381348,0.643494188785553,-0.1701420247554779,-0.27984100580215454,-0.4592900276184082,0.17558938264846802,0.1622430384159088,-0.4551911950111389,-2.179480791091919,1.3466472010551935,-0.6990543950312412,0.8816768259636444
1687015342.276875,0.6490010619163513,0.7397337555885315,-0.17774085700511932,-0.3074636459350586,-0.4570341110229492,0.12987399101257324,-0.4276559054851532,-0.2991073429584503,-3.2434918880462646,1.3034824826383182,-0.832674581853883,0.8433723015123928
1687015342.373141,0.4970511794090271,0.8506215810775757,-0.1714140623807907,-0.32221612334251404,-0.44064855575561523,0.08614791929721832,-0.1563897430896759,-0.17346805334091187,-4.244422435760498,1.2387061079927857,-1.017166432429897,0.7806989350591663
1687015342.378766,0.28731638193130493,0.9353120923042297,-0.20649588108062744,-0.17760580778121948,-0.196924090385437,0.041182100772857666,1.4846570491790771,-0.6287696957588196,-4.881259441375732,0.9476263061620096,-1.2091401686201084,0.4803162150008386
1687015342.42715,0.0427883081138134,0.9558838605880737,-0.29061171412467957,-0.15945710241794586,-0.1743287444114685,-0.020835459232330322,1.3078982830047607,-0.8282101154327393,-4.938742637634277,0.14618501718988414,-1.2726540933983772,-0.31801903940589754
1687015342.5504699,-0.21656650304794312,0.9166994690895081,-0.3357990086078644,-0.17909398674964905,-0.16177093982696533,0.152205228805542,0.9543177485466003,-1.5354481935501099,-4.922389507293701,-0.5728020550062873,-1.1597406199355798,-1.0108774203732915
1687015342.569601,-0.4593604505062103,0.8184202313423157,-0.34521913528442383,-0.21312493085861206,0.054733335971832275,-0.01829102635383606,0.6415882706642151,-1.655250906944275,-5.105810642242432,-0.9263223344105276,-0.9586563430858398,-1.3253829131358394
1687015342.636239,-0.6952008008956909,0.6634478569030762,-0.27664539217948914,-0.2943164110183716,-0.20916330814361572,0.014239966869354248,-1.4673912525177002,-2.305246591567993,-5.914600372314453,-1.1920705635895794,-0.7254174466306663,-1.5478105002215512
1687015342.639773,-0.8895077109336853,0.4416779577732086,-0.11703192442655563,-1.185229778289795,0.012896478176116943,0.10513002425432205,-3.144813060760498,-1.245514154434204,-6.078294277191162,-1.439978389101642,-0.4574680896767576,-1.781281139573208
1687015342.728751,-0.9715198278427124,0.22569669783115387,-0.07218105345964432,-0.9965129494667053,0.6343038082122803,0.10379720479249954,-1.9354768991470337,0.5513163805007935,-3.5983364582061768,-1.4966355381259087,-0.22765812072695124,-1.9594717285542538
1687015342.7468472,-0.9896182417869568,0.12459322810173035,-0.0716412365436554,-0.013311564922332764,0.5708717703819275,-0.3206164836883545,1.642704963684082,-0.9354076385498047,-0.559249222278595,-1.498529589717163,-0.1249178543973787,-1.9660713890626649
1687015342.853979,-0.9917463064193726,0.12685465812683105,-0.018623361364006996,-0.11814731359481812,0.03523935377597809,-0.011680658906698227,-0.11990895122289658,-0.8765146136283875,0.5180953145027161,-1.5520201810354968,-0.12719737517089788,-1.9051036999981847
1687015342.8594232,-0.987644612789154,0.1567094475030899,0.0004044401866849512,-0.06495237350463867,0.21847358345985413,-0.4073411226272583,-3.243144989013672,0.5733480453491211,0.5746967792510986,-1.5712058264827908,-0.15735804593567657,-2.01688662846337
1687015342.940558,-0.9857848286628723,0.1679762601852417,0.0034629825968295336,0.12598270177841187,0.26688385009765625,-0.052306413650512695,-1.1604114770889282,0.2121570110321045,-0.19930914044380188,-1.5743092316862164,-0.16877639670982528,-2.11966340935476
1687015342.9467869,-0.9885581731796265,0.1508122682571411,0.0029181030113250017,0.06439435482025146,0.20978333055973053,0.039272427558898926,-0.23023845255374908,0.041149042546749115,-0.4705126881599426,-1.5737481961987165,-0.15138989467592232,-2.1553466584458554
1687015343.0311809,-0.9913150668144226,0.1314692497253418,-0.0032097487710416317,0.006772220134735107,0.09826698899269104,0.06944805383682251,0.33753541111946106,0.09127252548933029,-0.27802154421806335,-1.5675584686158983,-0.13185095016716555,-2.1495446428477565
1687015343.050403,-0.992322564125061,0.12345992773771286,-0.007327614817768335,-0.004656195640563965,-0.004914470016956329,0.06213712692260742,0.008413665927946568,0.04621676728129387,-0.040918704122304916,-1.5634121533446446,-0.12377573226760437,-2.1398412037855157
1687015343.116328,-0.9921709299087524,0.12470649182796478,-0.006727446801960468,0.017592012882232666,-0.006573013961315155,0.04241764545440674,-0.018920352682471275,-0.0758657306432724,0.08014354109764099,-1.5640158987730624,-0.1250320050769955,-2.1421199770892922
1687015343.133378,-0.9916085004806519,0.1292741447687149,0.0008600045694038272,-0.01499849557876587,-0.019639834761619568,0.020883679389953613,0.07316123694181442,-0.14961212873458862,0.08037310838699341,-1.5716636089277405,-0.1296369459655132,-2.1384445639388368
1687015343.206235,-0.9915843605995178,0.12921461462974548,0.007991235703229904,-0.008217155933380127,0.009090930223464966,-0.05393552780151367,0.3341977596282959,-0.013192228972911835,-0.03798629716038704,-1.5788552100694524,-0.12957691856203477,-2.130179441044963
1687015343.209832,-0.9920026659965515,0.1259506791830063,0.008191601373255253,-0.01562666893005371,-0.00749678909778595,-0.07116472721099854,0.1559678316116333,-0.0197910089045763,-0.02137989178299904,-1.5790537793992945,-0.12628609020764406,-2.1176200122504225
1687015343.2660232,-0.9920377731323242,0.1258542239665985,0.004650874529033899,-0.016430795192718506,-0.024429142475128174,-0.02680671215057373,-0.0316372811794281,0.0350705087184906,-0.0016810214146971703,-1.5754844956433909,-0.12618885799475593,-2.115166555672434
1687015343.326513,-0.9924235343933105,0.1227743923664093,-0.004656261298805475,0.013724923133850098,-0.0038475021719932556,0.013765692710876465,-0.029161807149648666,0.016358206048607826,-0.03469010442495346,-1.5661045524378814,-0.12308494742522076,-2.1153534779966963
1687015343.422289,-0.9927380084991455,0.12007830291986465,-0.007249133661389351,-0.0026233792304992676,0.021538451313972473,0.015595613978803158,-0.030265619978308678,0.01827901042997837,-0.02168056182563305,-1.5634942948627206,-0.12036875726134066,-2.1177108108279104
1687015343.42737,-0.9928667545318604,0.11907710880041122,-0.005999708082526922,0.0037006139755249023,0.02015923708677292,-0.008068978786468506,0.011806866154074669,0.014319689013063908,-0.02795310504734516,-1.5647535876329948,-0.11936032703241112,-2.118181556645976
1687015343.4728122,-0.9926030039787292,0.12131083756685257,-0.0047716558910906315,-0.002422511577606201,0.021663926541805267,0.0038713221438229084,0.048301491886377335,0.00017830391880124807,0.010759669356048107,-1.5659891490516005,-0.12161036453388331,-2.116805594508683
1687015343.5674071,-0.9922927021980286,0.12376146763563156,-0.006190014071762562,-0.00984346866607666,-0.008160986006259918,-0.0008748769760131836,0.06360748410224915,0.012169718742370605,-0.013771506026387215,-1.5645583148303581,-0.12407960745350916,-2.1132867622212244
1687015343.58749,-0.9921333193778992,0.12501363456249237,-0.006556140724569559,-0.005837202072143555,0.0018630772829055786,-0.004994868766516447,-0.006091107614338398,0.020311934873461723,-0.02072848193347454,-1.5641882982314759,-0.1253415799438817,-2.1119212235546025
1687015343.626126,-0.9923055171966553,0.1236099824309349,-0.007097545545548201,-0.009586632251739502,0.004746876657009125,0.0023214807733893394,0.020429648458957672,-0.0003069239901378751,-0.010597816668450832,-1.5636438679965659,-0.1239269455547223,-2.111562086584238
1687015343.718102,-0.9922683238983154,0.12383871525526047,-0.00821888167411089,-0.005778491497039795,-0.004545591771602631,0.0009098649024963379,0.020408544689416885,0.010834809392690659,-0.004549511708319187,-1.5625135937559589,-0.12415745318480749,-2.110328862654577
1687015343.722713,-0.9923253059387207,0.12337259948253632,-0.008359472267329693,0.004150807857513428,0.009165160357952118,-0.005114139057695866,-0.04867259040474892,0.012722591869533062,-0.021168168634176254,-1.5623724010954283,-0.12368773541654672,-2.1114913548543135
1687015343.773337,-0.9924460053443909,0.122422955930233,-0.007963175885379314,0.0050650835037231445,0.046964772045612335,-0.003053724765777588,0.007763854693621397,-0.02326430380344391,0.010622517205774784,-1.5627727119189057,-0.12273083702934094,-2.1129908169542655
1687015343.868696,-0.9923315644264221,0.12340792268514633,-0.006962646264582872,-0.0011528730392456055,0.015599541366100311,0.002980053424835205,0.06344150006771088,-0.021800896152853966,-0.020281603559851646,-1.5637799907516419,-0.1237233313866558,-2.1103021430059394
1687015343.875056,-0.9919778108596802,0.1262357383966446,-0.006666085682809353,0.01630038022994995,0.041778698563575745,0.008558094501495361,0.15760774910449982,-0.021601561456918716,-0.011857491917908192,-1.564076433175935,-0.12657344208554883,-2.106013256155218
1687015343.928574,-0.9916704297065735,0.12869594991207123,-0.005214684177190065,0.02043318748474121,0.0487636923789978,-0.0094185471534729,0.2595992088317871,-0.06657036393880844,0.03721044957637787,-1.5655378901153734,-0.12905387952133018,-2.094516394894194
1687015344.016763,-0.9908283352851868,0.13510838150978088,-0.0021719145588576794,0.0030507445335388184,0.11727190017700195,-0.003870665794238448,0.2433496117591858,-0.08660493046045303,0.11756494641304016,-1.5686043114171344,-0.13552284590197633,-2.0824099908675513
1687015344.036683,-0.9891301393508911,0.14704178273677826,-0.0004628413007594645,0.02169245481491089,0.21669714152812958,0.006779909133911133,0.44837379455566406,-0.07117337733507156,0.3378744125366211,-1.5703283992035362,-0.1475768774592421,-2.065927842819253
1687015344.0767632,-0.9853879809379578,0.17031504213809967,-0.0017647652421146631,-0.007852256298065186,0.16617165505886078,-0.03413921594619751,-0.0985010638833046,-0.012962132692337036,0.6033047437667847,-1.569005394271337,-0.17114937014250906,-2.055398072484357
1687015344.169285,-0.9788031578063965,0.20480045676231384,0.0010312689701095223,-0.0009483695030212402,0.172335684299469,-0.02555227279663086,-0.0355769619345665,-0.04859522730112076,0.8017781376838684,-1.5718499284081784,-0.20625983092060704,-2.063664812656445
1687015344.174125,-0.9685078859329224,0.24894338846206665,0.004437851253896952,-0.08132731914520264,0.10019287467002869,-0.0024847984313964844,-0.11402123421430588,-0.033686451613903046,1.0372439622879028,-1.575378447463878,-0.25158914656434167,-2.065811842547074
1687015344.22701,-0.9515422582626343,0.3074171841144562,0.007876205258071423,-0.06982004642486572,0.15562596917152405,-0.03622710704803467,-0.007372154854238033,-0.09798048436641693,1.4383209943771362,-1.5790734430460796,-0.3124775789799197,-2.0711707816641325
1687015344.3212051,-0.9211825132369995,0.38883015513420105,0.015291118994355202,-0.1375333070755005,0.10466951131820679,-0.029268264770507812,-0.08167248964309692,-0.17090049386024475,2.0800981521606445,-1.587394247316887,-0.3993615039030041,-2.0704023409854067
1687015344.327441,-0.8660236597061157,0.49892759323120117,0.03277568891644478,-0.23273122310638428,0.20776787400245667,-0.09980762004852295,-0.4971144199371338,-0.2582279443740845,2.926879405975342,-1.6086244570356074,-0.5223609099800365,-2.094419854943932
1687015344.373779,-0.770359992980957,0.6350371837615967,0.05721447616815567,-0.3456680178642273,0.3234283924102783,-0.026895277202129364,-0.3927046060562134,-0.31106865406036377,3.7853171825408936,-1.6449300145445014,-0.6880566753103836,-2.1357506423179022
1687015344.470406,-0.6236339807510376,0.7768573760986328,0.08702513575553894,-0.4226612448692322,0.34826475381851196,0.02233458310365677,-0.396138459444046,-0.5590062737464905,4.336424350738525,-1.7094461910105625,-0.8896594674022766,-2.1981086779812875
1687015344.476901,-0.4304395318031311,0.8952414989471436,0.11517149955034256,-0.48305845260620117,0.23783034086227417,0.10156428813934326,-0.16362707316875458,-0.8092361092567444,4.751089572906494,-1.8322392735963546,-1.108972848158615,-2.302557861647182
1687015344.527473,-0.1977386176586151,0.9712094664573669,0.13285936415195465,-0.5580750703811646,0.08852869272232056,0.1451098918914795,0.08737798780202866,-0.9964621663093567,4.927793025970459,-2.1624090135366214,-1.3302561994966176,-2.603133672849851
1687015344.620594,0.04871148243546486,0.990696132183075,0.1270764023065567,-0.5527246594429016,-0.06905007362365723,0.09789907932281494,0.1418970227241516,-1.0506633520126343,4.799957275390625,2.775543960836302,-1.4342802629852274,2.3697492835322773
1687015344.627351,0.2852726876735687,0.9500722289085388,0.12642130255699158,-0.6481724977493286,-0.010802149772644043,0.007627144455909729,-0.4886154234409332,-1.0649151802062988,4.624109745025635,1.9879471905194734,-1.2534673576551298,1.6216198789446115
1687015344.673596,0.4945724606513977,0.8575478196144104,0.14145609736442566,-0.6376999616622925,-0.0742073655128479,0.04645586013793945,-0.8151652216911316,-1.1999211311340332,4.276989936828613,1.8493757639419683,-1.0304835618835553,1.5279845876973432
1687015344.768265,0.6680977940559387,0.7347428798675537,0.11746617406606674,-0.6391061544418335,0.2732679843902588,0.012981176376342773,1.1390081644058228,-1.0797834396362305,4.035218238830566,1.744839286739516,-0.825287595542193,1.46721797748288
1687015344.77535,0.802821159362793,0.5958388447761536,0.02131328545510769,-0.54462730884552,-0.2512648105621338,0.06853044033050537,1.3116235733032227,-0.6414235234260559,3.4116127490997314,1.5973380782970978,-0.6383097688445057,1.321518793759103
1687015344.828017,0.871029794216156,0.48909062147140503,-0.04579981043934822,0.11503899097442627,-0.9402623772621155,-0.5653605461120605,2.793398380279541,-1.1752783060073853,1.6696053743362427,1.5182634849245,-0.5110468661523926,1.2173675429059416
1687015344.920022,0.8781357407569885,0.4662208557128906,-0.10731112957000732,-0.6134416460990906,-0.9306068420410156,0.30179959535598755,1.9285584688186646,1.9630310535430908,-0.45430999994277954,1.4491958975522716,-0.48501413685623007,1.0791435890105907
1687015344.9258208,0.8703251481056213,0.47792357206344604,-0.11884024739265442,0.08836913108825684,0.24151310324668884,0.5242509245872498,1.790536642074585,0.08468453586101532,-0.8706942200660706,1.4350886423356979,-0.49828932940693466,0.9351271378337289
1687015344.978148,0.8625419735908508,0.4925737977027893,-0.115725077688694,0.10550600290298462,-0.04945850372314453,0.00984424352645874,-0.3787548243999481,0.1901118904352188,-0.12346817553043365,1.4374253214488493,-0.5150447634122391,0.9245309936134379
1687015345.1018271,0.8594346046447754,0.5011131167411804,-0.10128005594015121,0.04914987087249756,-0.15780556201934814,-0.05338311195373535,0.44147446751594543,0.6132590770721436,-0.21992839872837067,1.453492371061725,-0.5248845385482082,0.9132103805159331
1687015345.107208,0.8573645353317261,0.5070018172264099,-0.08874279260635376,0.09659963846206665,0.024309277534484863,0.16039800643920898,-0.2138528972864151,0.09037237614393234,0.06129154935479164,1.4676571230465911,-0.5317028352025923,0.903402274957198
1687015345.1884341,0.8587326407432556,0.5044564604759216,-0.09001050889492035,0.027360379695892334,-0.027603983879089355,-0.05317806452512741,0.029819954186677933,-0.09582598507404327,0.026859808713197708,1.4663598316312636,-0.5287523103499683,0.907685223750855
1687015345.194016,0.8572631478309631,0.5063630938529968,-0.09325345605611801,-0.02063906192779541,0.02059924602508545,-0.029167890548706055,0.18882904946804047,-0.0014422296080738306,-0.07090669870376587,1.4624419459910694,-0.5309619351530447,0.9044324028307454
1687015345.2795382,0.8555629253387451,0.507917046546936,-0.10016275197267532,-0.018816649913787842,0.028551578521728516,0.026798412203788757,0.011348269879817963,-0.0771937146782875,0.0019504651427268982,1.4542544917564295,-0.5327649781789473,0.8946984334160115
1687015345.299134,0.8548663854598999,0.5082201361656189,-0.10447833687067032,-0.03301286697387695,-0.09517991542816162,-0.03419363498687744,0.15542587637901306,0.07188671082258224,-0.08620522171258926,1.4491834471350784,-0.5331168536548492,0.8881243808979602
1687015345.363811,0.8513166308403015,0.5151432752609253,-0.09943506866693497,0.033769309520721436,-0.006827175617218018,0.07145035266876221,-0.19376853108406067,0.032821737229824066,-0.1271667778491974,1.454521669786687,-0.5411748118648608,0.8881493291534709
1687015345.38028,0.8500427603721619,0.5178226828575134,-0.09636787325143814,0.08060586452484131,-0.06382793188095093,0.08240599185228348,-0.29515019059181213,-0.15287183225154877,-0.09401121735572815,1.457910033980205,-0.5443038622500401,0.9019368087973717
1687015345.4564009,0.8445166945457458,0.527565062046051,-0.09201522171497345,0.12313467264175415,-0.4025649428367615,0.20308387279510498,-0.7019748091697693,-0.32453814148902893,-0.3174131512641907,1.462268364909048,-0.5557317162630095,0.928578965945634
1687015345.459916,0.8287867903709412,0.552567720413208,-0.08821196109056473,0.09148591756820679,-0.3967907428741455,0.10493553429841995,-1.033754587173462,-0.5806808471679688,-0.6386878490447998,1.464760484210133,-0.5854418534654514,0.9774624964965066
1687015345.5168161,0.8076880574226379,0.5853089690208435,-0.07108832150697708,0.19663012027740479,-0.20094001293182373,0.04337829351425171,-1.2981884479522705,-0.2612626254558563,-0.6985530853271484,1.483007971135585,-0.6252610422556663,1.0470867654536589
1687015345.6094642,0.7895150184631348,0.611201286315918,-0.05566779524087906,0.3456624746322632,-0.14019304513931274,-0.0785180926322937,0.04229346662759781,-0.1585286408662796,-0.5808948874473572,1.5004039755731309,-0.6575775051531391,1.0929467792399106
1687015345.626909,0.7604016065597534,0.6443257927894592,-0.08144525438547134,0.2909287214279175,-0.31514793634414673,0.05239243060350418,0.5220096707344055,0.0871579498052597,-1.3999788761138916,1.464094910763202,-0.7001413399695534,1.0402057137778806
1687015345.665739,0.7063363194465637,0.7034919857978821,-0.07866261154413223,0.10828453302383423,-0.11209189891815186,0.04130900651216507,-0.18433867394924164,0.1772920936346054,-1.9421864748001099,1.4598862694175105,-0.7802990678215338,1.0311908262299798
1687015345.7591228,0.6181142330169678,0.7841212749481201,-0.055573806166648865,0.0889320969581604,0.0018741488456726074,0.09869503974914551,-1.2805439233779907,0.10732273012399673,-2.7271218299865723,1.4811287873021932,-0.9012789605983289,1.0434761812574842
1687015345.7770529,0.5063374638557434,0.8622004985809326,0.015256873331964016,-0.054845213890075684,0.33659112453460693,0.07664680480957031,-0.991761326789856,0.22437678277492523,-2.5739622116088867,1.6009190385784264,-1.039597689764053,1.1891859692558635
1687015345.816215,0.3776305317878723,0.9255934953689575,0.025920724496245384,-0.13497012853622437,0.22032630443572998,-0.022014498710632324,0.49271249771118164,0.8680124878883362,-3.3947789669036865,1.6393292663869374,-1.1826005188236242,1.1809288315274067
1687015345.9063292,0.1878373771905899,0.9820329546928406,0.018114345148205757,-0.8043383359909058,0.13310974836349487,-0.003603341057896614,0.8880348205566406,0.37381887435913086,-4.280637264251709,1.666935354129318,-1.3809484158213272,1.1865523865764362
1687015345.910758,0.0032308062072843313,0.9981970191001892,-0.059936732053756714,-0.7209433317184448,-0.16192376613616943,-0.09648121148347855,0.9298322200775146,0.8885611295700073,-2.3711764812469482,0.05385149269035349,-1.5107377333911118,-0.4722946353348297
1687015345.968215,-0.04683125391602516,0.9978763461112976,-0.04527200758457184,-0.0385875329375267,0.08612322807312012,-0.13189786672592163,-1.046501874923706,0.09808902442455292,0.07929425686597824,-0.8023258746500284,-1.5056134810256974,-1.3579896629015555
1687015346.061654,-0.015858519822359085,0.999748945236206,-0.015823479741811752,-0.043681345880031586,-0.032219767570495605,-0.19813531637191772,0.031464654952287674,-0.2776971161365509,0.7346358299255371,-0.7865041210688744,-1.5483891525762452,-1.3330154082887642
1687015346.08126,0.0022873603738844395,0.9996680617332458,-0.02566017210483551,-0.03886276111006737,-0.18362808227539062,-0.11734527349472046,0.3337664008140564,0.12731628119945526,0.04578449949622154,0.08890550393859876,-1.5450291816529689,-0.4530701942306544
1687015346.1177192,-0.002164715901017189,0.9991370439529419,-0.041480764746665955,-0.017656546086072922,-0.11922365427017212,-0.0398639477789402,0.1579282581806183,0.23921778798103333,-0.18260154128074646,-0.05213872009519827,-1.529248836266337,-0.6020830889230534
1687015346.207756,-0.008602879010140896,0.9990381002426147,-0.042998507618904114,0.00538319256156683,-0.03367561101913452,0.0051718950271606445,0.018392663449048996,0.1439177691936493,-0.053903479129076004,-0.19746661177347916,-1.5269319423129093,-0.7576411562785057
1687015346.212014,-0.012223033234477043,0.9988623261451721,-0.04609358683228493,-0.020354565232992172,-0.09239870309829712,0.040188372135162354,-0.008901741355657578,0.10721873492002487,-0.18135836720466614,-0.2592126180863604,-1.5230908181632523,-0.8235765264034266
1687015346.26214,-0.020029064267873764,0.9987823963165283,-0.045084401965141296,0.015237722545862198,0.031780898571014404,0.02747565507888794,0.07115314900875092,0.08284122496843338,-0.11446215957403183,-0.41806785032183713,-1.5214433531942355,-0.9888420495007063
1687015346.3237062,-0.02634197473526001,0.9984620213508606,-0.04878007248044014,-0.000864516943693161,0.012997210025787354,0.03254461660981178,0.02854669652879238,0.09343155473470688,-0.1608179360628128,-0.49514494486722344,-1.5153279363416907,-1.0697307475667077
1687015346.419629,-0.02972119301557541,0.9986014366149902,-0.04372326284646988,0.021252481266856194,0.062433600425720215,0.04077821969985962,-0.1182524710893631,-0.024462860077619553,0.019985392689704895,-0.5970104504484277,-1.5179027906860125,-1.1748340640395616
1687015346.423314,-0.024221789091825485,0.9987186789512634,-0.04443405196070671,-0.007196146994829178,0.00048792362213134766,-0.0016475953161716461,0.05906812101602554,-0.09491465985774994,0.12581302225589752,-0.4990870754168483,-1.5201680148671415,-1.0727901106076771
1687015346.504157,-0.024328555911779404,0.9989477396011353,-0.03887595981359482,0.0017759744077920914,0.016585588455200195,-0.02000778540968895,-0.07092942297458649,0.009782195091247559,-0.08821137994527817,-0.5591740341606198,-1.524917109247257,-1.1327034798325712
1687015346.507399,-0.023603128269314766,0.9990108013153076,-0.037686798721551895,-0.006319442763924599,0.03921240568161011,0.0028051137924194336,-0.043875571340322495,-0.08280233293771744,0.12420181930065155,-0.5595314179531764,-1.526312995220545,-1.1306122535855525
1687015346.562969,-0.01878475770354271,0.9991674423217773,-0.03621445596218109,-0.006468629464507103,-0.02950197458267212,-0.010324951261281967,-0.07871917635202408,0.001281385077163577,-0.013390674255788326,-0.4785023717262298,-1.5299872843259879,-1.047257949655086
1687015346.6578798,-0.019872207194566727,0.9992156028747559,-0.0342525951564312,0.017568035051226616,0.06860965490341187,-0.010974526405334473,0.03986453264951706,-0.05600200966000557,0.09480930119752884,-0.5257083730597265,-1.5311855288198781,-1.0962980739873818
1687015346.663636,-0.016225742176175117,0.9992024898529053,-0.03648340702056885,-0.018457578495144844,0.010975122451782227,0.021255072206258774,0.05668093264102936,0.02715865522623062,0.053608331829309464,-0.4184736558118582,-1.5308563933799102,-0.9872157108550135
1687015346.719005,-0.014503441751003265,0.9992241263389587,-0.03661564365029335,0.0024183886125683784,-0.011965334415435791,-0.009801685810089111,-0.021575259044766426,-0.004735894035547972,0.03332170471549034,-0.37713946259547354,-1.5314022876697706,-0.9468671378226007
1687015346.80506,-0.012687536887824535,0.9991146326065063,-0.04011444002389908,0.008079283870756626,-0.006377756595611572,-0.00169474259018898,0.14883355796337128,-0.04761318489909172,0.09853480011224747,-0.30632807703576,-1.5287130302618173,-0.8752840813757186
1687015346.8122768,-0.007836645469069481,0.9990425705909729,-0.04304078593850136,-0.024664660915732384,-0.034504055976867676,-0.056553423404693604,0.03892257437109947,-0.06365007907152176,0.1505764275789261,-0.18010196462363334,-1.5270339051373458,-0.7459678528138697
1687015346.864116,-0.0007906784885562956,0.9988564848899841,-0.047798480838537216,-0.049258243292570114,-0.04382437467575073,-0.11881231516599655,0.15152834355831146,0.04813744127750397,0.14875668287277222,-0.016540408187379688,-1.522969300230364,-0.5815468553616383
1687015346.920456,0.009279967285692692,0.9984577298164368,-0.054735809564590454,-0.031191686168313026,-0.06243789196014404,-0.02903503179550171,0.0038821641355752945,-0.013182908296585083,0.39237281680107117,0.16794407321309826,-1.5152510307550808,-0.39860266053065846
1687015347.0136108,0.034262508153915405,0.9982370138168335,-0.04846256971359253,-0.07637685537338257,-0.10961109399795532,6.034970283508301e-07,-0.2849007844924927,-0.10472027957439423,0.5817089080810547,0.6154012243550385,-1.5114073365964118,0.05521768637697662
1687015347.032848,0.06130686774849892,0.9976840019226074,-0.02946244180202484,-0.11776447296142578,-0.2072330117225647,-0.012682436034083366,-0.5713874101638794,-0.12724849581718445,0.5099875330924988,1.1228105297502968,-1.5027242874716025,0.5698433564681543
1687015347.106194,0.10198555141687393,0.9947685599327087,0.005882586818188429,-0.18999835848808289,0.00419384241104126,-0.022865653038024902,-0.8079423904418945,-0.572788417339325,1.1811931133270264,1.6284130733256768,-1.4684633454677918,1.0944903221166167
1687015347.1097488,0.16449320316314697,0.9855278730392456,0.040946200489997864,-0.23906300961971283,-0.07607358694076538,-0.038626912981271744,-0.8241286873817444,-0.46039876341819763,1.2056864500045776,1.8147614260060851,-1.4004602309838863,1.310419390903621
1687015347.169172,0.23035216331481934,0.9708949327468872,0.0655812919139862,-0.3796442449092865,0.11226546764373779,-0.010893821716308594,-0.4842599332332611,-0.7815565466880798,1.525887131690979,1.8481581317596887,-1.3289394412549689,1.3786833757110415
1687015347.254053,0.31067201495170593,0.9470607042312622,0.08098678290843964,-0.4596131443977356,0.2833470106124878,0.010336995124816895,-0.7707151770591736,-0.9746305346488953,1.8264278173446655,1.8258036519287706,-1.2439535307793443,1.3992088955081097
1687015347.257968,0.40947556495666504,0.9046778082847595,0.11784721910953522,-0.6557525396347046,0.36384642124176025,-0.07815921306610107,-1.2081868648529053,-0.6508004069328308,1.8269134759902954,1.8510235635692318,-1.130622920853091,1.4805227725176227
1687015347.3134599,0.4795485734939575,0.8662557601928711,0.14012159407138824,-0.23260045051574707,0.1545267105102539,-0.0581057071685791,-0.5210496783256531,-0.5767288208007812,1.300018548965454,1.8550770868477038,-1.0476584424500557,1.517231188059371
1687015347.441307,0.5217646360397339,0.8396251201629639,0.15096718072891235,-0.1660519242286682,0.15053290128707886,0.07319961488246918,0.0315435528755188,0.3167365491390228,0.539469838142395,1.852444483256344,-0.9965926809705484,1.5288038774806951
1687015347.447866,0.5279932022094727,0.839126706123352,0.13072678446769714,0.24454385042190552,0.12475574016571045,0.33762645721435547,1.6523878574371338,0.7559435963630676,0.17528364062309265,1.813507142799885,-0.9956757064501083,1.4488578450034213
1687015347.529148,0.5169588327407837,0.8503544330596924,0.09823989868164062,0.6265957951545715,-0.22825348377227783,0.19555272161960602,1.0383411645889282,1.2024105787277222,-0.13786256313323975,1.758591341823396,-1.0166584495914701,1.3112518291136321
1687015347.546725,0.5120096206665039,0.8548879027366638,0.08374319970607758,0.6170034408569336,-0.29739266633987427,-0.03702079504728317,1.7682329416275024,2.021519184112549,-0.03686483949422836,1.7329187109534365,-1.025334723594657,1.1925015144533104
1687015347.611407,0.5060750246047974,0.8596246838569641,0.07023904472589493,0.5980203747749329,-0.8302361369132996,0.06748665124177933,0.7741588354110718,1.648537516593933,0.20430517196655273,1.7087070573307777,-1.034534670878432,1.0465911386525406
1687015347.625121,0.5135502219200134,0.8538667559623718,0.08472244441509247,0.4612575173377991,-0.14741522073745728,0.23430824279785156,0.13329367339611053,0.12107076495885849,0.2868565022945404,1.7342976559650825,-1.02336965585524,1.023209888221887
1687015347.671009,0.5258693695068359,0.8484747409820557,0.059598419815301895,0.125085711479187,0.05238896608352661,0.057985663414001465,0.40653613209724426,-0.8376112580299377,0.24055904150009155,1.6836479294702058,-1.0130965672166476,0.9899197052541538
1687015347.764662,0.5354381799697876,0.8442438840866089,0.023623105138540268,-0.09769415855407715,-0.017019212245941162,-0.11116290092468262,0.3592435121536255,-0.4919227361679077,0.17849966883659363,1.6148869380401474,-1.0051528649843269,0.951308522261361
1687015347.781138,0.5439910888671875,0.8390873074531555,0.0024064118042588234,-0.0451204776763916,0.11002445220947266,0.008518815040588379,0.3231552243232727,-0.1612788885831833,0.22173981368541718,1.5752199213664606,-0.9956033156841292,0.920677010695389
1687015347.825688,0.5543197989463806,0.8322740793228149,-0.0070175230503082275,0.014314055442810059,-0.03628414869308472,0.00047141360118985176,-0.09096092730760574,-0.21318112313747406,0.2122829407453537,1.5581373021070457,-0.9831973017215948,0.9109089340525521
1687015347.918962,0.5581586956977844,0.8296629190444946,-0.010881137102842331,0.0002824068069458008,-0.06826460361480713,-0.03787076473236084,0.07724633067846298,-0.14965592324733734,0.011164204217493534,1.5513040945943937,-0.9785036626295227,0.9142445246504239
1687015347.936933,0.5552992820739746,0.8314332962036133,-0.019010605290532112,0.0023025870323181152,-0.01807880401611328,0.04975694417953491,-0.13096733391284943,-0.22855766117572784,-0.05453331768512726,1.5365748089123161,-0.9816822964513996,0.9060731645409951
1687015348.006957,0.5538444519042969,0.832317054271698,-0.022468524053692818,-0.00573354959487915,0.05514949560165405,-0.00333416648209095,0.052891649305820465,-0.29136765003204346,-0.06117364391684532,1.530250269116765,-0.9832748053136297,0.9135265816781075
1687015348.010539,0.5512865781784058,0.8338138461112976,-0.028943132609128952,-0.009569168090820312,-0.030636906623840332,-0.08558940887451172,-0.0057150027714669704,-0.11030612885951996,-0.043497975915670395,1.5183434211557016,-0.9859805941401104,0.9103673484001361
1687015348.065258,0.5507469177246094,0.8341275453567505,-0.03014965169131756,0.004825472831726074,0.07729518413543701,-0.01738154888153076,0.13834324479103088,0.005626598838716745,0.02373938262462616,1.5161077108814394,-0.9865491767556165,0.907888941278955
1687015348.1261601,0.553041934967041,0.8324661254882812,-0.03383724018931389,0.004468381404876709,0.0265427827835083,0.010002907365560532,0.0013802573084831238,-0.03490125387907028,0.07143926620483398,1.5096886438901629,-0.9835438123735966,0.9025082644171906
1687015348.219466,0.5528493523597717,0.8323519825935364,-0.039342813193798065,-0.0011221766471862793,-0.012970209121704102,-0.02070063352584839,0.14691035449504852,-0.06784921139478683,-0.023125059902668,1.49975238378947,-0.9833377775034517,0.8935623103822036
1687015348.224971,0.5516131520271301,0.8330694437026978,-0.04144785553216934,-0.003792285919189453,0.0037987828254699707,-0.0027874670922756195,-0.005449351854622364,-0.00865486916154623,-0.027201561257243156,1.4957979092777494,-0.9846335398821224,0.887979900201488
1687015348.275183,0.5519225597381592,0.8328189849853516,-0.04235842823982239,0.014849841594696045,-0.021814167499542236,-0.006012026220560074,0.07264651358127594,-0.020430035889148712,-0.039353832602500916,1.4941994266104477,-0.984180903773835,0.8868692016452487
1687015348.367893,0.5471331477165222,0.8354586362838745,-0.051518701016902924,-0.016173183917999268,-0.05022609233856201,-0.006174862384796143,0.40980643033981323,-0.01271272823214531,-0.2512058913707733,1.4769119684890744,-0.9889667762044672,0.865168016459259
1687015348.3891048,0.5331465601921082,0.8433507084846497,-0.06719052046537399,-0.03065943717956543,-0.09480017423629761,0.008184663951396942,0.42816686630249023,-0.006160684861242771,-0.47481927275657654,1.44543089419726,-1.0034885180100495,0.8288020981385014
1687015348.426289,0.5016015768051147,0.8602921962738037,-0.09106721729040146,-0.1073908805847168,-0.29818886518478394,0.017473995685577393,0.7212530970573425,0.1739029586315155,-1.1070505380630493,1.3911996526950556,-1.035842500317407,0.7617489164300292
1687015348.5180311,0.4301161468029022,0.8941826820373535,-0.12424739450216293,-0.16792446374893188,-0.597383975982666,0.04589343070983887,1.0438040494918823,0.30188143253326416,-2.308809995651245,1.2895821098255036,-1.1066022667458877,0.6309759539908245
1687015348.535615,0.2924751341342926,0.9409536123275757,-0.17048299312591553,-0.08664944767951965,-0.691914975643158,0.17074234783649445,1.2652430534362793,-0.12013372778892517,-3.716791868209839,1.0430471937645283,-1.22543630109136,0.35710279506068116
1687015348.577178,0.08552645146846771,0.9585903882980347,-0.27164238691329956,-0.10386760532855988,-0.45134252309799194,0.24510732293128967,2.8345577716827393,-0.9694220423698425,-4.684386253356934,0.3050238407604835,-1.2820105252511904,-0.38934047010929157
1687015348.668085,-0.17236073315143585,0.8851818442344666,-0.4321398138999939,-0.13041946291923523,-0.1584668755531311,0.11463490128517151,4.149018287658691,-2.2620670795440674,-5.1892313957214355,-0.37951813436395926,-1.086884659537114,-1.041470951389255
1687015348.6850162,-0.4553930461406708,0.7156271934509277,-0.5296176671981812,-0.2177179455757141,-0.17645800113677979,0.29899632930755615,2.4451920986175537,-3.4885194301605225,-5.25147819519043,-0.7101861882574836,-0.797521627752088,-1.2619305689229483
1687015348.724601,-0.7306646704673767,0.5455052852630615,-0.4105522036552429,-0.5391564965248108,-0.16016000509262085,0.16957011818885803,-2.110842227935791,-5.246532440185547,-5.52358341217041,-1.0588713839558557,-0.576991895173508,-1.474762936727662
1687015348.818057,-0.9128426313400269,0.38452568650245667,-0.13732564449310303,-1.5455466508865356,0.22274354100227356,0.27352553606033325,-4.957640171051025,-1.8862041234970093,-4.844259738922119,-1.4214786598549345,-0.39469393371804645,-1.8017311464466386
1687015348.835964,-0.9782744646072388,0.20329155027866364,-0.0406421422958374,-1.0365419387817383,0.7527782917022705,-0.06153077259659767,-0.47860172390937805,-0.44303345680236816,-2.9701907634735107,-1.5292754808956506,-0.20471849857801874,-1.9744051081421456
1687015348.941325,-0.9926300048828125,0.11979148536920547,-0.018315909430384636,-0.22129809856414795,0.4924825429916382,-0.9191383719444275,2.249086618423462,-0.6545181274414062,-0.45132461190223694,-1.5523465218054955,-0.12007985295572624,-1.894326018865998
1687015348.946394,-0.9886370897293091,0.15026655793190002,-0.0041222344152629375,-0.17464733123779297,0.4591541290283203,-0.32206493616104126,-1.8725385665893555,0.7013458609580994,1.3238530158996582,-1.5666267377227658,-0.15083788987183766,-1.954559916627794
1687015349.031034,-0.9785605669021606,0.20584632456302643,-0.0068345870822668076,0.008788108825683594,0.1767677664756775,-0.03737020492553711,0.10534574091434479,0.46397632360458374,0.8758803009986877,-1.5638121131344105,-0.20732846724909018,-1.9762053490525973
1687015349.050373,-0.9700953364372253,0.24108634889125824,-0.028154177591204643,0.07181030511856079,0.15233096480369568,0.03540205582976341,-0.640652596950531,0.5781449675559998,0.4866199493408203,-1.5417823985104262,-0.24348506365661043,-1.9992054155750199
1687015349.1146212,-0.9662724733352661,0.2533130943775177,-0.04636923223733902,0.08922773599624634,0.027402758598327637,0.13940197229385376,0.027544882148504257,0.33647602796554565,0.07562069594860077,-1.522845371549541,-0.25610351262756237,-2.011105494465163
1687015349.132107,-0.9666604995727539,0.24909405410289764,-0.059324730187654495,0.029877781867980957,-0.060861751437187195,0.17201083898544312,-0.1189514771103859,0.24290159344673157,-0.2546752095222473,-1.5095023999785635,-0.25174471187528663,-2.012875141047208
1687015349.173007,-0.9693364500999451,0.23681925237178802,-0.06560221314430237,-0.03276932239532471,0.028180092573165894,0.1795852780342102,0.2176489681005478,0.070511594414711,-0.18440715968608856,-1.503221930887164,-0.23909066489524425,-2.0179626139036952
1687015349.267075,-0.9692623019218445,0.23617655038833618,-0.06892881542444229,-0.014609098434448242,-0.03349417448043823,0.14319324493408203,0.7015878558158875,-0.21853473782539368,0.21278521418571472,-1.4998011321393252,-0.23842919747050492,-1.9914503603211058
1687015349.2712111,-0.9667385816574097,0.24906803667545319,-0.05815236270427704,-0.018170475959777832,-0.12208451330661774,0.10044968128204346,0.034519169479608536,-0.38202139735221863,0.33298859000205994,-1.5107155788706332,-0.25171784898880634,-1.9672524697406781
1687015349.358052,-0.9640725255012512,0.26299169659614563,-0.037409063428640366,-0.01244419813156128,-0.06326949596405029,0.02007502317428589,-0.3244756758213043,-0.33871400356292725,0.18119585514068604,-1.532012619888759,-0.26612173777891046,-1.9789853153832626
1687015349.380567,-0.9635530710220337,0.2668306529521942,-0.019147733226418495,-0.005990266799926758,-0.016449302434921265,-0.03413599729537964,0.04541122913360596,-0.32152023911476135,-0.024365827441215515,-1.5509269350628352,-0.2701029322460809,-1.987979821236748
1687015349.417669,-0.9647368788719177,0.26308634877204895,-0.008266189135611057,-0.029449522495269775,0.032491594552993774,-0.13415944576263428,0.7907029986381531,-0.3668208718299866,-0.10806125402450562,-1.5622282015502238,-0.2662198504700079,-1.9669081114623526
1687015349.508616,-0.9663201570510864,0.2572905123233795,-0.005158941727131605,-0.03795218467712402,0.020602434873580933,-0.12269449234008789,1.105224609375,-0.24404168128967285,-0.09711220115423203,-1.5654576276320982,-0.2602172758339985,-1.9142211903476107
1687015349.5130239,-0.9673178791999817,0.25332266092300415,-0.011126448400318623,-0.01125878095626831,-0.0372735857963562,-0.07957184314727783,0.601982593536377,-0.005788375157862902,-0.05741778761148453,-1.5592944637497195,-0.2561134061683945,-1.8673865617501162
1687015349.56607,-0.9675542116165161,0.2520771026611328,-0.01719736121594906,-0.007390737533569336,-0.03462424874305725,-0.03913813829421997,-0.24497492611408234,0.15223242342472076,0.005029345862567425,-1.5530241450809166,-0.25482608523859374,-1.8599883826009593
1687015349.6604939,-0.9668561220169067,0.25445523858070374,-0.021013883873820305,0.004087626934051514,0.024948328733444214,-0.006512997671961784,-0.39146876335144043,0.17188015580177307,0.0671028420329094,-1.5490655058783038,-0.2572843717283832,-1.878716451349161
1687015349.6661072,-0.965603768825531,0.25883984565734863,-0.02472844533622265,-0.0058470964431762695,0.03585311770439148,0.018579062074422836,-0.22109223902225494,0.14619582891464233,0.07747292518615723,-1.545192614199379,-0.26182090718025713,-1.8949024297860597
1687015349.714875,-0.9645644426345825,0.2623068392276764,-0.02847149968147278,0.01961815357208252,0.033805131912231445,0.033369481563568115,-0.07471057772636414,0.08083053678274155,0.05081547424197197,-1.5412874275592208,-0.2654119785591279,-1.9024831164876268
1687015349.80898,-0.9633170366287231,0.2668806314468384,-0.028193866834044456,0.01246565580368042,0.031855881214141846,0.04014146327972412,0.014989876188337803,0.025531597435474396,0.044656381011009216,-1.541537195223818,-0.27015479393114233,-1.904915327055731
1687015349.814983,-0.9613102078437805,0.2746219336986542,-0.021577203646302223,0.006491363048553467,0.02008625864982605,0.03268551826477051,0.08394178003072739,-0.05322153866291046,0.05310818925499916,-1.5483544741530948,-0.2781965015320639,-1.903994820612098
1687015349.865907,-0.9595161080360413,0.2813081443309784,-0.013945043087005615,0.0017524957656860352,0.015063196420669556,0.00935208797454834,0.1149822548031807,-0.09731842577457428,0.0819355845451355,-1.5562639375940097,-0.2851570239458226,-1.8998096351134572
1687015349.957407,-0.957526683807373,0.28826138377189636,-0.006928011775016785,-0.0023275017738342285,0.007667481899261475,-0.009810925461351871,0.12078254669904709,-0.11779400706291199,0.1271243691444397,-1.5635611333985218,-0.2924106575034866,-1.8949062505937386
1687015349.9634,-0.9553244709968567,0.29553404450416565,-0.003827087115496397,-0.022061944007873535,0.0055370330810546875,-0.039736807346343994,0.1561075896024704,-0.09435246139764786,0.15123982727527618,-1.5667902884529035,-0.30001447047747154,-1.8873646023287918
1687015350.018646,-0.9528679847717285,0.30335837602615356,-0.004015044774860144,-0.010983824729919434,-0.014799535274505615,-0.04714775085449219,0.13238221406936646,-0.07887856662273407,0.19210469722747803,-1.5665827093832274,-0.3082151498107349,-1.878813193406536
1687015350.107636,-0.950310468673706,0.31122681498527527,-0.00692552886903286,-0.02336817979812622,-0.028985053300857544,-0.03816425800323486,0.08347932249307632,-0.02607700228691101,0.18124033510684967,-1.5635088071753103,-0.3164836725266882,-1.87179766730699
1687015350.112406,-0.9485256671905518,0.31650567054748535,-0.011104465462267399,-0.013190031051635742,-0.036537498235702515,-0.02679842710494995,-0.005175712518393993,0.027625907212495804,0.13584648072719574,-1.5590897814825873,-0.32204351310695,-1.8685214167856588
1687015350.1697059,-0.9483409523963928,0.3168239891529083,-0.016488520428538322,-0.008751273155212402,-0.03327000141143799,-0.009314179420471191,-0.03246838599443436,0.05759166181087494,0.06657473742961884,-1.5534113787845198,-0.3223790817744665,-1.8686365628548924
1687015350.290937,-0.9490717053413391,0.31435221433639526,-0.021113432943820953,-0.0037787556648254395,-0.02458786964416504,0.0028486233204603195,-0.00030565657652914524,0.0531441830098629,0.014592490158975124,-1.5485535906005787,-0.31977421293040864,-1.8687486553070505
1687015350.296887,-0.9501913189888,0.3107623755931854,-0.023729097098112106,-0.0036813020706176758,-0.021608442068099976,0.012025536969304085,0.0021208159159868956,0.035410325974226,-0.033577967435121536,-1.5458285495013924,-0.3159950240592024,-1.8684561052605275
1687015350.379887,-0.9517433643341064,0.30594757199287415,-0.024095486849546432,-0.0024191737174987793,-0.010461241006851196,0.014192461967468262,0.019745882600545883,0.003914984874427319,-0.08437269926071167,-1.5454845239422241,-0.31093357827561674,-1.86834035621794
1687015350.400034,-0.9538732767105103,0.29930922389030457,-0.023231443017721176,0.013184189796447754,0.0022348761558532715,0.005485415458679199,0.043931182473897934,-0.01660267263650894,-0.1342308074235916,-1.546446287355988,-0.3039686114461527,-1.8672952877403248
1687015350.465722,-0.9559993743896484,0.29258331656455994,-0.02145359478890896,0.0048580169677734375,0.013599425554275513,-0.003158867359161377,0.058443278074264526,-0.03663337230682373,-0.14655804634094238,-1.5483590784596195,-0.2969272486723403,-1.8652725776310766
1687015350.482109,-0.9576203227043152,0.2873278856277466,-0.020147887989878654,-0.0074370503425598145,0.019800961017608643,-0.005807340145111084,0.057356707751750946,-0.03571271896362305,-0.1253712773323059,-1.549759894021456,-0.2914359144701376,-1.8625295510122588
1687015350.556792,-0.9585635662078857,0.2841891050338745,-0.01981273666024208,0.003226041793823242,0.026525527238845825,-0.013848185539245605,0.05996900424361229,-0.034791529178619385,-0.07988261431455612,-1.5501300743990178,-0.2881605642112967,-1.859530493249087
1687015350.56031,-0.9587662816047668,0.283504456281662,-0.01981176622211933,0.0029404759407043457,0.026782900094985962,-0.012414872646331787,0.04923653230071068,-0.03360389545559883,-0.031406693160533905,-1.5501354543294794,-0.2874465287951219,-1.8565592241592281
1687015350.616466,-0.9582191109657288,0.28529787063598633,-0.020525988191366196,-0.00526660680770874,0.02579823136329651,-0.011593818664550781,0.03773793205618858,-0.015380148775875568,0.00902781542390585,-1.5493786272126902,-0.2893172028969211,-1.8542566801045823
1687015350.713521,-0.9572287201881409,0.2885572910308838,-0.02116312086582184,0.007399618625640869,0.013887077569961548,-0.00805753469467163,0.03363007307052612,-0.022143380716443062,0.04576345905661583,-1.548691188179053,-0.29271970533275943,-1.8519536756344548
1687015350.731946,-0.9560275673866272,0.2924492657184601,-0.022015508264303207,-0.008114218711853027,0.010193437337875366,-0.0063658952713012695,0.030944406986236572,-0.009133572690188885,0.052113767713308334,-1.5477722867863242,-0.29678708599249093,-1.8500249874068389
