Timestamp,gravityX,gravityY,gravityZ,accelerationX,accelerationY,accelerationZ,rotationRateX,rotationRateY,rotationRateZ,attitudeRoll,attitudePitch,attitudeYaw
1687092901.478112,-0.872534990310669,0.48854202032089233,-0.003085833741351962,0.009650468826293945,-0.006471097469329834,0.03322196006774902,-0.02318594790995121,0.013576549477875233,0.023647192865610123,-1.5672597111081479,-0.5104180088151746,-2.564065271457455
1687092901.480617,-0.8721239566802979,0.48928505182266235,-0.00020927729201503098,-0.0018537044525146484,-0.012600481510162354,0.027461528778076172,-0.09461226314306259,0.015622789971530437,0.009878382086753845,-1.570556364016743,-0.5112697965690883,-2.568410833598458
1687092901.489581,-0.8717288970947266,0.48997241258621216,0.0039926511235535145,-0.0015164017677307129,-0.008542239665985107,0.013860106468200684,-0.09264159202575684,-0.026985257863998413,0.03264547884464264,-1.5753764466959501,-0.5120580917089612,-2.5750023118060628
1687092901.4920921,-0.871207594871521,0.49080121517181396,0.010548378340899944,-0.030601978302001953,-0.0031761229038238525,-0.0004317769780755043,-0.07679951190948486,-0.05924093350768089,0.005566991865634918,-1.5829035015312203,-0.5130090976919907,-2.5816832800765583
1687092901.494529,-0.8714274168014526,0.49029096961021423,0.015132257714867592,0.0021036863327026367,-0.005824416875839233,-0.01395726203918457,-0.0712767094373703,-0.05869191884994507,-0.011286823078989983,-1.5881594915044288,-0.5124235811773684,-2.585132253950532
1687092901.529749,-0.8721652030944824,0.4888511002063751,0.01877731829881668,-0.005337238311767578,0.012751102447509766,-0.02709329128265381,0.005049551371484995,-0.04148297384381294,-0.05816378444433212,-1.5923225448071197,-0.5107722657573169,-2.5875424870079407
1687092901.578349,-0.8741697072982788,0.48529842495918274,0.017681924626231194,0.018044888973236084,0.007224738597869873,-0.02593684196472168,0.01847860775887966,0.004000487737357616,-0.09918072819709778,-1.5910206763320214,-0.5067044574432533,-2.5857146159440085
1687092901.581903,-0.8759697079658508,0.48218005895614624,0.013399994932115078,0.00742417573928833,0.028623223304748535,-0.019396662712097168,0.050277017056941986,0.05206495150923729,-0.05036231875419617,-1.586092460682206,-0.5031414523501568,-2.581829562442845
1687092901.5850558,-0.8760334849357605,0.48215216398239136,0.009738695807754993,0.0016589760780334473,0.008677393198013306,-0.002979039214551449,-0.0679585412144661,0.05371131747961044,0.02314012497663498,-1.581912677167164,-0.5031096031668008,-2.5818825012732196
1687092901.5930638,-0.8756313920021057,0.48290443420410156,0.008547252044081688,-0.006448686122894287,-0.009698867797851562,0.011106133460998535,-0.04931288957595825,0.03524668887257576,-0.029662368819117546,-1.5805572611469594,-0.5039684965465552,-2.5854778872037127
1687092901.595573,-0.8774790167808533,0.4795610308647156,0.007203076500445604,-0.015083849430084229,-0.00022140145301818848,0.015654563903808594,0.08907614648342133,-0.003923881333321333,-0.12302001565694809,-1.579004972822853,-0.5001543853580483,-2.5837192615895055
1687092901.598126,-0.8809822797775269,0.4731108844280243,0.006041405256837606,-0.01719588041305542,0.01735246181488037,0.011811376549303532,0.09341470152139664,-0.0060895634815096855,-0.15013419091701508,-1.5776537978356673,-0.49281851659879317,-2.579090942251053
1687092901.5995178,-0.8838328123092651,0.46777477860450745,0.005126255564391613,0.007078111171722412,0.042036622762680054,-0.006972551811486483,0.11846252530813217,-0.04040572792291641,-0.07500481605529785,-1.5765962902060329,-0.486771459507276,-2.5727946110288022
1687092901.600456,-0.8844905495643616,0.46652790904045105,0.005312478635460138,0.0034022927284240723,0.03325849771499634,-0.011721134185791016,0.07707028090953827,-0.016274690628051758,-0.011160589754581451,-1.5768025129351335,-0.48536123032162787,-2.568158445849168
1687092901.601397,-0.8841732144355774,0.4671565890312195,0.0014771792339161038,0.0005521774291992188,0.028296291828155518,-0.00973212718963623,0.08678582310676575,0.06662778556346893,0.022503096610307693,-1.5724670151219102,-0.4860721321361467,-2.5617268350993347
1687092901.670796,-0.8827846646308899,0.46976932883262634,-0.0027840554248541594,-0.005902290344238281,0.03209218382835388,-0.004601180087774992,0.06529711186885834,0.0605497844517231,0.06895368546247482,-1.567642617391858,-0.4890294608550616,-2.5587644366577424
1687092901.679579,-0.8807946443557739,0.4734554886817932,-0.006379283033311367,0.015880703926086426,-0.011541396379470825,0.007600009441375732,0.04257788509130478,0.008156483992934227,0.07414072751998901,-1.5635538083384444,-0.49320969299315215,-2.5546287973775414
1687092901.682162,-0.8795976042747498,0.4756452739238739,-0.008347656577825546,0.019856393337249756,-0.003935068845748901,0.0037395358085632324,0.09280716627836227,-0.004133605398237705,0.026924211531877518,-1.5613062983996575,-0.49569745539501475,-2.550883934156017
1687092901.685607,-0.8785920143127441,0.477466881275177,-0.01006417628377676,-0.0006192922592163086,0.014552712440490723,0.004143775440752506,0.09032796323299408,0.00480223260819912,0.07950699329376221,-1.5593419359807072,-0.49776947373602154,-2.54602126807576
1687092901.692848,-0.8757293224334717,0.4826800227165222,-0.010861938819289207,-0.01591789722442627,-0.026365965604782104,0.00965654943138361,-0.07164562493562698,0.01949222944676876,0.14319276809692383,-1.5583936567520662,-0.5037122364161086,-2.544738983216842
1687092901.7234201,-0.872636616230011,0.48831048607826233,-0.007645781617611647,0.013826131820678711,-0.038527101278305054,0.007477938197553158,-0.0873502865433693,-0.02985614538192749,0.09221480041742325,-1.5620348495152414,-0.5101526857002243,-2.551324709828244
1687092901.725992,-0.8723727464675903,0.48881033062934875,-0.005525620188564062,0.011105597019195557,-0.022761046886444092,0.013017714023590088,0.03284056857228279,-0.013505669310688972,-0.04688716307282448,-1.564462398790892,-0.5107255373030867,-2.5525308157613247
1687092901.728189,-0.8744004368782043,0.4851691722869873,-0.0059192972257733345,0.00580906867980957,0.0034936368465423584,-0.0012370357289910316,0.015984224155545235,-0.00065058987820521,-0.080738864839077,-1.56402688043331,-0.5065566224742054,-2.5507691875288447
1687092901.729378,-0.8752524256706238,0.48363587260246277,-0.005434940569102764,-0.010138750076293945,0.03259950876235962,-0.011029243469238281,0.002617952413856983,-0.022059740498661995,0.014317339286208153,-1.5645868372887148,-0.5048039735284117,-2.5500956299944657
1687092901.730613,-0.8742371797561646,0.4854787588119507,-0.004418759141117334,0.0046846866607666016,0.01777130365371704,-0.008764803409576416,-0.0036141779273748398,-0.0071304598823189735,0.04138810560107231,-1.5657419529272183,-0.5069106912411943,-2.5500142540473862
1687092901.734304,-0.8730895519256592,0.4875236749649048,-0.005950580816715956,0.009472548961639404,0.01041644811630249,-0.0012972960248589516,-0.038103245198726654,0.05281876027584076,0.0448712557554245,-1.5639808877414856,-0.5092512806307049,-2.5504282970704417
1687092901.747943,-0.8715134263038635,0.4903346002101898,-0.0060187289491295815,0.0137559175491333,-0.012505650520324707,0.011756062507629395,-0.1138852909207344,0.019367193803191185,0.06841253489255905,-1.563890370657268,-0.5124736355715027,-2.555271201509118
1687092901.758909,-0.8699411153793335,0.4931451380252838,-0.003233158029615879,-0.0033804774284362793,-0.015529721975326538,0.02061295509338379,-0.03564794361591339,-0.054973483085632324,0.04752509295940399,-1.5670798187416668,-0.5157014005784556,-2.559285581140461
1687092901.804888,-0.8694155216217041,0.49408119916915894,0.0007546980050392449,-0.0294950008392334,-0.025636374950408936,0.012413620948791504,-0.06732144951820374,-0.05824064835906029,0.002603425644338131,-1.5716643787650804,-0.5167777169129314,-2.5616333052924296
1687092901.812217,-0.8697954416275024,0.4933745563030243,0.006127660162746906,-0.01608407497406006,-0.007076889276504517,-0.009362459182739258,-0.06253641843795776,-0.06947892159223557,-0.025246048346161842,-1.5778411544270425,-0.5159651118499222,-2.5666088768513236
1687092901.8149061,-0.8707612752914429,0.4916049838066101,0.009965392760932446,-0.007427811622619629,-0.0019962191581726074,-0.02371358871459961,-0.04139731079339981,-0.04572059586644173,-0.0364326573908329,-1.5822402881079922,-0.5139318880769883,-2.5690851147527436
1687092901.817751,-0.8718075752258301,0.48971664905548096,0.011362606659531593,-0.0025972723960876465,0.00973406434059143,-0.031321048736572266,-0.05780297890305519,0.0050630890764296055,-0.043061263859272,-1.5838289769543308,-0.5117647289064311,-2.571624638781265
1687092901.821519,-0.8729147911071777,0.4877697825431824,0.010030658915638924,-0.005762696266174316,0.02115669846534729,-0.027135729789733887,-0.05840052664279938,0.04303190857172012,-0.04203062132000923,-1.5822868150469618,-0.5095331968127782,-2.5738132316413758
1687092901.822517,-0.8735957145690918,0.48660382628440857,0.0068851071409881115,-0.0054174065589904785,0.031386375427246094,-0.015735149383544922,-0.007578159216791391,0.05447245016694069,-0.021331466734409332,-1.578677505907955,-0.5081980702206353,-2.5747861606009206
1687092901.900042,-0.8737815022468567,0.4863065779209137,0.003433612175285816,0.0012229681015014648,0.021811097860336304,-0.0032962560653686523,-0.0019546286202967167,0.06002354621887207,-0.0031450074166059494,-1.5747259069921056,-0.5078578475896498,-2.574090946563707
1687092901.908605,-0.8735536932945251,0.48672792315483093,0.0003864317841362208,0.009188950061798096,0.02167975902557373,0.006647944450378418,0.009073188528418541,0.059896375983953476,0.011243252083659172,-1.5712386942885737,-0.5083401329815439,-2.5740125980791864
1687092901.911601,-0.8729850649833679,0.48774001002311707,-0.0025838525034487247,0.006392717361450195,0.01270243525505066,0.017278075218200684,0.025859424844384193,0.04736234247684479,0.019034598022699356,-1.567836545500275,-0.5094990947875588,-2.5727623692693133
1687092901.91447,-0.8722640872001648,0.48902052640914917,-0.0037874192930758,0.004283130168914795,0.00670701265335083,0.022571027278900146,0.012432965449988842,0.01208557840436697,0.029718931764364243,-1.5664542981722553,-0.5109665000700679,-2.572128759313886
1687092901.917717,-0.8714402914047241,0.4904930293560028,-0.002870206255465746,0.004909038543701172,0.005005598068237305,0.019227683544158936,0.02264498919248581,-0.018313072621822357,0.03031548112630844,-1.567502703608152,-0.5126554122921543,-2.5718382925326275
1687092901.9235911,-0.8707610964775085,0.49170637130737305,-0.0001550619927002117,-0.0008361935615539551,0.0016713440418243408,0.013674378395080566,-0.0023222784511744976,-0.03425448760390282,0.019069217145442963,-1.5706182504084418,-0.5140482893968249,-2.5723557006127518
1687092901.9248152,-0.8703019022941589,0.4925154745578766,0.0016789129003882408,0.005815446376800537,0.004921019077301025,0.0020442004315555096,0.05678178742527962,-0.051695797592401505,0.024315644055604935,-1.5727254398769703,-0.5149777231166773,-2.5708573727184185
1687092901.945508,-0.8696439862251282,0.4936680495738983,0.003370503894984722,-0.0005494952201843262,-0.0011448562145233154,-0.003477334976196289,0.021525263786315918,-0.04085300490260124,0.026256024837493896,-1.5746720357875799,-0.5163025755809445,-2.56888674679868
1687092901.956244,-0.8690181970596313,0.49476009607315063,0.004445623140782118,-0.001449882984161377,0.0007691085338592529,-0.006474971771240234,0.03155619278550148,-0.03047999180853367,0.020641814917325974,-1.5759119666776649,-0.517558750808427,-2.567789070106067
1687092901.977319,-0.868635892868042,0.4954283833503723,0.004742776043713093,-0.004563629627227783,-0.002523660659790039,-0.0015383954159915447,0.025494705885648727,-0.026863418519496918,0.007422415539622307,-1.5762562998901992,-0.5183279262278686,-2.565767234400155
1687092901.988024,-0.8685838580131531,0.49551886320114136,0.004813526291400194,0.00028252601623535156,-0.0003863871097564697,-0.0009073019027709961,0.03799678385257721,-0.023592790588736534,-0.0006442992016673088,-1.5763380794612885,-0.5184320771687586,-2.5639214092636697
1687092901.989373,-0.8688126802444458,0.49511951208114624,0.004618636332452297,-0.0009688138961791992,-0.0029167532920837402,0.004307746887207031,0.026548318564891815,-0.032470304518938065,-0.013190717436373234,-1.5761123093286844,-0.5179723750064142,-2.561343410547772
1687092902.02409,-0.8691241145133972,0.4945647716522217,0.005383666139096022,0.0009753704071044922,0.007388383150100708,0.006548762321472168,0.026848789304494858,-0.03542628139257431,-0.008455883711576462,-1.5769906057164917,-0.5173340149400485,-2.5601826617072576
1687092902.027423,-0.8691781759262085,0.49445322155952454,0.006723955273628235,-0.0020070672035217285,0.002372920513153076,0.006261348258703947,0.0233762264251709,-0.04828548803925514,0.0015528090298175812,-1.5785321645255725,-0.5172056680890735,-2.5583427541558144
1687092902.033597,-0.8690531253814697,0.4946388602256775,0.008888731710612774,-0.003246009349822998,0.001744776964187622,0.0030894270166754723,0.008314653299748898,-0.04707148298621178,0.0016513457521796227,-1.5810240346356816,-0.5174192585402893,-2.557938802938207
1687092902.037941,-0.8690443634986877,0.4946163296699524,0.010798245668411255,-0.0015610456466674805,-0.006228238344192505,-0.0010783672332763672,0.009890645742416382,-0.049381643533706665,-0.006881422363221645,-1.5832211119203574,-0.5173933077822652,-2.557228597788873
1687092902.039194,-0.8692379593849182,0.4942365884780884,0.012466628104448318,-0.0037325024604797363,-0.0003706216812133789,-0.003921628929674625,-0.013318803161382675,-0.03589113429188728,-0.008451888337731361,-1.5851373635475925,-0.5169564323951359,-2.5569625978361006
1687092902.101599,-0.8693941831588745,0.4939039349555969,0.01458093710243702,-0.007223188877105713,0.006233394145965576,-0.0038235196843743324,-0.01187417097389698,-0.0285839531570673,-0.010190666653215885,-1.5875661317245537,-0.5165738425032059,-2.5583673557548923
1687092902.104854,-0.8697590827941895,0.4932415783405304,0.015225726179778576,0.0012746453285217285,-0.0053265392780303955,-0.0031406888738274574,-0.0320083349943161,-0.018529456108808517,-0.010685215704143047,-1.5883002213054165,-0.5158122459713392,-2.558097331929324
1687092902.107919,-0.8699895739555359,0.49279725551605225,0.01639558933675289,-0.00021904706954956055,0.009827256202697754,-0.0013351459056138992,-0.0182434543967247,-0.006524058524519205,-0.014959055930376053,-1.5896398273100127,-0.5153015547888457,-2.5600132979013535
1687092902.11109,-0.8703123927116394,0.4922110140323639,0.016870126128196716,0.0006988048553466797,0.007758468389511108,0.003973362967371941,-0.03424166142940521,-0.005184355191886425,-0.006528287194669247,-1.5901778882575022,-0.5146279278103166,-2.5611498963898014
1687092902.114554,-0.8701943159103394,0.4923847019672394,0.017871344462037086,-0.0011130571365356445,0.013352662324905396,0.004727005958557129,-0.018599186092615128,-0.014193296432495117,0.00966905802488327,-1.591330628612538,-0.5148274760939816,-2.5626682487683357
1687092902.1166248,-0.8697680234909058,0.49308690428733826,0.019209660589694977,0.004716753959655762,0.009415537118911743,0.005387544631958008,-0.007582887075841427,-0.021053867414593697,0.019573885947465897,-1.592878696173096,-0.5156344323012643,-2.563664147542803
1687092902.117924,-0.8693976998329163,0.4936872124671936,0.02050035260617733,-0.0007040500640869141,0.0009263157844543457,0.0102156363427639,-0.0030663651414215565,-0.021666526794433594,-0.0009071528911590576,-1.5943719060627688,-0.5163246157447442,-2.5638119986706096
1687092902.255456,-0.8695217967033386,0.49340975284576416,0.021883079782128334,-0.004684865474700928,0.010176122188568115,0.007658006623387337,0.02033643051981926,-0.031601447612047195,-0.013891395181417465,-1.5959578130177592,-0.5160055842640556,-2.5638049255732906
1687092902.267762,-0.8696746230125427,0.4930683970451355,0.023445019498467445,-0.001556396484375,0.01085314154624939,0.0029374361038208008,0.006305165123194456,-0.03911129757761955,-0.004258741624653339,-1.5977481782915803,-0.5156131723290969,-2.563056466395262
1687092902.271311,-0.8694603443145752,0.4933445453643799,0.025493379682302475,-0.006012678146362305,0.016955167055130005,-0.0029714107513427734,0.0157009307295084,-0.040032483637332916,0.008605392649769783,-1.6001088508739088,-0.5159306007781139,-2.56282692896483
1687092902.275852,-0.8691140413284302,0.49389106035232544,0.026693252846598625,-0.0037497282028198242,0.008214622735977173,-0.004140734672546387,0.019429422914981842,-0.03232782334089279,0.011691728606820107,-1.601499851733651,-0.5165590423522745,-2.561913855729184
1687092902.2784681,-0.8687851428985596,0.49447137117385864,0.02666151523590088,0.0004988908767700195,0.003743469715118408,-0.0046125613152980804,0.0683136060833931,-0.028494205325841904,0.006349960342049599,-1.6014749724969952,-0.5172265325774271,-2.5591793016267914
1687092902.280514,-0.8689620494842529,0.4941568970680237,0.02671942673623562,-0.012416064739227295,-1.6242265701293945e-05,-0.0004132986068725586,0.03313811123371124,-0.01194838434457779,-0.02631717175245285,-1.6015353113257225,-0.5168647685416683,-2.557039739201668
1687092902.2825608,-0.8696597218513489,0.4929858446121216,0.025633549317717552,-0.001495063304901123,0.004404932260513306,0.002717256546020508,0.04992467910051346,-0.011475141160190105,-0.021397780627012253,-1.600263174610803,-0.5155182702895742,-2.553760193872067
1687092902.284749,-0.8698768019676208,0.49262499809265137,0.025200484320521355,0.0023993849754333496,0.01622512936592102,0.003959059715270996,0.05350283905863762,-0.01388437021523714,0.008565977215766907,-1.5997584037890848,-0.5151035792739066,-2.5510716362424186
1687092902.286817,-0.8694251775741577,0.4934372901916504,0.024891884997487068,0.0017341375350952148,0.007874995470046997,0.006037712097167969,0.05483734980225563,-0.019606703892350197,0.02399260550737381,-1.5994187866035228,-0.5160372361508818,-2.5481162488595848
1687092902.2886062,-0.8687542080879211,0.4946288466453552,0.02467220276594162,-0.002339601516723633,0.0019532442092895508,0.007356051355600357,0.05386309698224068,-0.022289706394076347,0.021296951919794083,-1.5991882143491514,-0.5174077303691671,-2.5448456721094255
1687092902.3319511,-0.8682132363319397,0.4955624043941498,0.024972915649414062,-0.0030025243759155273,-0.0019100606441497803,0.0065975189208984375,0.04001772403717041,-0.018708286806941032,0.016073960810899734,-1.5995519714354798,-0.5184822202032249,-2.5428678837414367
1687092902.3559752,-0.8680062890052795,0.49591609835624695,0.025150232017040253,-0.0027976036071777344,-0.008947014808654785,0.0029107369482517242,0.03200886398553848,-0.018574994057416916,-4.7750771045684814e-05,-1.5997629325568672,-0.5188894850262088,-2.540560699357906
1687092902.359366,-0.868057906627655,0.4958076775074005,0.025500215590000153,0.0031134486198425293,-0.0022316277027130127,0.002041935920715332,0.030775422230362892,-0.01855102740228176,-0.0015308652073144913,-1.6001640507253445,-0.5187646352108032,-2.538902071487612
1687092902.361185,-0.868039071559906,0.4958053231239319,0.02617190219461918,-0.002108454704284668,-0.0032058656215667725,0.0032927952706813812,-0.011549597606062889,-0.01099204458296299,0.0044758934527635574,-1.6009377978753048,-0.5187619044930193,-2.538675866331824
1687092902.362811,-0.8680220246315002,0.49580609798431396,0.026720229536294937,-0.006092846393585205,-0.0019249022006988525,0.0027140360325574875,-0.007012238260358572,-0.010892176069319248,-0.0018832013010978699,-1.6015695008201885,-0.5187628060360377,-2.5385119922303354
1687092902.364425,-0.8680381178855896,0.4957216680049896,0.02774890698492527,-0.006183743476867676,0.005087107419967651,-0.0017325840890407562,-0.03367793560028076,0.011389427818357944,0.0008995356038212776,-1.60275282662438,-0.5186656040683486,-2.5403073514367414
1687092902.3695412,-0.8679985404014587,0.4957108199596405,0.02914617396891117,0.0051901936531066895,-0.00825345516204834,0.002134326845407486,-0.14965035021305084,0.0037986203096807003,0.009837903082370758,-1.6043623143970582,-0.5186530865007518,-2.544318289925365
1687092902.412438,-0.8680021166801453,0.4954470694065094,0.033236727118492126,-0.007821917533874512,-0.000665515661239624,0.002529863268136978,-0.2371678203344345,0.03601780906319618,-0.000664805993437767,-1.6090686955928368,-0.5183494386446865,-2.5566973119113148
1687092902.413979,-0.8679831027984619,0.4952049255371094,0.037113238126039505,0.0021994709968566895,-0.002498626708984375,0.0025901757180690765,-0.26570358872413635,0.029789207503199577,0.011861905455589294,-1.613528316363351,-0.5180706812637871,-2.5696610252449523
1687092902.4154758,-0.8679568767547607,0.49463707208633423,0.04455338791012764,-0.010995090007781982,-0.01155903935432434,-0.002530694007873535,-0.5365742444992065,0.08653371781110764,0.0030356571078300476,-1.6220826512657587,-0.5174172064694015,-2.592874823717645
1687092902.420013,-0.8679512739181519,0.49372369050979614,0.05382919684052467,-0.0046073198318481445,-0.006129086017608643,-0.001491546630859375,-0.5836321711540222,0.10590221732854843,0.009196346625685692,-1.632735683449327,-0.5163665619862076,-2.624408684150916
1687092902.421376,-0.8682528138160706,0.49172791838645935,0.06588444858789444,-0.011813104152679443,-0.02395448088645935,0.0045500993728637695,-0.8434432744979858,0.14839588105678558,-0.00047279149293899536,-1.64653282907999,-0.5140730594260546,-2.6650584515653106
1687092902.42273,-0.8689666390419006,0.48859867453575134,0.07853824645280838,-0.0009673833847045898,0.00938713550567627,-0.004578836262226105,-0.7625404000282288,0.18672636151313782,0.000984223559498787,-1.6609326274278131,-0.5104829537464003,-2.7125403685009535
1687092902.425741,-0.8698248267173767,0.48517102003097534,0.08952004462480545,-0.003237307071685791,-0.006563842296600342,-0.003521442413330078,-0.8433564901351929,0.20921355485916138,-0.015554006211459637,-1.6733525814574468,-0.5065587384698594,-2.7585086515133024
1687092902.440786,-0.8713783621788025,0.48057278990745544,0.09873805195093155,0.009211182594299316,0.03305324912071228,-0.011381521821022034,-0.5195979475975037,0.16788530349731445,-0.04171184077858925,-1.6836275537213072,-0.5013077594997515,-2.79951937009162
1687092902.441961,-0.8733455538749695,0.47672638297080994,0.0999990850687027,0.0016871094703674316,0.02748510241508484,-0.00292263925075531,-0.1323193609714508,0.11676711589097977,-0.06020296737551689,-1.68480100432835,-0.49692691927936095,-2.816480909411603
1687092902.4817638,-0.8752942681312561,0.47379156947135925,0.09685827046632767,0.009663224220275879,0.022851496934890747,0.01292872428894043,0.06379242986440659,0.06388912349939346,-0.05591581016778946,-1.6810058933045104,-0.493591292423642,-2.8184550165780577
1687092902.48779,-0.8767815232276917,0.47167474031448364,0.09368737787008286,0.0028037428855895996,-0.008082151412963867,0.030214078724384308,-0.06687138229608536,0.036060020327568054,-0.05370964854955673,-1.6772461495451374,-0.49118909312325043,-2.814934094541525
1687092902.4891582,-0.877665638923645,0.4697788953781128,0.09492521733045578,0.0031234025955200195,0.029137730598449707,0.0299222469329834,0.03976958245038986,0.009836406446993351,-0.04180531948804855,-1.6785339994059507,-0.4890403087214524,-2.8182871496127904
1687092902.490518,-0.8781805634498596,0.4687677025794983,0.09516271948814392,0.008505761623382568,0.019788265228271484,0.019980087876319885,0.08498359471559525,-0.0444653183221817,-0.01601526513695717,-1.678738637778773,-0.48789519002608167,-2.8126531921740328
1687092902.497658,-0.8778755068778992,0.46841368079185486,0.0996152013540268,0.0011665821075439453,0.01318424940109253,0.010003924369812012,-0.08584759384393692,-0.03520643711090088,0.011365491896867752,-1.6837860595844782,-0.48749444362347366,-2.81624081505851
1687092902.555647,-0.8769956231117249,0.4692540466785431,0.10334087163209915,0.003903031349182129,0.015304028987884521,-0.0022513866424560547,0.026833543553948402,-0.06461066752672195,0.018767481669783592,-1.6880905435826679,-0.48844587035192694,-2.817411697265742
1687092902.564373,-0.8759095072746277,0.4705088138580322,0.10679006576538086,-0.00351560115814209,0.007503330707550049,-0.0063109248876571655,-0.04374661669135094,-0.04785911366343498,0.0348721481859684,-1.6921166408591886,-0.48986732102241365,-2.8186879083974703
1687092902.5676389,-0.874838650226593,0.4718931317329407,0.10942620784044266,-0.011788487434387207,-0.009460300207138062,-0.010579712688922882,-0.15068331360816956,6.20720093138516e-05,0.04012603312730789,-1.6952316564750887,-0.49143678441302396,-2.8230765190737106
1687092902.573039,-0.8737086653709412,0.47299066185951233,0.11363396793603897,-0.02086818218231201,-0.007582426071166992,0.007886983454227448,-0.32823166251182556,0.034040145576000214,0.06021133065223694,-1.700129684270073,-0.492682050565154,-2.8369116564329344
1687092902.574259,-0.8727032542228699,0.4728100299835205,0.12181683629751205,-0.035499632358551025,-0.05873236060142517,0.03460106998682022,-0.6980018615722656,0.09570058435201645,0.06466173380613327,-1.709485844547746,-0.49247704781878326,-2.8658110675265647
1687092902.575441,-0.8724180459976196,0.4686994254589081,0.13859079778194427,-0.00570988655090332,-0.07494643330574036,0.026356682181358337,-0.970493495464325,0.04832654073834419,0.003507569432258606,-1.7283381383333365,-0.4878178942706982,-2.9151042061097403
1687092902.576616,-0.8738164901733398,0.4594206213951111,0.15930362045764923,-0.054741859436035156,-0.11815783381462097,0.02151310443878174,-1.156599760055542,0.12243165820837021,-0.07570575922727585,-1.751123804815654,-0.47734280896774967,-2.970940604329096
1687092902.5777922,-0.8789471983909607,0.43978574872016907,0.1845010370016098,-0.021763980388641357,-0.1356017291545868,0.008568421006202698,-1.6339842081069946,0.17779704928398132,-0.2881719470024109,-1.777703662783587,-0.4553601057183117,-3.049075103125905
1687092902.57897,-0.8885771632194519,0.410845011472702,0.2040514200925827,0.03048396110534668,0.050382405519485474,-0.07346665859222412,-0.6865794658660889,0.09760686755180359,-0.4763050973415375,-1.7965212328777804,-0.4233807163037515,-3.1090904918639564
1687092902.611361,-0.8996310830116272,0.383053183555603,0.2096036821603775,-0.007961452007293701,0.06605866551399231,-0.00380842387676239,-0.7169570922851562,0.23615729808807373,-0.44652804732322693,-1.7997011923682886,-0.39309933554549736,-3.1362330874497246
1687092902.6222749,-0.9068063497543335,0.367902547121048,0.20579063892364502,0.02002662420272827,0.25639551877975464,-0.03734888136386871,-0.1712554395198822,0.31725865602493286,-0.05526519939303398,-1.7939565215258917,-0.37675235777756794,3.122780546692426
1687092902.62353,-0.9095093011856079,0.3692481219768524,0.19091475009918213,0.01616835594177246,0.09126207232475281,0.010180816054344177,-0.04172388091683388,0.31595462560653687,0.0862937942147255,-1.777701950496394,-0.378199849658216,3.123718492563175
1687092902.624771,-0.9096065759658813,0.37402138113975525,0.18089698255062103,0.0284268856048584,0.047060102224349976,0.03896687924861908,-0.15150384604930878,0.21983809769153595,0.16965819895267487,-1.7671088405048554,-0.383341347737115,3.1123756788215076
1687092902.6384249,-0.9081452488899231,0.38037121295928955,0.17490002512931824,0.020160019397735596,0.01411426067352295,0.044185638427734375,0.022255171090364456,0.1014624610543251,0.14458639919757843,-1.7610571996032798,-0.39019764127413176,3.109019301073913
1687092902.675737,-0.9063636064529419,0.38524550199508667,0.17346754670143127,-0.022103190422058105,-0.03998488187789917,0.06925404071807861,-0.2927827537059784,0.07624778896570206,0.11758354306221008,-1.759898036959975,-0.39547383613068765,3.0989747199387
1687092902.678999,-0.9043983817100525,0.38761788606643677,0.17837056517601013,0.022074103355407715,0.026582002639770508,0.030278220772743225,-0.026994269341230392,-0.07881463319063187,0.09400498121976852,-1.765522826271581,-0.3980460305540534,3.0889236720594333
1687092902.6802812,-0.9010819792747498,0.3922213017940521,0.18496888875961304,0.007710516452789307,0.0023862123489379883,0.010587796568870544,0.06225225329399109,-0.12393657118082047,0.13914263248443604,-1.7732580506484261,-0.4030451515239462,3.0899016273059443
1687092902.681515,-0.8964378237724304,0.3996818959712982,0.19145135581493378,0.006377458572387695,0.020545154809951782,0.0025641918182373047,0.04554717615246773,-0.16200700402259827,0.15377403795719147,-1.7812043295989868,-0.41116979188551145,3.0907097297217585
1687092902.682922,-0.8916612863540649,0.407202810049057,0.19780315458774567,-0.02061593532562256,-0.0023566484451293945,0.0023463964462280273,-0.0806647539138794,-0.10537287592887878,0.19199226796627045,-1.789097826513882,-0.41938936564871876,3.0872219884016188
1687092902.686777,-0.8877454996109009,0.41446971893310547,0.2003059685230255,-0.014216601848602295,-0.026301473379135132,-0.04187396168708801,0.00611628033220768,-0.006535377353429794,0.13711462914943695,-1.7927145588113103,-0.427360046850886,3.08347646826438
1687092902.687952,-0.8859789967536926,0.41870778799057007,0.1993125081062317,-0.007072389125823975,-0.018927425146102905,-0.009767726063728333,-0.04139471426606178,0.033754654228687286,0.0863071084022522,-1.7920755704588156,-0.43202189018675163,3.0810480721451174
1687092902.721653,-0.8857372403144836,0.4213123321533203,0.19484680891036987,0.0007275938987731934,-0.0266895592212677,-0.0038067251443862915,-0.009576462209224701,0.051624998450279236,0.04209650680422783,-1.78733005802892,-0.43489184943437403,3.082469245913589
1687092902.7576509,-0.8861042261123657,0.42141807079315186,0.1929408758878708,-0.007648885250091553,-0.017914623022079468,0.02236071228981018,-0.21362559497356415,0.10271401703357697,0.04166027903556824,-1.7851905190323005,-0.4350084615337964,3.0750603654284276
1687092902.805402,-0.8860020041465759,0.4211553931236267,0.19398124516010284,-0.0024410486221313477,0.0010095834732055664,-0.0034141242504119873,-0.02468024753034115,-0.017017578706145287,0.018728865310549736,-1.7863353030558655,-0.43471880723617645,3.068964569530747
1687092902.8500772,-0.8856760263442993,0.41932666301727295,0.19935691356658936,-0.035054564476013184,-0.04045093059539795,0.00022804737091064453,-0.3845701217651367,0.04790842533111572,0.0231395922601223,-1.7921965317259128,-0.4327034858355358,3.0565532068348173
1687092902.912869,-0.8861806988716125,0.41698601841926575,0.20200525224208832,0.014797210693359375,-0.012277215719223022,-0.0290316641330719,-0.12689389288425446,0.0694841593503952,-0.02420288696885109,-1.7949172216789768,-0.4301267464311948,3.042396759196608
1687092902.9661741,-0.8889885544776917,0.4120379686355591,0.19980978965759277,-0.019855380058288574,-0.02083316445350647,-0.022823110222816467,-0.5273388624191284,0.35726892948150635,-0.0063168322667479515,-1.7918831010699428,-0.4246895807790283,3.029061442260625
1687092903.0209289,-0.8937337398529053,0.4035004675388336,0.1960289031267166,-0.04091280698776245,0.03796681761741638,-0.0023185014724731445,-0.8017298579216003,0.4514237940311432,-0.040303826332092285,-1.7867141709183345,-0.4153393552501312,2.983994631073768
1687092903.0625238,-0.897891104221344,0.39804744720458984,0.18801572918891907,0.05328655242919922,0.09119513630867004,-0.08723136782646179,-0.1362423151731491,0.3210131824016571,-0.029110562056303024,-1.7772109452113638,-0.40938743387837023,2.9719091795768167
1687092903.165883,-0.9012665748596191,0.39544135332107544,0.1770445555448532,0.0018677115440368652,0.10346004366874695,0.034442320466041565,-0.4979707598686218,0.5018649101257324,0.101760633289814,-1.7647661993236858,-0.40654833630762055,2.944207459420274
1687092903.208589,-0.9009007215499878,0.4036828577518463,0.15943071246147156,0.03557479381561279,0.0495336651802063,-0.0019904375076293945,0.0006448160856962204,0.3583432734012604,0.23983833193778992,-1.7459509895653818,-0.4155387096337946,2.945440118956133
1687092903.224628,-0.899007260799408,0.4116169214248657,0.14952339231967926,-0.00879901647567749,0.000934898853302002,0.04952751100063324,-0.19266200065612793,0.24477633833885193,0.19232381880283356,-1.7356082301040736,-0.4242275536022043,2.925127302717366
1687092903.2636352,-0.8963871002197266,0.41915029287338257,0.14423337578773499,0.009424269199371338,-0.11014455556869507,0.0675586462020874,-0.1374714970588684,0.0028432109393179417,0.15036305785179138,-1.73033409771142,-0.43250921646976437,2.92911768977377
1687092903.304127,-0.8944234251976013,0.42114630341529846,0.15047472715377808,-0.02105814218521118,-0.04558172821998596,0.0541151762008667,-0.3746214509010315,0.013193054124712944,0.061922408640384674,-1.7374720796865462,-0.4347087864827448,2.905729013252466
1687092903.3536901,-0.8932322263717651,0.41913729906082153,0.16266605257987976,-0.012941539287567139,-0.033517152070999146,-0.042701348662376404,-0.7081440687179565,-0.06169130653142929,0.057764679193496704,-1.7509317769825916,-0.4324949255900219,2.8799010566255454
1687092903.405257,-0.8909182548522949,0.41801193356513977,0.17756815254688263,-0.020656943321228027,0.09286752343177795,-0.11959995329380035,-0.9320549368858337,0.24101915955543518,0.21267622709274292,-1.767527512424741,-0.43125576915068925,2.832502586934632
1687092903.484132,-0.8882281184196472,0.42262572050094604,0.18010641634464264,0.020247161388397217,0.20225217938423157,-0.21617817878723145,-1.3006953001022339,0.6749322414398193,0.492489755153656,-1.7708543660518614,-0.43634054498468594,2.769712248865471
1687092903.522794,-0.8793261051177979,0.44452807307243347,0.17082247138023376,-0.019111335277557373,0.33896493911743164,-0.2434084415435791,-1.7129281759262085,1.1763516664505005,1.0931670665740967,-1.7626716270179015,-0.46064736314776095,2.6838738757932616
1687092903.5616488,-0.8582242131233215,0.48946964740753174,0.1545022577047348,-0.03494912385940552,0.5497759580612183,-0.1804879754781723,-1.923850417137146,1.521232008934021,1.7188501358032227,-1.7489139888269565,-0.5114814691239584,2.564479635986774
1687092903.617373,-0.8163231015205383,0.5590252876281738,0.1452837437391281,-0.14182204008102417,0.5049700736999512,-0.07915210723876953,-2.2979979515075684,1.534893274307251,2.3218371868133545,-1.7469255017868381,-0.593209744630081,2.4209820238469635
1687092903.658884,-0.7515252828598022,0.6430656909942627,0.14722949266433716,-0.058533430099487305,0.5464484691619873,0.03897358477115631,-1.3319553136825562,1.1306495666503906,2.6460659503936768,-1.764253763593814,-0.6984947510992191,2.2788991184003136
1687092903.7076612,-0.6583310961723328,0.7372710108757019,0.1517617106437683,-0.2892550230026245,0.4700195789337158,0.13875043392181396,-0.885647177696228,0.7680234313011169,3.098902702331543,-1.7973631961098073,-0.829022017822455,2.1631239939085916
1687092903.757859,-0.5361068844795227,0.8289815783500671,0.15930789709091187,-0.39025425910949707,0.36034953594207764,0.21264030039310455,-0.7948991656303406,0.32029974460601807,3.337096691131592,-1.8596427895074827,-0.9772842871458137,2.050205685016584
1687092903.833578,-0.38875892758369446,0.8984920978546143,0.20390883088111877,-0.5359390377998352,0.3620213270187378,0.120828777551651,-0.6719379425048828,-0.14639700949192047,3.454859495162964,-2.0538609178299847,-1.1163223591325073,1.8220943132353655
1687092903.865653,-0.22528161108493805,0.954207718372345,0.196814626455307,-0.4865257143974304,0.2977150082588196,0.0788353979587555,0.5170960426330566,-0.21021366119384766,3.542604923248291,-2.288854524028799,-1.2669999195374868,1.5787739996846653
1687092903.922535,-0.04906407371163368,0.9811258912086487,0.18704181909561157,-0.580422043800354,0.28509414196014404,0.03205917775630951,0.08367098867893219,-0.22524188458919525,3.6711266040802,-2.885056400621273,-1.3762003276560455,0.976010546943652
1687092903.966967,0.1287403553724289,0.9772657752037048,0.168456569314003,-0.6455250382423401,0.27781540155410767,0.0621342658996582,0.8160732984542847,0.041533082723617554,3.4869637489318848,2.4890434127164514,-1.3571569925138294,0.05319512505716377
1687092904.074795,0.29994019865989685,0.9474055767059326,0.11161863803863525,-0.6442395448684692,0.36430108547210693,0.12019290030002594,0.9394677877426147,0.1622571051120758,3.7567386627197266,1.9270540018669964,-1.2450293959474368,-0.5357940457941713
1687092904.101135,0.47482043504714966,0.8714747428894043,0.12278887629508972,-0.7540716528892517,0.17379802465438843,0.10969410836696625,-1.005659818649292,0.03158298134803772,3.92506742477417,1.8238531998710024,-1.0582012529256537,-0.659068257879509
1687092904.115649,0.6406108736991882,0.7557733058929443,0.13573572039604187,-0.7969067692756653,0.09092152118682861,-0.012276902794837952,0.44355592131614685,-0.2263369858264923,4.009523391723633,1.7795930370491697,-0.8568342408753936,-0.699050786686335
1687092904.165769,0.7732449769973755,0.6232358813285828,0.11691494286060333,-0.7363645434379578,-0.18948954343795776,0.15885710716247559,-0.23036935925483704,-0.027338393032550812,3.556563377380371,1.720860042834458,-0.6728736926614096,-0.7721872461346418
1687092904.22453,0.8628889322280884,0.48708227276802063,0.13480964303016663,-0.5960432291030884,-0.17125585675239563,0.05555903911590576,-1.0178227424621582,-0.13902057707309723,2.918869972229004,1.725774123695842,-0.5087458220402146,-0.7540585626954083
1687092904.278197,0.9218054413795471,0.35581013560295105,0.153863787651062,-0.5092535018920898,-0.2535761892795563,0.006078854203224182,-1.5755914449691772,-0.11441230773925781,2.5627007484436035,1.7361872894206152,-0.36378078914130396,-0.7123085218774956
1687092904.3573909,0.9587377309799194,0.23381905257701874,0.1617116779088974,-0.43530023097991943,-0.04851628839969635,-0.1654195785522461,-0.8758213520050049,-0.27074146270751953,2.2583858966827393,1.737894970013023,-0.23600377585990293,-0.6625750062163501
1687092904.365968,0.9796899557113647,0.12540794909000397,0.15646235644817352,-0.293822705745697,-0.20844624936580658,-0.16107046604156494,-0.6916142702102661,-0.30852171778678894,1.9273769855499268,1.7291649074196094,-0.12573901342253244,-0.6415543332110423
1687092904.4077082,0.9882959723472595,0.034950826317071915,0.1484898179769516,-0.30117762088775635,-0.19571739435195923,-0.05229844152927399,-1.583524227142334,-0.16886356472969055,1.4140172004699707,1.7199291291658396,-0.034957944393495324,-0.5990288950309414
1687092904.456778,0.9898049831390381,-0.03297802060842514,0.13855870068073273,-0.14770299196243286,-0.05382920801639557,-0.06269192695617676,-1.0649170875549316,-0.32194647192955017,1.0788052082061768,1.7098783905871329,0.03298399925515749,-0.539030185774693
1687092904.528524,0.9890912175178528,-0.09995582699775696,0.10820009559392929,-0.13623183965682983,-0.02084798365831375,-0.172698974609375,-0.44788315892219543,-0.69046550989151,1.432030200958252,1.6797565124639315,0.10012302690196566,-0.499165367257565
1687092904.5764542,0.9820457100868225,-0.1720576137304306,0.07734827697277069,-0.21667999029159546,-0.2892460823059082,-0.2099471092224121,1.229843020439148,-0.6491531133651733,1.4211599826812744,1.649396461583021,0.17291804901237096,-0.5316527673022824
1687092904.608934,0.973008394241333,-0.2203080803155899,0.06869465857744217,-0.15809756517410278,-0.5212385058403015,-0.19222986698150635,0.6935821771621704,-0.17414994537830353,0.6039920449256897,1.6412796504074714,0.22213030692806193,-0.5958910710011676
1687092904.669982,0.9703707098960876,-0.23305366933345795,0.06376998871564865,-0.12788724899291992,-0.32084032893180847,-0.08865702897310257,-0.9854273200035095,0.08944627642631531,0.042968425899744034,1.6364191059841835,0.23521664555134467,-0.5804482445033964
1687092904.753653,0.9688747525215149,-0.2401132583618164,0.06022891402244568,0.008008241653442383,-0.1475820392370224,-0.07933282107114792,0.38818901777267456,-0.22152717411518097,0.20508623123168945,1.6328802153347732,0.24248252408121546,-0.560610907548603
1687092904.768229,0.96712327003479,-0.247028186917305,0.06041303277015686,-0.08757609128952026,-0.12873475253582,0.025661833584308624,0.26882845163345337,-0.043188463896512985,0.09052422642707825,1.6331819997834425,0.24961218972134844,-0.5911535158045322
1687092904.806683,0.9682077169418335,-0.24365560710430145,0.05661936476826668,0.010368943214416504,-0.044949084520339966,-0.07380068302154541,-0.5031155943870544,0.05255603790283203,-0.19738425314426422,1.6292083331022869,0.24613328475948645,-0.5733455364118382
1687092904.888015,0.9703253507614136,-0.2345668077468872,0.05871310830116272,0.038417935371398926,0.016854435205459595,-0.014508366584777832,0.15414783358573914,0.02707717753946781,-0.20149432122707367,1.6312313222928752,0.23677291623157515,-0.5652562879874141
1687092904.910917,0.9721542596817017,-0.22517889738082886,0.06489083915948868,0.06269693374633789,0.02740974724292755,-0.02213560789823532,0.1388465017080307,0.05636129528284073,-0.19255781173706055,1.6374469842662691,0.227126650872506,-0.5747473522695397
1687092904.965589,0.9734463095664978,-0.21718861162662506,0.07233035564422607,0.008182227611541748,-0.0002338886260986328,-0.009754054248332977,0.24269120395183563,0.10545787215232849,-0.1092112585902214,1.6449634246685088,0.2189334008764061,-0.5871384105968166
1687092905.002707,0.9742671251296997,-0.21162942051887512,0.07756544649600983,-0.016884982585906982,-0.03075641393661499,-0.06415296345949173,0.38548874855041504,0.03845420107245445,-0.06309142708778381,1.650242899415796,0.21324184001787663,-0.6009673144784285
1687092905.077003,0.9750953316688538,-0.20450221002101898,0.08583793044090271,-0.07560485601425171,-0.13079440593719482,-0.092902772128582,0.4954361021518707,0.14216075837612152,-0.15664535760879517,1.6586002822049608,0.20595514091669037,-0.6221180164408804
1687092905.180811,0.9767521619796753,-0.18971635401248932,0.09981274604797363,-0.08736330270767212,-0.2804068326950073,-0.06798292696475983,0.12075977772474289,0.2583540678024292,-0.46774783730506897,1.672631241383705,0.19087325177187003,-0.6369795479058293
1687092905.199753,0.9805415272712708,-0.15826725959777832,0.11614550650119781,-0.09389907121658325,-0.2697874903678894,-0.12874925136566162,-0.1805797517299652,0.36250752210617065,-0.7862144708633423,1.6886973395047409,0.1589355410649258,-0.6331818033472204
1687092905.2116652,0.9840788245201111,-0.11480781435966492,0.13567683100700378,-0.18108505010604858,-0.2570946216583252,-0.13184678554534912,0.057758234441280365,0.4977084696292877,-1.057008981704712,1.7078044917753927,0.11506153360666757,-0.6186089045646836
1687092905.256863,0.9864215850830078,-0.04855281114578247,0.15689192712306976,-0.1613789200782776,-0.23062194883823395,-0.0792093276977539,1.7866533994674683,0.1581232100725174,-1.3602075576782227,1.7285267156891542,0.048571908252629865,-0.6559917865328667
1687092905.30269,0.9860979318618774,0.03967924416065216,0.16135850548744202,-0.27729666233062744,-0.2589785158634186,0.04782426357269287,0.5175238251686096,0.13983021676540375,-1.8758282661437988,1.7329922173277776,-0.03968966526529082,-0.7101725766010515
1687092905.3554602,0.9754101634025574,0.13973592221736908,0.17043697834014893,-0.28557562828063965,-0.08382771909236908,0.0033148378133773804,-0.05295196548104286,0.24779756367206573,-2.053138256072998,1.7437835455604993,-0.1401947175188309,-0.6975893077337598
1687092905.4019408,0.9555153846740723,0.23784999549388885,0.17440657317638397,-0.20948272943496704,0.0024759769439697266,-0.01591348648071289,0.8769707083702087,0.14351777732372284,-1.9387569427490234,1.7513350807102885,-0.24015171749855815,-0.6951578828304337
1687092905.467226,0.9257041811943054,0.3389880061149597,0.16780726611614227,-0.30668550729751587,-0.14077627658843994,0.11202372610569,-0.04504537209868431,0.09141182154417038,-2.158616781234741,1.7501242295317299,-0.34584100487529407,-0.7102082163835971
1687092905.513506,0.8799432516098022,0.44008854031562805,0.17894700169563293,-0.24278205633163452,-0.009332925081253052,0.04654741287231445,0.21282579004764557,0.05260650813579559,-2.467184543609619,1.771422460997257,-0.45569728411225613,-0.66947868551703
1687092905.562371,0.8204302787780762,0.5477838516235352,0.1637887805700302,-0.2976490259170532,-0.04287058115005493,0.0965719074010849,0.21229948103427887,-0.07274675369262695,-2.381582260131836,1.7678434526755538,-0.5797129956209122,-0.6726757982071812
1687092905.609385,0.7480221390724182,0.6365731358528137,0.1877155900001526,-0.24126261472702026,-0.051612257957458496,0.06712135672569275,-1.0271732807159424,0.1562267690896988,-2.5665197372436523,1.8166681891861975,-0.6900466476113893,-0.596805513582012
1687092905.6791139,0.6591095328330994,0.7282608151435852,0.18764474987983704,-0.2907472252845764,0.13654625415802002,-0.002769261598587036,0.8573051691055298,0.06052035465836525,-2.533411979675293,1.8481527604903818,-0.8157806414689788,-0.5511518486070943
1687092905.7168322,0.5630039572715759,0.8081467747688293,0.1729883849620819,-0.2634130120277405,-0.046061933040618896,0.07847641408443451,-0.3494400978088379,0.06758652627468109,-2.5768511295318604,1.868899949483348,-0.9409987588141753,-0.5244977988801186
1687092905.76421,0.45151832699775696,0.8715787529945374,0.19100219011306763,-0.27212074398994446,0.1232638955116272,0.07643857598304749,-0.3775952458381653,-0.06570109724998474,-2.5936191082000732,1.9709904127348812,-1.0584133952573918,-0.4002637808764772
1687092905.815947,0.33987438678741455,0.9211052656173706,0.18987002968788147,-0.25180065631866455,0.11836934089660645,0.007502466440200806,0.7178453207015991,-0.1326894611120224,-2.5036537647247314,2.080254579803075,-1.1709099941158976,-0.2720702421818202
1687092905.867867,0.22730718553066254,0.9645576477050781,0.1340145766735077,-0.220456063747406,-0.0598183274269104,0.16359291970729828,0.971615731716156,-0.7944955825805664,-2.4840266704559326,2.103514931701428,-1.3037617746507724,-0.22761232519463573
1687092905.926135,0.10629942268133163,0.9902325868606567,0.09022132307291031,-0.2957220673561096,0.135850727558136,0.056781888008117676,0.7567777633666992,-0.8277927041053772,-2.6066489219665527,2.2745625534554885,-1.4309154559831823,-0.005137947873000574
1687092905.965663,-0.01361080165952444,0.998396098613739,0.05495573952794075,-0.22213751077651978,-0.07075327634811401,0.13168978691101074,0.2578449249267578,-1.2178305387496948,-2.510762929916382,-2.89880961205453,-1.5141509911970985,1.1552884787810822
1687092906.014188,-0.14181341230869293,0.9884241819381714,0.053911782801151276,-0.33204829692840576,0.07062727212905884,0.045163508504629135,0.2724117338657379,-1.2614359855651855,-2.705456018447876,-1.9340830944508065,-1.4184925166407023,2.185014294178413
1687092906.107028,-0.26885345578193665,0.9618334770202637,0.05093038082122803,-0.20648831129074097,0.1045878529548645,0.034015290439128876,-0.016234565526247025,-1.0688902139663696,-2.6432156562805176,-1.758013357778348,-1.293625598996935,2.4211042404050414
1687092906.122649,-0.387492835521698,0.9195914268493652,0.06481585651636124,-0.2523234784603119,0.22826623916625977,-0.028301596641540527,0.31726405024528503,-0.9806432723999023,-2.5846357345581055,-1.736531800196983,-1.1670392541182777,2.501956584459945
1687092906.1725512,-0.4955819547176361,0.8664619326591492,0.06034846603870392,-0.033440202474594116,0.272652268409729,-0.06573475152254105,0.6278232336044312,-1.0977295637130737,-2.2965307235717773,-1.6919726437270866,-1.0480712982397076,2.603952687941089
1687092906.205636,-0.5808364152908325,0.8105471134185791,0.07511787116527557,-0.22928327322006226,0.2631376385688782,-0.0829760953783989,0.2770809531211853,-1.0557537078857422,-1.9880876541137695,-1.699409528726459,-0.945085685634103,2.667630844222994
1687092906.297,-0.6555548310279846,0.748812735080719,0.09760790318250656,-0.05204099416732788,0.25642096996307373,-0.11459088325500488,-0.07191746681928635,-0.948799192905426,-1.928600788116455,-1.718604019472984,-0.846268950311944,2.695531979108657
1687092906.315253,-0.7122809290885925,0.6887302398681641,0.13530124723911285,-0.16702204942703247,0.31833451986312866,-0.19319307804107666,0.11935541778802872,-1.0196534395217896,-1.5725841522216797,-1.7585147515308883,-0.7597362688250775,2.7205601499870733
1687092906.355942,-0.7562631964683533,0.6336749196052551,0.16285623610019684,-0.10442405939102173,0.18532532453536987,-0.09699928760528564,-0.43620872497558594,-0.3902016878128052,-1.442739725112915,-1.7829006300810408,-0.6862944106737728,2.7307484418059667
1687092906.4166799,-0.7959399819374084,0.5778037905693054,0.18061695992946625,0.012111246585845947,0.2858436703681946,-0.12594473361968994,0.4284466803073883,-0.44250723719596863,-1.3883099555969238,-1.7939402058110392,-0.6160352483889455,2.741904699218088
1687092906.475192,-0.8311814665794373,0.5288989543914795,0.1714729368686676,-0.05495727062225342,0.25094717741012573,-0.07999648153781891,1.616852879524231,-0.5225422382354736,-1.4170360565185547,-1.7742424044564822,-0.5573026749264764,2.822501570512476
1687092906.5268831,-0.8572726249694824,0.4911915957927704,0.15431872010231018,-0.023571372032165527,0.15555211901664734,0.015069112181663513,1.3861428499221802,-0.6829349994659424,-1.0076448917388916,-1.7489001679894758,-0.51345720904469,2.931296929930919
1687092906.568156,-0.8737510442733765,0.45881909132003784,0.16138258576393127,-0.03642052412033081,0.09756216406822205,-0.009740695357322693,0.6196318864822388,-0.6536896228790283,-0.838463306427002,-1.7534388507937524,-0.4766656793640322,2.994209683628016
1687092906.6244168,-0.8847572207450867,0.43001851439476013,0.17968995869159698,0.005698561668395996,0.0974929928779602,-0.008806735277175903,0.15756991505622864,-0.5236465334892273,-0.6362958550453186,-1.7711662737963532,-0.44451327269393826,3.0208839927442352
1687092906.667706,-0.893275260925293,0.4049433469772339,0.19514109194278717,0.01342308521270752,0.11460307240486145,-0.035061150789260864,0.3762204349040985,-0.4513666331768036,-0.5865647792816162,-1.7858731779226666,-0.4169168711989042,3.041538162576096
1687092906.7081661,-0.8981290459632874,0.38494378328323364,0.21256132423877716,0.014813125133514404,0.08946716785430908,-0.062292709946632385,-0.36416658759117126,-0.294464111328125,-0.3164363503456116,-1.803191475139617,-0.39514691579622285,3.048644189888837
1687092906.747587,-0.9008718132972717,0.3714326322078705,0.22465039789676666,0.0062795281410217285,0.16337266564369202,-0.08640575408935547,-0.07638858258724213,-0.02738846093416214,-0.1751580536365509,-1.8151819501801358,-0.38055156427804143,3.040159744300504
1687092906.829904,-0.9027211666107178,0.36690664291381836,0.22466395795345306,0.007411777973175049,0.14122626185417175,-0.06107451021671295,-0.03425085172057152,0.13371707499027252,0.01845029927790165,-1.8147150883860146,-0.37568154784684854,3.0380652109060717
1687092906.869399,-0.9033608436584473,0.3720989525318146,0.21326369047164917,0.027750611305236816,0.04359620809555054,0.004204601049423218,0.45318326354026794,0.10832276940345764,0.08135709166526794,-1.8026296952319878,-0.3812693175838635,3.0546646184736477
1687092906.946619,-0.902366578578949,0.3778825104236603,0.2072187215089798,0.006263554096221924,-0.01888895034790039,0.03385499119758606,-0.0672781765460968,0.036371611058712006,0.11294804513454437,-1.7965220009842342,-0.3875081606343795,3.059615840569242
1687092906.964088,-0.9000929594039917,0.3824766278266907,0.20867300033569336,-0.008751094341278076,-0.038299351930618286,0.04260876774787903,0.026282934471964836,-0.03477473556995392,0.07288477569818497,-1.7986067692867371,-0.3924752585900567,3.0547567985172237
1687092906.995146,-0.8979571461677551,0.3850603401660919,0.21307657659053802,-0.01633429527282715,-0.039998024702072144,0.006878882646560669,0.008977115154266357,-0.15219949185848236,0.005766196176409721,-1.8037776749922632,-0.39527318738419337,3.0594490782513595
1687092907.0670009,-0.8984830379486084,0.3809785544872284,0.2181367427110672,-0.0594637393951416,0.035540610551834106,-0.02435004711151123,0.2496386468410492,-5.324289668351412e-05,-0.16930042207241058,-1.8089714315248784,-0.3908544270853167,3.061024338976513
1687092907.2037559,-0.9025862812995911,0.37394940853118896,0.21330760419368744,0.036131083965301514,0.028119713068008423,0.017710477113723755,0.08755308389663696,-0.0032346551306545734,-0.1390218883752823,-1.8028676661364156,-0.383263729433339,3.072546547607461
1687092907.221476,-0.9025772213935852,0.37378978729248047,0.21362461149692535,0.03448951244354248,0.05162525177001953,0.01496732234954834,0.12784358859062195,-0.15156513452529907,0.06117645651102066,-1.8032025272521808,-0.38309162931017143,3.0808193472230103
1687092907.224694,-0.898076057434082,0.3795199394226074,0.22231484949588776,-0.012186944484710693,0.01176115870475769,-0.025262847542762756,-0.10701580345630646,-0.16041108965873718,0.167726069688797,-1.8134637242405076,-0.3892773612929827,3.0759930603517627
1687092907.55262,-0.8943740725517273,0.38448667526245117,0.22861526906490326,0.0002396106719970703,-0.10207700729370117,-0.024315357208251953,0.008378103375434875,-0.0706549808382988,-0.014565174467861652,-1.821052502429868,-0.39465167764488573,3.074696640967499
1687092907.568931,-0.8967704772949219,0.38102445006370544,0.22499601542949677,0.044017791748046875,0.026659846305847168,-0.0035756826400756836,-0.008963337168097496,0.14651168882846832,-0.06338651478290558,-1.8166179869180956,-0.3909040845206275,3.0754897723906676
1687092907.582231,-0.899225115776062,0.37966451048851013,0.21736881136894226,0.0027407407760620117,0.06287086009979248,-0.017219185829162598,0.09402856230735779,0.11690639704465866,0.0394730269908905,-1.8079755213345048,-0.38943363276989623,3.074109593635829
1687092907.584851,-0.8977075815200806,0.3840121924877167,0.21599942445755005,-0.031018614768981934,-0.013055801391601562,0.0024302005767822266,-0.1786014288663864,0.025926826521754265,0.1154644638299942,-1.8069201187013488,-0.39413776092350583,3.071856733692136
1687092907.5874882,-0.8961691856384277,0.3874979615211487,0.2161623239517212,0.017735958099365234,-0.02020367980003357,0.02161538600921631,0.06584299355745316,-0.018980327993631363,0.02098935842514038,-1.8074823128571385,-0.3979159661407688,3.0666729582945607
1687092907.665165,-0.8968073725700378,0.38614723086357117,0.21593275666236877,-0.0005009770393371582,-0.04305335879325867,0.018732190132141113,-0.2497352510690689,0.05699073523283005,-0.018748734146356583,-1.8070781482970684,-0.3964511801832417,3.06537885964898
1687092907.668342,-0.8977727293968201,0.38223007321357727,0.21887029707431793,0.0006933212280273438,0.04481762647628784,-0.03382694721221924,-0.21062074601650238,0.09624919295310974,0.012847274541854858,-1.809924199599387,-0.39220842294847724,3.049245817974455
1687092907.672145,-0.8986155390739441,0.38177943229675293,0.21618226170539856,0.002054750919342041,0.009501755237579346,-0.008174389600753784,-0.12995493412017822,0.13152995705604553,0.018312614411115646,-1.8068826347246612,-0.39172078163037477,3.0439697334014593
1687092907.7532048,-0.8996648788452148,0.38176244497299194,0.2118036150932312,0.028052210807800293,0.06287869811058044,-0.04096612334251404,-0.08392120152711868,0.14163491129875183,0.07941538095474243,-1.8020110175940847,-0.391702429364943,3.036029927916509
1687092907.8475099,-0.8971389532089233,0.3852578103542328,0.21614308655261993,-0.033555448055267334,0.04615384340286255,-0.04480209946632385,-1.3412072658538818,0.23063935339450836,0.38637956976890564,-1.807215621745133,-0.39548719065302723,2.999686778739912
1687092907.85329,-0.8880473971366882,0.39894071221351624,0.22851236164569855,0.012635588645935059,0.3452608585357666,-0.24886754155158997,-1.1570268869400024,0.40850627422332764,0.9356999397277832,-1.8226524476112314,-0.41036136584097094,2.9237930819362816
1687092907.937702,-0.8699593544006348,0.4370417892932892,0.22839659452438354,-0.08069360256195068,0.37841832637786865,-0.24640193581581116,-1.7241950035095215,0.956115186214447,1.5863544940948486,-1.8275393502405355,-0.45230710558615894,2.8281726848587314
1687092907.953,-0.8394447565078735,0.5009089708328247,0.21076661348342896,-0.0070670247077941895,0.6606967449188232,-0.3189513683319092,-1.0616730451583862,1.321021556854248,2.1582367420196533,-1.816789886841544,-0.5246486830962966,2.7210207363903374
1687092908.032376,-0.7867451310157776,0.5922876596450806,0.173860564827919,-0.1531810164451599,0.6136602163314819,-0.2137012481689453,-0.5211162567138672,1.3941423892974854,2.662067413330078,-1.7882880252538382,-0.6338951277139223,2.6489492853553394
1687092908.037578,-0.7025504112243652,0.6977313160896301,0.1399776041507721,-0.32668536901474,0.4803539514541626,-0.0353480726480484,-0.7185232043266296,1.4723666906356812,3.1876046657562256,-1.7674630159875484,-0.7722256198977203,2.569396355556026
1687092908.120312,-0.5864243507385254,0.7993650436401367,0.13085204362869263,-0.46690523624420166,0.27532678842544556,0.06659676134586334,-0.9651304483413696,1.3313260078430176,3.4126267433166504,-1.7903353390306425,-0.9262376988724922,2.446700258871998
1687092908.134461,-0.45109689235687256,0.8827857375144958,0.13115334510803223,-0.4487597346305847,0.2874413728713989,0.10251976549625397,-0.4314575791358948,1.0033560991287231,3.3984599113464355,-1.8537391329117021,-1.0817594787379028,2.3007931127850645
1687092908.172902,-0.29809069633483887,0.9456982016563416,0.12960149347782135,-0.5391590595245361,0.18859422206878662,0.17967888712882996,-0.3858105540275574,0.8312196135520935,3.4987971782684326,-1.9809147950221673,-1.2397358953451252,2.1113506343698027
1687092908.268445,-0.13412687182426453,0.982069730758667,0.13247132301330566,-0.5549600720405579,0.21249490976333618,0.15718625485897064,-0.0022667511366307735,0.49352675676345825,3.5152640342712402,-2.3499846924310193,-1.3811434861887002,1.694722016773617
1687092908.330202,0.037072550505399704,0.9900121688842773,0.13601969182491302,-0.5797056555747986,0.1207817792892456,0.10801421105861664,-0.12274596095085144,0.17236432433128357,3.4738430976867676,2.875502989142751,-1.4293432114791456,0.6083422194021859
1687092908.335833,0.20320403575897217,0.9716581106185913,0.12078411132097244,-0.5339382886886597,0.14804720878601074,0.051121488213539124,0.8389129042625427,0.10340403765439987,3.3427999019622803,2.1070866807048443,-1.3321468776288428,-0.17817855014066133
1687092908.416311,0.36387208104133606,0.9282074570655823,0.07764265686273575,-0.5578417778015137,0.11929339170455933,0.056192293763160706,0.9423272609710693,0.2465924769639969,3.426089286804199,1.7810225723278257,-1.1895656262845322,-0.5271794317449617
1687092908.421257,0.5124925971031189,0.8575679659843445,0.043915919959545135,-0.5473742485046387,0.04369240999221802,0.09036147594451904,0.7649349570274353,0.3201214075088501,3.282824993133545,1.6562783434299848,-1.030522644304172,-0.6819322163158724
1687092908.539997,0.6430233120918274,0.7648227214813232,0.03958771005272865,-0.5200375318527222,-0.012198209762573242,0.10416531562805176,0.019096793606877327,0.3887310028076172,3.182715654373169,1.6322836950862363,-0.8707661534565919,-0.7342919978473906
1687092908.6015801,0.7521267533302307,0.6567239761352539,0.05494299530982971,-0.49352091550827026,-0.03137308359146118,0.14181911945343018,-0.2595070004463196,0.1910991370677948,3.0093235969543457,1.6437169834106764,-0.7164664245362179,-0.7411104628936869
1687092908.615979,0.8388704061508179,0.539339005947113,0.07355446368455887,-0.3781769275665283,-0.10614186525344849,0.0254141166806221,-0.4155178368091583,0.10078401863574982,2.7772562503814697,1.6582553983217787,-0.569651938045535,-0.7315772978779823
1687092908.618942,0.9010187983512878,0.4248761832714081,0.08743739873170853,-0.4035518169403076,-0.021052300930023193,0.04023289680480957,-0.6749023199081421,0.02253076247870922,2.441737174987793,1.667536223716743,-0.4388251047267686,-0.7150268239438294
1687092908.651197,0.9450723528862,0.3107483983039856,0.10135992616415024,-0.28676241636276245,-0.06665351986885071,-0.06811106204986572,-0.5187950730323792,-0.014454951509833336,2.351792097091675,1.6776388802443682,-0.31598031786716124,-0.6928264757917799
1687092908.750393,0.9731473326683044,0.20193810760974884,0.11047729849815369,-0.2840757369995117,-0.07455772161483765,-0.03424442559480667,-0.21414710581302643,0.25912266969680786,2.083888053894043,1.6838381258139155,-0.20333639185731592,-0.6899731799859525
1687092908.839437,0.9864967465400696,0.11008908599615097,0.12126321345567703,-0.20602482557296753,-0.06464837491512299,-0.009797796607017517,-0.9640378355979919,0.14491672813892365,1.6129820346832275,1.6931058297301762,-0.11031267966080993,-0.6715221810934491
1687092908.8556418,0.9916894435882568,0.031970322132110596,0.12461831420660019,-0.2096003293991089,0.010571219027042389,-0.04296852648258209,-0.7570680975914001,-0.1114448830485344,1.3869385719299316,1.695803711496321,-0.0319757715608442,-0.6326175611249576
1687092908.9259372,0.9916150569915771,-0.0437922328710556,0.12158016115427017,-0.19728833436965942,-0.03573653846979141,-0.042585380375385284,-0.8936516046524048,-0.07726653665304184,1.528214931488037,1.69279565493322,0.04380624132725381,-0.6061051259675029
1687092908.940043,0.9856645464897156,-0.12735842168331146,0.11065895110368729,-0.20613867044448853,-0.043005913496017456,-0.07283233106136322,-0.9622018337249756,-0.2343233972787857,1.637681484222412,1.6825965479593288,0.12770526163440182,-0.561540036857428
1687092909.014147,0.9736892580986023,-0.2104862928390503,0.08731968700885773,-0.1539108157157898,-0.24599561095237732,-0.02613198757171631,0.042154308408498764,-0.6232446432113647,1.4939818382263184,1.660236280361828,0.21207237712812554,-0.5464432049465153
1687092909.0183291,0.960487425327301,-0.27107787132263184,0.06309346109628677,-0.13636022806167603,-0.21235105395317078,-0.1691877841949463,1.252502679824829,-0.70638108253479,1.163461446762085,1.6363910911224835,0.2745126509744178,-0.5907819274035825
1687092909.075626,0.9473422765731812,-0.31551533937454224,0.05470619350671768,-0.17709386348724365,-0.3380643427371979,-0.19253873825073242,0.17953553795814514,-0.07433906197547913,0.7703022360801697,1.6284792836400042,0.3209996799923539,-0.6378767571876002
1687092909.165125,0.937690258026123,-0.34260478615760803,0.057959094643592834,-0.109610915184021,-0.29286274313926697,-0.22005319595336914,0.343571275472641,0.1307239532470703,0.39280471205711365,1.6325282805305243,0.3496880694870619,-0.6394898674096261
1687092909.171376,0.9336610436439514,-0.35063695907592773,0.07301194220781326,-0.054937899112701416,-0.2957710921764374,-0.03066873550415039,0.10895411670207977,0.1558532565832138,-0.043724656105041504,1.6488371326877116,0.35825114867491403,-0.6598723572148086
1687092909.257972,0.9360650181770325,-0.34192967414855957,0.08286410570144653,-0.05540400743484497,-0.16252583265304565,-0.008050203323364258,-0.02890508621931076,0.2035672515630722,-0.312407523393631,1.6590900474613104,0.34896958863874783,-0.6597420114660445
1687092909.275583,0.9411552548408508,-0.32479074597358704,0.0934765413403511,-0.06989353895187378,-0.037483423948287964,0.01949954777956009,0.2169489562511444,0.22864636778831482,-0.36382997035980225,1.6697927251025435,0.3307904703571125,-0.6675634785578995
1687092909.3446689,0.9468667507171631,-0.3051985800266266,0.10147620737552643,-0.01371544599533081,-0.05539712309837341,-0.05710361897945404,0.4693540334701538,0.061866987496614456,-0.4095849394798279,1.677559352337987,0.3101469426459292,-0.6733913542924987
1687092909.437752,0.9534483551979065,-0.279130220413208,0.11411578208208084,-0.09710991382598877,-0.3118273615837097,-0.033427245914936066,0.7496234178543091,0.0643027126789093,-0.6951386332511902,1.6899171103712984,0.28288820315755836,-0.7033415331883927
1687092909.454752,0.965208888053894,-0.2278434783220291,0.128292515873909,-0.1672506332397461,-0.3108527362346649,-0.09220542013645172,0.646218478679657,0.10934768617153168,-1.1940991878509521,1.7029386168232983,0.22986233285720997,-0.7404292983762094
1687092909.524784,0.9765185117721558,-0.16810253262519836,0.13473302125930786,-0.21925538778305054,-0.30331769585609436,-0.07252289354801178,0.14586825668811798,0.01868036389350891,-1.2256197929382324,1.7079035181590334,0.16890448865175833,-0.7509658921003022
1687092909.539279,0.9849302768707275,-0.10549303144216537,0.13705284893512726,-0.24593192338943481,-0.23404550552368164,-0.06881548464298248,-0.08232782781124115,0.05114895850419998,-1.368356704711914,1.70905831979821,0.10568968766099428,-0.742225573372174
1687092909.6144319,0.9897344708442688,-0.031761929392814636,0.13934461772441864,-0.3277013897895813,-0.2719947397708893,-0.07602061331272125,0.28380727767944336,0.04636165872216225,-1.5813167095184326,1.7106669014084877,0.03176727232997353,-0.741318015100902
1687092909.618791,0.9887131452560425,0.058544859290122986,0.13790841400623322,-0.31599897146224976,-0.2390715479850769,0.01693771779537201,0.3177051842212677,-0.1647452563047409,-2.108471155166626,1.7093849075167162,-0.05857835357229692,-0.735471468488652
1687092909.6701732,0.9758012890815735,0.18078403174877167,0.122998908162117,-0.3714313507080078,-0.09298494458198547,-0.007413648068904877,1.1147639751434326,-0.1703738570213318,-2.481377124786377,1.696184183675521,-0.18178356693512115,-0.7677015728896656
1687092909.76845,0.9450774192810059,0.30466917157173157,0.11834465712308884,-0.40325307846069336,-0.1998870074748993,0.20895637571811676,-0.9999632835388184,-0.08370472490787506,-2.7495718002319336,1.6953700749155682,-0.3095910684033305,-0.7613393876773004
1687092909.7857962,0.8931977152824402,0.42831891775131226,0.13689768314361572,-0.5472351908683777,-0.07513895630836487,0.09657716751098633,-1.1231080293655396,-0.11768121272325516,-2.9128952026367188,1.7228797974033319,-0.44263156797343856,-0.6626915789681538
1687092909.8543038,0.8240358829498291,0.5483194589614868,0.14251461625099182,-0.41023290157318115,-0.011927306652069092,0.13385258615016937,-0.6900837421417236,-0.4961009621620178,-2.947153091430664,1.7420493954927372,-0.580353342406443,-0.5973811874663889
1687092909.868509,0.7370309829711914,0.6573816537857056,0.15695464611053467,-0.5150308609008789,0.021222472190856934,0.12833893299102783,-1.1805782318115234,-0.37457147240638733,-3.1347455978393555,1.7806172901139476,-0.7173388071969297,-0.4996111431475686
1687092909.912503,0.6189572811126709,0.7625880837440491,0.18801940977573395,-0.4433286786079407,0.10334819555282593,0.12794435024261475,-0.7043204307556152,-0.005086084827780724,-3.404623031616211,1.865706396894729,-0.8673045629161075,-0.36736157664819286
1687092910.0381532,0.4766898453235626,0.8574541211128235,0.1937498152256012,-0.5419365167617798,0.009214460849761963,0.1816163957118988,-0.18988358974456787,-0.3880387842655182,-3.9190268516540527,1.9568492694183803,-1.0303013877483962,-0.2330287496717858
1687092910.05406,0.29954782128334045,0.9365372061729431,0.18212418258190155,-0.43841812014579773,0.07925564050674438,0.18903052806854248,0.08504291623830795,-1.054840326309204,-4.176650524139404,2.1170752376158277,-1.2126186094384497,-0.02490480362351609
1687092910.124744,0.10419467836618423,0.9802051186561584,0.16834807395935059,-0.5472184419631958,0.3287851810455322,0.15745756030082703,0.532717227935791,-0.7771953344345093,-4.107966423034668,2.5873744684814355,-1.3714949239383598,0.5082395985952798
1687092910.139889,-0.079408198595047,0.9895332455635071,0.12049238383769989,-0.4629807472229004,0.3668358325958252,0.08202232420444489,0.9147062301635742,-1.1362513303756714,-3.741518259048462,-2.558895033865438,-1.42598567502517,1.7123993005481177
1687092910.211447,-0.25384795665740967,0.9623339772224426,0.09733663499355316,-0.34006989002227783,0.3013988137245178,0.10755835473537445,0.44013601541519165,-1.2760006189346313,-3.617405891418457,-1.9369498793919069,-1.2954605584853616,2.400351971423276
1687092910.215961,-0.4070703983306885,0.908970057964325,0.08981654793024063,-0.33833667635917664,0.4378011226654053,-0.008136279881000519,1.172858715057373,-1.6454375982284546,-3.216292381286621,-1.787958254358387,-1.1408065982805982,2.635673362410638
1687092910.309464,-0.538667619228363,0.8385480642318726,0.08169590681791306,-0.32639890909194946,0.32598739862442017,-0.06324803829193115,0.8602793216705322,-1.5376325845718384,-3.103787422180176,-1.7213122089381556,-0.994612834858458,2.8050208990349024
1687092910.3992581,-0.6473379135131836,0.7562538981437683,0.09504620730876923,-0.2907266616821289,0.4527762532234192,-0.20019447803497314,1.1702388525009155,-1.9281398057937622,-2.670531988143921,-1.7165809421655007,-0.8575684214899041,2.9304011670832595
1687092910.405219,-0.727133572101593,0.6774712800979614,0.11094773560762405,-0.1747523546218872,0.3538854718208313,-0.20713913440704346,0.5895324349403381,-1.255987286567688,-2.278843879699707,-1.7222108212313452,-0.7443193059261425,3.0239633517615614
1687092910.517185,-0.7911710143089294,0.5941184163093567,0.14516012370586395,-0.0980042815208435,0.37771373987197876,-0.23701801896095276,0.41931068897247314,-1.0409154891967773,-2.251171827316284,-1.752253185769419,-0.6361692107674122,3.0697275904929877
1687092910.523048,-0.8427139520645142,0.5116525888442993,0.16746580600738525,-0.08587491512298584,0.3952535390853882,-0.12495481967926025,1.0255913734436035,-1.0737394094467163,-2.0437567234039307,-1.7669627433886173,-0.5371070935717354,3.1385862258673876
1687092910.60858,-0.8768445253372192,0.446623295545578,0.1779646873474121,-0.12600886821746826,0.367585688829422,-0.1343550682067871,1.2265851497650146,-0.7763596177101135,-1.3604190349578857,-1.7710367656226549,-0.46298774209643145,-3.0507759988933
1687092910.626056,-0.8872476816177368,0.41517147421836853,0.2010580152273178,-0.01729339361190796,0.11357614398002625,-0.18328151106834412,-0.6449346542358398,-0.45735275745391846,-0.41952943801879883,-1.7936413892078982,-0.42813128342367746,-3.0273818166476705
1687092910.6960568,-0.8908343315124512,0.3954959809780121,0.2235996574163437,0.000606238842010498,0.40546831488609314,-0.20959214866161346,-0.2704737186431885,0.08290302753448486,-0.13689720630645752,-1.8167162060259043,-0.4066077871364888,-3.0583024082532266
1687092910.699923,-0.8907421827316284,0.3960500657558441,0.22298631072044373,0.019007503986358643,0.16928809881210327,-0.15146836638450623,-0.2307991236448288,0.10326875001192093,0.08955883234739304,-1.816092761578366,-0.4072111455652129,-3.0648746216918954
1687092910.786798,-0.8918895721435547,0.3971762955188751,0.2162967026233673,0.06640422344207764,0.09369900822639465,0.003872424364089966,0.24911728501319885,0.0456525944173336,0.025752954185009003,-1.8087180870368558,-0.4084380115404125,-3.069201128805424
1687092910.8059049,-0.8887665867805481,0.4106009900569916,0.20371703803539276,0.06392234563827515,0.12765273451805115,0.017611712217330933,0.9203343987464905,-0.09173215925693512,0.2551339566707611,-1.7961173181415613,-0.4231130647873195,-3.0338090597812704
1687092910.8740358,-0.8802425265312195,0.4328609108924866,0.1944333165884018,-0.04279202222824097,0.04846227169036865,-0.016454830765724182,0.08630039542913437,0.1366051435470581,0.5297364592552185,-1.7881916458600908,-0.44766402084263995,-3.014558911859399
1687092910.889083,-0.8700392842292786,0.45786815881729126,0.18272459506988525,-0.03184664249420166,-0.006299614906311035,0.014876708388328552,0.6726504564285278,0.058119118213653564,0.46768349409103394,-1.7778065194845663,-0.4755957621862167,-3.0065732651980177
1687092910.96365,-0.8596946597099304,0.4833504259586334,0.16521966457366943,-0.09835898876190186,-0.19482195377349854,0.05916084349155426,0.6768249273300171,-0.14452892541885376,0.33513343334198,-1.7606654507337534,-0.5044778818420358,-2.96219914477068
1687092910.967798,-0.8579428791999817,0.4873813986778259,0.16246061027050018,-0.06098717451095581,-0.40763893723487854,0.0570218563079834,-1.0293196439743042,0.21179495751857758,-0.06440117955207825,-1.757941107422066,-0.5090883277100282,-2.9664252173550794
1687092911.024792,-0.857988178730011,0.47021692991256714,0.20676656067371368,-0.08312821388244629,0.05343422293663025,-0.3936561048030853,-3.376277446746826,0.9196217656135559,0.41897374391555786,-1.807277155314636,-0.48953657303487985,-3.1034020626433656
1687092911.11771,-0.8533520698547363,0.47536346316337585,0.2140560746192932,-0.017436504364013672,0.7340786457061768,-0.5747127532958984,-1.9696756601333618,1.6988893747329712,1.2897837162017822,-1.8165667870521691,-0.49537712013439955,3.011923483923937
1687092911.123438,-0.8328928351402283,0.5308661460876465,0.1564309298992157,-0.07865196466445923,0.7373375296592712,-0.5229775905609131,-0.5386421084403992,2.2018017768859863,1.7800593376159668,-1.7564499111224832,-0.5596223092679399,2.9322551164141597
1687092911.205317,-0.7852182984352112,0.6134788990020752,0.08411843329668045,-0.25266921520233154,0.5963447093963623,-0.20072603225708008,-1.1404170989990234,2.3725831508636475,2.5696115493774414,-1.677516766965721,-0.6604583809239588,2.8672684516732847
1687092911.223321,-0.6996350884437561,0.7138249278068542,0.03105674684047699,-0.3525346517562866,0.445324182510376,0.015467282384634018,-0.811711847782135,2.2355945110321045,2.9845621585845947,-1.615157127337374,-0.7949447659271529,2.781209460629997
1687092911.328093,-0.5769751071929932,0.8166613578796387,-0.012798371724784374,-0.49120110273361206,0.3244518041610718,0.11603939533233643,-0.38829314708709717,1.7481794357299805,3.338646173477173,-1.5486181209112966,-0.9556020960402924,2.7465513283757104
1687092911.448565,-0.43676838278770447,0.8991461396217346,-0.02774031274020672,-0.4622794985771179,0.2797325849533081,0.19836413860321045,-0.656479001045227,1.7350600957870483,3.109035015106201,-1.5073688802880008,-1.117814586676115,2.685134860392385
1687092911.454041,-0.276329904794693,0.9595491886138916,-0.05391867086291313,-0.6127082109451294,0.3582608699798584,0.13796406984329224,0.8058885931968689,0.9046247005462646,3.577491283416748,-1.3780933336536785,-1.2853965811476709,2.7641618930218392
1687092911.469895,-0.09905823320150375,0.9909969568252563,-0.09007032960653305,-0.552522599697113,0.2046055793762207,0.14819109439849854,0.22127099335193634,0.9136556386947632,3.608741521835327,-0.8328851384041799,-1.4365084711090264,-3.0139704348991114
1687092911.5297542,0.08676381409168243,0.9911350011825562,-0.10061522573232651,-0.655916690826416,0.10697895288467407,0.10214108973741531,0.34589481353759766,0.8771721720695496,3.5782864093780518,0.7116104850309107,-1.4375438829487446,-1.5006210183128865
1687092911.53341,0.26041939854621887,0.9586198329925537,-0.11502015590667725,-0.5587897896766663,0.010084331035614014,0.12271065264940262,0.4590388834476471,1.0714200735092163,3.3118834495544434,1.1548888412093006,-1.282113925517503,-1.0984359893723799
1687092911.653016,0.41514816880226135,0.9038982391357422,-0.10305332392454147,-0.48057791590690613,0.0011615753173828125,0.09510350227355957,-0.10671859234571457,0.9816328287124634,3.0582118034362793,1.327481757143367,-1.1287969334572079,-0.9702981047777665
1687092911.668676,0.5490873456001282,0.8316068053245544,-0.08326475322246552,-0.529891848564148,0.005566596984863281,0.0913366749882698,0.14761681854724884,0.7338154315948486,2.9589622020721436,1.420300803457029,-0.9819946517408255,-0.9129952979783111
1687092911.747064,0.6676087379455566,0.7414060235023499,-0.06794138252735138,-0.46486520767211914,-0.0727657675743103,0.08431410044431686,0.04024702310562134,0.7362930774688721,2.833824634552002,1.4693772341326554,-0.8351631461038115,-0.8966645185163259
1687092911.751608,0.7622764110565186,0.6456453204154968,-0.04557337984442711,-0.34668803215026855,-0.02970898151397705,0.002558887004852295,0.03744637221097946,0.45902323722839355,2.5781688690185547,1.511081506081488,-0.701868029085104,-0.8749473481364514
1687092911.8386722,0.8367802500724792,0.5464160442352295,-0.0350506454706192,-0.328464150428772,-0.05886709690093994,0.047395046800374985,0.3892640173435211,0.4695383310317993,2.342494249343872,1.5289332837405603,-0.578078947395796,-0.8878903413022003
1687092911.856196,0.8928622603416443,0.4502007067203522,-0.0107956537976861,-0.33147603273391724,-0.1587119698524475,0.07538610696792603,-0.4338538348674774,0.5517083406448364,2.1250789165496826,1.5587058524596413,-0.4669901121920202,-0.8815318171467473
1687092911.9221802,0.9335067868232727,0.35835763812065125,0.012043667957186699,-0.2169387936592102,-0.10620611906051636,0.01368260383605957,-0.030173417180776596,0.2349560707807541,1.855409860610962,1.5836971439370011,-0.3665081090157042,-0.866138445713847
1687092911.939569,0.9603472948074341,0.2778312563896179,0.023300044238567352,-0.23582953214645386,-0.09515297412872314,0.01028454303741455,-0.33879807591438293,0.2538517415523529,1.6027235984802246,1.5950536688797077,-0.2815357376339106,-0.8646434324162238
1687092912.0093899,0.9781131744384766,0.20384274423122406,0.04174977168440819,-0.1409395933151245,-0.05621388554573059,-0.013536211103200912,-0.13963373005390167,0.27066531777381897,1.4034698009490967,1.6134544216209434,-0.20528148364400345,-0.8494468835709869
1687092912.0130029,0.9888105988502502,0.13475453853607178,0.06398922950029373,-0.1946670413017273,-0.12215076386928558,0.06612240523099899,-1.466518759727478,0.570949912071228,1.2997374534606934,1.6354195523047403,-0.13516573897264825,-0.8230593958805024
1687092912.1379619,0.9926353096961975,0.07281649857759476,0.09681310504674911,-0.09113085269927979,0.053312696516513824,-0.035182833671569824,-0.9535020589828491,0.39063262939453125,0.9834805130958557,1.6680202199755143,-0.07288100395395347,-0.748815173775538
1687092912.156969,0.9931953549385071,0.025313878431916237,0.11367631703615189,-0.028794050216674805,0.0215458944439888,0.060258641839027405,-1.1183794736862183,0.25984373688697815,0.7457132339477539,1.6847555734503836,-0.025316583423532147,-0.7154098910057276
1687092912.223826,0.9920810461044312,-0.01361333578824997,0.12485997378826141,-0.06517064571380615,0.29570260643959045,0.014101862907409668,-0.47216376662254333,0.13252557814121246,0.7022278308868408,1.6959946801140622,0.013613756521606124,-0.6586023467293065
1687092912.240238,0.9911045432090759,-0.06702618300914764,0.11497493088245392,-0.17208904027938843,0.16697129607200623,0.01541149616241455,-0.6521992087364197,-0.19755274057388306,1.4714770317077637,1.6862869638627944,0.06707647077049503,-0.655455244670333
1687092912.31391,0.9809702634811401,-0.16956734657287598,0.09457378089427948,-0.2905406355857849,0.15653637051582336,-0.1328275203704834,-0.31998351216316223,-0.3276028633117676,2.456367015838623,1.6669076979405646,0.17039064305516452,-0.6251357372617306
1687092912.317436,0.9547727704048157,-0.2833143174648285,0.09023340046405792,-0.20062237977981567,-0.34843000769615173,-0.08734941482543945,1.475984811782837,-0.2580222189426422,2.092287540435791,1.6650241740509566,0.28724826415697213,-0.68673607955804
1687092912.407761,0.9330441951751709,-0.34801051020622253,0.09119851142168045,-0.17012006044387817,-0.5251431465148926,-0.020153522491455078,-0.7669161558151245,-0.05475510284304619,0.7899869680404663,1.668229798580686,0.3554481304718341,-0.7131431532344434
1687092912.425169,0.9234851002693176,-0.3761104643344879,0.07560417801141739,-0.11505931615829468,-0.2823824882507324,-0.10500789433717728,-0.35810813307762146,-0.05703956261277199,0.41681045293807983,1.6524824820226223,0.3855949326630466,-0.6661132287175469
1687092912.4632359,0.9156026244163513,-0.39478006958961487,0.0762907937169075,-0.03056246042251587,-0.20400521159172058,-0.058376915752887726,0.5906242728233337,-0.17101287841796875,0.33308225870132446,1.653927339249505,0.4058284693596388,-0.6857556283240327
1687092912.5229878,0.9126838445663452,-0.401456356048584,0.07642750442028046,-0.06116706132888794,-0.11744922399520874,-0.048976898193359375,-0.4041334390640259,0.06831835955381393,0.009155601263046265,1.6543407128649925,0.41310642714620954,-0.6943887176567707
1687092912.648387,0.9136421084403992,-0.39987945556640625,0.07317419350147247,-0.0037300586700439453,-0.004936188459396362,-0.052895307540893555,-0.1353749930858612,0.16696837544441223,-0.10698245465755463,1.6507163858998841,0.41138534126005816,-0.6639030766903097
1687092912.653719,0.913881778717041,-0.3974321484565735,0.08287160098552704,-0.010195314884185791,-0.053938060998916626,0.020857691764831543,0.4030001759529114,0.007288692519068718,-0.0027857469394803047,1.661229861137858,0.4087168113069551,-0.682321900272754
1687092912.739573,0.915359377861023,-0.3934798538684845,0.0853867307305336,-0.052856266498565674,-0.08047333359718323,0.0007797479629516602,-0.08658076077699661,0.043649498373270035,-0.15627411007881165,1.6638093569942691,0.4044137268585678,-0.687002321971338
1687092912.758657,0.9200093746185303,-0.3819431662559509,0.08776134997606277,0.00018709897994995117,-0.1148371696472168,-0.0359424352645874,0.3433113694190979,-0.042284317314624786,-0.2757911682128906,1.6659003483832258,0.391897949674526,-0.6917411846786963
1687092912.827765,0.9276914000511169,-0.36174389719963074,0.09235641360282898,-0.05919182300567627,-0.0721244215965271,-0.06333424150943756,0.1179657131433487,0.07958272844552994,-0.49167606234550476,1.6700244637086028,0.3701377947991714,-0.7061193105679847
1687092912.84489,0.9362795352935791,-0.3370729088783264,0.09880348294973373,0.004424571990966797,-0.023232758045196533,-0.02644636482000351,-0.164431631565094,0.21016044914722443,-0.5918623208999634,1.675934960700535,0.3438061192422881,-0.6923869870744884
1687092912.9116259,0.9433615803718567,-0.313174843788147,0.10950125008821487,-0.019441843032836914,-0.01160845160484314,-0.009495124220848083,0.1939656138420105,0.11009443551301956,-0.39172816276550293,1.686354768128378,0.3185342226110202,-0.697202644324522
1687092912.928309,0.9478088617324829,-0.2960608899593353,0.11834757030010223,-0.06623238325119019,-0.0931144654750824,0.09918176382780075,0.26623186469078064,-0.005869053769856691,-0.3455851674079895,1.6950177853580113,0.30056601897230223,-0.7083741316999004
1687092913.004685,0.9541077613830566,-0.2777024507522583,0.11207044124603271,-0.19774484634399414,-0.23061352968215942,-0.053995490074157715,0.11283400654792786,-0.20232020318508148,-0.3347786068916321,1.687721534794153,0.2814016665759331,-0.7143701814718755
1687092913.09689,0.9605944752693176,-0.25478389859199524,0.11109987646341324,-0.17896312475204468,-0.467292457818985,-0.08242858946323395,0.18685150146484375,-0.06789980083703995,-0.7457914352416992,1.68594214476509,0.2576242051583513,-0.726282339848085
1687092913.101886,0.973576545715332,-0.1992395967245102,0.11158886551856995,-0.3277331590652466,-0.37378889322280884,-0.028199568390846252,-0.22903737425804138,0.1513461321592331,-1.6537749767303467,1.6849157828460777,0.2005818955241351,-0.704704758681307
1687092913.18077,0.9888503551483154,-0.10226862132549286,0.10824067890644073,-0.4230087399482727,-0.38500550389289856,-0.019144542515277863,-0.26327991485595703,-0.09328331798315048,-2.241629123687744,1.6798233973190748,0.10244773456318902,-0.6918683235598914
1687092913.1856232,0.9950406551361084,0.013053769245743752,0.09860911220312119,-0.4806210994720459,-0.2894209325313568,0.014992594718933105,-0.5112025737762451,-0.21322236955165863,-2.52620005607605,1.669574394271768,-0.013054139692708565,-0.6557650422028222
1687092913.2465482,0.9852792620658875,0.14403386414051056,0.09208105504512787,-0.4657022953033447,-0.11415712535381317,0.03769492357969284,0.017974872142076492,-0.14349229633808136,-2.742103099822998,1.663982464931238,-0.14453658338517106,-0.6320854897713366
1687092913.396992,0.9559928774833679,0.28259041905403137,0.07886867225170135,-0.5234062671661377,-0.14260625839233398,0.08220303058624268,-0.5153173804283142,-0.3494440019130707,-2.972071409225464,1.6531091455692928,-0.2864935264975554,-0.610694781680709
1687092913.403322,0.9019013047218323,0.4242984652519226,0.08089926093816757,-0.4362184405326843,0.0030696988105773926,0.11131571978330612,-1.3543561697006226,-0.47843021154403687,-3.3409814834594727,1.6602554890400358,-0.4381870085492499,-0.5428996663461917
1687092913.4081511,0.816887378692627,0.5672230124473572,0.10465659946203232,-0.5366597771644592,0.015510082244873047,0.19432413578033447,-1.5069549083709717,-0.01746978424489498,-3.6272926330566406,1.6982185040796185,-0.6031300234086153,-0.435613800588856
1687092913.5174909,0.6986176371574402,0.7057380080223083,0.11775992065668106,-0.4197174906730652,0.24628841876983643,0.13500191271305084,0.10862434655427933,-0.24456486105918884,-3.639463424682617,1.7377878889985503,-0.7834643189535777,-0.35918287184817316
1687092913.522706,0.5625486373901367,0.8164805769920349,0.12999290227890015,-0.46997374296188354,0.10051149129867554,0.19221171736717224,-0.914467990398407,0.2318725436925888,-3.6164112091064453,1.7978888032292424,-0.9552889125726846,-0.27882040199608205
1687092913.641433,0.4062662422657013,0.8988195657730103,0.16453281044960022,-0.42591962218284607,0.21954280138015747,0.19281278550624847,-0.5946615934371948,-0.2258206009864807,-3.5812933444976807,1.9555949774104986,-1.117068956383936,-0.09306894939955984
1687092913.6586199,0.24349671602249146,0.9550568461418152,0.16904430091381073,-0.24830324947834015,0.3717559576034546,0.10976435244083405,0.4008522927761078,-0.20499306917190552,-3.38763427734375,2.1776436553661362,-1.2698515221313513,0.14665540019857967
1687092913.6620069,0.09148655086755753,0.9830987453460693,0.1585787832736969,-0.3363443613052368,0.23418647050857544,0.14528478682041168,-0.30203256011009216,-0.42592719197273254,-3.1244962215423584,2.6183200181599453,-1.3866819532740804,0.6213161348106011
1687092913.723847,-0.05645548552274704,0.9844997525215149,0.16605103015899658,-0.31990256905555725,0.37751495838165283,0.07572446763515472,0.23004351556301117,-0.6493345499038696,-2.9942209720611572,-2.813864222809664,-1.3944984889649548,1.5121760544017746
1687092913.742029,-0.19208180904388428,0.9693812131881714,0.15298590064048767,-0.12902414798736572,0.26647382974624634,0.01940786838531494,0.4372624158859253,-0.6859787702560425,-2.7627463340759277,-2.2433763703320326,-1.3226983649790605,2.1220138842983975
1687092913.816335,-0.3181149959564209,0.9393673539161682,0.12803104519844055,-0.243027001619339,0.27649879455566406,0.05823303759098053,1.1585326194763184,-1.1889898777008057,-2.851754665374756,-1.9534283206252667,-1.220780672923564,2.477473029855877
1687092913.819988,-0.43100857734680176,0.8963783383369446,0.10362206399440765,-0.11920812726020813,0.2947990298271179,-0.07543909549713135,0.7189918160438538,-1.0457183122634888,-2.2376112937927246,-1.8067361772951076,-1.111530786248272,2.693023830888877
1687092913.967608,-0.518909215927124,0.84758460521698,0.11105445772409439,-0.25825124979019165,0.17443358898162842,0.014891602098941803,0.16798226535320282,-0.8902180194854736,-2.225264310836792,-1.7816309986648464,-1.011416982172553,2.782569712308094
1687092913.974468,-0.6104276180267334,0.7842873334884644,0.11077720671892166,-0.0505526065826416,0.30714327096939087,-0.11956620216369629,1.0987522602081299,-1.194338083267212,-2.3059277534484863,-1.7503173783904749,-0.9015465976275034,2.874961352938155
1687092914.0268621,-0.6781436800956726,0.7262653112411499,0.11251522600650787,-0.17642468214035034,0.21561390161514282,-0.11585689336061478,0.5929874181747437,-0.8205714225769043,-1.6971662044525146,-1.735215016755622,-0.8128732502981985,2.9683166678576214
1687092914.0437078,-0.7344714403152466,0.6671473979949951,0.12436234205961227,-0.09697991609573364,0.13415265083312988,-0.07811295986175537,0.153879314661026,-0.4726422131061554,-1.7827577590942383,-1.7385276709831385,-0.7303727725061764,3.006876033945183
1687092914.046344,-0.7903075814247131,0.5985075235366821,0.13115809857845306,-0.008123695850372314,0.22622990608215332,-0.08002594113349915,0.45165833830833435,-0.5924380421638489,-1.9040350914001465,-1.735255695253887,-0.6416368254159632,3.0502608689821877
1687092914.0822392,-0.8353554606437683,0.5315844416618347,0.1399979144334793,-0.029177069664001465,0.40472543239593506,-0.11930690705776215,1.1511178016662598,-0.7466782927513123,-1.5619218349456787,-1.7368440571100754,-0.5604700937086491,3.1105364459854115
1687092914.143256,-0.8616287708282471,0.48765313625335693,0.14067710936069489,0.005534529685974121,0.3210168480873108,-0.07883323729038239,1.380542516708374,-0.9257398247718811,-1.008603572845459,-1.7326371669400658,-0.5093995851010947,-3.0829185511949593
1687092914.237372,-0.8737465739250183,0.4615052342414856,0.15355664491653442,-0.05192774534225464,0.19654524326324463,-0.04294563829898834,0.6322183012962341,-0.7567630410194397,-0.5741453766822815,-1.744764816160692,-0.4796911880596913,-3.0164330244359783
1687092914.3241029,-0.8769227862358093,0.4456895589828491,0.17990849912166595,-0.009673774242401123,0.0725598931312561,-0.05274178087711334,-0.6511708498001099,-0.37429383397102356,-0.128078430891037,-1.7731474011617763,-0.461944410106252,-3.0095093028478153
1687092914.344689,-0.8752418160438538,0.4355069696903229,0.21044175326824188,0.010220944881439209,0.0255831778049469,-0.05704507231712341,-0.8428648710250854,-0.1336311548948288,-0.03782682120800018,-1.8067558120307627,-0.4506013834563093,-3.0612712912743265
