Timestamp,gravityX,gravityY,gravityZ,accelerationX,accelerationY,accelerationZ,rotationRateX,rotationRateY,rotationRateZ,attitudeRoll,attitudePitch,attitudeYaw
1687016106.760769,-0.01828126050531864,0.6330071687698364,-0.7739300727844238,-0.009596485644578934,-0.004741847515106201,-0.013087809085845947,-0.01632257178425789,0.004673320334404707,0.008713829331099987,-0.02361694341349968,-0.6854315503789896,-1.3647261305736629
1687016106.7658281,-0.0176701657474041,0.6341081857681274,-0.7730423808097839,-4.524551331996918e-05,-0.010893583297729492,0.0066544413566589355,-0.026435062289237976,-0.006599973887205124,0.007100752554833889,-0.022853972226130604,-0.6868546650981726,-1.3640168739375185
1687016106.8502722,-0.017894785851240158,0.6348766684532166,-0.7724062204360962,-0.003360643982887268,0.016749799251556396,-0.008065581321716309,-0.014607696793973446,-0.004663589410483837,0.006514324806630611,-0.023163439119910163,-0.687848855815822,-1.36377794620352
1687016106.866694,-0.01751369796693325,0.6354261636734009,-0.7719629406929016,0.0013241581618785858,0.02010655403137207,-0.008310556411743164,-0.004323966801166534,-0.002737724222242832,0.00019544269889593124,-0.02268333551737277,-0.6885603207971662,-1.363399936927564
1687016106.937721,-0.017824459820985794,0.6348727941513062,-0.772411048412323,0.004015317186713219,-0.0018467307090759277,0.009730935096740723,0.011551002971827984,0.0009507536888122559,-0.0049881343729794025,-0.023072296108093776,-0.6878438562602804,-1.3636198596119116
1687016106.952376,-0.017994238063693047,0.6353597640991211,-0.7720065712928772,-0.0011554956436157227,-0.00836092233657837,0.0010561943054199219,-0.01461761724203825,0.001326525816693902,0.003541969694197178,-0.02330417999765426,-0.6884743329022479,-1.3635431107636686
1687016107.027295,-0.018093252554535866,0.635402262210846,-0.7719692587852478,0.001964772120118141,-0.015132606029510498,0.014233052730560303,-0.00431038485839963,-0.004624041263014078,-0.0013084448873996735,-0.023433498827953515,-0.688529346248173,-1.3633095077014459
1687016107.031816,-0.018132274970412254,0.6357528567314148,-0.7716796398162842,0.0004626307636499405,-0.00657200813293457,-0.01823735237121582,-0.004759593866765499,-0.002859564032405615,0.00019331183284521103,-0.023492829063147685,-0.6889834496911074,-1.3632597425950854
1687016107.1208348,-0.018078995868563652,0.6361886262893677,-0.771321713924408,0.0004246290773153305,0.02636319398880005,-0.004694581031799316,0.010388866066932678,-0.010091111063957214,0.0011390000581741333,-0.023434690625050606,-0.6895481180270646,-1.3632320335002674
1687016107.2401772,-0.018237728625535965,0.6358636617660522,-0.7715858817100525,-0.0013087298721075058,0.013443529605865479,-0.004186272621154785,0.01707473210990429,0.0042761098593473434,0.0012918654829263687,-0.023632279593883674,-0.6891270278976213,-1.3632290090347692
1687016107.2462978,-0.017807701602578163,0.6359103918075562,-0.7715573906898499,0.003662867471575737,0.007705271244049072,0.0003781318664550781,-0.0004463382065296173,0.004898756742477417,-0.0032762540504336357,-0.02307610719220807,-0.6891876018153631,-1.3630052230689538
1687016107.390841,-0.017894979566335678,0.63568514585495,-0.7717409729957581,0.002804091200232506,-0.005665123462677002,0.018063604831695557,0.009638519957661629,0.010588068515062332,0.0019331546500325203,-0.02318365004296138,-0.6888957550402542,-1.3630760904556392
1687016107.397224,-0.017621764913201332,0.634843111038208,-0.7724401354789734,-0.0003072582185268402,-0.018479645252227783,0.0020238161087036133,0.011475635692477226,0.005526064429432154,0.0035891076549887657,-0.022809157986058683,-0.6878054460295919,-1.3629643376597753
1687016107.401904,-0.017554404214024544,0.6351857781410217,-0.7721598744392395,0.003974119201302528,-0.012047410011291504,0.0014536380767822266,0.020720865577459335,-0.011717503890395164,0.007927664555609226,-0.022730241081116074,-0.6882490323416102,-1.362676385348567
1687016107.476386,-0.017441071569919586,0.6350911259651184,-0.7722402811050415,0.003952346742153168,-0.031514525413513184,0.0061421990394592285,-0.035853397101163864,0.0003440856235101819,0.008497047238051891,-0.022581194014785016,-0.6881265021875935,-1.36282408657739
1687016107.479926,-0.017608873546123505,0.6355258226394653,-0.7718787789344788,-0.013457974418997765,0.05316430330276489,-0.006762027740478516,0.006991804111748934,-0.005983052309602499,0.002321177162230015,-0.022809047068033758,-0.6886894013873985,-1.362862443585826
1687016107.483192,-0.017692426219582558,0.6345328092575073,-0.772693395614624,-0.001289447769522667,-0.0049857497215271,-0.010753870010375977,-0.011742467992007732,0.004510068334639072,-0.005643271841108799,-0.022893084035772004,-0.6874038903752534,-1.363059000757165
1687016107.540551,-0.01791873201727867,0.6351369023323059,-0.7721916437149048,0.0016986988484859467,0.043131470680236816,-0.009134650230407715,0.013179592788219452,-0.029550829902291298,-0.006729042623192072,-0.02320086746550842,-0.6881857540719329,-1.3629909721017444
1687016107.6281772,-0.017958926036953926,0.6336010098457336,-0.7734515070915222,0.0011590495705604553,-0.04125487804412842,0.011747956275939941,-0.006186048965901136,0.02822578325867653,0.0042506372556090355,-0.023215030367182032,-0.6861989094831755,-1.3631311606896779
1687016107.634331,-0.0185705479234457,0.6338004469871521,-0.7732736468315125,-0.006438570097088814,-0.019649505615234375,0.008197903633117676,0.004347418434917927,-0.008157523348927498,0.002279099076986313,-0.024010877546180406,-0.6864567104972781,-1.3637564363296817
1687016107.77408,-0.01912180334329605,0.6324483752250671,-0.7743664979934692,-0.002515126019716263,-0.018755197525024414,-0.0013141036033630371,0.013099963776767254,0.0029810145497322083,-0.0076688723638653755,-0.0246884628353414,-0.6847099663132918,-1.3638630431357528
1687016107.779604,-0.019327200949192047,0.6327102780342102,-0.7741473913192749,0.010294046252965927,0.02134239673614502,-0.013236641883850098,0.03423114866018295,-0.025939982384443283,-0.007431850768625736,-0.02496060343305152,-0.6850481040481994,-1.3641210865209956
1687016107.8676581,-0.019926540553569794,0.6319264769554138,-0.7747721672058105,-0.002519102767109871,0.022278785705566406,-0.0005117058753967285,0.0385492667555809,0.0011753914877772331,0.0014519216492772102,-0.025713557620620768,-0.6840363905895502,-1.364559650747812
1687016107.882935,-0.01992696523666382,0.630933403968811,-0.7755810618400574,0.004332521930336952,-0.017728567123413086,0.006797432899475098,0.021844787523150444,-0.001866338076069951,-0.006213720887899399,-0.025687298819625216,-0.6827557434143665,-1.3644434867964057
1687016107.991838,-0.02072690986096859,0.6295469403266907,-0.7766859531402588,-0.0016882065683603287,-0.005905032157897949,0.014204204082489014,0.021144507452845573,-0.0181070938706398,-0.007082444150000811,-0.026680013502697345,-0.6809699605392742,-1.364930928896892
1687016107.998467,-0.02084299549460411,0.6274218559265137,-0.7784005403518677,0.0030360333621501923,0.0016064047813415527,0.0098915696144104,0.07970868796110153,0.001021993113681674,-0.00838925689458847,-0.026770299701533135,-0.6782378613002722,-1.3651940330635113
1687016108.050195,-0.021602226421236992,0.6238150000572205,-0.7812734842300415,0.004253040999174118,0.021097660064697266,0.01737266778945923,0.0959513708949089,0.021641118451952934,-0.01010300125926733,-0.027642976655054306,-0.6736144251507153,-1.3662630056931027
1687016108.0620499,-0.020713992416858673,0.6256420016288757,-0.7798352837562561,0.012626873329281807,-0.04312252998352051,0.004887104034423828,-0.052416861057281494,-0.008456196635961533,-0.002983572892844677,-0.02655576523634998,-0.6759542316588144,-1.3667836290622946
1687016108.065515,-0.02146923542022705,0.6237245202064514,-0.7813493609428406,-0.004852136597037315,-0.02478659152984619,-0.0108717679977417,-0.005389831028878689,0.0036579901352524757,-0.011744573712348938,-0.027470214682452376,-0.6734986733627708,-1.3669572112292627
1687016108.135391,-0.02110479213297367,0.6247482299804688,-0.7805410027503967,0.0026112012565135956,0.006278872489929199,-0.017295360565185547,-0.03833073750138283,-0.006991724483668804,-0.00046235881745815277,-0.027032086044918052,-0.6748090739540656,-1.3666667655472693
1687016108.2302399,-0.02127060294151306,0.6246874332427979,-0.7805851697921753,-0.004150496795773506,-0.009468376636505127,0.014761805534362793,-0.001949692377820611,0.010686337947845459,0.002881240099668503,-0.027242818151297133,-0.6747311681114272,-1.3668761492156534
1687016108.245861,-0.021579911932349205,0.6207234263420105,-0.7837325930595398,0.001957155764102936,0.018467187881469727,0.01992332935333252,0.2608504593372345,0.026054508984088898,-0.009906992316246033,-0.027527834598723346,-0.6696650318572809,-1.3671364678967195
1687016108.284738,-0.019074665382504463,0.6055501103401184,-0.7955785989761353,-0.0077807605266571045,-0.017629027366638184,0.015488207340240479,0.37518787384033203,0.061684004962444305,0.023725267499685287,-0.023971248067477535,-0.6504569486825821,-1.3662927751927423
1687016108.3809562,-0.016370020806789398,0.5960546731948853,-0.8027769923210144,0.011121049523353577,-0.0008093714714050293,0.02459394931793213,0.28141823410987854,0.08427400141954422,0.0025067999958992004,-0.02038891692720078,-0.6385785173476021,-1.3655817251062357
1687016108.395708,-0.012381569482386112,0.581538200378418,-0.8134248852729797,-0.007576881907880306,0.020695626735687256,0.0007570385932922363,0.4190678596496582,0.07266102731227875,0.061012718826532364,-0.01522035228971523,-0.6206181811707215,-1.3632541351398386
1687016108.436497,-0.008716285228729248,0.5682458281517029,-0.8228126764297485,-0.01307321060448885,-0.02201181650161743,-0.04153674840927124,0.20273880660533905,0.04463857784867287,0.027803100645542145,-0.010592884155058385,-0.6043725069058568,-1.3598275498510795
1687016108.526526,-0.006916949059814215,0.5645177364349365,-0.825391948223114,-0.0042371670715510845,0.013424038887023926,-0.005998492240905762,0.040098823606967926,0.0005215853452682495,0.013440673239529133,-0.008380003098415391,-0.5998488858772053,-1.3577317759688643
1687016108.533671,-0.0065127345733344555,0.5610730051994324,-0.8277407288551331,-0.004565105773508549,-0.0016858577728271484,0.013455390930175781,0.09594770520925522,0.021093172952532768,0.012535997666418552,-0.007867923161701653,-0.5956814849523181,-1.3574581309263156
1687016108.650714,-0.005568711087107658,0.5568632483482361,-0.8305855393409729,0.00801016390323639,-0.0032134056091308594,-0.003658294677734375,0.08804111927747726,-0.01828472688794136,0.016803447157144547,-0.0067044601674415,-0.5906045084656619,-1.3562221519057804
1687016108.6658,-0.006033086683601141,0.5562686920166016,-0.8309805989265442,-0.005075256805866957,0.003866136074066162,-0.01365441083908081,0.021352432668209076,0.007582424208521843,0.000944056548178196,-0.00726007404356041,-0.5898888810912291,-1.356173829187903
1687016108.738577,-0.006100557744503021,0.556466817855835,-0.830847442150116,0.007595965173095465,-0.014901995658874512,-0.013635039329528809,-0.04985044151544571,-0.04296903312206268,-0.027253758162260056,-0.007342440691260744,-0.5901273406105967,-1.3557284507513974
1687016108.7524781,-0.007346778642386198,0.5565450191497803,-0.8307849764823914,-0.01358821801841259,-0.009578526020050049,-0.004649043083190918,-0.04945096746087074,0.004639498423784971,0.009436612017452717,-0.008842946575666186,-0.5902214449164257,-1.3568493466407592
1687016108.891201,-0.006983431521803141,0.5583941340446472,-0.8295463919639587,0.003870690707117319,-0.022719144821166992,-0.003659844398498535,-0.08086967468261719,-0.021402355283498764,-0.013905462808907032,-0.008418174761920189,-0.5924487353059652,-1.356380120670799
1687016108.8971848,-0.00828835740685463,0.5582149624824524,-0.8296549916267395,-0.010586720891296864,0.016308903694152832,0.0047647953033447266,0.027979709208011627,0.004125374834984541,0.011092298664152622,-0.009989793330015819,-0.5922327783203309,-1.357107473799232
1687016108.9789438,-0.007522462867200375,0.5574185252189636,-0.8301975727081299,0.0025023682974278927,-0.022750675678253174,-0.010653316974639893,-0.039859723299741745,-0.005715404637157917,-0.004097839817404747,-0.009060803475777012,-0.5912732326896633,-1.3561712309294418
1687016108.983921,-0.008886326104402542,0.560546338558197,-0.8280754089355469,-0.008279765024781227,-0.005797863006591797,-0.0060616135597229,-0.05305688455700874,0.00356251560151577,-0.010827114805579185,-0.010730888707528785,-0.5950453912843103,-1.3571680482124937
1687016108.9878678,-0.008344561792910099,0.5599509477615356,-0.8284837603569031,-0.00023081619292497635,0.01312333345413208,-0.0010603666305541992,0.028157874941825867,0.0045227184891700745,0.00475690420717001,-0.01007174776465242,-0.5943265733991052,-1.356691435860511
1687016109.100463,-0.008744051679968834,0.560361921787262,-0.8282017111778259,0.0006569437682628632,0.005388081073760986,-0.0009151697158813477,-0.016821250319480896,0.012905950658023357,-0.008924819529056549,-0.010557484624227868,-0.5948227367447488,-1.3571997695272595
1687016109.116272,-0.007938465103507042,0.5605196952819824,-0.8281030654907227,0.002796289511024952,-0.006686747074127197,-0.01009279489517212,0.00510249100625515,0.003443871857598424,-0.004189185798168182,-0.009586031431474185,-0.5950132261089995,-1.357060302959
1687016109.189733,-0.008576927706599236,0.5596171021461487,-0.8287069201469421,0.0038925306871533394,-0.008500218391418457,-0.0031107664108276367,-0.03144906461238861,-0.0024647503159940243,-0.008574613370001316,-0.010349403311873416,-0.5939236939738552,-1.3577654766260183
1687016109.194566,-0.008093388751149178,0.5614677667617798,-0.8274590373039246,0.003561580553650856,0.00013190507888793945,0.014760613441467285,-0.01834644190967083,0.011616980656981468,-0.0012147016823291779,-0.00978070307493206,-0.5961584432751628,-1.3578339857781603
1687016109.311119,-0.008383974432945251,0.5606756210327148,-0.8279930949211121,-0.003609384410083294,0.02420896291732788,-0.017694830894470215,0.03215361759066582,-0.013337371870875359,-0.005293332505971193,-0.010125311647434104,-0.5952015310821382,-1.3577903534957636
1687016109.316654,-0.009089924395084381,0.5623676180839539,-0.8268373608589172,-0.0017132479697465897,0.004450559616088867,-0.002798318862915039,-0.04790133610367775,0.0004595336504280567,-0.006024104077368975,-0.01099316315128259,-0.5972463195732961,-1.3584460486410381
1687016109.428139,-0.008493077009916306,0.563082754611969,-0.8263569474220276,-0.013082792982459068,0.02312934398651123,-0.009748458862304688,0.018367629498243332,0.006024075672030449,0.01887432113289833,-0.01027737212009295,-0.5981113917808407,-1.3578286773727486
1687016109.434184,-0.008797110058367252,0.5629920959472656,-0.826415479183197,-0.005271458998322487,-0.0139809250831604,-0.012436509132385254,-0.08078085631132126,-0.013222722336649895,-0.018775053322315216,-0.0106444977093864,-0.5980017274495073,-1.357597232290716
1687016109.5203881,-0.009307843632996082,0.5670655369758606,-0.8236201405525208,-0.00015256088227033615,-0.004535079002380371,0.009075403213500977,-0.06507712602615356,0.005521936342120171,0.004528139717876911,-0.011300656085119761,-0.6029387757059637,-1.3581750724077242
1687016109.5351992,-0.009358013980090618,0.5714694261550903,-0.8205699920654297,0.010105753317475319,-0.06373333930969238,-0.0011310577392578125,-0.34596773982048035,-0.044188760221004486,-0.006958607118576765,-0.01140379009039586,-0.6082953915850087,-1.3579632581706775
1687016109.60991,-0.013777926564216614,0.5892490744590759,-0.8078339695930481,0.0288078710436821,-0.0598912239074707,-0.00930476188659668,-0.3986560106277466,-0.07741156220436096,-0.19110234081745148,-0.01705374138510253,-0.6301290799249293,-1.3624769904976453
1687016109.614901,-0.01921660266816616,0.5950008630752563,-0.8034952878952026,-0.01006496511399746,-0.009780585765838623,0.03194981813430786,-0.11975282430648804,-0.017766742035746574,-0.05916961282491684,-0.02391170223292976,-0.6372667312589744,-1.3695273579294234
1687016109.665483,-0.018456293269991875,0.5949030518531799,-0.8035855889320374,0.00942314974963665,-0.07167923450469971,0.0008664131164550781,0.011112846434116364,0.013579330407083035,0.008091448806226254,-0.022963389695098355,-0.6371450033485904,-1.3695071786894837
1687016109.676312,-0.01879873499274254,0.5962564945220947,-0.8025738596916199,0.0008544344455003738,0.002605140209197998,-0.008278250694274902,-0.02949490025639534,-0.0179492998868227,-0.0007734159007668495,-0.023418777293038078,-0.6388298984290298,-1.369348676957638
1687016109.729237,-0.019481442868709564,0.5968284010887146,-0.8021323680877686,-0.00865573063492775,0.02185434103012085,-0.012580156326293945,-0.025824464857578278,-0.013668135739862919,0.0008228830993175507,-0.024282292797233828,-0.6395424833017687,-1.369397870758364
1687016109.8201609,-0.019597087055444717,0.5986095666885376,-0.8008012175559998,0.0021563302725553513,-0.020103156566619873,0.02493751049041748,-0.06173812225461006,0.0023739468306303024,0.0017283577471971512,-0.024466967431584653,-0.6417642017268909,-1.369419550100339
1687016109.8346272,-0.019380418583750725,0.6002174019813538,-0.7996020317077637,0.005830664187669754,-0.010083794593811035,0.008616924285888672,-0.023029610514640808,0.009725602343678474,0.00903474073857069,-0.024232834229611384,-0.6437729021998535,-1.3691091135439633
1687016109.878969,-0.01942300610244274,0.6013346910476685,-0.7987611889839172,0.0013718921691179276,-0.0029308199882507324,0.001519918441772461,-0.0310668982565403,-0.017276186496019363,0.0035472968593239784,-0.02431162170361536,-0.6451704959210245,-1.3688359788996471
1687016110.031129,-0.019789451733231544,0.6012877821922302,-0.7987874150276184,-0.0044719744473695755,0.014297425746917725,-0.010874450206756592,0.008858746849000454,0.0021373252384364605,-0.0011137677356600761,-0.024769298384902688,-0.6451118195426315,-1.3688476668925011
1687016110.045491,-0.01934223622083664,0.602220892906189,-0.798095166683197,-0.0027066748589277267,0.02222973108291626,-0.002152085304260254,-0.004935162607580423,0.0011409034486860037,0.003243430517613888,-0.024230756940096954,-0.6462801072584683,-1.368423074366239
1687016110.119165,-0.01919572986662388,0.6029126644134521,-0.7975761890411377,0.00459311343729496,0.0166245698928833,0.00311201810836792,-0.00033142254687845707,-0.008056722581386566,0.0013866741210222244,-0.024062935856983127,-0.6471469409014996,-1.3681177257988448
1687016110.132763,-0.01923408918082714,0.6029773354530334,-0.7975264191627502,-0.0019450709223747253,-0.006969094276428223,0.0022993087768554688,-0.008909863419830799,0.010181402787566185,0.005646933801472187,-0.02411250659504509,-0.647227966155189,-1.3677421257901132
1687016110.2094278,-0.01918770931661129,0.6033125519752502,-0.7972739934921265,-0.002784889191389084,-0.021495044231414795,0.01761084794998169,-0.0008425500709563494,0.0031622424721717834,0.0037808557972311974,-0.02406199947334509,-0.6476482908264668,-1.3674470694108298
1687016110.214757,-0.018849525600671768,0.6031813621520996,-0.7973812818527222,0.0013935305178165436,-0.01240694522857666,0.0012081265449523926,-0.010788391344249249,0.0014847174752503633,0.005453587509691715,-0.023634886507026418,-0.6474837919954999,-1.367112306171765
1687016110.300442,-0.019046880304813385,0.6040775775909424,-0.7966978549957275,-0.0010946840047836304,0.008761107921600342,-0.011255025863647461,-0.003017486771568656,-0.002769815269857645,0.00422267522662878,-0.023902728501869953,-0.6486078747224014,-1.3670980869264862
1687016110.31493,-0.0188465379178524,0.6043488383293152,-0.7964969277381897,-0.0017375331372022629,0.02387070655822754,-0.012112140655517578,-0.0027090925723314285,-0.0034699602983891964,0.006855742074549198,-0.023657370298061652,-0.6489482900549013,-1.3667240769476112
1687016110.390409,-0.018521292135119438,0.6047871112823486,-0.7961718440055847,-0.00020118430256843567,0.012339293956756592,-0.005357146263122559,-0.015425088815391064,0.003175292396917939,0.0042748721316456795,-0.023258738813474674,-0.649498492173501,-1.3663960892364218
1687016110.3958368,-0.01843707263469696,0.6057344079017639,-0.7954532504081726,0.0022170282900333405,0.0022214651107788086,0.007016301155090332,-0.01859298348426819,0.00020626705372706056,0.0047166915610432625,-0.023173922948432752,-0.6506885690997104,-1.3661299758265761
1687016110.4780731,-0.018419213593006134,0.6056378483772278,-0.7955272197723389,-0.002729428932070732,-0.02226388454437256,0.013987243175506592,-0.04085095226764679,0.009234782308340073,0.005570233799517155,-0.023149329995567576,-0.6505671816915124,-1.3659518354516553
1687016110.483413,-0.018395351245999336,0.6063563227653503,-0.7949802875518799,0.003243418410420418,-0.024615049362182617,0.015988528728485107,0.008182370103895664,-0.006527935154736042,-0.00018645543605089188,-0.02313525317478886,-0.6514704100608464,-1.3657230645785132
1687016110.599454,-0.018193544819951057,0.6063922047615051,-0.7949575185775757,-0.0075479838997125626,0.012015879154205322,-0.014673888683319092,-0.01300820242613554,0.0004696536925621331,-0.005275755655020475,-0.022882189851403827,-0.6515155687416336,-1.3656431694591666
1687016110.662273,-0.018291160464286804,0.6068435907363892,-0.7946107983589172,-0.004200253635644913,0.025083839893341064,-0.01653122901916504,0.00918065570294857,-0.010587658733129501,0.0036945687606930733,-0.023014953531985405,-0.6520833334081267,-1.365685475610746
1687016110.666821,-0.01836688257753849,0.6071972846984863,-0.7943388223648071,0.002879256382584572,0.012813031673431396,-0.009921491146087646,-0.010468012653291225,-0.008754604496061802,0.003319329582154751,-0.023118108263213744,-0.6525284071628064,-1.3654284248298345
1687016110.670414,-0.018164977431297302,0.6075043082237244,-0.7941086292266846,-0.00270899198949337,0.00978994369506836,0.005610644817352295,-0.0050398241728544235,0.0036839561071246862,0.0024048006162047386,-0.02287068638620551,-0.6529148768203616,-1.3650607974645597
1687016110.717099,-0.018149428069591522,0.6076538562774658,-0.7939946055412292,0.004584399983286858,-0.008166611194610596,0.010135293006896973,0.008973528631031513,0.00033063668524846435,-0.0016203010454773903,-0.022854398112146707,-0.6531031594040314,-1.3650201591576265
1687016110.77788,-0.01965116336941719,0.6061487197875977,-0.7951085567474365,0.000959198921918869,0.012061059474945068,0.001971900463104248,0.012907816097140312,-0.06780527532100677,-0.03287702426314354,-0.024710039490124805,-0.6512093579329755,-1.3660129950850861
1687016110.870024,-0.021504424512386322,0.603333592414856,-0.7971988916397095,-0.016566190868616104,0.03491091728210449,-0.007732808589935303,0.2271326333284378,0.0911492183804512,-0.001697266474366188,-0.02696844104066026,-0.6476746725633021,-1.3675752411518247
1687016110.885355,-0.01760478876531124,0.5923508405685425,-0.8054878115653992,0.010082261636853218,0.005641043186187744,-0.0009545087814331055,0.23070251941680908,0.025382593274116516,0.03280558064579964,-0.02185257928585461,-0.6339735184841239,-1.3661341382350582
1687016110.9235091,-0.015812182798981667,0.5874839425086975,-0.8090813159942627,-0.0248371921479702,0.047953009605407715,-0.018616437911987305,0.18393847346305847,0.06074324622750282,0.03423410281538963,-0.01954089103421136,-0.6279461081826236,-1.3656182442105504
1687016111.021095,-0.011217990890145302,0.5724982023239136,-0.8198292255401611,-0.010586762800812721,0.04519277811050415,0.006749331951141357,0.4634590744972229,0.0964229479432106,0.07509871572256088,-0.01368247270269511,-0.6095495321105635,-1.3621856647122166
1687016111.035418,-0.005993606057018042,0.5541407465934753,-0.8324014544487,-0.004779039416462183,0.005597352981567383,-0.017665743827819824,0.4433417320251465,0.04530450329184532,0.0846133902668953,-0.0072002545804920395,-0.5873303470961952,-1.3567422892475667
1687016111.142312,-0.0038437580224126577,0.543601930141449,-0.8393343091011047,0.02683880552649498,-0.05377960205078125,0.018396198749542236,0.10510139167308807,-0.018690459430217743,0.01342682633548975,-0.0045794995207646925,-0.5747225501634475,-1.3530956635138651
1687016111.1477041,-0.004030304960906506,0.5417796969413757,-0.8405108451843262,-0.006193030625581741,0.017058134078979492,-0.018116474151611328,0.009796245954930782,-0.011573027819395065,0.003965944983065128,-0.004795029308672364,-0.5725530401201323,-1.3524412143259794
1687016111.260686,-0.005395933985710144,0.540136456489563,-0.8415601253509521,-0.00958816148340702,-0.011129558086395264,-0.011940240859985352,-0.042526546865701675,-0.024606671184301376,-0.007006810512393713,-0.006411734080890894,-0.5705992604813664,-1.35257946307348
1687016111.265695,-0.00563157070428133,0.5431271195411682,-0.8396316170692444,-0.00323373731225729,0.02915370464324951,-0.01109170913696289,-0.032861869782209396,0.001070596044883132,-0.0006652912124991417,-0.006707091724156042,-0.5741569270843238,-1.352782642981944
1687016111.352361,-0.006561345886439085,0.5433680415153503,-0.8394689559936523,0.007232787553220987,0.011716127395629883,0.009238243103027344,-0.028660066425800323,-0.03742486611008644,-0.00774264195933938,-0.00781590835074022,-0.5744438769359517,-1.3532150574220052
1687016111.366661,-0.007651188876479864,0.5474331378936768,-0.8368144035339355,0.004416379611939192,-0.025597870349884033,0.016379833221435547,-0.12454631924629211,-0.011197388172149658,0.0043233418837189674,-0.009142977991280308,-0.5792938682672831,-1.3534496170229433
1687016111.439076,-0.008388659916818142,0.5525756478309631,-0.8334205150604248,0.005413232371211052,-0.02933657169342041,0.005753278732299805,-0.17506249248981476,-0.027599796652793884,-0.032424550503492355,-0.010064998626037791,-0.5854513747753884,-1.353532027483534
1687016111.452692,-0.008712152019143105,0.5555390119552612,-0.8314448595046997,-0.005676835775375366,0.016726553440093994,0.012963354587554932,-0.01345747895538807,0.026502585038542747,0.015903033316135406,-0.010477944378654193,-0.5890110433138371,-1.354744514113515
1687016111.528131,-0.009063761681318283,0.5561608076095581,-0.8310253024101257,-0.009735004045069218,-0.020531654357910156,-0.019041895866394043,-0.11963178962469101,-0.014944588765501976,-0.022435568273067474,-0.010906289040857196,-0.5897590922607128,-1.3550353622045315
1687016111.5330281,-0.009825699962675571,0.5626397728919983,-0.8266437649726868,-0.006852098740637302,0.0034002065658569336,0.0018603801727294922,-0.10625939071178436,0.014631411992013454,-0.021584421396255493,-0.01188569655163522,-0.5975754702752437,-1.356376021106849
1687016111.621389,-0.009563577361404896,0.5627329349517822,-0.8265834450721741,-0.009753990918397903,0.0591389536857605,-0.007217884063720703,0.027659200131893158,-0.023200256749987602,0.003982190974056721,-0.011569492451068163,-0.5976881563507241,-1.3563439608192618
1687016111.6362,-0.011012375354766846,0.5683360695838928,-0.8227227926254272,-0.0057264575734734535,-0.0394817590713501,0.005050063133239746,-0.2878904342651367,-0.00597719382494688,-0.03088604286313057,-0.013384481097808062,-0.6044821564508921,-1.3577675316714657
1687016111.739934,-0.011529147624969482,0.5780131816864014,-0.8159459829330444,0.014550444670021534,0.009602725505828857,-0.0007654428482055664,-0.15182608366012573,-0.001045019133016467,-0.026909146457910538,-0.014128851915054119,-0.6162918329257977,-1.3596805437208035
1687016111.8314528,-0.014025180600583553,0.5865071415901184,-0.8098226189613342,0.018755456432700157,-0.020116209983825684,0.01673179864883423,-0.2565222680568695,-0.019312173128128052,-0.07520503550767899,-0.017317098126006375,-0.6267395788225312,-1.3630393888853778
1687016111.845577,-0.01491562183946371,0.5918849110603333,-0.8058844804763794,-0.00479868333786726,0.006488442420959473,-0.0017022490501403809,-0.054800789803266525,-0.0003237019991502166,-0.019899439066648483,-0.01850627426035322,-0.6333953651192671,-1.3657121900267555
1687016111.8488,-0.016692372038960457,0.5955362915992737,-0.8031550049781799,0.0052483174949884415,-0.06547653675079346,0.022301673889160156,-0.162682443857193,0.01752626895904541,-0.06935913115739822,-0.02078050821979137,-0.6379330684614746,-1.3698254991788723
1687016111.916518,-0.01639953814446926,0.5975496172904968,-0.8016641736030579,-0.007159987464547157,-0.0363619327545166,-0.009020030498504639,-0.14194926619529724,0.019015373662114143,0.023395303636789322,-0.020454014227071857,-0.6404416251334225,-1.3707016657481021
1687016111.927361,-0.015234814025461674,0.6036640405654907,-0.7970932722091675,-0.0003138519823551178,0.022938072681427002,-0.002772510051727295,-0.09036597609519958,-0.005383175332099199,0.009831291623413563,-0.019110637120130506,-0.6480890461205964,-1.369642316504921
1687016112.010782,-0.01650194637477398,0.603648841381073,-0.7970795631408691,0.00328788161277771,-0.009959936141967773,-0.0005431771278381348,-0.14123521745204926,-0.00714605487883091,-0.03323308750987053,-0.020700054344634736,-0.6480699844927056,-1.3702176114653015
1687016112.1310802,-0.020223582163453102,0.6133690476417542,-0.7895374894142151,0.021535897627472878,-0.08103573322296143,0.03335762023925781,-0.3312942385673523,-0.06495156139135361,-0.08671548217535019,-0.025608868244293672,-0.6603192518303135,-1.3739265483119965
1687016112.144253,-0.02474060282111168,0.6227052211761475,-0.7820652723312378,-0.01830439269542694,0.02412998676300049,-0.004922091960906982,-0.15139837563037872,-0.008747413754463196,-0.07228781282901764,-0.0316244114788689,-0.6721953349734606,-1.3799670937488624
1687016112.1478071,-0.022106025367975235,0.6236268877983093,-0.781409502029419,-0.017170049250125885,-0.03125029802322388,0.01050490140914917,0.021796783432364464,0.03482416644692421,0.030450548976659775,-0.02828239272068817,-0.6733737945460494,-1.3784840642414462
1687016112.219715,-0.020672379061579704,0.6278809905052185,-0.7780348062515259,-0.008242988958954811,0.03514385223388672,-0.0060381293296813965,-0.12584766745567322,0.004611135460436344,0.021131347864866257,-0.026563742779358506,-0.6788275961127835,-1.3775103050410558
1687016112.230432,-0.02073819935321808,0.6309905648231506,-0.7755132913589478,-0.017500268295407295,0.07129514217376709,-0.04853767156600952,0.08402474224567413,-0.005502751097083092,-0.003085838630795479,-0.026734883789322844,-0.6828293975464913,-1.3768719266212763
1687016112.274488,-0.019811127334833145,0.6309221386909485,-0.7755931615829468,6.629340350627899e-05,-0.013582170009613037,0.035084068775177,-0.09816503524780273,-0.0016749899368733168,0.01131706964224577,-0.02553764086750587,-0.6827412095282448,-1.3762549366970331
1687016112.373018,-0.020537547767162323,0.635769784450531,-0.7716054916381836,0.014571400359272957,0.0037717819213867188,0.01611226797103882,-0.0809001699090004,-0.0030816716607660055,-0.017033878713846207,-0.026610360269032674,-0.6890053805632594,-1.3769954655151173
1687016112.3863602,-0.020381929352879524,0.6371968388557434,-0.7704315781593323,-0.001544887199997902,-0.022710204124450684,0.0134429931640625,-0.07932976633310318,0.003731359960511327,0.010386827401816845,-0.026449041169642033,-0.6908556165423021,-1.3761768985164589
1687016112.423228,-0.01992674358189106,0.6367847919464111,-0.7707840800285339,0.00027347542345523834,-0.004399657249450684,-0.00391995906829834,0.023039013147354126,-0.011156908236443996,0.02098434418439865,-0.02584680634376521,-0.6903211197766282,-1.3747146867655404
1687016112.515094,-0.020118361338973045,0.6366056799888611,-0.7709270119667053,-0.006782842800021172,0.02658700942993164,0.005912303924560547,0.029393048956990242,0.006172813009470701,0.008196909911930561,-0.026090402489216954,-0.6900888108652802,-1.3745636861755783
1687016112.530545,-0.02036186121404171,0.6363166570663452,-0.7711592316627502,-0.0037622228264808655,0.00961834192276001,-0.007603645324707031,0.022990478202700615,0.0011233265977352858,-0.0011656992137432098,-0.026398092099054193,-0.689714080557044,-1.3748763393256525
1687016112.5756621,-0.02026325650513172,0.6364989876747131,-0.7710113525390625,0.0022579319775104523,-0.011346518993377686,0.017394959926605225,-0.04623626172542572,-0.011227348819375038,0.009558050893247128,-0.02627535156297508,-0.6899505037753411,-1.3747196901556893
1687016112.669029,-0.0202760212123394,0.6378343105316162,-0.7699066400527954,0.0008211266249418259,0.005399882793426514,0.01148378849029541,-0.0028174833860248327,-0.010733465664088726,0.00024337880313396454,-0.02632960193286767,-0.6916830375853671,-1.374012036622382
1687016112.6812859,-0.02007790096104145,0.6370362639427185,-0.7705722451210022,0.010770078748464584,-0.009366095066070557,0.013003826141357422,0.013799975626170635,0.007208250463008881,-0.001858387142419815,-0.026049936742695647,-0.690647311947745,-1.3738514522192389
1687016112.727016,-0.02007388137280941,0.6377393007278442,-0.7699906826019287,-0.003729775547981262,-0.014692485332489014,0.007890403270721436,-0.03551151603460312,-0.0013106694677844644,0.019547834992408752,-0.02606438749972121,-0.6915596464370856,-1.3737329057711403
1687016112.820463,-0.019872190430760384,0.6386449337005615,-0.7692449688911438,0.0019736699759960175,0.008724391460418701,0.011539220809936523,0.02156468853354454,-0.0038814188446849585,0.007050684653222561,-0.025827627498353795,-0.6927360207139134,-1.3730524284231431
1687016112.834478,-0.019979625940322876,0.6384792923927307,-0.7693796157836914,-0.0036561843007802963,0.012369036674499512,-0.010283470153808594,0.0022130943834781647,-0.0033871361520141363,0.010161257348954678,-0.025962653331578517,-0.6925207566532643,-1.3727820985068064
1687016112.873042,-0.019868925213813782,0.6388112902641296,-0.7691068649291992,0.0005208402872085571,0.019391775131225586,-0.006299018859863281,-0.010149898007512093,-0.02320997603237629,0.0025779064744710922,-0.02582801928208698,-0.6929522157658706,-1.3720990937536675
1687016112.9679031,-0.020607085898518562,0.6391249895095825,-0.7688267827033997,0.0016862396150827408,-0.010798633098602295,0.0011570453643798828,-0.03245587274432182,-0.012920853681862354,0.0011203577741980553,-0.0267968727958781,-0.6933600118182546,-1.372093012027706
1687016112.982158,-0.02048538438975811,0.6403330564498901,-0.7678241729736328,0.000252285972237587,-0.0009135603904724121,0.0002002120018005371,-0.014640787616372108,-0.0061556254513561726,0.003171524964272976,-0.02667345831195254,-0.6949318321839562,-1.3717913896270215
1687016113.024637,-0.020754436030983925,0.6408364176750183,-0.767396867275238,0.000826491042971611,-0.008863210678100586,0.009904742240905762,-0.023462507873773575,-0.011439336463809013,0.007275455631315708,-0.027038651505597887,-0.6955872957008497,-1.371745061974354
1687016113.150331,-0.020696237683296204,0.6415159106254578,-0.7668304443359375,-0.0029700882732868195,0.0018860697746276855,-0.009185850620269775,-0.010476535186171532,-0.004174233414232731,0.014789831824600697,-0.026982776477058754,-0.6964727873425597,-1.3709698843153308
1687016113.1653929,-0.020722977817058563,0.6414287090301514,-0.7669026255607605,-0.0006545409560203552,0.015996098518371582,-0.008274376392364502,0.011955536901950836,-0.01580931805074215,-0.001131078228354454,-0.027015080046975545,-0.6963591119544149,-1.3706545482284391
1687016113.241579,-0.020865552127361298,0.6421274542808533,-0.7663138508796692,-0.004982795566320419,0.011665761470794678,-0.004438161849975586,-0.017496895045042038,0.005211811512708664,0.009706922806799412,-0.02722174323357482,-0.6972702694123194,-1.3704959007047521
1687016113.2468,-0.02038399502635002,0.6427521705627441,-0.7658029198646545,0.007551398128271103,0.006814420223236084,5.5789947509765625e-05,-0.011587406508624554,-0.0072473883628845215,-0.0002122875303030014,-0.026611523107989657,-0.6980854289056108,-1.3699622945909493
1687016113.360777,-0.020736878737807274,0.6429568529129028,-0.7656216025352478,0.002411115914583206,-0.016232728958129883,0.015118062496185303,-0.019400987774133682,0.003345601260662079,-0.001918841153383255,-0.027078402420732124,-0.6983526758986797,-1.3700643104905903
1687016113.366574,-0.021246949210762978,0.6424714922904968,-0.7660149931907654,0.003684135153889656,0.010299444198608398,-0.035117268562316895,0.0011932370252907276,-0.01632317528128624,-0.02450937032699585,-0.02772987985025993,-0.6977191289937228,-1.3707480777391117
1687016113.4531078,-0.02175982855260372,0.6436913013458252,-0.7649757862091064,-0.009291747584939003,-0.013015151023864746,0.01360243558883667,0.00659419409930706,0.006303174886852503,0.013718442060053349,-0.028437452171742067,-0.6993120030030222,-1.3716091106262294
1687016113.465759,-0.021258508786559105,0.6433468461036682,-0.7652796506881714,-0.0005157385021448135,0.004144549369812012,0.00034123659133911133,0.013280127197504044,-0.00035246415063738823,0.0018655108287930489,-0.027771603922103108,-0.698861966753013,-1.3711301746470435
1687016113.542006,-0.021045759320259094,0.6434157490730286,-0.7652275562286377,-0.00933443196117878,0.037019312381744385,-0.00476151704788208,0.019820384681224823,0.007362048141658306,0.00578621681779623,-0.027495684596417783,-0.6989519937973067,-1.3709674169741406
1687016113.5479279,-0.021675262600183487,0.6411465406417847,-0.7671122550964355,0.005500992760062218,0.02618122100830078,-0.003105640411376953,0.12636566162109375,-0.009196288883686066,-0.05711445212364197,-0.028248143546485947,-0.6959913556825006,-1.3720747251710184
1687016113.631036,-0.021225210279226303,0.6252217292785645,-0.780158519744873,-0.04795810207724571,0.05402320623397827,-0.02611595392227173,0.6077297329902649,0.10965459793806076,0.017998408526182175,-0.027199570423284424,-0.6754155776841909,-1.372841194338688
1687016113.643317,-0.01798485964536667,0.6122885942459106,-0.7904298305511475,0.009363686665892601,-0.09472578763961792,-0.046774208545684814,-0.04492511972784996,0.02754787541925907,-0.008736267685890198,-0.022749341022444674,-0.6589519947156925,-1.3707638125258808
1687016113.7215161,-0.017591185867786407,0.6111834049224854,-0.7912934422492981,-0.01303316093981266,0.0341259241104126,0.008914291858673096,0.09381844848394394,0.0033569196239113808,0.0011459244415163994,-0.022227263557460207,-0.6575548968616184,-1.3709445367146331
1687016113.735189,-0.01872655190527439,0.6112126708030701,-0.7912448644638062,-0.001750696450471878,-0.011496543884277344,0.011383354663848877,0.03197065740823746,0.012451348826289177,-0.032236531376838684,-0.023662786051007197,-0.6575918449045014,-1.3726328754252248
1687016113.811633,-0.01715385727584362,0.6055685877799988,-0.7956082224845886,-0.009396374225616455,0.01477736234664917,-0.07782018184661865,0.1078042984008789,0.024155940860509872,0.006121507845818996,-0.021557344206894365,-0.6504801938937548,-1.3718756916096757
1687016113.817313,-0.017463766038417816,0.6061149835586548,-0.7951853275299072,0.00824749656021595,-0.0007531046867370605,-0.003185093402862549,0.05528770014643669,0.004866133444011211,-0.008161025121808052,-0.02195835133647652,-0.6511669410051985,-1.3721795006739588
1687016113.868058,-0.01564667373895645,0.602882981300354,-0.7976762056350708,-0.009392963722348213,-0.0010459423065185547,-0.029045045375823975,0.02401692606508732,0.030748996883630753,0.010808938182890415,-0.019612804106269675,-0.6471097413447144,-1.370612439458492
1687016113.962002,-0.015413554385304451,0.6040464043617249,-0.7968000769615173,-0.0031105736270546913,0.031726181507110596,0.009843230247497559,0.053778816014528275,0.015109848231077194,0.005925766192376614,-0.019341906797641216,-0.6485687964597652,-1.3707905663630795
1687016113.967791,-0.015263766050338745,0.6014747619628906,-0.7987459301948547,-0.017634127289056778,-0.025226712226867676,-0.014303386211395264,-0.07242759317159653,-0.000435022113379091,0.00020289886742830276,-0.019107337316586936,-0.6453458600549782,-1.3704987314780246
1687016114.018375,-0.014576883986592293,0.6032262444496155,-0.7974368333816528,-0.016062717884778976,0.02403193712234497,0.007031559944152832,0.028256479650735855,0.02018143981695175,0.01755579188466072,-0.018277635880200895,-0.6475400780032333,-1.3699341271229828
1687016114.0836802,-0.015001719817519188,0.6027355194091797,-0.7978000044822693,0.011232840828597546,-0.04058653116226196,-0.009451031684875488,-0.0891677513718605,-0.029520869255065918,-0.00973814819008112,-0.018801644598154425,-0.6469249208236761,-1.369619486311321
1687016114.199802,-0.015093538910150528,0.6045093536376953,-0.7964550256729126,0.0012843748554587364,0.026746690273284912,-0.012504994869232178,0.01575140655040741,0.0009420985006727278,0.008265352807939053,-0.01894863155621061,-0.6491498067969207,-1.3691744677110707
1687016114.213264,-0.01562555320560932,0.6043359637260437,-0.7965763807296753,0.006088860332965851,-0.007961571216583252,0.010031521320343018,-0.03078693524003029,-0.013757751323282719,-0.0055228970013558865,-0.01961337289382197,-0.6489321680532626,-1.3695695910481929
1687016114.352751,-0.01589011587202549,0.6056115031242371,-0.7956017851829529,0.0043392665684223175,-0.015706777572631836,-0.0018836259841918945,-0.030085990205407143,-0.007672961335629225,-0.006544752046465874,-0.019969794422699194,-0.6505341173283262,-1.3695079248718764
1687016114.366632,-0.016476986929774284,0.6053116917610168,-0.7958179712295532,-0.0031915325671434402,-0.0033831000328063965,0.006419718265533447,0.02827618643641472,-0.0007347608916461468,0.0002561621367931366,-0.02070151009750305,-0.650157423825106,-1.3698347011146177
1687016114.470535,-0.0163925439119339,0.6044922471046448,-0.7964423298835754,0.01184547133743763,-0.03176891803741455,-0.00020384788513183594,-0.023303983733057976,-0.012069839984178543,-0.01016345527023077,-0.020579304519123535,-0.6491283100666495,-1.369719436220277
1687016114.48319,-0.01703563518822193,0.6050955653190613,-0.7959705591201782,-0.012032298371195793,0.019767045974731445,-0.012562215328216553,0.05153989791870117,0.01665554754436016,0.011535181663930416,-0.021399075348870155,-0.6498858834026321,-1.3700957768756463
1687016114.486645,-0.016347398981451988,0.6046774983406067,-0.7963026165962219,-0.0004677325487136841,-0.00419849157333374,-0.03353142738342285,-0.055412184447050095,-0.012685962952673435,-0.012546718120574951,-0.020526244680592238,-0.6493609120913916,-1.3692838947955122
1687016114.55724,-0.01658525876700878,0.6055137515068054,-0.795661985874176,0.006224580109119415,-0.020827531814575195,0.017204344272613525,0.017658496275544167,0.011755331419408321,0.019932661205530167,-0.020841585240723347,-0.6504112639519896,-1.3692762260161764
1687016114.5614681,-0.016220351681113243,0.6049340963363647,-0.7961103320121765,-1.4958903193473816e-05,-0.01718086004257202,0.0004101991653442383,-0.05619475618004799,-0.002297770231962204,-0.006530637387186289,-0.02037168332427359,-0.6496830862796069,-1.3687917669785534
1687016114.619168,-0.016518665477633476,0.6054655909538269,-0.7957000732421875,0.0013362113386392593,-0.01762080192565918,0.017990052700042725,0.005874541588127613,0.005381321534514427,0.003347027115523815,-0.02075693269153014,-0.6503507350505626,-1.3692661014528638
1687016114.628761,-0.01613001339137554,0.6056025624275208,-0.7956038117408752,0.006364436820149422,-0.006679892539978027,0.0010480880737304688,-0.02122512087225914,-0.008128894492983818,0.0014873417094349861,-0.020271150061339022,-0.6505228260588986,-1.368713976568898
1687016114.681001,-0.016765525564551353,0.6061034798622131,-0.7952091097831726,-0.007022889330983162,0.00762021541595459,-0.007571101188659668,0.010327812284231186,0.011444141156971455,0.00758704636245966,-0.021080043980943982,-0.6511524612420345,-1.3690253241463928
1687016114.7682981,-0.016130942851305008,0.6067869663238525,-0.7947008609771729,0.0021081753075122833,-0.015081703662872314,-0.007667362689971924,-0.0454857163131237,-0.0056164683774113655,0.0024175839498639107,-0.020295345389995632,-0.6520120477523162,-1.3683678491519085
1687016114.778932,-0.016165513545274734,0.6071630716323853,-0.7944127917289734,0.004797779023647308,0.005645036697387695,-0.012685656547546387,-0.0032993159256875515,-0.006017141044139862,-0.010426308959722519,-0.02034620279454337,-0.6524853748825892,-1.3683857409178297
1687016114.825942,-0.01642361469566822,0.6067944765090942,-0.7946891188621521,-0.0064339954406023026,0.007142841815948486,-0.0008431673049926758,0.01612498238682747,0.008719727396965027,0.01450886856764555,-0.02066377428477002,-0.6520215090271536,-1.3686617980031477
1687016114.978859,-0.016735417768359184,0.6096329092979431,-0.7925071716308594,-0.000613771378993988,-0.020353853702545166,0.004238128662109375,-0.2010038048028946,-0.04615350812673569,-0.019325528293848038,-0.021113917492352665,-0.6555974023760006,-1.3685725892107317
1687016114.9849,-0.02025042660534382,0.6208222508430481,-0.7836897969245911,0.015993263572454453,-0.045718610286712646,-0.04393172264099121,-0.21909791231155396,-0.020787032321095467,-0.09026547521352768,-0.025834102560323115,-0.6697911561499761,-1.3725190584060287
1687016115.073114,-0.01943778619170189,0.617973268032074,-0.7859587669372559,0.06857115030288696,-0.01775360107421875,0.06742238998413086,0.03611839562654495,0.005718877539038658,0.04438074678182602,-0.02472626416611455,-0.6661621913521818,-1.3724110359821358
1687016115.086489,-0.0183681920170784,0.6196025013923645,-0.7847008109092712,0.00046967342495918274,-0.008991658687591553,-0.0012947320938110352,-0.009282173588871956,0.05088968575000763,0.04442229121923447,-0.023403617948604787,-0.6682362137673087,-1.3709684789913057
1687016115.090039,-0.01750604435801506,0.61970454454422,-0.7846398949623108,0.010685401037335396,0.01814323663711548,0.009294986724853516,0.0044238511472940445,-0.013600225560367107,0.003552624024450779,-0.022307226140381334,-0.6683662204507688,-1.3696788103570838
1687016115.122009,-0.01729247160255909,0.6200858950614929,-0.7843433618545532,0.0018353573977947235,0.025559186935424805,-0.0024303793907165527,-0.019045390188694,0.006907179951667786,-0.000318014994263649,-0.022043497126342824,-0.6688521589597384,-1.369524035273061
1687016115.222328,-0.01711382530629635,0.6218776106834412,-0.782927393913269,-0.0036991164088249207,0.011102676391601562,-0.0030376315116882324,-0.06963799148797989,-0.01036448497325182,-0.0024874256923794746,-0.0218552844325301,-0.6711380238679757,-1.3695389470477157
1687016115.234844,-0.017374129965901375,0.6225355267524719,-0.7823987007141113,0.006082672625780106,-0.0484083890914917,0.025272786617279053,-0.00449793878942728,0.019699273630976677,0.002291083335876465,-0.02220258612355575,-0.6719784233551154,-1.3696372754344508
1687016115.277554,-0.01690245233476162,0.6228038668632507,-0.7821953892707825,0.005061669275164604,-0.019959747791290283,0.01016169786453247,-0.003291992237791419,0.00019468233222141862,0.0029558083042502403,-0.021605626544606717,-0.6723214078081408,-1.3694277961912948
1687016115.369471,-0.017297985032200813,0.6235316395759583,-0.7816066741943359,-0.006154732778668404,-0.009487509727478027,-0.0030002593994140625,-0.004925841465592384,0.0028328096959739923,0.004904977045953274,-0.022127704529865122,-0.6732519373091861,-1.3694896909949645
1687016115.3824239,-0.01743377186357975,0.6230837106704712,-0.7819609045982361,0.008705789223313332,-0.008108854293823242,-0.0014253854751586914,0.006361567415297031,-0.016612526029348373,-0.005130080971866846,-0.022291247627515096,-0.6726791385485639,-1.369439435000596
1687016115.4271421,-0.01805100031197071,0.6245710253715515,-0.7807593941688538,-0.0003052707761526108,0.0027787089347839355,0.004788875579833984,-0.018668020144104958,0.0012924373149871826,0.003724929876625538,-0.023115681376946254,-0.6745821487907179,-1.3695455387224151
1687016115.51964,-0.017218247056007385,0.6255194544792175,-0.7800185084342957,0.002707192674279213,0.00509566068649292,-0.013194382190704346,-0.0075475899502635,0.008703481405973434,0.00038985349237918854,-0.02207056588235913,-0.675797158761255,-1.3689646444369798
1687016115.532498,-0.017764342948794365,0.6248960494995117,-0.780505895614624,-0.0028197281062602997,-0.014590322971343994,0.024188697338104248,-0.012527036480605602,0.005812354385852814,0.009196660481393337,-0.022756108112584023,-0.6749983404805108,-1.369585116642667
1687016115.57723,-0.017360422760248184,0.6253861784934998,-0.7801222205162048,-0.0008890405297279358,-0.027730047702789307,0.009034514427185059,-0.04394614323973656,-0.0009503437904641032,0.0127567732706666,-0.02224979247105325,-0.6756263651402127,-1.3690229848225204
1687016115.671092,-0.01728086732327938,0.6259034276008606,-0.7797091007232666,0.002205241471529007,0.008389115333557129,0.006027400493621826,0.01644502766430378,-0.0037730280309915543,-0.0005070995539426804,-0.022159597806934543,-0.6762893979596891,-1.3688244249133792
1687016115.683975,-0.017225593328475952,0.6259951591491699,-0.7796366810798645,0.001112351194024086,0.005489766597747803,-0.0069692134857177734,-0.016716521233320236,-0.013144159689545631,0.003822934813797474,-0.022090791077185187,-0.6764070180693019,-1.368516610894033
1687016115.7271872,-0.017066635191440582,0.626315712928772,-0.7793826460838318,-0.0029528457671403885,0.04034066200256348,-0.020101606845855713,0.005049560684710741,-0.00044314475962892175,0.0021842913702130318,-0.021894134705172236,-0.6768181105305888,-1.3683578120207964
1687016115.816854,-0.01745225116610527,0.626708984375,-0.7790579795837402,0.0020409319549798965,-0.0015564560890197754,0.010579526424407959,-0.01160824578255415,-0.0076797520741820335,-0.004066414199769497,-0.022397989917753606,-0.6773227240009044,-1.3683862693377231
1687016115.8303561,-0.017382390797138214,0.6268743276596069,-0.778926432132721,0.007662579417228699,-0.030637264251708984,0.016231060028076172,-0.03591092303395271,0.0008809789433144033,0.004449841566383839,-0.022312128048179905,-0.6775349431296868,-1.367909115602313
1687016115.8777308,-0.01748962514102459,0.6276343464851379,-0.7783117890357971,-0.0018126890063285828,-0.02265399694442749,0.005652427673339844,-0.014230193570256233,0.00813982356339693,0.003972870297729969,-0.022467452178645278,-0.6785108098364714,-1.367871524117563
