Timestamp,gravityX,gravityY,gravityZ,accelerationX,accelerationY,accelerationZ,rotationRateX,rotationRateY,rotationRateZ,attitudeRoll,attitudePitch,attitudeYaw
1687005877.990094,-0.979619562625885,0.17219875752925873,-0.10340797156095505,-0.06125873327255249,-0.020450055599212646,-0.0058756023645401,0.1737445741891861,-0.04007351025938988,-0.08502304553985596,-1.465626481896241,-0.17306133514919075,-0.9915508060103152
1687005878.010652,-0.9794883728027344,0.17054696381092072,-0.10731343924999237,-0.05330270528793335,-0.08088628947734833,-0.020860493183135986,-1.069024920463562,0.24222037196159363,-0.04234402999281883,-1.4616708622356605,-0.17138473987151032,-1.0050348951349117
1687005878.076478,-0.9787423610687256,0.17621466517448425,-0.1049361303448677,0.021757066249847412,0.010201975703239441,-0.054731957614421844,-1.84232497215271,0.3250904679298401,-0.05880555883049965,-1.4639890620514824,-0.17713959950267757,-1.0875574073205496
1687005878.0959768,-0.9770395159721375,0.18586644530296326,-0.10414918512105942,0.03384822607040405,0.01303189992904663,-0.042960867285728455,-2.411701202392578,0.280483216047287,0.024111159145832062,-1.4646006463650192,-0.18695359443563545,-1.1907991831231919
1687005878.163918,-0.9739578366279602,0.20844615995883942,-0.08919750899076462,-0.009806692600250244,-0.07604558765888214,0.01845771074295044,-4.295559406280518,0.44256091117858887,0.18968388438224792,-1.4794685746253957,-0.20998595135863962,-1.36522378577773
1687005878.16757,-0.9686737060546875,0.23861545324325562,-0.06880155950784683,0.015808284282684326,0.015412881970405579,0.023223526775836945,-4.270969867706299,0.5720199346542358,0.26810091733932495,-1.499888845555512,-0.2409398670626333,-1.591154586739164
1687005878.223535,-0.9616962671279907,0.27198609709739685,-0.03411319851875305,0.023921728134155273,-0.11637696623802185,0.04815119504928589,-5.534587860107422,0.6079011559486389,0.4488438069820404,-1.5353392865450226,-0.2754563328898331,-1.8447951994226681
1687005878.2852058,-0.9552993774414062,0.2956392467021942,-8.017500658752397e-05,-0.003654181957244873,-0.01750209927558899,0.000675201416015625,-4.446735858917236,0.7924667596817017,0.37723034620285034,-1.5707124002204664,-0.3001246018136006,-2.098295161197719
1687005878.3778281,-0.9503722786903381,0.3101331293582916,0.024699874222278595,0.04573965072631836,0.05629146099090576,-0.034343477338552475,-3.36099910736084,0.6290795207023621,0.24029192328453064,-1.5967801606756415,-0.31533305020872693,-2.3058154519656346
1687005878.396435,-0.9486744403839111,0.3146720230579376,0.031592998653650284,0.034093260765075684,0.05948871374130249,0.018669363111257553,-1.262053370475769,0.4972854256629944,0.16331858932971954,-1.6040862789308088,-0.32011110592474806,-2.4230708138482075
1687005878.461077,-0.9466539621353149,0.32165464758872986,0.019605936482548714,0.012999296188354492,0.007279068231582642,-0.01804959774017334,-0.10719779878854752,0.3140503466129303,0.12658347189426422,-1.5915041399675347,-0.32747647230625865,-2.447707665248785
1687005878.4647021,-0.945503294467926,0.32547762989997864,0.00937467161566019,0.014091551303863525,0.04021450877189636,-0.005331157706677914,0.3354901671409607,0.12306015193462372,0.05644965544342995,-1.5807110082309126,-0.33151683046186875,-2.4472237132496417
1687005878.5555701,-0.9438502192497253,0.33036771416664124,0.0019533608574420214,0.0002009868621826172,-0.011199623346328735,0.0377652645111084,-0.3765718936920166,0.14734046161174774,0.14473238587379456,-1.572865890341492,-0.33669312192548134,-2.4414574253055257
1687005878.57367,-0.9419996738433838,0.3356126546859741,0.0007873030845075846,-0.00677645206451416,0.03931102156639099,0.03830564022064209,-0.009254924952983856,0.14088988304138184,0.07480496913194656,-1.5716321051158346,-0.34225553790634927,-2.4615426489011245
1687005878.6151729,-0.9408079385757446,0.3389049172401428,-0.004848228767514229,-0.0050841569900512695,-0.028052926063537598,0.0432698130607605,-0.1943911612033844,0.0515580028295517,0.0938953086733818,-1.565643111448932,-0.34575270155995774,-2.4568790587776665
1687005878.675307,-0.939589262008667,0.3422909080982208,-0.0029082910623401403,0.005690574645996094,0.03125941753387451,0.04689931869506836,0.08576393127441406,0.011903536505997181,0.044658511877059937,-1.5677010575977512,-0.34935401118792675,-2.467892073573923
1687005878.800056,-0.9392967224121094,0.34308061003685,-0.00415729358792305,-0.00847238302230835,-0.022966504096984863,0.01453322172164917,0.26177453994750977,-0.07738426327705383,0.03271663188934326,-1.5663703916786726,-0.35019461284109754,-2.4577557927126046
1687005878.80509,-0.938713550567627,0.34468430280685425,-0.0030701973009854555,-0.004721999168395996,-0.008548468351364136,0.039187729358673096,0.43803247809410095,-0.14143967628479004,0.013564511202275753,-1.5675256951049752,-0.3519024481277821,-2.4367120024324267
1687005878.889318,-0.9386031031608582,0.34498366713523865,-0.0032258699648082256,-0.013117969036102295,-0.041913628578186035,0.0031342506408691406,0.4099138379096985,-0.1533481478691101,0.011574863456189632,-1.5673594563386215,-0.3522213796020779,-2.414264654298695
1687005878.908063,-0.93943190574646,0.34270066022872925,-0.004851111210882664,-0.010213851928710938,0.012295007705688477,0.009581267833709717,0.7143698930740356,-0.15875887870788574,-0.08123363554477692,-1.5656324952193157,-0.3497901447370538,-2.3867436027428734
1687005878.97374,-0.9407650232315063,0.33897921442985535,-0.007358705159276724,-0.0031130313873291016,-3.5762786865234375e-05,0.004306912422180176,0.9447622895240784,-0.27134162187576294,-0.09682723879814148,-1.5629744428772794,-0.34583165769935775,-2.3485181965413067
1687005878.990367,-0.9431132078170776,0.3321310877799988,-0.015035317279398441,0.010282576084136963,0.0002052783966064453,0.048406243324279785,1.285342812538147,-0.34686529636383057,-0.14436572790145874,-1.5548554581175325,-0.3385620215688452,-2.278587026764469
1687005879.06427,-0.946284830570221,0.3225307762622833,-0.022776132449507713,0.013332068920135498,0.09983247518539429,0.03289264440536499,2.2491133213043213,-0.4128630459308624,-0.21664711833000183,-1.5467319699629747,-0.3284019281570071,-2.199240522337806
1687005879.0679178,-0.9509343504905701,0.30622220039367676,-0.04417473450303078,0.03456801176071167,0.05412930250167847,0.0984959602355957,3.208662509918213,-0.6804472208023071,-0.13319936394691467,-1.5243756667768622,-0.31122205518101936,-2.0390340425436286
1687005879.160038,-0.9538403749465942,0.29561474919319153,-0.052919864654541016,-0.0013445019721984863,0.08854052424430847,0.08409351110458374,3.096863269805908,-0.7494802474975586,-0.10349206626415253,-1.5153723088793183,-0.30009896532404245,-1.889436688228189
1687005879.277691,-0.9576379656791687,0.2803788185119629,-0.06570606678724289,-0.0204504132270813,-0.06944125890731812,0.11461042612791061,2.9281585216522217,-0.8422567844390869,0.0010623009875416756,-1.5022910562456915,-0.28418873040227144,-1.70104024181571
1687005879.2973819,-0.9597184658050537,0.2730720341205597,-0.06611920893192291,-0.03292661905288696,0.13055342435836792,0.04136938601732254,3.4019837379455566,-0.7737911939620972,0.12107552587985992,-1.5020106424550692,-0.2765849948491229,-1.5441156584875786
1687005879.337508,-0.9561559557914734,0.28512445092201233,-0.06685727834701538,-0.04500371217727661,0.21031323075294495,0.1854485273361206,2.032003879547119,-0.7141316533088684,0.6990261673927307,-1.500986961522914,-0.2891362664851304,-1.4016346350359885
1687005879.340788,-0.9410818815231323,0.3341064453125,-0.05232048034667969,-0.08813846111297607,0.20094293355941772,0.05709643289446831,1.3300418853759766,-0.958131730556488,1.6378998756408691,-1.5152574032890769,-0.34065703833288924,-1.2951010833507393
1687005879.3434181,-0.9048506617546082,0.42497768998146057,-0.025277281180024147,-0.1443435549736023,0.28504425287246704,0.05024057626724243,0.2838810980319977,-0.7861865758895874,2.3192360401153564,-1.5428682820656607,-0.4389372293256388,-1.2574466542934317
1687005879.4004679,-0.8435154557228088,0.5370787382125854,0.005267427768558264,-0.17300963401794434,0.12528997659683228,-0.01848161220550537,-0.007420739158987999,-0.8474900126457214,2.677372455596924,-1.5770408590932798,-0.5669701388464744,-1.2429997911279227
1687005879.521727,-0.7576308846473694,0.6515671014785767,0.038151971995830536,-0.26605063676834106,0.09573203325271606,0.041956543922424316,0.07424469292163849,-0.6332842707633972,3.0658557415008545,-1.6211107643282525,-0.7096484149003828,-1.2498697230453797
1687005879.5415568,-0.641660213470459,0.7655776739120483,0.04650740325450897,-0.28245770931243896,0.05029451847076416,-0.01936209201812744,0.3204067349433899,-0.5009620189666748,3.311495304107666,-1.6431496028803947,-0.8719387499491446,-1.2445533718737565
1687005879.571515,-0.5040475726127625,0.8619428873062134,0.05468279868364334,-0.3143573999404907,-0.04782557487487793,0.04965674504637718,-0.06835513561964035,-0.42373913526535034,3.382514476776123,-1.678861073291292,-1.0390893887365906,-1.2558597910079394
1687005879.663907,-0.35617005825042725,0.9316890835762024,0.07140055298805237,-0.2863469123840332,-0.030566155910491943,-0.06636524945497513,-0.02620907500386238,-0.6048328876495361,3.1383798122406006,-1.768641458342604,-1.199035338258467,-1.328925735677755
1687005879.681315,-0.20176860690116882,0.9777215719223022,0.057877521961927414,-0.340254008769989,0.02717643976211548,0.015852808952331543,0.7362647652626038,-0.5093318223953247,3.2738914489746094,-1.8501465600668565,-1.3593174285568792,-1.3837650448810768
1687005879.7256088,-0.04262963682413101,0.9983968734741211,0.037235077470541,-0.2819400131702423,-0.09834200143814087,0.023662686347961426,0.05154723674058914,-0.6055637001991272,3.002131462097168,-2.2887507311154884,-1.5141646005663683,-1.798581001829401
1687005879.815078,0.11084888130426407,0.993541419506073,0.024250410497188568,-0.3999723792076111,0.163685142993927,-0.01852845773100853,0.9305514097213745,-0.577606201171875,3.212800979614258,1.7861731198465793,-1.4570814891917723,2.3021902979306104
1687005879.8191319,0.26731646060943604,0.9635409116744995,-0.011425862088799477,-0.33855974674224854,-0.10625654458999634,0.10131531953811646,-0.2511802017688751,-0.4708715081214905,3.0573482513427734,1.5280794982710906,-1.2999354957907063,2.0684935837800413
1687005879.875575,0.402864545583725,0.9148046970367432,-0.028847746551036835,-0.296358197927475,-0.12293475866317749,-0.03998476266860962,0.7761996388435364,-0.33161255717277527,2.6755261421203613,1.4993117728972543,-1.1550240798742164,2.0587191756459613
1687005879.968137,0.5049379467964172,0.8608121275901794,-0.0635618269443512,-0.15368062257766724,-0.500674307346344,-0.006308257579803467,-0.061057135462760925,-0.13019141554832458,1.8122024536132812,1.445574492566253,-1.036863308879215,2.010129155635382
1687005879.9736571,0.5665936470031738,0.8217706084251404,-0.06053600087761879,-0.0679669976234436,-0.33512210845947266,-0.07873106002807617,0.11717624962329865,-0.07317660748958588,1.146925687789917,1.4643581077322654,-0.9645113697050168,2.0384875150209494
1687005880.02233,0.5941646695137024,0.8025752902030945,-0.053302519023418427,-0.0003078579902648926,-0.33367276191711426,-0.05237996578216553,-0.48747214674949646,-0.05900925025343895,0.27495482563972473,1.4813258130608262,-0.9315997134069426,2.065501452139569
1687005880.110579,0.5981765985488892,0.8004618883132935,-0.03801523894071579,0.03288102149963379,-0.06401187181472778,-0.08774781227111816,-0.17535240948200226,0.03981892392039299,0.0007001115009188652,1.5073298164848714,-0.9280653928786899,2.0975058392005694
1687005880.126367,0.5967351794242859,0.8018491268157959,-0.030742334201931953,0.06551152467727661,-0.02958667278289795,0.0007587075233459473,-0.05020255595445633,0.05707421153783798,-0.05886601284146309,1.5193242799430442,-0.9303834548897627,2.110299444330847
1687005880.174243,0.593367338180542,0.8043636679649353,-0.030233608558773994,0.017884433269500732,-0.012066483497619629,-0.03287684917449951,0.03573298826813698,0.014558973722159863,-0.10757709294557571,1.5198877514157842,-0.9346036858098647,2.107418343639953
1687005880.2671242,0.5905572772026062,0.806209921836853,-0.03560144454240799,0.015125095844268799,-0.002163410186767578,0.04788464307785034,0.12282168865203857,-0.02315138652920723,-0.039824411273002625,1.5105847080835724,-0.9377177254111951,2.0979298741393797
1687005880.272937,0.5889942646026611,0.807000994682312,-0.04283402860164642,0.029749512672424316,-0.027429640293121338,-0.037045832723379135,0.12445693463087082,-0.045600902289152145,-0.11858420073986053,1.4982001159797884,-0.9390560109751469,2.0846367494334612
1687005880.356269,0.5839367508888245,0.8107061982154846,-0.04210881143808365,0.06498903036117554,-0.05507582426071167,0.013208568096160889,0.0036700614728033543,-0.024641558527946472,-0.1365986317396164,1.4988089903047952,-0.9453573995702141,2.0877622299290266
1687005880.37378,0.5775794386863708,0.814914345741272,-0.0481293685734272,0.14822012186050415,-0.12865036725997925,-0.08744508773088455,0.014959733933210373,-0.18441897630691528,-0.25869685411453247,1.487658969817827,-0.9525814433666567,2.0793326636450256
1687005880.415495,0.5660942196846008,0.8228256702423096,-0.049953971058130264,0.12380146980285645,-0.13009190559387207,-0.042132921516895294,-0.19873809814453125,-0.1877930611371994,-0.35105207562446594,1.4827810937774795,-0.966365471707573,2.0864483911658
1687005880.505594,0.550662100315094,0.8334051370620728,-0.046980321407318115,0.15227985382080078,-0.08711302280426025,-0.10116738826036453,-0.24647006392478943,-0.22172093391418457,-0.44865480065345764,1.4856863625007093,-0.9852407203813843,2.100811872310767
1687005880.510037,0.5280395150184631,0.8480463027954102,-0.04462461173534393,0.14293509721755981,-0.03365445137023926,-0.10210400819778442,-0.021200668066740036,-0.12080271542072296,-0.474560409784317,1.4864866731338087,-1.0122875499320512,2.1116641674308987
1687005880.566008,0.5022826790809631,0.8634100556373596,-0.047278109937906265,0.23317575454711914,-0.05522829294204712,-0.04151291400194168,-0.07213135808706284,-0.11031278222799301,-0.7350703477859497,1.4769463398491287,-1.0419903653228109,2.10870989652258
1687005880.65421,0.4729596972465515,0.8794537782669067,-0.05357310548424721,0.147844135761261,-0.03132462501525879,-0.09608519077301025,0.1646668016910553,-0.012556133791804314,-0.6134320497512817,1.4580050467846384,-1.0747134080650909,2.0898860968342126
1687005880.6605558,0.42626506090164185,0.9031538367271423,-0.051098376512527466,0.13614338636398315,-0.10199123620986938,0.018215596675872803,-0.01111500896513462,0.1863897144794464,-1.273777723312378,1.4514909706567443,-1.127059908302666,2.076575435669363
1687005880.749629,0.37300029397010803,0.9244583249092102,-0.07903990894556046,-0.06098860502243042,0.015025138854980469,-0.1713874340057373,1.0537824630737305,0.28486010432243347,-1.170444130897522,1.361982141427152,-1.1796125293858368,1.9642831371587401
1687005880.837743,0.2953084409236908,0.9520551562309265,-0.0798974484205246,-0.0996755063533783,-0.20675504207611084,0.14752429723739624,0.31562429666519165,0.6398888826370239,-2.019477605819702,1.306566407774223,-1.259884917459457,1.8837723317642725
1687005880.844157,0.19487620890140533,0.9702868461608887,-0.1434101164340973,-0.22215890884399414,-0.2586323022842407,-0.01132933795452118,1.376042366027832,0.6682366132736206,-2.604456901550293,0.9363780751400211,-1.3264134850134055,1.4584382551142678
1687005880.929596,0.057194069027900696,0.9776775240898132,-0.20217661559581757,-0.4938242733478546,0.4675890803337097,-0.1201043576002121,2.2754390239715576,1.1684626340866089,-2.7107086181640625,0.2756880867822768,-1.3591077057021315,0.7455256074073718
1687005880.9483972,-0.030670853331685066,0.9585398435592651,-0.28330332040786743,-0.3318931758403778,-0.014753222465515137,0.22432801127433777,-0.10832738131284714,1.3722842931747437,-1.7708524465560913,-0.10784152547658528,-1.2818332119181015,0.2777505872397676
1687005881.014823,-0.04753807559609413,0.9686007499694824,-0.2440345287322998,0.05075773224234581,0.21806007623672485,0.37838807702064514,-1.6687040328979492,0.788526177406311,0.3159312903881073,-0.19239119829942486,-1.3195395403901335,0.11646295591238909
1687005881.031468,-0.017551369965076447,0.9732469916343689,-0.22908973693847656,-0.04151534289121628,0.12096065282821655,0.04728120565414429,1.5994946956634521,-0.4307801425457001,0.6193745136260986,-0.0764641422114572,-1.3389638746247619,0.2385634982807822
1687005881.074338,-0.0006153485155664384,0.9618999361991882,-0.27340108156204224,-0.07476302236318588,-0.3922436237335205,0.09018874168395996,-0.5397199988365173,0.14903196692466736,0.2587372660636902,-0.0022507135699259403,-1.2938685276677557,0.32195570064899276
1687005881.196515,0.011578024365007877,0.9673112630844116,-0.2533271908760071,0.009463893249630928,-0.012095928192138672,-0.04258653521537781,0.23327496647834778,-0.199964240193367,0.212954580783844,0.045672053668119314,-1.3144043961048533,0.3711742495988043
1687005881.215777,0.015413708053529263,0.9627237915992737,-0.2700469195842743,-0.045458219945430756,-0.11810410022735596,0.036709487438201904,0.06349951028823853,-0.05030710622668266,0.10785026848316193,0.057016024490599594,-1.2968980282365057,0.39128349481948826
1687005881.283133,0.02023535780608654,0.9658921360969543,-0.2581525444984436,0.0017526093870401382,-0.014094769954681396,-0.023646831512451172,-0.2421663999557495,-0.025912286713719368,0.0653693899512291,0.07822532309346548,-1.3088668155147,0.4141735091525306
1687005881.286677,0.021546505391597748,0.9642757177352905,-0.2640228569507599,-0.004120917990803719,-0.021480917930603027,-0.018493682146072388,0.10674244910478592,-0.06338456273078918,0.05136621370911598,0.0814280290651861,-1.3026955727454685,0.4209022226690347
1687005881.380029,0.023172682151198387,0.966629683971405,-0.2551273703575134,-0.01047731377184391,0.006148576736450195,-0.04103052616119385,-0.17178025841712952,0.060753099620342255,-0.002839230000972748,0.09057936109354953,-1.3117303213103582,0.42978497870409055
1687005881.39849,0.02320174127817154,0.9668948650360107,-0.2541182041168213,-0.02413247339427471,-0.04707986116409302,0.007978618144989014,0.0035759855527430773,-0.03513214737176895,0.002544349990785122,0.09105050221828256,-1.3127674902947148,0.42921981387801905
1687005881.465195,0.022008303552865982,0.96476149559021,-0.26220375299453735,-0.008260080590844154,-0.008310198783874512,0.005825519561767578,0.17297153174877167,-0.04994198679924011,0.03555556386709213,0.08373959136086018,-1.3045354989046958,0.4250168943192452
1687005881.481707,0.022223183885216713,0.9669004678726196,-0.25418397784233093,-0.017737047746777534,0.0010101795196533203,-0.01607978343963623,-0.2648778259754181,-0.006352433003485203,0.009264037944376469,0.0872077741291933,-1.3127896192616793,0.43003395432130187
1687005881.5524569,0.02320418879389763,0.9676363468170166,-0.2512791156768799,-0.04226236417889595,-0.0028843283653259277,-0.002566128969192505,0.14288261532783508,-0.20631374418735504,0.13981673121452332,0.09208312371614268,-1.3156894538975505,0.4400538368968206
1687005881.5561461,0.03176077455282211,0.9666629433631897,-0.25407496094703674,-0.09326890110969543,-0.04155313968658447,0.015076518058776855,-0.17953738570213318,-0.48058363795280457,0.46378093957901,0.12436042590522015,-1.3118601700920511,0.4922624268680341
1687005881.6136842,0.061051663011312485,0.968445360660553,-0.24163250625133514,-0.2480480670928955,-0.22416746616363525,0.012475967407226562,-0.33071449398994446,-0.7019591927528381,0.9277706742286682,0.24748370139478623,-1.318915290017353,0.6496884239672048
1687005881.6804528,0.09295642375946045,0.9566114544868469,-0.27614039182662964,-0.13710007071495056,0.09055334329605103,-0.010541766881942749,1.5846644639968872,-0.858647346496582,1.0308797359466553,0.3247122983004256,-1.2751411278869809,0.7706131637135568
1687005881.76856,0.1437942087650299,0.9516922831535339,-0.27130237221717834,-0.4328261613845825,-0.1508195400238037,0.15301614999771118,-1.7916051149368286,-0.5899327993392944,1.4303292036056519,0.48736999084001204,-1.2587010040838709,0.9828044371813214
1687005881.774128,0.20366157591342926,0.9438772797584534,-0.26003381609916687,-0.20758305490016937,0.24949723482131958,-0.05931746959686279,0.982323408126831,-0.5512494444847107,1.4367412328720093,0.664420134873946,-1.2341787887663944,1.199752394310616
1687005881.8216639,0.261445552110672,0.9317245483398438,-0.2520623803138733,-0.2271895706653595,0.0412367582321167,0.11895990371704102,-1.2639740705490112,-0.45789724588394165,1.337827205657959,0.8036688425633494,-1.1991330157745144,1.376711196778419
1687005881.9152079,0.3194749057292938,0.9133390188217163,-0.2524822950363159,-0.15695354342460632,0.24149173498153687,0.0003612935543060303,0.7665133476257324,-0.21667490899562836,1.3452582359313965,0.9019956118172485,-1.1514100442693702,1.5035335908195784
1687005881.934933,0.3720962703227997,0.891356885433197,-0.2588960826396942,-0.1052200198173523,-0.0573267936706543,0.03726208209991455,-0.4323424696922302,-0.1013452559709549,1.2184795141220093,0.9629100903922043,-1.1003297131654013,1.5857322650470105
1687005881.973453,0.4187547266483307,0.8712213635444641,-0.25615960359573364,-0.07518783211708069,0.1466313600540161,-0.028874635696411133,0.6107301712036133,0.10118747502565384,0.9793835282325745,1.0218054926129532,-1.057684925511904,1.6527081948729363
1687005882.066298,0.45442384481430054,0.8517501354217529,-0.2608073949813843,-0.044816941022872925,-0.23569190502166748,0.08276781439781189,-0.7301504015922546,0.3881145715713501,0.5139746069908142,1.0497667049697708,-1.0193165519476841,1.672677825152921
1687005882.070991,0.4665268063545227,0.8531062602996826,-0.23358593881130219,0.3405410647392273,0.04197424650192261,-0.08320188522338867,0.33005490899086,0.06913193315267563,-0.07764848321676254,1.1065958095118102,-1.0219102597149528,1.7204195871368368
1687005882.159731,0.46362870931625366,0.8539214730262756,-0.23636113107204437,0.23819929361343384,-0.24714058637619019,-0.08027410507202148,-0.8321850895881653,0.36241841316223145,-0.359342485666275,1.0993339979620602,-1.0234748388768047,1.6986099067652278
1687005882.1783261,0.4432336390018463,0.8756982088088989,-0.19156336784362793,0.2546118199825287,0.025897741317749023,-0.06757670640945435,0.09264720231294632,0.43089160323143005,-0.5241543650627136,1.1628472827699994,-1.0668799510800488,1.751221270737377
1687005882.210351,0.4258815348148346,0.885138750076294,-0.18749448657035828,0.3135288953781128,-0.209830641746521,-0.04724681377410889,-0.7193765044212341,0.419504851102829,-0.5304381251335144,1.1560797447378302,-1.0867920970506977,1.7155186633753612
1687005882.301848,0.4090133011341095,0.8984593152999878,-0.15962065756320953,0.2528214156627655,0.14298337697982788,-0.09013526141643524,0.7656782269477844,0.24492840468883514,-0.25284773111343384,1.1987164430825061,-1.1162477549370002,1.7479498309519843
1687005882.305471,0.4091911017894745,0.8935550451278687,-0.1847214549779892,0.1842842400074005,-0.0890049934387207,-0.05635225772857666,-0.3046048581600189,0.10660181194543839,0.15485772490501404,1.1467532292664964,-1.1052022913474007,1.6775103637111584
1687005882.36486,0.41435572504997253,0.8930784463882446,-0.17527231574058533,0.04203474521636963,0.02380692958831787,0.01166747510433197,0.5878268480300903,-0.07966992259025574,0.07567635178565979,1.1706212227643176,-1.1041418578863005,1.707039206809223
1687005882.4244819,0.4154631495475769,0.889180064201355,-0.19170035421848297,-0.031063765287399292,-0.10629749298095703,-0.0012013167142868042,-0.47349557280540466,-0.16395151615142822,0.017456986010074615,1.1384914878220813,-1.0955500658076722,1.674795303726345
1687005882.52044,0.4111800193786621,0.8936042189598083,-0.18000595271587372,-0.056489527225494385,0.009563267230987549,0.048642948269844055,0.3201723098754883,-0.18532352149486542,-0.1488286554813385,1.1581517713793297,-1.1053118657984127,1.7098345826611652
1687005882.526421,0.4004873037338257,0.8962745070457458,-0.19053004682064056,-0.05392971634864807,-0.037906765937805176,-0.014899119734764099,-0.301750510931015,-0.12073493003845215,-0.25298088788986206,1.1267398788180152,-1.1112966981385506,1.682305219077271
1687005882.6085129,0.3878467381000519,0.9035952687263489,-0.18190783262252808,-0.02633550763130188,0.028930246829986572,0.0080796480178833,0.09651484340429306,-0.013139499351382256,-0.29557254910469055,1.1322385330415183,-1.1280891238700912,1.6929334401817102
1687005882.625957,0.3724469840526581,0.9105174541473389,-0.17955797910690308,-0.02492806315422058,-0.028818964958190918,-0.0149153470993042,-0.24557039141654968,0.06570059061050415,-0.36613914370536804,1.1215681890835822,-1.144533898963598,1.6795237774273015
1687005882.661251,0.3547589182853699,0.9194815754890442,-0.16940930485725403,-0.03568238019943237,-0.11305475234985352,0.009283497929573059,-0.001294869463890791,0.2784879505634308,-0.5307323932647705,1.1252828358672982,-1.1667597921480726,1.6759061337557635
1687005882.755167,0.31871598958969116,0.9345799088478088,-0.15805259346961975,-0.09456434845924377,-0.3716832399368286,-0.014799058437347412,-0.7641856670379639,0.39810556173324585,-1.1801193952560425,1.1104307173395231,-1.2070763264760043,1.6412453831448155
1687005882.759767,0.25161662697792053,0.9608061909675598,-0.11636318266391754,-0.07281413674354553,-0.17807620763778687,-0.02012675255537033,0.18408797681331635,0.3639843463897705,-1.7490949630737305,1.1376272822045608,-1.2898957295987883,1.6500299644791738
1687005882.81488,0.15417248010635376,0.980827271938324,-0.11919964849948883,-0.11057808995246887,-0.5504379868507385,0.03623753786087036,-1.0859428644180298,0.1979578286409378,-2.3900904655456543,0.9126382504081898,-1.3746621855969678,1.4037532630492613
1687005882.906042,0.018862878903746605,0.9979207515716553,-0.06163211911916733,-0.05465994030237198,-0.2201802134513855,-0.0018140152096748352,-0.01643327623605728,0.4926605820655823,-3.0411648750305176,0.2970034465409076,-1.506298452261742,0.7683488302504777
1687005882.998753,-0.141414076089859,0.9884205460548401,-0.05501405522227287,-0.16316653788089752,-0.3784201145172119,0.016943279653787613,-1.02202570438385,0.2881380617618561,-3.4242701530456543,-1.1997840869281637,-1.4184686714745753,-0.7539908635937794
1687005883.0180721,-0.31198975443840027,0.9500815868377686,-0.0026796371676027775,-0.17710015177726746,0.1178656816482544,0.036218345165252686,-0.6102784276008606,0.7143768668174744,-3.5862905979156494,-1.5622076751393,-1.2534973693100497,-1.149580118067211
1687005883.0839639,-0.4776249825954437,0.877262532711029,0.04779737815260887,-0.2298792004585266,0.051906049251556396,-0.032553914934396744,-2.844240427017212,0.7460675239562988,-3.6559054851531982,-1.6705372853407157,-1.0701291620229412,-1.3092030649513313
1687005883.087584,-0.6245629787445068,0.7716785073280334,0.12013807147741318,-0.2362767457962036,0.2959789037704468,0.004495613276958466,-1.6472961902618408,1.6458088159561157,-3.2627429962158203,-1.7608306432116219,-0.8814760181079385,-1.4920830128269138
1687005883.176567,-0.7551214694976807,0.640620768070221,0.13927188515663147,-0.3160455822944641,-0.03152036666870117,-0.02058909833431244,-3.17010235786438,1.6227649450302124,-3.4824154376983643,-1.753183090666786,-0.6953064168705504,-1.5966449947997208
1687005883.195291,-0.8572686314582825,0.493237167596817,0.14767426252365112,-0.4490821361541748,0.37831437587738037,0.1419985443353653,-3.491363525390625,2.692595958709717,-2.3498377799987793,-1.741383516172408,-0.5158071701125447,-1.7686857706646286
1687005883.298183,-0.910186231136322,0.3966728150844574,0.11921154707670212,-0.25424230098724365,0.18111646175384521,0.40884923934936523,-4.444789409637451,2.6629879474639893,-0.9552335739135742,-1.7010298989702382,-0.4078894525515248,-1.9824466150803768
1687005883.316611,-0.9311473965644836,0.3551425337791443,0.08269491046667099,-0.05984991788864136,0.08482939004898071,0.36203765869140625,-3.8829503059387207,2.059436321258545,-0.16496208310127258,-1.6593736278758053,-0.3630665388897027,-2.1978248178971067
1687005883.386859,-0.9387719631195068,0.338455468416214,0.0644589364528656,0.04013621807098389,0.08129850029945374,0.128503680229187,-2.415661573410034,1.0901342630386353,-0.0739956945180893,-1.639351766878135,-0.3452750236563003,-2.361768665640579
1687005883.390356,-0.9412032961845398,0.33241066336631775,0.06032790616154671,0.06562352180480957,0.025865674018859863,0.07617712020874023,-1.2394107580184937,0.3507693409919739,0.008646984584629536,-1.6348053376523162,-0.33885842712873904,-2.4504901177146157
1687005883.475009,-0.9434415698051453,0.32634907960891724,0.05842956155538559,-0.0039002299308776855,0.041586101055145264,0.022472500801086426,-0.16733384132385254,0.24563027918338776,-0.14763742685317993,-1.6326496843519802,-0.3324385973405629,-2.4880620688416055
1687005883.493228,-0.9449860453605652,0.32288989424705505,0.05237589403986931,0.012445271015167236,-0.009932160377502441,0.0757521390914917,-0.3224683105945587,0.1152629479765892,-0.0028022117912769318,-1.6261647221984834,-0.32878135324646585,-2.4952081973585543
1687005883.561944,-0.9460076093673706,0.3204493820667267,0.04880310967564583,0.027642130851745605,0.0741276741027832,-0.00674998015165329,0.5390276908874512,-0.028827648609876633,-0.08211167901754379,-1.6223391278280264,-0.3262038443482975,-2.4891457332508926
1687005883.578717,-0.9453089237213135,0.32225501537323,0.050424765795469284,0.010219871997833252,0.0019026696681976318,-0.013345956802368164,-0.359717458486557,0.0026667616330087185,0.05549251660704613,-1.624087923894489,-0.3281106256008381,-2.4929033103334315
1687005883.65413,-0.9451432824134827,0.32258856296539307,0.05138713866472244,2.9265880584716797e-05,0.061032652854919434,0.02669203281402588,0.37978506088256836,-0.06848876923322678,-0.024960510432720184,-1.6251125283916188,-0.32846297816404707,-2.493426817980997
1687005883.657834,-0.9441797137260437,0.32505080103874207,0.05353911593556404,0.00030165910720825195,-0.05066728591918945,0.011493798345327377,-0.06856172531843185,-0.08570637553930283,0.08740545064210892,-1.627440038749583,-0.3310654442364166,-2.480380786937483
1687005883.7774,-0.9435502290725708,0.3266780376434326,0.054719772189855576,-5.316734313964844e-05,0.016385287046432495,0.04588139057159424,0.0012761461548507214,0.004884109832346439,-0.007248359266668558,-1.62872493197332,-0.33278663755978555,-2.4843515369778943
1687005883.796589,-0.9436211585998535,0.3262174427509308,0.056225668638944626,-0.00401073694229126,-0.020904332399368286,0.041018493473529816,-0.05304248631000519,-0.03244435414671898,0.0230134055018425,-1.630310962082032,-0.3322993266636037,-2.4818840903070116
1687005883.863737,-0.9433023929595947,0.32662633061408997,0.059120435267686844,-0.004710555076599121,-0.014660447835922241,-0.006294623017311096,-0.11372821033000946,0.0006406286265701056,0.02349783480167389,-1.633388353396819,-0.3327319076560682,-2.486143573036602
1687005883.867309,-0.9432685971260071,0.32634326815605164,0.06119163706898689,0.0014809370040893555,0.030529290437698364,-0.008136868476867676,0.13520598411560059,-0.046333007514476776,-0.002918858081102371,-1.635577468734887,-0.33243243547224643,-2.488981607461304
1687005883.9571018,-0.943725049495697,0.3245927393436432,0.06342136859893799,0.00027430057525634766,-0.007316797971725464,-0.033468373119831085,-0.008556311018764973,-0.08827286958694458,-0.025915253907442093,-1.6378986618801208,-0.33058112058411676,-2.4850945493715906
1687005883.962076,-0.9433419108390808,0.3254264295101166,0.06483423709869385,0.0008371472358703613,0.018170952796936035,-0.004500985145568848,-0.018080705776810646,0.03432229161262512,-0.01392437145113945,-1.6394166681730993,-0.33146266643560646,-2.488737237658578
1687005884.012142,-0.9433198571205139,0.3255845904350281,0.06436168402433395,-0.01053762435913086,-0.005546748638153076,-0.007660023868083954,-0.08063896000385284,-0.03323478251695633,0.020584337413311005,-1.6389196562506758,-0.3316299546645286,-2.487040666566261
1687005884.1090589,-0.9430469274520874,0.3260916769504547,0.06577617675065994,0.0006489753723144531,0.04098895192146301,-0.007716543972492218,0.027208011597394943,0.025279661640524864,-0.018107663840055466,-1.6404321222825382,-0.33216630022304794,-2.4951489699332816
1687005884.128851,-0.9428178668022156,0.32660648226737976,0.06650371849536896,0.017173945903778076,0.0035174190998077393,0.005975492298603058,0.044239722192287445,-0.0733606219291687,0.013508585281670094,-1.6412168768694713,-0.33271093756373055,-2.4923316926617027
1687005884.165345,-0.942212700843811,0.32819586992263794,0.06725214421749115,0.0009132027626037598,-0.014292091131210327,0.011544235050678253,0.010830502957105637,-0.03653284162282944,0.037074897438287735,-1.6420523027619467,-0.3343930231777748,-2.487941201250453
1687005884.253838,-0.9412499666213989,0.33024725317955017,0.07060445845127106,-0.005939185619354248,0.02711355686187744,0.007795087993144989,0.10035059601068497,-0.07636800408363342,0.014104067347943783,-1.64566748911319,-0.33656550934541063,-2.490476326473781
1687005884.2582521,-0.9413729906082153,0.329773485660553,0.07117773592472076,-0.005190670490264893,-0.03030449151992798,0.01970350742340088,0.10962732136249542,-0.08224612474441528,-0.0023353593423962593,-1.6462632911688633,-0.3360636179126047,-2.4764547495601144
1687005884.31347,-0.940741777420044,0.3306896984577179,0.07515855133533478,0.005881786346435547,0.02090325951576233,-0.014276035130023956,-0.08273673057556152,-0.025615209713578224,0.011806824244558811,-1.6505198497522724,-0.337034290328707,-2.4841895332394315
1687005884.384217,-0.9410836100578308,0.3297787308692932,0.07488377392292023,-0.0023062825202941895,0.006814867258071899,-0.00043617933988571167,0.1956562101840973,-0.06899717450141907,-0.017161710187792778,-1.6502008782118913,-0.33606919166092775,-2.4759185198963696
1687005884.388586,-0.9406841993331909,0.3303297460079193,0.07742854207754135,-0.004826486110687256,0.011085599660873413,-0.004842527210712433,-0.10247994214296341,-0.02126387134194374,0.019907359033823013,-1.6529220654304833,-0.33665291818406207,-2.47850306947119
1687005884.432929,-0.9406939744949341,0.3302794396877289,0.07752667367458344,-0.00020873546600341797,0.018933206796646118,-0.009548775851726532,0.20924991369247437,-0.06544344872236252,-0.008988468907773495,-1.653024835339165,-0.33659960741301015,-2.472931745712821
1687005884.495549,-0.9403982162475586,0.33084484934806824,0.07869413495063782,-0.01873868703842163,-0.000720977783203125,-0.01266944408416748,-0.0774490237236023,0.014046182855963707,0.01120202150195837,-1.6542835291542648,-0.33719870141814245,-2.4718741107043387
1687005884.589108,-0.9406833052635193,0.3309483230113983,0.07475090026855469,0.012033641338348389,0.01971381902694702,-0.004621520638465881,0.2804318964481354,0.009352095425128937,-0.027202360332012177,-1.650094163026221,-0.3373083583915417,-2.466447944519515
1687005884.678317,-0.9409437775611877,0.33114373683929443,0.07048813253641129,0.008112967014312744,0.0028864145278930664,0.020591504871845245,0.3511959910392761,-0.07888202369213104,-0.007559149991720915,-1.6455688243277589,-0.3375154314358353,-2.4481128220010073
1687005884.697362,-0.9408730268478394,0.3317373991012573,0.06861528754234314,-0.024840354919433594,-0.050151705741882324,0.022266030311584473,0.14145782589912415,-0.007690671365708113,-0.03500409051775932,-1.643594703707248,-0.338144671516759,-2.4312896461903613
1687005884.765318,-0.9411766529083252,0.33120372891426086,0.06701183319091797,0.005660295486450195,0.041492193937301636,0.03168202191591263,0.4673786759376526,-0.08364561945199966,-0.04469107463955879,-1.641876438999148,-0.33757901922334466,-2.4223259049994113
1687005884.7691832,-0.9414010643959045,0.3312399685382843,0.06359244883060455,0.029200255870819092,0.04668968915939331,0.06421506404876709,0.8041773438453674,-0.22504189610481262,-0.03858470916748047,-1.6382447130513622,-0.3376174330194307,-2.3864199309542955
1687005884.856874,-0.940193772315979,0.3351803123950958,0.06074206158518791,0.00823289155960083,0.1321505904197693,0.22345280647277832,1.8381150960922241,-0.6267826557159424,0.09497442096471786,-1.6353125586970243,-0.3417965951224545,-2.317550406323635
1687005884.8621101,-0.9318917989730835,0.3556221127510071,0.07148614525794983,0.03655201196670532,0.23892131447792053,0.3418896198272705,2.633671998977661,-1.5661768913269043,0.5180401802062988,-1.6473571670380762,-0.36357961540916994,-2.1974202113657952
1687005884.912088,-0.9067060351371765,0.4077933728694916,0.10764995217323303,-0.051362693309783936,0.40815508365631104,0.4606635570526123,3.2744357585906982,-2.4056553840637207,1.2658579349517822,-1.68896955196626,-0.420036052540312,-2.0409234147416915
1687005885.0041409,-0.8461169004440308,0.5136393904685974,0.14233970642089844,-0.5274181962013245,0.3587055206298828,0.270898699760437,2.9489309787750244,-2.3669724464416504,2.8831024169921875,-1.737462779081713,-0.539421134570045,-1.8872533246738603
1687005885.0078459,-0.7110121250152588,0.6814804673194885,0.1733381450176239,-0.8957535624504089,0.3472975492477417,0.2387254238128662,2.7351784706115723,-2.933877468109131,4.7102885246276855,-1.8099224697010527,-0.7497837126709127,-1.775583704980082
1687005885.069851,-0.48061349987983704,0.8666887879371643,0.13364537060260773,-0.9881058931350708,-0.03809088468551636,0.10257589817047119,2.6705193519592285,-2.466341495513916,5.672850608825684,-1.842016709411931,-1.0485258700554083,-1.6434122866885847
1687005885.1580849,-0.20647524297237396,0.9731104373931885,0.10209732502698898,-0.7762822508811951,-0.17887532711029053,0.14233314990997314,1.275038719177246,-2.5234994888305664,5.4410014152526855,-2.030016043480385,-1.338370265929848,-1.7052567797246843
1687005885.1647758,0.06564608961343765,0.9978097081184387,0.008140163496136665,-0.5706356763839722,-0.33686012029647827,0.1051715612411499,1.722298264503479,-1.9513367414474487,5.128142833709717,1.6941673097054053,-1.5045987096476556,2.1269792419509295
1687005885.2163792,0.28494250774383545,0.9568637609481812,-0.056740906089544296,-0.28102096915245056,-0.6341251134872437,0.017968229949474335,1.4511871337890625,-1.7967928647994995,3.8840126991271973,1.3742364301686583,-1.2760083114630254,1.8988260080105586
1687005885.30582,0.43113550543785095,0.8834217190742493,-0.18354307115077972,-0.23548734188079834,-0.8524618148803711,0.15839649736881256,1.4809621572494507,-1.1444205045700073,2.9219226837158203,1.1683158564073983,-1.0831150697817713,1.7558431765077513
1687005885.312199,0.5168116092681885,0.8345835208892822,-0.1907251924276352,-0.1283075213432312,-0.6083719730377197,-0.022669106721878052,-0.9541668891906738,-0.8159105181694031,1.4464375972747803,1.2172593259955817,-0.987376351488012,1.8702621867855096
1687005885.365868,0.5472933650016785,0.8161666393280029,-0.18531586229801178,-0.19371670484542847,-0.3876694440841675,-0.02122718095779419,-0.6566200256347656,-0.39883553981781006,0.43947720527648926,1.2443094560652834,-0.954745414594134,1.9391764477110676
1687005885.457264,0.5527514219284058,0.8169723153114319,-0.16438382863998413,-0.09285157918930054,-0.01579439640045166,-0.06797707080841064,-0.4286057651042938,-0.04997128248214722,-0.0332152433693409,1.2817339570813395,-0.9561410435904282,1.9997836861604377
1687005885.463809,0.5449275374412537,0.8251561522483826,-0.14889967441558838,-0.06453514099121094,0.018242716789245605,-0.0584673136472702,-0.4611940383911133,-0.001741569023579359,-0.1693589687347412,1.304060809627422,-0.9704785553872578,2.028354275636376
1687005885.516387,0.5409981608390808,0.8292450904846191,-0.14026141166687012,-0.003614187240600586,0.08098727464675903,-0.04682670533657074,0.06951385736465454,0.12264735996723175,-0.06944248825311661,1.317117678024732,-0.9777555422621349,2.0415177025248363
1687005885.610709,0.539910078048706,0.8321913480758667,-0.12631143629550934,0.04057997465133667,-0.014671266078948975,-0.04000943899154663,-0.46480438113212585,0.0982607901096344,-0.037430763244628906,1.340980570906766,-0.9830480261550448,2.0621428095425207
1687005885.62939,0.5392842888832092,0.8333495855331421,-0.12124611437320709,0.051551222801208496,-0.03098165988922119,-0.015915200114250183,0.1445022076368332,0.08215745538473129,-0.04435977712273598,1.3496457730958975,-0.9851401444832881,2.067990610960713
1687005885.6637812,0.5372081398963928,0.8364858031272888,-0.10816087573766708,0.1078265905380249,-0.12002474069595337,-0.047188930213451385,-0.532921314239502,0.033713363111019135,-0.10898217558860779,1.3721137217689983,-0.9908385353166372,2.0906408532503553
1687005885.755906,0.5336818695068359,0.8385077714920044,-0.10994609445333481,0.10834687948226929,-0.07630091905593872,-0.02945827692747116,0.4096568524837494,-0.008164847269654274,-0.08310024440288544,1.3676245349679563,-0.9945388732158045,2.085318214189367
1687005885.760314,0.5267816781997681,0.8432542085647583,-0.106879323720932,0.12266284227371216,-0.13437682390213013,-0.02668093889951706,-0.41518667340278625,-0.10353810340166092,-0.1763678789138794,1.370622397305469,-1.0033089364321182,2.092164266610142
1687005885.817843,0.5189626216888428,0.8485122919082642,-0.10346187651157379,0.21771639585494995,-0.036348164081573486,-0.10993235558271408,-0.26687294244766235,-0.12421035766601562,-0.2251756191253662,1.374013471672473,-1.0131675287548707,2.1024467637648363
1687005885.908598,0.5116903781890869,0.8544861674308777,-0.08959076553583145,0.25480443239212036,0.08719474077224731,-0.1373838186264038,0.1978551149368286,-0.11100494116544724,-0.04075012728571892,1.3974654244887263,-1.0245608559781427,2.1367202099184412
1687005885.9148412,0.5108663439750671,0.8519285321235657,-0.11503563076257706,0.34426671266555786,-0.11346429586410522,-0.1197361946105957,-0.6339017748832703,-0.1163666844367981,0.01439115684479475,1.3493129115878975,-1.019657184037542,2.0873223451446634
1687005885.966835,0.5090650916099548,0.8546515703201294,-0.10209300369024277,0.2889847755432129,0.3177114725112915,-0.2100561112165451,2.038630962371826,0.1544705331325531,-0.13260307908058167,1.3728719845116744,-1.0248794098945286,2.115873911188733
1687005886.058198,0.49632173776626587,0.8604516386985779,-0.11527221649885178,0.14259427785873413,-0.40458017587661743,0.06124073266983032,-3.1097793579101562,0.0644860565662384,-0.5161417126655579,1.342589169459316,-1.0361554334651906,2.073986640401951
1687005886.0646029,0.4641868472099304,0.881950318813324,-0.0818171352148056,0.11972123384475708,0.460838258266449,-0.30687010288238525,3.967777967453003,0.8284155130386353,-0.9409076571464539,1.396329284516463,-1.079984141160246,2.1105191884014856
1687005886.115098,0.4063393771648407,0.9031757712364197,-0.13842535018920898,-0.14623808860778809,-0.7013021111488342,0.3445562720298767,-1.9704763889312744,0.5271003246307373,-1.8931174278259277,1.2424624062705103,-1.1271108985334666,1.9032985520615757
1687005886.207817,0.3128814995288849,0.93775475025177,-0.1507343053817749,-0.3557129204273224,0.41945332288742065,-0.23928038775920868,3.5357248783111572,1.235607624053955,-2.230414390563965,1.121845562505544,-1.2161079509046415,1.7345485565046341
1687005886.214789,0.17945325374603271,0.9680747389793396,-0.17500749230384827,-0.8724921941757202,-0.21053701639175415,0.2288099080324173,-0.7278674244880676,1.2353854179382324,-3.5822842121124268,0.7979398471232643,-1.3174325109382787,1.3361264926422642
1687005886.269505,0.06058548763394356,0.9673483967781067,-0.246101975440979,-0.5657276511192322,-0.12587213516235352,0.3219991624355316,1.1446571350097656,1.4181618690490723,-2.0306460857391357,0.24138055348096896,-1.314550834594156,0.6900347228522998
1687005886.359185,0.03244811296463013,0.9793654680252075,-0.19947445392608643,0.12992070615291595,0.14783155918121338,0.14388665556907654,-1.094559669494629,0.5928833484649658,0.12172320485115051,0.16125557982410949,-1.3672976058276838,0.544331034628445
1687005886.3653421,0.04331402853131294,0.9787067770957947,-0.20064125955104828,-0.08149147033691406,-0.21822398900985718,0.00903657078742981,0.3818989098072052,-0.23489026725292206,0.11183915287256241,0.21261518665677073,-1.364063643760302,0.5982927523556675
1687005886.415007,0.04320424422621727,0.9792274832725525,-0.19810818135738373,-0.04442489892244339,-0.13848358392715454,0.03010880947113037,-0.6492680311203003,0.33443978428840637,-0.09945018589496613,0.21472212301171578,-1.3666157846018867,0.595295163900624
1687005886.505111,0.040171075612306595,0.9840619564056396,-0.1732291728258133,0.042546872049570084,0.13629931211471558,-0.041599392890930176,0.2239290028810501,-0.12147289514541626,-0.015426394529640675,0.22786796599160297,-1.3920195177612835,0.6012134924634078
1687005886.511553,0.040307413786649704,0.9820373058319092,-0.18433032929897308,-0.006509155035018921,-0.04447650909423828,0.025455787777900696,-0.131416454911232,0.04700719565153122,0.03047771379351616,0.21528084312607548,-1.3809715719234865,0.5920514438251137
1687005886.566778,0.0409969761967659,0.9833571314811707,-0.17699679732322693,0.029529191553592682,0.0919448733329773,0.010065555572509766,0.11769170314073563,-0.06292050331830978,-0.03051825985312462,0.227611687885054,-1.3880986845551113,0.6033213331585523
1687005886.658482,0.04024548456072807,0.9803498983383179,-0.1931166797876358,0.02039298787713051,0.005413472652435303,-0.02545025944709778,0.19930461049079895,-0.09824773669242859,0.08936287462711334,0.20545912581108475,-1.3722275159516673,0.58634694572854
1687005886.664535,0.04523216560482979,0.9811285138130188,-0.18799147009849548,-0.013142887502908707,0.035839200019836426,-0.00904536247253418,-0.07162788510322571,0.09080993384122849,0.0475136898458004,0.2361193659328346,-1.3762138869287794,0.61630382572102
1687005886.717517,0.04629362374544144,0.9818261861801147,-0.18404950201511383,-0.012068111449480057,-0.006377696990966797,0.006742298603057861,-0.12580862641334534,-0.05684277042746544,0.044839076697826385,0.24641637060299545,-1.3798559840346338,0.626056593261908
1687005886.8074899,0.050502315163612366,0.9815645813941956,-0.18433821201324463,-0.026088200509548187,-0.026196539402008057,0.00559668242931366,0.13467295467853546,-0.08623940497636795,0.12457679212093353,0.26740420427392037,-1.3784823622641766,0.6508120636217894
1687005886.814268,0.054409585893154144,0.9806632995605469,-0.18798686563968658,-0.017818965017795563,-0.055568814277648926,-0.013703882694244385,-0.0874786227941513,-0.30961498618125916,0.2153943032026291,0.28173424319045615,-1.373822510211529,0.6755143515643962
1687005886.867752,0.06875826418399811,0.9802364706993103,-0.1854950189590454,-0.14273282885551453,0.05420243740081787,0.05024106800556183,0.251176118850708,-0.6559258103370667,0.6087636947631836,0.35497305114845207,-1.3716534298550986,0.7723840968333786
1687005886.957172,0.1013651117682457,0.9622085094451904,-0.25274500250816345,-0.327301949262619,-0.12137287855148315,0.0411359965801239,1.933205008506775,-1.280597448348999,1.2240239381790161,0.38141711379096144,-1.294999424992924,0.8507310086018494
1687005886.963612,0.159542053937912,0.9471589922904968,-0.27827319502830505,-0.4965934157371521,-0.18013036251068115,0.2873063385486603,-1.6263352632522583,-0.8234105706214905,1.8710216283798218,0.5205774379663112,-1.244259922208558,1.0591016417438466
1687005887.012061,0.24096259474754333,0.9490732550621033,-0.20296993851661682,-0.24369390308856964,0.08496898412704468,-0.15237683057785034,-0.8524260520935059,-1.037458062171936,1.7700257301330566,0.8707721820839437,-1.2502812118063122,1.4712569030129439
1687005887.139288,0.31018558144569397,0.9273391366004944,-0.2093486338853836,-0.43784061074256897,-0.07547158002853394,0.08920086920261383,-0.44844508171081543,-0.7185782790184021,1.7005265951156616,0.9771056253199166,-1.187238590634253,1.635379408160541
1687005887.145932,0.37173688411712646,0.9093493223190308,-0.18680350482463837,-0.12283548712730408,0.05012333393096924,-0.10111470520496368,-0.22808659076690674,-0.6507693529129028,1.2650253772735596,1.1051384296428604,-1.1417173144414574,1.811472825617657
1687005887.2283258,0.4261041283607483,0.8841545581817627,-0.1915874481201172,-0.3254876732826233,0.041184067726135254,0.09879863262176514,-0.8509437441825867,-0.18459102511405945,1.353211760520935,1.148253553371079,-1.0846813287186494,1.8807891194406716
1687005887.247802,0.46550676226615906,0.8659585118293762,-0.18280911445617676,0.19298627972602844,0.08037620782852173,0.002175450325012207,0.9049586653709412,-0.04751265048980713,0.4682939350605011,1.1965902722195203,-1.0470637684808672,1.9431055198485885
1687005887.316018,0.4771905243396759,0.8597928881645203,-0.1817833036184311,0.1367926001548767,-0.1687377691268921,0.019994273781776428,-1.3871843814849854,0.3359425961971283,-0.053609732538461685,1.2068238943220244,-1.0348639619067084,1.9445872678190483
1687005887.333308,0.45928433537483215,0.8760033845901489,-0.1472281962633133,0.4501853287220001,0.08794015645980835,-0.13254179060459137,0.6770443320274353,0.3526897430419922,-0.6836870312690735,1.2605854586718066,-1.0675122450180952,1.9878301607079705
1687005887.4041371,0.43390610814094543,0.8922814726829529,-0.1247364729642868,0.43125197291374207,-0.18006235361099243,-0.15277522802352905,-1.3957581520080566,0.49832937121391296,-0.6723268032073975,1.2908710578229532,-1.1023735479928727,1.9970640187534483
1687005887.4077601,0.41043001413345337,0.9067413806915283,-0.09678368270397186,0.36311429738998413,0.06463295221328735,-0.1186705157160759,0.7751930952072144,0.5207909941673279,-0.4166925847530365,1.3392164675765017,-1.1354911486480226,2.0216845853452527
1687005887.465188,0.4031887352466583,0.9116075038909912,-0.08006618916988373,0.32464030385017395,-0.11018538475036621,-0.09304488450288773,-1.0687053203582764,0.20334261655807495,-0.05322783440351486,1.3747642203567487,-1.147177877183991,2.0391359518276992
1687005887.553554,0.40177667140960693,0.9123845100402832,-0.0782933309674263,0.12575015425682068,-0.009689927101135254,-0.08688317984342575,1.0490238666534424,0.04701904579997063,-0.012378406710922718,1.378340435567405,-1.149072036603848,2.0388486259348984
1687005887.557778,0.40475159883499146,0.9108757972717285,-0.08050494641065598,0.06709590554237366,-0.05925250053405762,-0.10203604400157928,-0.7094218134880066,-0.05002441257238388,0.07531842589378357,1.374459022771288,-1.145401287552311,2.0336434249270563
1687005887.616517,0.4033881723880768,0.9108204245567322,-0.08765998482704163,-0.03746709227561951,0.0021739602088928223,0.003141455352306366,0.5767484307289124,0.0165113378316164,-0.019433386623859406,1.3568139934677657,-1.1452671540266677,2.0165926187592604
1687005887.707501,0.40538543462753296,0.910542368888855,-0.08108653128147125,-0.0033774077892303467,0.04716008901596069,-0.03555171936750412,-0.28557127714157104,-0.017053013667464256,0.038218989968299866,1.373378363286188,-1.1445941589277189,2.0337188467320946
1687005887.713513,0.4041551947593689,0.9103509187698364,-0.08899354934692383,-0.030711591243743896,-0.0689508318901062,0.06341969966888428,0.10558770596981049,0.10279429703950882,-0.017544139176607132,1.3540586174024376,-1.1441311960929805,2.0100565166475324
1687005887.7678962,0.40344998240470886,0.9117569327354431,-0.07698889076709747,-0.017417877912521362,0.007325589656829834,0.021355271339416504,-0.09797348082065582,0.06450562924146652,-0.06574974954128265,1.3822369279814926,-1.1475415119961836,2.036734847734103
1687005887.858165,0.39737221598625183,0.914013683795929,-0.08169694989919662,-0.028719812631607056,-0.11686402559280396,0.05784737318754196,-0.12430781126022339,0.17829038202762604,-0.1596277803182602,1.3680287078105637,-1.1530699359092182,2.0157943672605594
1687005887.864914,0.38625338673591614,0.9208557605743408,-0.05322226509451866,-0.04763039946556091,-0.08343839645385742,-0.014328472316265106,-0.5927600860595703,0.21435651183128357,-0.3772250711917877,1.4338675169492345,-1.1702696820706917,2.0768482063696023
1687005887.9135718,0.36092421412467957,0.9316204190254211,-0.04262751713395119,-0.052422016859054565,-0.21403014659881592,-0.007863938808441162,-0.13768985867500305,0.2863679826259613,-0.7464305758476257,1.453234383038205,-1.1988462633338437,2.085110391071763
1687005888.008222,0.316087007522583,0.9485824704170227,-0.016733817756175995,-0.05952572822570801,-0.15648365020751953,-0.05563873052597046,-0.20540772378444672,0.4234340786933899,-1.1913132667541504,1.5179051634696128,-1.248727168692543,2.1347335013462696
1687005888.014031,0.24749509990215302,0.9685217142105103,-0.026682130992412567,-0.04392756521701813,-0.39430302381515503,-0.04213511943817139,0.04251885786652565,0.54782634973526,-1.714129090309143,1.4634023935564735,-1.3192219356988184,2.0535669668374346
1687005888.10437,0.14761392772197723,0.988793134689331,0.022310102358460426,-0.10690347850322723,-0.09235483407974243,-0.08381843566894531,-0.6683081388473511,0.8385021686553955,-2.3207924365997314,1.720799227058338,-1.4209441753352507,2.2790776728621758
1687005888.109194,0.02963494136929512,0.9988502860069275,0.037679556757211685,-0.05008167028427124,-0.40035492181777954,0.05033302307128906,-0.7881982922554016,0.8477938771247864,-2.3318076133728027,2.475138301345669,-1.5228398208972658,2.9959855427533193
1687005888.15167,-0.10834792256355286,0.986993670463562,0.11876067519187927,-0.07353676855564117,-0.1410769820213318,-0.12460494041442871,-1.0918056964874268,1.0371249914169312,-3.05861496925354,-2.402011613642387,-1.409336684696202,-1.9250202153615263
1687005888.219499,-0.2589573860168457,0.9611047506332397,0.09601246565580368,-0.13020265102386475,-0.20304828882217407,0.11696957051753998,-0.7204205989837646,1.1744705438613892,-2.9275639057159424,-1.9258493868225113,-1.2909747570972094,-1.4973426883997054
1687005888.308998,-0.4182145297527313,0.8924098014831543,0.16941425204277039,0.015641987323760986,0.0019077658653259277,-0.028530001640319824,-0.6882057785987854,1.1808421611785889,-3.3353519439697266,-1.9556823660173646,-1.1026578311565933,-1.5902097482504622
1687005888.315318,-0.5631843209266663,0.8169352412223816,0.12425756454467773,-0.12303382158279419,-0.09717828035354614,0.05115734785795212,-1.2966020107269287,0.9721823334693909,-3.4239306449890137,-1.7879512138232363,-0.9560768205829515,-1.469832428368536
1687005888.4581242,-0.7097832560539246,0.6910473704338074,0.1366044282913208,-0.2510930299758911,0.24102038145065308,-0.045173898339271545,0.5438697338104248,1.6660103797912598,-3.5564558506011963,-1.7609308671005763,-0.7629371029386092,-1.5052106150380555
1687005888.4643779,-0.8367108106613159,0.5442901253700256,0.06052320450544357,-0.36436933279037476,0.00046390295028686523,-0.08873677253723145,-0.6050766706466675,1.404926061630249,-4.255654811859131,-1.643005234628397,-0.5755426821711751,-1.44752518484072
1687005888.517044,-0.9279841184616089,0.3711340129375458,-0.03324206918478012,-0.6987553238868713,0.6470544338226318,0.10115885734558105,1.131262183189392,2.1924593448638916,-3.271001100540161,-1.5349898274876876,-0.38022995438240204,-1.4163861542175924
1687005888.532862,-0.9574184417724609,0.2715114951133728,-0.09813810884952545,-0.10700398683547974,0.4395633339881897,0.3332454562187195,-2.210559368133545,1.1461694240570068,-0.9915332794189453,-1.4686502323340462,-0.27496318401890196,-1.4769335598640188
1687005888.535495,-0.9577568769454956,0.27224093675613403,-0.09266424924135208,0.09198850393295288,0.18897122144699097,-0.04025512933731079,-0.7679398655891418,-0.3729718327522278,0.20410169661045074,-1.4743452015766436,-0.27572117538899366,-1.561563418790753
1687005888.5744019,-0.9560415148735046,0.2836117744445801,-0.07449007779359818,-0.027219414710998535,-0.03254362940788269,0.0139889195561409,-0.2063595950603485,-0.04358062893152237,0.1654251515865326,-1.4930383154201716,-0.2875584348433008,-1.5697403115399229
1687005888.633717,-0.9547226428985596,0.28863489627838135,-0.07207334041595459,0.01116490364074707,0.04008522629737854,0.06256704777479172,-0.5897421836853027,0.12186412513256073,0.040019817650318146,-1.4954478564251077,-0.29280073986033767,-1.5971749823576666
1687005888.696257,-0.9537879824638367,0.2918774485588074,-0.07138421386480331,-0.004433274269104004,0.06411010026931763,0.025409407913684845,0.3502013683319092,-0.05857396125793457,0.028574619442224503,-1.4960927524919412,-0.2961891727845607,-1.6023958366517477
1687005888.820416,-0.9534916877746582,0.2927732467651367,-0.07167553156614304,-0.009414136409759521,-0.05133339762687683,0.030705630779266357,-0.3296557068824768,0.1800985336303711,0.0863974392414093,-1.4957658010269361,-0.2971258885356431,-1.595753849938675
1687005888.824748,-0.9462294578552246,0.3058099150657654,-0.10549858957529068,-0.01544034481048584,0.02225404977798462,0.018050432205200195,-1.1914455890655518,1.3725030422210693,0.27691200375556946,-1.4597612333681484,-0.3107889772098062,-1.6367931475444695
1687005888.911119,-0.9422040581703186,0.3150961697101593,-0.11386732012033463,-0.011439621448516846,-0.03761515021324158,-0.03534840792417526,-2.658827304840088,0.7020766139030457,-0.4153716564178467,-1.450527500094575,-0.3205579979652479,-1.749295323683611
1687005888.9329839,-0.9463382959365845,0.31390613317489624,-0.07685467600822449,0.05858206748962402,0.0035071969032287598,-0.0914803147315979,-2.403057098388672,-0.33468249440193176,-0.20625945925712585,-1.4897614856068053,-0.3193043340698584,-1.8883256601336535
1687005888.962421,-0.9473370909690857,0.31932100653648376,-0.0242177601903677,-0.06261157989501953,0.11030542850494385,0.12704670429229736,-1.689483642578125,-0.06696704030036926,0.12073810398578644,-1.5452378553524488,-0.32501290051124626,-2.0077310965176145
1687005889.057272,-0.9448988437652588,0.3271096646785736,-0.012859863229095936,0.03755033016204834,-0.06452116370201111,0.011288166046142578,-1.1829181909561157,0.23371729254722595,0.12513285875320435,-1.5571873892755084,-0.33324335508248154,-2.074253965520197
1687005889.060924,-0.9429566860198975,0.3328397274017334,-0.007090199273079634,0.014184832572937012,0.012253016233444214,0.04661041498184204,-1.080927848815918,0.28894418478012085,0.0888611301779747,-1.5632773544088132,-0.3393134062414882,-2.13513097536444
1687005889.114452,-0.9412890076637268,0.33755579590797424,-0.00556422583758831,0.011754214763641357,-0.014038950204849243,0.01211017370223999,-0.8693979382514954,0.22510609030723572,0.12496693432331085,-1.5648851124114618,-0.34431906723253936,-2.17887653498038
1687005889.206697,-0.9392508864402771,0.34322693943977356,-0.001680597080849111,0.0013543367385864258,0.03859373927116394,0.0021383166313171387,-0.5597329139709473,0.1899515688419342,0.07877600938081741,-1.5690070335752915,-0.3503503913876418,-2.222810519689139
1687005889.211739,-0.9373941421508789,0.3482690453529358,-0.0007110264268703759,0.0003521442413330078,-0.026156067848205566,0.03434133529663086,-0.8758550882339478,0.1835397481918335,0.1431158483028412,-1.57003781307215,-0.35572392357805044,-2.252909742479479
1687005889.292224,-0.9356778860092163,0.35282209515571594,0.004824154078960419,0.01366567611694336,0.03127211332321167,-0.023973941802978516,-0.5118463635444641,0.1241813451051712,0.06353500485420227,-1.5759520662331157,-0.36058544662032627,-2.296374747611562
1687005889.296993,-0.934587836265564,0.35564202070236206,0.008004210889339447,6.341934204101562e-05,-0.004903584718704224,0.03899276256561279,-0.5050350427627563,0.09323114901781082,0.06691855192184448,-1.5793605458658835,-0.36360091780965076,-2.316921851553248
1687005889.3528528,-0.9341972470283508,0.3565736413002014,0.011429362930357456,0.01194089651107788,0.044030576944351196,-0.07499754428863525,0.12420879304409027,-0.05418973043560982,-0.030491631478071213,-1.583030137988415,-0.36459789913379775,-2.331231454618897
1687005889.454731,-0.933874785900116,0.3573538064956665,0.013274131342768669,-0.004052519798278809,0.020804792642593384,0.013901712372899055,0.06016409769654274,-0.03077029064297676,0.009316769428551197,-1.5850094070113234,-0.36543308414750825,-2.328630241191946
1687005889.460679,-0.9335571527481079,0.35820889472961426,0.012534251436591148,-0.014013469219207764,-0.012093812227249146,-0.003668905235826969,0.0012790090404450893,0.0030059150885790586,0.028817765414714813,-1.5842218550526752,-0.36634877561614243,-2.3253582209372197
1687005889.501498,-0.9332481622695923,0.3590104281902313,0.012616517022252083,0.009099721908569336,0.0196363627910614,-0.011746765114367008,0.1844727247953415,-0.03944313898682594,-0.022208666428923607,-1.5843144335941612,-0.3672074229596222,-2.32287253775516
1687005889.56531,-0.9329150915145874,0.3599011301994324,0.011840153485536575,-0.0038523077964782715,-0.01831793785095215,0.01344358827918768,-0.02767241559922695,-0.003945601172745228,0.03762643784284592,-1.5834872117727106,-0.36816190547073924,-2.3146914160618897
1687005889.6585941,-0.9321556091308594,0.3618648052215576,0.011829162947833538,-0.0018349289894104004,0.01092270016670227,-0.027393219992518425,0.12082604318857193,-0.01792999356985092,-0.006194013636559248,-1.5834857617987017,-0.3702674768058082,-2.315989340059385
1687005889.664729,-0.9324167370796204,0.36121219396591187,0.011164047755300999,-0.0028706789016723633,-0.005117863416671753,0.018071770668029785,0.014839425683021545,0.014954719692468643,0.02940445765852928,-1.5827689937336813,-0.3695675197705856,-2.311228897303526
1687005889.74951,-0.9321396350860596,0.36196956038475037,0.009676964953541756,-0.012180924415588379,-0.013687700033187866,-0.02550041675567627,0.07732649892568588,-0.009068058803677559,-0.009686749428510666,-1.581177408024953,-0.3703798761236522,-2.3096047286867627
1687005889.7696152,-0.9323054552078247,0.3615313768386841,0.010065635666251183,-0.0004183650016784668,0.0013530850410461426,0.023610472679138184,-0.017526837065815926,0.02789302170276642,0.0043363915756344795,-1.5815924069037102,-0.3699098537154411,-2.3091962717485166
1687005889.7990952,-0.932525098323822,0.3610013425350189,0.00867196824401617,-0.002625107765197754,0.009115874767303467,0.003153563477098942,0.08387095481157303,-0.03302239626646042,-0.016725484281778336,-1.580095506259954,-0.36934142462305825,-2.3070076601292535
1687005889.8984709,-0.9324634671211243,0.36111685633659363,0.010316768661141396,0.0027301907539367676,0.007108241319656372,0.023679733276367188,0.04391315579414368,-0.023503456264734268,0.012433200143277645,-1.5818598674114712,-0.36946527627536707,-2.3055465920355713
1687005889.9161758,-0.9322781562805176,0.361535906791687,0.012200726196169853,0.01240229606628418,0.021917402744293213,0.007498262450098991,0.21182399988174438,-0.11311003565788269,-0.008735468611121178,-1.5838825821548885,-0.3699147035876284,-2.301369744410712
1687005889.952549,-0.9316321015357971,0.36312422156333923,0.014219456352293491,-0.00197678804397583,0.02647840976715088,0.10489058494567871,0.8069005608558655,-0.41714078187942505,0.08929815888404846,-1.5860580936626052,-0.37161882420744774,-2.271411633221203
1687005890.044852,-0.9273437857627869,0.37293028831481934,0.030926533043384552,0.020605623722076416,0.07583069801330566,0.12169182300567627,1.2088435888290405,-1.1866599321365356,0.24198278784751892,-1.6041335598668638,-0.38216513831813725,-2.2241349449307624
1687005890.0629969,-0.9158356785774231,0.39726507663726807,0.0585237517952919,-0.012783467769622803,0.24368032813072205,0.3386472463607788,3.907457113265991,-2.3276877403259277,0.669489860534668,-1.634611580673912,-0.4085347333769739,-2.075651345197811
1687005890.1033812,-0.8805472254753113,0.46222200989723206,0.10481972992420197,-0.25644606351852417,0.19576746225357056,0.44550371170043945,2.583291530609131,-2.6854560375213623,1.671072006225586,-1.6892780909742522,-0.48049932314926647,-1.8907211428878388
1687005890.165827,-0.8073118329048157,0.5680058598518372,0.1600523293018341,-0.2691345810890198,0.13846081495285034,0.10264289379119873,1.1945513486862183,-2.197571277618408,2.8813674449920654,-1.7665119073393243,-0.6040809033965712,-1.8114961743196527
1687005890.256516,-0.6908911466598511,0.6949259042739868,0.1993677169084549,-0.19419485330581665,0.22012841701507568,0.05498102307319641,0.9257667064666748,-1.8874889612197876,3.17277455329895,-1.851730507796022,-0.7683168830859123,-1.7890168873926067
1687005890.2608871,-0.5454874634742737,0.8066129684448242,0.22763676941394806,-0.2536609172821045,0.21070557832717896,0.058511242270469666,1.5733590126037598,-2.3675944805145264,3.474391460418701,-1.9661345556880458,-0.9383993038711193,-1.8029209186765542
1687005890.3126411,-0.36079540848731995,0.9160231351852417,0.17529484629631042,-0.30660873651504517,0.13158434629440308,0.21830548346042633,2.2048141956329346,-2.0737531185150146,3.908609628677368,-2.0230653555929914,-1.1580511805314742,-1.7393713646606177
1687005890.405034,-0.15834422409534454,0.9805794954299927,0.1157173216342926,-0.3478202521800995,-0.001652061939239502,0.18048620223999023,1.9814924001693726,-1.9756470918655396,4.001738548278809,-2.2018931533990482,-1.3733946851890528,-1.8164131675352038
1687005890.410754,0.046324167400598526,0.9986302256584167,0.024321632459759712,-0.42436063289642334,-0.0846441388130188,0.17808616161346436,1.3802423477172852,-1.4906418323516846,3.926628351211548,2.0542677605298487,-1.518449534025469,2.522237890291462
1687005890.498279,0.22713124752044678,0.9737459421157837,-0.01516980305314064,-0.4368327260017395,-0.021963834762573242,0.06213623285293579,0.5172824263572693,-1.516215443611145,3.385854721069336,1.504106657794737,-1.3411454637581486,2.0459524797386885
1687005890.518042,0.3844209313392639,0.9211682677268982,-0.06057790666818619,-0.5682587623596191,-0.1896161437034607,0.00958292931318283,0.14472785592079163,-1.3252052068710327,3.280015230178833,1.414499369154099,-1.1710718297679679,2.0236563388303
1687005890.553279,0.5055367946624756,0.8557917475700378,-0.10978421568870544,-0.48104649782180786,-0.4189329147338867,-0.06970499455928802,0.7943254113197327,-0.8973770141601562,2.2611618041992188,1.3569530271012984,-1.027079436664217,2.020982408454132
1687005890.645237,0.5656367540359497,0.8157445788383484,-0.12089550495147705,-0.2686549425125122,-0.6171362996101379,-0.0196990966796875,-0.9422134757041931,-0.5122929811477661,0.9000314474105835,1.3602310630344747,-0.9540153292828741,2.067939504584937
1687005890.66371,0.581730306148529,0.8043180704116821,-0.12108670175075531,-0.013447284698486328,-0.36079102754592896,-0.08252667635679245,0.018805405125021935,-0.24716344475746155,0.061209794133901596,1.3655774018782119,-0.9345269425480071,2.0968093276594604
1687005890.7042289,0.5754114389419556,0.811154842376709,-0.10454487055540085,0.1260504126548767,-0.1782812476158142,-0.1075676828622818,-0.6319694519042969,-0.06370267271995544,-0.2200716733932495,1.3910696530210287,-0.9461240311781237,2.1391236180203395
1687005890.791681,0.5707283616065979,0.8156502842903137,-0.09478041529655457,0.17856967449188232,-0.05332142114639282,-0.1201244443655014,-0.15824294090270996,0.08293363451957703,-0.036825694143772125,1.4062289922682338,-0.9538522946573535,2.1554831374762418
1687005890.7951078,0.5727880001068115,0.816210150718689,-0.07559770345687866,0.21313118934631348,-0.13182300329208374,-0.08883112668991089,-0.20314709842205048,-0.032443687319755554,0.05447172746062279,1.4395727547259194,-0.9548206306597143,2.1924257301086625
1687005890.857775,0.5797277092933655,0.808965265750885,-0.09742039442062378,0.23837220668792725,-0.18596434593200684,-0.12073462456464767,0.4013949930667877,-0.14818814396858215,0.22955459356307983,1.404306770719136,-0.9423897702467736,2.153159353409504
1687005890.916154,0.5848381519317627,0.8052198886871338,-0.09790243208408356,0.29499882459640503,-0.1330094337463379,-0.11350815743207932,-0.0490698479115963,-0.2413131445646286,0.12506520748138428,1.4049333441687186,-0.936046244932171,2.1693008844421513
1687005891.038832,0.5889229774475098,0.7992311120033264,-0.11999762058258057,0.3053794503211975,-0.11865860223770142,-0.08401252329349518,-0.030131109058856964,-0.21780475974082947,0.055971089750528336,1.3697901680495286,-0.9260148073528882,2.1396532749918697
1687005891.045187,0.5826396346092224,0.8051559329032898,-0.11070145666599274,0.1934376358985901,0.024662673473358154,-0.027375400066375732,0.8018715381622314,-0.22366024553775787,-0.13150985538959503,1.38303449692961,-0.9359383451799296,2.172025180606309
1687005891.1301742,0.574264407157898,0.8058665990829468,-0.1442202776670456,0.08001726865768433,-0.030185997486114502,0.05600909888744354,-0.92790287733078,-0.05241673067212105,-0.5743743777275085,1.3247457949717798,-0.9371375732715483,2.107054897181493
1687005891.149794,0.5479618310928345,0.8241633176803589,-0.14315155148506165,0.07145333290100098,0.1320437788963318,-0.040045544505119324,1.7326346635818481,0.3211844265460968,-0.4643416106700897,1.3152637198077397,-0.9687233191643135,2.0895713632782784
1687005891.214593,0.5208272933959961,0.8457537293434143,-0.115928053855896,-0.07324129343032837,-0.020634829998016357,-0.015633344650268555,-2.189954996109009,0.22886140644550323,-1.2414672374725342,1.3517822404835296,-1.007976212237824,2.1121659961710266
1687005891.2321138,0.4715774655342102,0.8723602294921875,-0.12884928286075592,0.015711933374404907,0.14529407024383545,-0.11001186072826385,2.4133400917053223,0.6616731286048889,-0.9378224015235901,1.3040760675355685,-1.060009661751635,2.0315600259020665
1687005891.3041139,0.41726022958755493,0.9012148380279541,-0.11707115173339844,-0.03971201181411743,0.018844246864318848,0.00011241436004638672,-0.9002249240875244,0.58283931016922,-1.6846731901168823,1.2972581417063036,-1.122564610919836,1.9908031858741588
1687005891.3206348,0.3464583158493042,0.9254174828529358,-0.15352210402488708,-0.2638167142868042,-0.05943554639816284,0.0004305839538574219,0.7367804646492004,1.250119686126709,-1.7208406925201416,1.1536797534483372,-1.182135793962968,1.778859018316795
1687005891.3651571,0.25953438878059387,0.9567868709564209,-0.13115163147449493,-0.4156928062438965,0.3845521807670593,-0.021512627601623535,1.8683383464813232,1.2706128358840942,-1.8127027750015259,1.1028903750510675,-1.2757437218340133,1.6614343290660014
1687005891.454132,0.17033854126930237,0.9565152525901794,-0.23677676916122437,-0.6175583600997925,-0.295138418674469,0.1834625005722046,1.2900726795196533,1.1372573375701904,-2.528581380844116,0.6236314797272121,-1.2748112066574884,1.102418198665945
1687005891.4721708,0.1073673665523529,0.9723662734031677,-0.2073059380054474,-0.13146096467971802,-0.002105891704559326,0.4352111518383026,-2.7336249351501465,1.7965357303619385,-0.31569087505340576,0.47787860873979343,-1.3351612496062648,0.8616326005890209
1687005891.5127568,0.118501216173172,0.9867874383926392,-0.11048906296491623,0.01617288589477539,0.3902113437652588,-0.08186327666044235,1.552600383758545,-0.7596455216407776,0.19893915951251984,0.8203729493382467,-1.4080586242528172,1.1931284928706418
1687005891.6033459,0.11175833642482758,0.9768102169036865,-0.1826244443655014,-0.127993643283844,-0.3999670743942261,0.09493209421634674,-0.21110081672668457,0.07555454969406128,-0.15318505465984344,0.5491651983256384,-1.3550188814962385,0.9459331223571318
1687005891.606893,0.10519349575042725,0.9815435409545898,-0.15970781445503235,0.05432192236185074,0.11246579885482788,-0.10610038042068481,0.10803807526826859,-0.1819351762533188,-0.14082638919353485,0.5824405556846528,-1.378372193363326,0.9762785358896084
1687005891.664384,0.09749317914247513,0.9787672162055969,-0.1803048700094223,-0.04079145938158035,-0.07814770936965942,-0.014946654438972473,0.027286509051918983,-0.08929498493671417,-0.11164133995771408,0.49568508614639595,-1.3643582658294535,0.90118633101312
1687005891.756645,0.09370650351047516,0.9808712005615234,-0.17061880230903625,0.008084937930107117,0.07879066467285156,-0.028294876217842102,-0.03642575815320015,0.12024598568677902,-0.07995984703302383,0.502240752962015,-1.3748878171032703,0.901226544240133
1687005891.762342,0.09113100171089172,0.9800059795379639,-0.17687101662158966,0.005121484398841858,0.09001654386520386,0.012411713600158691,0.25883516669273376,-0.04275811091065407,-0.02240360900759697,0.4757650402416692,-1.3704914048066927,0.8762747213163378
1687005891.818519,0.09084132313728333,0.9799738526344299,-0.17719700932502747,0.00985146313905716,-0.024178743362426758,0.005428746342658997,-0.4158019721508026,0.08814531564712524,0.04021822661161423,0.4737220452072065,-1.3703302315264538,0.8711045494754593
1687005891.9067202,0.09493633359670639,0.981365978717804,-0.16705633699893951,0.028553083539009094,0.094821035861969,-0.022335827350616455,0.17844215035438538,-0.10747971385717392,0.12155383825302124,0.5167764007177015,-1.3774458929025797,0.9157136143711081
1687005891.9122639,0.10222715884447098,0.981817901134491,-0.1599472463130951,-0.06707087904214859,-0.07392007112503052,-0.013621553778648376,-0.47043168544769287,0.01493234932422638,0.19001837074756622,0.5686960774274046,-1.3798122640637416,0.9714171553647766
1687005891.963286,0.11066194623708725,0.9816662073135376,-0.15519404411315918,-0.011617101728916168,0.07894158363342285,-0.025149643421173096,0.4911702871322632,-0.32941144704818726,0.23835742473602295,0.6194343359381633,-1.3790148449341715,1.0289828136128536
1687005892.060045,0.12479132413864136,0.9786933660507202,-0.16305328905582428,-0.11649049818515778,-0.08747339248657227,-0.00876075029373169,-0.5448078513145447,-0.3400479853153229,0.5055435299873352,0.6532470935038883,-1.3639982999744713,1.083852932282165
1687005892.066214,0.1526453197002411,0.9769013524055481,-0.14954304695129395,-0.1027795672416687,0.029141008853912354,-0.01020127534866333,0.3305568993091583,-0.5794055461883545,0.6467829346656799,0.7956638383467775,-1.3554450036657666,1.2510706997258345
1687005892.113698,0.17752408981323242,0.9677212238311768,-0.1788867861032486,-0.003818005323410034,-0.09383535385131836,0.01450379192829132,0.16684255003929138,-0.5409367680549622,0.5877215266227722,0.781574779620972,-1.3160261718915476,1.2652183833349697
1687005892.207398,0.20964106917381287,0.962552011013031,-0.17188453674316406,-0.3045048713684082,0.1086302399635315,0.0823458880186081,-0.2105964869260788,-0.5767541527748108,1.0061978101730347,0.8840389691934121,-1.2962637316445236,1.4008248335584719
1687005892.213249,0.2567840814590454,0.9487358331680298,-0.18428818881511688,-0.280953973531723,0.027063608169555664,0.10367590188980103,0.39262908697128296,-0.9399117827415466,1.2870638370513916,0.9483044345036568,-1.2492120143656782,1.50565276589486
1687005892.328253,0.3226560950279236,0.9221782088279724,-0.21326087415218353,-0.5317473411560059,-0.08480656147003174,0.19591154158115387,-0.2784220278263092,-0.894134521484375,1.7775532007217407,0.9867590136485216,-1.1736751102573861,1.5983677168971673
1687005892.334509,0.3856419026851654,0.8974358439445496,-0.2142171561717987,-0.4689091145992279,0.07551014423370361,0.10040177404880524,0.10019300878047943,-1.0043764114379883,1.602869987487793,1.0637539882769416,-1.1139222461315852,1.7367993134736541
1687005892.447534,0.4426572620868683,0.8701750040054321,-0.21644821763038635,-0.3018797039985657,-0.12685847282409668,0.15744240581989288,-0.9095412492752075,-0.842449426651001,1.2095986604690552,1.1160077678655014,-1.0555573233538018,1.8475551048467898
1687005892.467731,0.4704759418964386,0.8549135327339172,-0.21857546269893646,-0.2067582905292511,0.03583341836929321,0.020989298820495605,0.5973061323165894,-0.7793645262718201,0.6048884987831116,1.135880983966974,-1.0253841437408586,1.9208665119654174
1687005892.53402,0.47393617033958435,0.8436702489852905,-0.2521997392177582,0.07126033306121826,0.035952985286712646,-0.0336126983165741,-0.1514936238527298,-0.6066736578941345,-0.14777670800685883,1.0817696185889865,-1.0040833749189748,1.9001977635304985
1687005892.551528,0.44725501537323,0.8560656905174255,-0.25906410813331604,0.30184468626976013,0.08515727519989014,-0.28817716240882874,0.05880102142691612,0.0953957661986351,-0.9109702706336975,1.0457879357774427,-1.0276092037664009,1.86894787609823
1687005892.62129,0.4153180718421936,0.8817164301872253,-0.22380101680755615,0.5256151556968689,-0.10252648591995239,-0.16921967267990112,-1.384718656539917,0.38039836287498474,-0.8206997513771057,1.0765410240456121,-1.0794881466967745,1.8876562511659782
1687005892.624892,0.37415310740470886,0.9096387624740601,-0.18046168982982635,0.48290252685546875,-0.09892427921295166,-0.22250774502754211,-0.12990717589855194,0.6166433691978455,-0.9845461845397949,1.1213921317120268,-1.142413554711103,1.9056442509126725
1687005892.717733,0.3478547930717468,0.9250746965408325,-0.1524258553981781,0.3909147083759308,-0.03968358039855957,-0.16552160680294037,-0.635061502456665,0.40341246128082275,-0.4214804172515869,1.1578084499584498,-1.1812321843308806,1.9161081752840396
1687005892.7361689,0.3366847336292267,0.9304577112197876,-0.1445387303829193,0.2632603347301483,-0.0741194486618042,-0.04215262830257416,0.24101510643959045,0.2611153721809387,-0.14613354206085205,1.165289241296819,-1.1956601229721997,1.9082336760493164
1687005892.8017812,0.3371463418006897,0.9332166314125061,-0.12425358593463898,0.1621365249156952,0.002772688865661621,-0.10931277275085449,-0.3139784038066864,0.1287715584039688,-0.008236657828092575,1.2176968351896538,-1.20326331755375,1.9519463148291585
1687005892.805454,0.33597663044929504,0.9318123459815979,-0.13727788627147675,0.06357473134994507,-0.04423928260803223,0.030481532216072083,0.09806254506111145,0.005851768888533115,0.05245944485068321,1.1829037346182827,-1.199374779274097,1.9130655933316612
1687005892.864619,0.34110748767852783,0.9312385320663452,-0.12821964919567108,0.01610073447227478,0.07771825790405273,-0.06721501052379608,0.1896306723356247,-0.09257972985506058,0.10373541712760925,1.2112436854165336,-1.197796903305306,1.9456015316491853
1687005892.957478,0.3444245457649231,0.9272723197937012,-0.14675739407539368,-0.032016098499298096,-0.11622202396392822,0.06321543455123901,-0.13368552923202515,0.06885190308094025,0.13461530208587646,1.1679990236273883,-1.1870601819194686,1.9004607074609037
1687005892.962537,0.34945932030677795,0.9275776147842407,-0.1322031170129776,-0.03557080030441284,0.09616488218307495,-0.049941107630729675,0.3135233223438263,0.07823143154382706,0.011114935390651226,1.2091289956005744,-1.1878764675594364,1.9402492235804178
1687005893.014714,0.34818270802497864,0.9260729551315308,-0.14545677602291107,-0.04192352294921875,-0.14364802837371826,0.08210216462612152,-0.2866322100162506,0.15056061744689941,-0.031148631125688553,1.1750740537255888,-1.183869130746674,1.8977977347590076
1687005893.109085,0.3438255190849304,0.9308684468269348,-0.12356280535459518,-0.05923384428024292,0.0015655159950256348,-0.02643120288848877,-0.011845181696116924,0.18668758869171143,-0.26280900835990906,1.2257928448544286,-1.1967827263577617,1.944012720142785
1687005893.1144152,0.32769620418548584,0.9367495775222778,-0.1229444071650505,-0.030821174383163452,-0.18497967720031738,0.04950374364852905,-0.28930360078811646,0.23367014527320862,-0.47092920541763306,1.2118696149105295,-1.2132248620740718,1.9175223443434453
1687005893.1667209,0.3023810386657715,0.9478833675384521,-0.10041267424821854,-0.019208431243896484,0.0254136323928833,-0.02686101198196411,-0.03840721771121025,0.20146293938159943,-0.637544572353363,1.250180223467254,-1.246525777448112,1.9462076844430358
1687005893.260278,0.2694747745990753,0.9580429792404175,-0.09765669703483582,0.00464940071105957,-0.22856616973876953,-0.0033260583877563477,-0.40618324279785156,0.28740397095680237,-0.8232574462890625,1.2231208763299044,-1.28009463673898,1.9056038057977593
1687005893.2659168,0.2233714461326599,0.9713311195373535,-0.0813690647482872,-0.04636947810649872,0.057141661643981934,-0.08078616857528687,0.5853785276412964,0.3218182623386383,-1.0802788734436035,1.2214597032148173,-1.3307675207390048,1.887205231017134
1687005893.3173409,0.16956378519535065,0.9808729887008667,-0.09558247029781342,-0.01206253468990326,-0.2737961411476135,0.049195654690265656,-0.43821558356285095,0.3031941056251526,-1.2466100454330444,1.0574985767240026,-1.3748970119073125,1.7046612583592402
1687005893.407923,0.10088346153497696,0.9939722418785095,-0.042914893478155136,-0.09128561615943909,-0.08229011297225952,-0.06745201349258423,-0.7955672740936279,0.5523092150688171,-1.5880619287490845,1.168594724762625,-1.460943704982075,1.7957083487355827
1687005893.413568,0.01700366474688053,0.9994651079177856,-0.02793760783970356,-0.004094688221812248,-0.25834572315216064,0.013670559972524643,-0.4621817171573639,0.7809439897537231,-1.8112812042236328,0.5467408925039948,-1.538088017243951,1.140162793648833
1687005893.500595,-0.08423314988613129,0.9954468011856079,0.044613733887672424,-0.10714253038167953,-0.2692963480949402,-0.09522724151611328,-1.8232957124710083,1.1174269914627075,-2.2202770709991455,-2.0578783474143267,-1.4753324843461417,-1.512807494086608
1687005893.519309,-0.20770785212516785,0.9741936922073364,0.08833888918161392,-0.07036823034286499,-0.18427687883377075,0.032754771411418915,-1.0810836553573608,1.4408942461013794,-2.6180553436279297,-1.9729240658480078,-1.3431208245284134,-1.4914450442201963
1687005893.552754,-0.34917309880256653,0.922053337097168,0.1670197695493698,-0.10501992702484131,-0.11751848459243774,0.02736186981201172,-1.6865708827972412,1.6971426010131836,-2.783733606338501,-2.0169576740463553,-1.1733523403074462,-1.6182069145731286
1687005893.646442,-0.49397704005241394,0.8556773662567139,0.1542806774377823,-0.19080671668052673,-0.15819823741912842,0.05603109300136566,-1.8072506189346313,1.7783530950546265,-3.290343999862671,-1.8735204504336147,-1.0268582670165023,-1.5616798996065635
1687005893.650537,-0.6527588963508606,0.7218270897865295,0.22993747889995575,-0.19205904006958008,-0.23481237888336182,0.1607789844274521,-2.1400229930877686,2.865813970565796,-2.929839849472046,-1.9094784832064389,-0.8064386968071413,-1.7369921978179341
1687005893.7051759,-0.7843889594078064,0.6055535078048706,0.13430920243263245,-0.33411067724227905,-0.02529221773147583,0.11057901382446289,-1.2858895063400269,2.67526912689209,-3.3503620624542236,-1.7403795542553075,-0.6504611819879111,-1.7072115272313266
1687005893.793219,-0.8882926106452942,0.4503951668739319,0.08989045023918152,-0.5861487984657288,0.5794510245323181,0.3431692123413086,-2.6970479488372803,3.5042309761047363,-2.7911031246185303,-1.671647645840467,-0.46720787380850254,-1.859312368889527
1687005893.796731,-0.9392935037612915,0.3428548276424408,-0.01333466824144125,-0.5225592255592346,0.15525305271148682,0.39428555965423584,-4.057071208953857,3.3906757831573486,-1.4968457221984863,-1.556600793892636,-0.3499542559594467,-1.9903916733374658
1687005893.857281,-0.9440745115280151,0.3243732452392578,-0.05920349434018135,0.28663450479507446,0.4433116316795349,0.34422236680984497,-6.573547840118408,1.584972858428955,-0.5246704816818237,-1.5081677220479668,-0.3303490780583326,-2.3248621067254103
1687005893.9776769,-0.9496772885322571,0.3131601810455322,-0.006612619385123253,0.13267594575881958,0.05759790539741516,0.10898381471633911,-3.3367013931274414,-0.3407427966594696,0.08880041539669037,-1.5638334223158743,-0.31851876430139303,-2.5624614299702593
1687005893.983907,-0.9469037652015686,0.32127100229263306,0.012569211423397064,-0.051554977893829346,-0.018673986196517944,0.15994656085968018,-1.165213942527771,0.7747345566749573,0.15726841986179352,-1.5840695589182345,-0.32707132721669174,-2.6669688282198445
1687005894.09979,-0.9453937411308289,0.32580676674842834,-0.00896195787936449,0.014668822288513184,0.03704714775085449,0.08473706245422363,-0.9631029367446899,0.7063961625099182,0.0728219747543335,-1.5613170073543174,-0.33186494202840905,-2.725183045262226
1687005894.120101,-0.9450110793113708,0.3265908360481262,-0.017099160701036453,0.003818511962890625,0.008064895868301392,0.02852797508239746,-0.0168333500623703,0.013692514970898628,0.06721682101488113,-1.5527041624781897,-0.33269437282310643,-2.738635292047769
1687005894.247128,-0.9436023831367493,0.3308189809322357,-0.013148137368261814,0.01618868112564087,0.03188237547874451,0.016276123002171516,-0.13313806056976318,0.024883516132831573,0.039834462106227875,-1.556863248409157,-0.33717128581522726,-2.751090199679254
1687005894.2696571,-0.9433448314666748,0.33168715238571167,-0.009160863235592842,-0.0067282915115356445,-0.036444902420043945,-0.003854929469525814,-0.4396493136882782,-0.03691207244992256,0.03317629545927048,-1.56108558820852,-0.33809140794162384,-2.7612296595333103
1687005894.336856,-0.9425638914108276,0.33397233486175537,-0.005960126407444477,-0.03235048055648804,0.056622087955474854,0.01542055606842041,0.13195332884788513,0.04828351363539696,0.03715159371495247,-1.5644730984351132,-0.3405147398905321,-2.7765251532758994
1687005894.354968,-0.9416608214378357,0.33652812242507935,-0.00484287878498435,0.0031234025955200195,-0.03466355800628662,0.0001125936396420002,-0.18497295677661896,-0.1121881827712059,0.09390994906425476,-1.5656534604087793,-0.3432275388242665,-2.7712821125513645
1687005894.357614,-0.9408581852912903,0.33880025148391724,0.0004851012781728059,-0.02111685276031494,0.037527233362197876,0.00807499885559082,0.35594016313552856,-0.1024150475859642,0.007151885889470577,-1.5713119212321545,-0.3456414559082212,-2.7710665254390445
1687005894.424488,-0.9401758909225464,0.3406646251678467,0.004067281261086464,-0.007898271083831787,-0.036083996295928955,-0.024071574211120605,-0.07012473046779633,-0.17338350415229797,0.06638804823160172,-1.5751223852208105,-0.3476237177729386,-2.7619147117832785
1687005894.427133,-0.9393048882484436,0.34286966919898987,0.012107602320611477,-0.002482771873474121,0.009593039751052856,-0.012611150741577148,0.13778825104236603,-0.10669581592082977,-0.0027833031490445137,-1.5836855724040477,-0.34997004970058054,-2.763729378184341
1687005894.5126948,-0.9392955303192139,0.3427921533584595,0.01473942305892706,0.009638667106628418,0.00022536516189575195,-0.013228894211351871,0.013192660175263882,-0.15732543170452118,0.02609148621559143,-1.586487036302225,-0.3498875322542483,-2.755836153323217
1687005894.516233,-0.9384968876838684,0.34461450576782227,0.02154773473739624,0.006047606468200684,0.029332607984542847,-0.025774478912353516,0.19388048350811005,-0.13240663707256317,-0.02499007061123848,-1.5937521305361277,-0.3518280981538152,-2.7555275505169536
1687005894.608471,-0.9384387135505676,0.34480521082878113,0.021029828116297722,-0.0041730403900146484,-0.04399344325065613,0.006344439461827278,-0.08671402931213379,-0.04467518627643585,0.04237671568989754,-1.5932019558783912,-0.3520312666293546,-2.74494747282473
1687005894.6132998,-0.9376205205917358,0.34670063853263855,0.025812048465013504,0.004591464996337891,0.06199073791503906,-0.0010166168212890625,0.3319341540336609,-0.15156766772270203,-0.012070811353623867,-1.5983186885173821,-0.3540512723932126,-2.746863675982532
1687005894.695812,-0.9379314184188843,0.34592387080192566,0.024924874305725098,-0.018779337406158447,-0.06407883763313293,0.013298392295837402,-0.06347301602363586,-0.011577155441045761,0.024112757295370102,-1.5973643777830384,-0.353223277446355,-2.7294218729078414
1687005894.700982,-0.9374054074287415,0.34712621569633484,0.02782798372209072,-0.0067168474197387695,0.038722723722457886,-0.0062367916107177734,0.1362515389919281,-0.05638457462191582,-0.016952652484178543,-1.6004737887934812,-0.3545050260067872,-2.7345390902254305
1687005894.755018,-0.9380030035972595,0.3455881178379059,0.02681056782603264,0.0011135339736938477,-0.022788524627685547,0.007918355986475945,0.24050723016262054,-0.07760464400053024,-0.010606072843074799,-1.5993711507484336,-0.3528654590501433,-2.7204107179458443
