Timestamp,gravityX,gravityY,gravityZ,accelerationX,accelerationY,accelerationZ,rotationRateX,rotationRateY,rotationRateZ,attitudeRoll,attitudePitch,attitudeYaw
1687006949.5162401,-0.856833815574646,0.5154914259910583,0.01021526101976633,-0.012978136539459229,-0.004184722900390625,-0.06088972091674805,-0.007196967024356127,-0.020806871354579926,-0.028160564601421356,-1.5827178649629035,-0.5415810345825305,-2.4079906894353726
1687006949.5226989,-0.8567745685577393,0.5156271457672119,0.008137324824929237,-0.010397732257843018,0.026578664779663086,-0.04459059238433838,-0.0595758855342865,0.05458269268274307,0.016907043755054474,-1.5802936674828387,-0.5417394569154558,-2.4094381130938562
1687006949.575197,-0.8561266660690308,0.5167475938796997,0.004339281935244799,-0.011930465698242188,0.009253323078155518,-0.03905308246612549,-0.011537319980561733,0.06521869450807571,0.042661674320697784,-1.5758647877700875,-0.5430476293274825,-2.4093104178990736
1687006949.700546,-0.8548505306243896,0.5188742280006409,8.468260057270527e-05,-0.004188716411590576,0.0059822797775268555,-0.010811686515808105,-0.06507651507854462,0.1197475790977478,0.03626103326678276,-1.5708953880881809,-0.545533482886272,-2.4115745052310613
1687006949.705992,-0.8542117476463318,0.5198913812637329,-0.005945863202214241,0.0012301802635192871,-0.010705530643463135,0.009775756858289242,-0.043639328330755234,0.14160746335983276,0.014776515774428844,-1.5638357960263645,-0.5467237580405719,-2.413268825599404
1687006949.789384,-0.8536347150802612,0.520759105682373,-0.01083969883620739,0.0028810501098632812,-0.006415903568267822,0.021246135234832764,-0.03634446859359741,0.11060361564159393,0.02356015145778656,-1.5580987215329598,-0.5477398952173923,-2.4152344487315145
1687006949.8088531,-0.8532285094261169,0.5213666558265686,-0.013327253051102161,-0.012570321559906006,-0.013218581676483154,0.04164755344390869,-0.05170711129903793,0.09779367595911026,0.008676278404891491,-1.5551778031976793,-0.5484517432502191,-2.417882992611239
1687006949.8733768,-0.8536439538002014,0.5206790566444397,-0.013607724569737911,0.009649932384490967,-0.006183266639709473,0.030895888805389404,-0.07311765849590302,0.06697996705770493,-0.021960193291306496,-1.5548569262816174,-0.5476461074534495,-2.422782457521531
1687006949.877121,-0.8546978235244751,0.5189968943595886,-0.011548924259841442,0.0011824369430541992,0.010528743267059326,0.04101359844207764,-0.019167009741067886,0.02209305576980114,-0.03192147985100746,-1.5572848599372966,-0.5456769909732071,-2.427841472684268
1687006949.967252,-0.8556747436523438,0.5174347758293152,-0.009062997996807098,0.0032882094383239746,-0.0030762553215026855,0.02661055326461792,-0.010264463722705841,-0.0300108902156353,-0.03335506096482277,-1.5602050839195432,-0.543850495560666,-2.4295863856575513
1687006949.97218,-0.856366753578186,0.5163438320159912,-0.004987835884094238,0.007764577865600586,0.008695781230926514,0.019132673740386963,-0.012358706444501877,-0.04737989231944084,-0.031142238527536392,-1.564971976857344,-0.5425761307538797,-2.431350207220864
1687006950.056917,-0.8570213913917542,0.5152782201766968,-0.001618046429939568,0.004100978374481201,0.025127053260803223,0.0007025003433227539,0.026370646432042122,-0.06556515395641327,-0.027962958440184593,-1.5689083406286546,-0.5413322212253328,-2.4316552294245133
1687006950.075747,-0.8571153283119202,0.5151214599609375,0.0017468677833676338,-0.005448639392852783,0.0237884521484375,-0.0062024593353271484,-0.015109551139175892,-0.05719324201345444,-0.0007941881194710732,-1.572834401829763,-0.5411493227287589,-2.431733354658833
1687006950.111567,-0.8563333749771118,0.5164055228233337,0.004265977535396814,-0.005040347576141357,0.028333187103271484,-0.026894807815551758,-0.017568115144968033,-0.04028443247079849,0.027429725974798203,-1.5757779641086143,-0.5426481453873934,-2.4331397856385126
1687006950.1728249,-0.8552284836769104,0.5182245969772339,0.00522430706769228,-0.006313145160675049,0.029153943061828613,-0.02954685688018799,0.04362273961305618,-0.03583255782723427,0.04018307104706764,-1.5769049190250177,-0.5447737276474454,-2.4323932027897492
1687006950.266459,-0.8537027835845947,0.5207464098930359,0.003803945379331708,-0.011439859867095947,0.019033193588256836,-0.04623866081237793,0.077370785176754,-0.007921167649328709,0.058674994856119156,-1.57525211653523,-0.5477249998103,-2.4280235196487463
1687006950.271357,-0.8519760370254517,0.5235806703567505,-0.0001558348594699055,-0.024061501026153564,0.02022731304168701,-0.05033552646636963,0.1412540227174759,0.036532316356897354,0.061622846871614456,-1.5706134168786643,-0.5510483064766375,-2.4213720363245943
1687006950.324901,-0.8502500653266907,0.5263187289237976,-0.007974625565111637,-0.014053583145141602,-0.0025150179862976074,-0.05609709024429321,0.15043780207633972,0.08331393450498581,0.06627725809812546,-1.5614174480589917,-0.5542653074424023,-2.410528625872952
1687006950.414132,-0.848328173160553,0.5292204022407532,-0.01628625951707363,-0.009109020233154297,-0.010192632675170898,-0.04223126173019409,0.059121403843164444,0.1448514610528946,0.06416697055101395,-1.5516006194549878,-0.5576814584426033,-2.4047785645383914
1687006950.419728,-0.8468644022941589,0.5311226844787598,-0.027003854513168335,-0.011015117168426514,-0.013315737247467041,-0.024403033778071404,0.0828142836689949,0.1823502480983734,0.05021600052714348,-1.53892025892337,-0.5599250108444693,-2.39845603176993
1687006950.509965,-0.8459282517433167,0.531916618347168,-0.0383397713303566,-0.006671726703643799,-0.02271568775177002,0.010400895029306412,0.04138142243027687,0.21976351737976074,0.007687979377806187,-1.5255045978721218,-0.5608623512329611,-2.3951032590590255
1687006950.528151,-0.8463513851165771,0.5303317308425903,-0.049369849264621735,-0.0036393404006958008,-0.019620120525360107,0.02889251708984375,0.09937741607427597,0.19464579224586487,-0.025030553340911865,-1.5125297883674473,-0.5589918025021329,-2.3900954248370616
1687006950.565713,-0.8472965359687805,0.5279244780540466,-0.058171700686216354,-0.009194374084472656,-0.006943762302398682,0.032536931335926056,0.11095817387104034,0.16878196597099304,-0.048622164875268936,-1.5022482355641738,-0.5561548933798277,-2.385669539747041
1687006950.6262689,-0.8487079739570618,0.5248007774353027,-0.06541482359170914,-0.0015118122100830078,0.015253603458404541,0.010361067950725555,0.2404889315366745,0.07029067724943161,-0.04738672450184822,-1.493872632958246,-0.5524810256656627,-2.3780312892297677
1687006950.7170691,-0.8505657315254211,0.5203862190246582,-0.0757351741194725,-0.02966785430908203,0.025344252586364746,-0.06046479195356369,0.7497791647911072,-0.05349824205040932,-0.11759297549724579,-1.4819895867153274,-0.547303205744722,-2.3537078689836513
1687006950.7227988,-0.8569527268409729,0.5046345591545105,-0.10476502031087875,-0.00025540590286254883,0.078144371509552,-0.04586976766586304,2.1804492473602295,-0.3417048454284668,-0.34359973669052124,-1.4491470068514465,-0.528958596530895,-2.2745395425581143
1687006950.809249,-0.8749182224273682,0.4572252631187439,-0.15957213938236237,0.03609675168991089,0.2535596787929535,-0.06439639627933502,5.571407794952393,-1.48196542263031,-0.6171650290489197,-1.3903939918914996,-0.47487271500100187,-2.0686457713984483
1687006950.900873,-0.9044537544250488,0.37513235211372375,-0.20307418704032898,-0.023463666439056396,-0.11754873394966125,0.3612315058708191,6.482091426849365,-2.373063802719116,-0.5358030200004578,-1.3499322350291632,-0.38453955577953797,-1.7440118100953717
1687006950.906488,-0.9413804411888123,0.2869068384170532,-0.1774463802576065,-0.2072095274925232,-0.09429511427879333,0.32740968465805054,6.457596302032471,-3.4073119163513184,-0.31015869975090027,-1.3844864497512832,-0.2909963612234902,-1.4100896915319556
1687006950.989522,-0.9668216109275818,0.24123340845108032,-0.08403705805540085,-0.29376786947250366,-0.013633280992507935,0.3714057207107544,5.999619960784912,-3.778491497039795,0.12959417700767517,-1.4840932886896034,-0.24363659221573838,-1.0901949260527934
1687006951.007337,-0.9672638773918152,0.2526550590991974,0.023787474259734154,-0.16811197996139526,0.04435727000236511,0.23335349559783936,4.4102349281311035,-3.239985942840576,0.7094418406486511,-1.5953839099207594,-0.25542337484802863,-0.8170403641962005
1687006951.0746732,-0.9430418014526367,0.31364232301712036,0.11090739816427231,-0.06762397289276123,0.23489591479301453,0.07703495025634766,3.331000566482544,-2.647440195083618,1.3624187707901,-1.6878645981506317,-0.3190264979339509,-0.6276548059083137
1687006951.091532,-0.896287739276886,0.4122796356678009,0.16338199377059937,-0.11802488565444946,0.1509985625743866,-0.03641366958618164,2.9235286712646484,-2.12967848777771,1.8942158222198486,-1.7511040352762648,-0.4249548351348653,-0.4737951669019932
1687006951.163826,-0.829684853553772,0.5285707712173462,0.1795434057712555,-0.16294509172439575,0.1744931936264038,-0.026528477668762207,2.9679245948791504,-1.7125248908996582,2.383169412612915,-1.7839098017867152,-0.5569160389391122,-0.33908908830966483
1687006951.167511,-0.7410302758216858,0.6568219661712646,0.139495849609375,-0.1371435523033142,0.09429192543029785,-0.07067881524562836,4.2345871925354,-1.4732778072357178,2.6580517292022705,-1.7568646633084095,-0.7165963124696381,-0.16118800077957132
1687006951.224382,-0.6366532444953918,0.7711453437805176,-0.0026846863329410553,-0.18474245071411133,0.21831071376800537,-0.13821512460708618,5.4143571853637695,-0.628738522529602,2.9754209518432617,-1.5665794783219786,-0.8806381596228683,0.1798681195026742
1687006951.349667,-0.5135886669158936,0.8410346508026123,-0.16996245086193085,-0.35123366117477417,-0.3547676205635071,-0.1608176827430725,2.5942630767822266,0.6949926614761353,3.024719476699829,-1.2512093500982868,-0.99919289940231,0.5724893176632591
1687006951.353775,-0.3785533607006073,0.8908013701438904,-0.2513366639614105,-0.3911304175853729,-0.7047510743141174,-0.3961701989173889,0.5128867626190186,1.9698153734207153,2.3376784324645996,-0.9846839314380212,-1.0991057807337452,0.8028523409236522
1687006951.4082,-0.2740643620491028,0.9117709994316101,-0.305879682302475,-0.5933214426040649,-0.6788151860237122,0.030244767665863037,0.24487629532814026,2.49505615234375,1.1041784286499023,-0.7305938366673999,-1.1475757997431233,0.9554182943946579
1687006951.412329,-0.2436089664697647,0.9111267328262329,-0.3324194550514221,-0.2214941680431366,-0.7958466410636902,1.6402654647827148,-0.0005772141739726067,0.2608153522014618,-0.09104844927787781,-0.632425378901956,-1.146009775036825,1.0123517322477158
1687006951.463602,-0.2365785390138626,0.8931522965431213,-0.38250404596328735,-0.19674049317836761,0.009267568588256836,-0.1972232162952423,1.0637866258621216,-0.4456327259540558,-0.036288000643253326,-0.553911097393501,-1.1043060518333176,1.0981364306098038
1687006951.523452,-0.22761879861354828,0.8881059288978577,-0.39932137727737427,0.16136518120765686,0.4454205632209778,0.18887203931808472,0.5210499167442322,0.01933322288095951,0.1317305713891983,-0.5180791200173831,-1.0932078394554021,1.1467302407637086
1687006951.618525,-0.22591125965118408,0.8831758499145508,-0.41105300188064575,0.06754031777381897,-0.09684473276138306,0.018673181533813477,0.06118734925985336,0.12340503185987473,-0.06415611505508423,-0.5025295728412092,-1.082590518046245,1.157975084283189
1687006951.624632,-0.22962728142738342,0.8809165954589844,-0.4138321876525879,0.0018135756254196167,-0.015621304512023926,0.052961766719818115,-0.0011071832850575447,0.009799905121326447,-0.04629829153418541,-0.506582246009911,-1.0777954466243704,1.1496206802303581
1687006951.674865,-0.2284829169511795,0.8797396421432495,-0.4169576168060303,-0.00413726270198822,-0.014932632446289062,-0.10176503658294678,0.09853632003068924,-0.14528608322143555,0.1261850744485855,-0.5012882121372858,-1.0753143549927273,1.1605029684809232
1687006951.760834,-0.226235032081604,0.8804035782814026,-0.41678187251091003,0.00028292834758758545,0.02662450075149536,0.03316059708595276,0.03385692462325096,-0.04060547798871994,0.07690593600273132,-0.4973094038651393,-1.07671250804214,1.170655701123069
1687006951.780828,-0.22570420801639557,0.8792752027511597,-0.4194432199001312,-0.015964463353157043,0.013607978820800781,-0.04021263122558594,0.026123372837901115,-0.023894675076007843,-0.04950660094618797,-0.4936644142610174,-1.0743383980321641,1.1766533230590812
1687006951.824084,-0.2274748831987381,0.8792564868927002,-0.41852477192878723,-0.017718523740768433,0.02494865655899048,0.024008721113204956,0.02430569753050804,-0.0030957863200455904,-0.03269113600254059,-0.497851421397305,-1.0742991209659012,1.1714276207160426
1687006951.914706,-0.2300095111131668,0.8775791525840759,-0.4206547141075134,0.016081348061561584,-0.0041661858558654785,0.000564873218536377,0.0445726215839386,-0.0970771461725235,-0.05670539289712906,-0.5003748817635646,-1.0707892703133661,1.1702395022439658
1687006951.9194589,-0.23275206983089447,0.8777433633804321,-0.41879934072494507,0.007059410214424133,-0.006954967975616455,0.031073421239852905,-0.03344907611608505,-0.08717231452465057,0.03596329316496849,-0.5072549917421846,-1.0711318913872014,1.1680226225547936
1687006951.9751968,-0.233350470662117,0.8789998888969421,-0.4158204197883606,-0.008653894066810608,-0.00848609209060669,0.019229143857955933,-0.11247638612985611,-0.02738887630403042,-0.004709834232926369,-0.5113868312483247,-1.0737606361746137,1.1676228804280828
1687006952.100425,-0.23474761843681335,0.8802748322486877,-0.4123222827911377,-0.0010006129741668701,-0.003688037395477295,-0.022949963808059692,-0.008065955713391304,-0.02716064266860485,-0.04173522815108299,-0.5175629919548105,-1.0764411096475046,1.162105389508511
1687006952.106585,-0.23686039447784424,0.8805735111236572,-0.4104723334312439,0.005445629358291626,-0.010074913501739502,0.0015214085578918457,-0.02128935046494007,0.004636169411242008,-0.017520170658826828,-0.5233686691089684,-1.0770709529949796,1.1560202850856205
1687006952.189405,-0.23704952001571655,0.8798975348472595,-0.41181036829948425,-0.0007281601428985596,0.0026707053184509277,-0.03482970595359802,0.006336817517876625,-0.004109918139874935,-0.005712247919291258,-0.5223059988733434,-1.075646507509731,1.1565106594402323
1687006952.209465,-0.23583254218101501,0.8804767727851868,-0.41127079725265503,0.010033011436462402,-0.019820034503936768,0.0382542610168457,-0.02856690250337124,0.02143632248044014,0.04568888992071152,-0.5206490632788375,-1.0768669809708316,1.15755130361583
1687006952.2742782,-0.23329998552799225,0.8814100623130798,-0.41071560978889465,-0.00664442777633667,-0.037004053592681885,0.04844135046005249,-0.0943031758069992,0.08231351524591446,0.003541969694197178,-0.5165825671154356,-1.078839127452136,1.159230734639909
1687006952.290889,-0.2334788590669632,0.8826782703399658,-0.40788063406944275,-0.01945076882839203,-0.004855513572692871,0.032468587160110474,-0.08497971296310425,0.05789606273174286,-0.059869494289159775,-0.5198928598935054,-1.0815307160533465,1.1521315288601517
1687006952.359175,-0.23733708262443542,0.8849089741706848,-0.40075814723968506,-0.0199413001537323,-0.10431522130966187,0.0803387463092804,-0.2995319366455078,0.03424585983157158,-0.19653013348579407,-0.5346794458104557,-1.0862984953031432,1.1323853735319935
1687006952.3627548,-0.27233389019966125,0.890017032623291,-0.3656553626060486,-0.14519229531288147,-0.31738531589508057,0.08725866675376892,-0.89936363697052,-0.15460515022277832,-1.2043946981430054,-0.6401538732300346,-1.097382471624955,1.0158106727968241
1687006952.424269,-0.34902140498161316,0.8783992528915405,-0.3264946937561035,-0.12772417068481445,-0.3758968114852905,0.029253393411636353,-0.5988113284111023,-0.4378361999988556,-1.9883248805999756,-0.8187332026223706,-1.0725024900488456,0.8324853307685238
1687006952.51773,-0.45024722814559937,0.8445519804954529,-0.28984349966049194,-0.10076284408569336,-0.42824655771255493,0.2038601040840149,-0.7443700432777405,-0.8577823042869568,-2.231325626373291,-0.9988322833451302,-1.0057279521972613,0.6629914180950456
1687006952.5231528,-0.5575583577156067,0.7962896823883057,-0.23463040590286255,-0.12643206119537354,-0.26400214433670044,0.09789621829986572,-0.9044556021690369,-1.0548161268234253,-2.272794485092163,-1.1724734917710307,-0.9211365945765673,0.5122580702800278
1687006952.5763988,-0.661196768283844,0.7374392747879028,-0.13784752786159515,-0.24990540742874146,0.015627622604370117,0.054030850529670715,-2.943082809448242,-0.5729836225509644,-2.6216588020324707,-1.3652585998816753,-0.8292711511207916,0.31908947638891483
1687006952.669235,-0.7493376135826111,0.6620415449142456,-0.013939722441136837,-0.24623733758926392,0.2644416093826294,-0.18494343757629395,-2.9590203762054443,-0.020192347466945648,-2.7355897426605225,-1.552195745822891,-0.7235394649283862,0.07334029898496544
1687006952.674745,-0.8372564911842346,0.5414754152297974,0.07619559019804001,-0.27051621675491333,-0.010744214057922363,-0.016335487365722656,-4.118072509765625,0.7474603652954102,-2.755939483642578,-1.6615525917659262,-0.5721910634983431,-0.13870404615381432
1687006952.7262359,-0.909763753414154,0.39576810598373413,0.1252892166376114,-0.1860002875328064,0.05953890085220337,0.1701054573059082,-5.177181720733643,1.7731186151504517,-2.6523423194885254,-1.7076516760017342,-0.40690408727493066,-0.37719562168528875
1687006952.821,-0.9620261788368225,0.25054648518562317,0.10831459611654282,-0.1852516531944275,0.4067411720752716,-0.12949393689632416,-4.1051530838012695,2.328174591064453,-2.2172622680664062,-1.6829142321221542,-0.25324469652242304,-0.6180765164762506
1687006952.8409948,-0.9893704652786255,0.14340227842330933,0.024122050032019615,-0.17316609621047974,0.23559555411338806,0.24620258808135986,-4.431154727935791,2.6923892498016357,-1.529615879058838,-1.5951727082931886,-0.143898376989243,-0.8215643416204007
1687006952.874627,-0.9909601807594299,0.0985085517168045,-0.09106899052858353,-0.09084194898605347,0.3290427327156067,0.15813124179840088,-4.009700775146484,2.8879482746124268,-0.5295451283454895,-1.479153991555255,-0.09866857059121105,-1.0328353300007094
1687006952.962381,-0.970073938369751,0.12851351499557495,-0.206011563539505,0.04684102535247803,0.16843780875205994,0.45390576124191284,-4.666250705718994,2.5898184776306152,0.3471403419971466,-1.3615383106462122,-0.1288699167067133,-1.2541204737379121
1687006952.9663,-0.9386348724365234,0.208579882979393,-0.27469775080680847,0.005682110786437988,0.20690174400806427,0.19684737920761108,-3.356034994125366,1.759701132774353,0.9644615650177002,-1.2860900737969316,-0.21012267839979015,-1.436285504978157
1687006953.026607,-0.9006621837615967,0.31140100955963135,-0.3030458688735962,0.022000253200531006,-0.0018917322158813477,0.2934481203556061,-4.139333248138428,1.593880534172058,1.0448627471923828,-1.2462253553501719,-0.31666699447844066,-1.6057782490977586
1687006953.119999,-0.8580016493797302,0.42560747265815735,-0.2875611186027527,-0.0210418701171875,-0.13688066601753235,0.2992188334465027,-4.608508110046387,1.3769774436950684,1.0874354839324951,-1.2474097051748656,-0.4396330738133713,-1.8116513756542338
1687006953.138706,-0.8240187168121338,0.5151113867759705,-0.23590940237045288,-0.01719820499420166,0.11046838760375977,-0.0771552175283432,-2.900986433029175,0.505344808101654,0.6171979308128357,-1.2919632758794304,-0.5411376086042307,-2.0086989194217333
1687006953.1736841,-0.8125666975975037,0.5501445531845093,-0.19255192577838898,-0.05944252014160156,0.004054665565490723,-0.023512542247772217,-1.1266958713531494,-0.05315522477030754,0.10436046123504639,-1.3381206273478354,-0.5825372986082287,-2.114710104290502
1687006953.265898,-0.8147844672203064,0.5539113283157349,-0.17119687795639038,-0.06525081396102905,0.02578526735305786,-0.14826112985610962,0.35068801045417786,-0.5226890444755554,0.030623920261859894,-1.363695827615239,-0.5870548054106027,-2.133624419183737
1687006953.2704601,-0.8167420625686646,0.5536642074584961,-0.1624438464641571,-0.03796356916427612,-0.06118685007095337,-0.1264508217573166,0.6367162466049194,-0.6281282305717468,0.17121991515159607,-1.3744659261136574,-0.5867580284233892,-2.097185854328049
1687006953.362258,-0.8167973756790161,0.5557540655136108,-0.1548527032136917,-0.04811650514602661,-0.11976468563079834,-0.14788168668746948,0.18062393367290497,-0.27984508872032166,0.053132954984903336,-1.3834347533198925,-0.5892697048640525,-2.0706255874361092
1687006953.3797312,-0.8191635608673096,0.5534880757331848,-0.15040551126003265,-0.04236280918121338,-0.053549230098724365,-0.10812418162822723,-0.17146973311901093,0.08797593414783478,-0.1386156976222992,-1.3892102013615806,-0.5865465006936501,-2.07365152840637
1687006953.4096289,-0.8211880326271057,0.5502467155456543,-0.15125687420368195,-0.02024257183074951,0.003113269805908203,-0.11813706159591675,-0.1862097978591919,0.18186701834201813,-0.07987169176340103,-1.3886452149686723,-0.5826596512915374,-2.0868509553734373
1687006953.473896,-0.8219175934791565,0.5477384924888611,-0.15631313621997833,-0.017346203327178955,0.02889108657836914,-0.03867894411087036,-0.006850356236100197,0.19618935883045197,-0.07828284800052643,-1.3828596602523082,-0.5796588187186867,-2.09299467167529
1687006953.564631,-0.8217408061027527,0.5447894930839539,-0.16717125475406647,-0.015875041484832764,0.04706829786300659,-0.024616464972496033,0.09047172963619232,0.17318323254585266,-0.03682995215058327,-1.370099583238853,-0.5761380681641924,-2.091144418887199
1687006953.5696259,-0.821650505065918,0.5413176417350769,-0.1785087287425995,-0.004811108112335205,0.02585148811340332,0.025173142552375793,0.280446320772171,0.09039115905761719,-0.04784851521253586,-1.356864577619822,-0.5720033967099238,-2.07923853769092
1687006953.689046,-0.8208208680152893,0.5393804907798767,-0.1879408359527588,-0.003992974758148193,0.007631838321685791,0.046705394983291626,0.22366520762443542,0.048422664403915405,0.022988639771938324,-1.3457093299290845,-0.5697012615420181,-2.065274826120163
1687006953.7083158,-0.8212935328483582,0.5346985459327698,-0.1989322006702423,-0.0055037736892700195,0.058975040912628174,-0.013226017355918884,0.7733713984489441,-0.14012688398361206,-0.02223077043890953,-1.3331550679407582,-0.5641509690173272,-2.036184008068859
1687006953.773151,-0.8219209909439087,0.5297947525978088,-0.20919685065746307,-0.007424592971801758,-0.05282026529312134,0.03192019462585449,0.2738843262195587,-0.07650355994701385,0.06765437871217728,-1.3215663627021013,-0.5583585226779118,-2.002548357215715
1687006953.790169,-0.8197798728942871,0.5322896242141724,-0.21125450730323792,0.0020005106925964355,-0.014467418193817139,0.04229392111301422,0.015239965170621872,0.052093297243118286,0.09382499754428864,-1.3185870127091959,-0.561302871517526,-1.9966631744767382
1687006953.864353,-0.8180059194564819,0.5332409739494324,-0.21568529307842255,-0.0028557181358337402,-0.02210211753845215,-0.011624902486801147,0.15169188380241394,7.417425513267517e-05,0.023775070905685425,-1.3129918198027761,-0.5624270336693075,-1.9885334461805406
1687006953.867988,-0.8178598284721375,0.5325639247894287,-0.2179015874862671,-0.011287450790405273,-0.010392904281616211,-0.01072084903717041,0.153329998254776,0.009758759289979935,-0.00420756172388792,-1.3104158174955831,-0.5616269346500944,-1.9812038075252323
1687006953.924252,-0.8180524110794067,0.5302761793136597,-0.22270454466342926,-0.012483417987823486,-0.012759089469909668,-0.0020421743392944336,0.10456531494855881,0.071026511490345,-0.008235326036810875,-1.3050002009733594,-0.5589262627869949,-1.9750065853995349
1687006954.018859,-0.818361222743988,0.5274764895439148,-0.22815264761447906,-0.004118025302886963,-0.0049086809158325195,-0.04020372033119202,0.20099152624607086,0.008039422333240509,-0.007512012030929327,-1.2989080592028766,-0.5556274494548981,-1.9663855978091263
1687006954.024475,-0.819155216217041,0.52311110496521,-0.235243558883667,-0.009915828704833984,0.010275185108184814,0.0026080310344696045,0.42987656593322754,-0.00614177668467164,-0.04936891421675682,-1.2911437276755675,-0.5504973101763841,-1.9521557549374897
1687006954.1099892,-0.8230451345443726,0.5102080702781677,-0.2495678961277008,-0.05656290054321289,-0.0269622802734375,-0.07921326160430908,0.8855692744255066,-0.20654265582561493,-0.13672353327274323,-1.2763834177616962,-0.5354267067246683,-1.9132610105169865
1687006954.1985369,-0.8321424126625061,0.4861437976360321,-0.26683875918388367,-0.04833531379699707,0.08252069354057312,-0.04720237851142883,1.8885470628738403,-0.5270415544509888,-0.22023652493953705,-1.260490464154709,-0.5076715705724786,-1.8462533940716392
1687006954.2045522,-0.8462789058685303,0.4484063982963562,-0.2876517176628113,-0.050083279609680176,0.008792638778686523,0.03723970055580139,2.3110156059265137,-0.8665637373924255,-0.153609037399292,-1.2431458479076216,-0.4649816606812346,-1.734171832075634
1687006954.2905998,-0.8643203973770142,0.40686553716659546,-0.2956527769565582,-0.055570900440216064,0.03745514154434204,0.07176053524017334,2.717841386795044,-1.3247665166854858,-0.0035705333575606346,-1.2412089650871547,-0.41902011082098933,-1.6026872247242048
1687006954.310987,-0.8847422003746033,0.37227651476860046,-0.280430406332016,-0.0930866003036499,0.08054327964782715,0.1346326768398285,2.8715641498565674,-1.843041181564331,0.301159530878067,-1.263850836932076,-0.3814606300245788,-1.455756446052331
1687006954.3749828,-0.9032977819442749,0.3551316261291504,-0.24069567024707794,-0.14435523748397827,0.07229754328727722,0.14093366265296936,2.890019416809082,-2.178215265274048,0.5531195998191833,-1.3103838521977824,-0.3630548790761578,-1.3022758439660738
1687006954.391021,-0.9176729917526245,0.3483513593673706,-0.19112169742584229,-0.04576683044433594,0.04115971922874451,0.12221294641494751,2.915343761444092,-2.2466962337493896,0.5632755756378174,-1.3654637822628408,-0.35581173074140543,-1.1399132307592783
1687006954.461096,-0.9261431694030762,0.352292001247406,-0.1347186267375946,-0.013615131378173828,0.05017384886741638,0.13113270699977875,2.566272258758545,-2.219097137451172,0.5655381679534912,-1.4263474681943475,-0.3600189890449525,-0.9961056893955798
1687006954.464694,-0.9275431036949158,0.36493292450904846,-0.08054753392934799,-0.02634483575820923,0.010357052087783813,0.07976924628019333,2.8422417640686035,-2.229543447494507,0.6679420471191406,-1.4841739623611718,-0.37356074350971047,-0.8419325051499812
1687006954.527019,-0.91942298412323,0.3920532763004303,-0.03091060183942318,-0.010783195495605469,0.016821235418319702,0.07491683959960938,2.5354275703430176,-2.0030460357666016,0.8052258491516113,-1.537189419002791,-0.4028624808218018,-0.6966763431020734
1687006954.6490688,-0.9026643633842468,0.4302067756652832,0.010900693014264107,0.04905736446380615,-0.1473241150379181,0.12098085880279541,1.7394237518310547,-1.7895365953445435,0.893186628818512,-1.5828718704887401,-0.4447218198931869,-0.5796145158177229
1687006954.65519,-0.8787527084350586,0.4744809567928314,0.051589637994766235,-0.0030984878540039062,0.026053160429000854,0.0601351335644722,1.759072184562683,-1.7874088287353516,1.0371067523956299,-1.6294368177927367,-0.49437428835879804,-0.48590506438035264
1687006954.739476,-0.8428572416305542,0.5300062298774719,0.09319320321083069,0.02986907958984375,-0.030555546283721924,0.08377814292907715,1.1262714862823486,-1.8211092948913574,1.2488248348236084,-1.6809172174049514,-0.5586078935962411,-0.4067944239187916
1687006954.759234,-0.796387255191803,0.5927451252937317,0.12008553743362427,-0.022673964500427246,0.11912316083908081,-0.042159080505371094,2.1646018028259277,-1.5661427974700928,1.4955403804779053,-1.720456723940639,-0.63446302093229,-0.3258296376767135
1687006954.8227038,-0.7383575439453125,0.668605387210846,0.08828769624233246,-0.08734118938446045,0.3859905004501343,-0.0805058479309082,3.40632963180542,-1.3335918188095093,1.5901813507080078,-1.6898043823370363,-0.7323317925135349,-0.1641483902996202
1687006954.839186,-0.6718934774398804,0.740601658821106,0.00825477670878172,-0.11327791213989258,0.04128915071487427,-0.15757739543914795,2.873300790786743,-0.6569491028785706,1.9840128421783447,-1.5830815493791848,-0.8339653136933225,0.06122387650925521
1687006954.951349,-0.5900161266326904,0.80143141746521,-0.09792200475931168,-0.08280491828918457,0.19188523292541504,-0.18088676035404205,3.5637519359588623,-0.04074835777282715,2.2858474254608154,-1.4063304705527548,-0.9296847600324702,0.3092678100029156
1687006954.955543,-0.48608750104904175,0.843853771686554,-0.22722162306308746,-0.16535592079162598,-0.226468026638031,-0.02505207061767578,1.6327357292175293,0.7597293853759766,2.6362998485565186,-1.1335260898666475,-1.0044253959608755,0.6247168970600643
1687006955.038917,-0.3588353991508484,0.8892601132392883,-0.2836433947086334,-0.2786462604999542,-0.3760918974876404,-0.378054141998291,0.3132193088531494,1.6037970781326294,2.257920503616333,-0.9019024068820631,-1.095725053646834,0.821123986880369
1687006955.059346,-0.27876895666122437,0.9111426472663879,-0.30349117517471313,-0.7653594017028809,-1.1664681434631348,0.4734281897544861,-1.0383663177490234,1.4213377237319946,0.43104058504104614,-0.7429645498033746,-1.1460484033984437,0.9093539983314417
1687006955.124095,-0.25743672251701355,0.908404529094696,-0.32943519949913025,-0.22075843811035156,0.18166804313659668,0.035871267318725586,2.111766815185547,-0.7262469530105591,-0.44402673840522766,-0.6633263790268619,-1.1394519761641948,0.9560774882779708
1687006955.1409159,-0.27292951941490173,0.8991994857788086,-0.3419792652130127,0.12983259558677673,0.4502725601196289,-0.029023081064224243,-0.35786405205726624,-0.01770668849349022,0.14392811059951782,-0.6735739686007817,-1.1179364649975643,0.9546540649745726
1687006955.2513552,-0.2690335512161255,0.8992134928703308,-0.34501582384109497,0.07747480273246765,-0.15553075075149536,0.03799363970756531,0.16324926912784576,0.081552654504776,0.022153738886117935,-0.6622842713867206,-1.1179684347235583,0.9704898549163149
1687006955.256377,-0.27472394704818726,0.8930424451828003,-0.35637325048446655,0.04228690266609192,0.04026132822036743,-0.027476966381072998,0.27764010429382324,0.013794779777526855,-0.24228350818157196,-0.6567361148189713,-1.104061848995288,0.9742598948275918
1687006955.3382158,-0.28079962730407715,0.8875603675842285,-0.36522361636161804,-0.0068438053131103516,0.04006725549697876,-0.06402149796485901,0.09345673769712448,0.0933629721403122,-0.09071262180805206,-0.6554519764274973,-1.092022254123951,0.9704790818402135
1687006955.357596,-0.2803463935852051,0.8848134875297546,-0.37217047810554504,-0.009448498487472534,-0.04759436845779419,0.005135476589202881,0.12095127999782562,0.026508977636694908,0.047710761427879333,-0.6455932383594462,-1.086093583902722,0.978386968073037
1687006955.424481,-0.2789255976676941,0.8825325965881348,-0.37859827280044556,0.013407468795776367,-0.017435669898986816,-0.0016813874244689941,0.12497405707836151,0.014049777761101723,-0.013074556365609169,-0.6349556196014128,-1.0812209162198236,0.9894330263528628
1687006955.440758,-0.2801508903503418,0.8796224594116211,-0.38442134857177734,-0.019562214612960815,0.026505351066589355,-0.018792271614074707,0.0636700838804245,0.019680233672261238,-0.017399264499545097,-0.6297683329698427,-1.0750679673026577,0.9945005797599907
1687006955.514354,-0.2797940969467163,0.8785339593887329,-0.38716059923171997,-0.011557191610336304,0.01598203182220459,-0.00505143404006958,0.06421376764774323,-0.05167011171579361,-0.024441462010145187,-0.6257873186454784,-1.0727844287285986,0.9994248550709556
1687006955.5180578,-0.283219575881958,0.8769997358322144,-0.3881472647190094,-0.018110990524291992,-0.00465470552444458,0.03513503074645996,-0.018450086936354637,0.009730396792292595,-0.04982937499880791,-0.6303627276529477,-1.0695819592029103,0.9963587165028771
1687006955.6071038,-0.286337286233902,0.8763695359230042,-0.3872821033000946,0.011465489864349365,-0.00614553689956665,-0.019486844539642334,-0.018950695171952248,-0.04700545594096184,-0.06217392534017563,-0.6366506530914736,-1.0682720349744284,0.9907168852373827
1687006955.624346,-0.29044175148010254,0.8774413466453552,-0.3817591965198517,0.009161293506622314,0.032760560512542725,-0.007706195116043091,-0.12820321321487427,0.00026392447762191296,-0.020622221753001213,-0.6503762681665286,-1.0705018369157613,0.9774976190676329
1687006955.6645079,-0.289480060338974,0.8796558976173401,-0.3773682713508606,0.005803942680358887,-0.015062510967254639,0.006365954875946045,-0.06239890307188034,-0.01899179443717003,0.03156162053346634,-0.654357032491199,-1.075138255294918,0.9733222892184492
1687006955.787839,-0.2874630391597748,0.8810269832611084,-0.3757079839706421,0.003893733024597168,-0.013168096542358398,0.024038493633270264,-0.03466913849115372,-0.010010817088186741,0.010013452731072903,-0.6531101453845892,-1.0780287344768877,0.9752122061522014
1687006955.793355,-0.28801843523979187,0.8815286755561829,-0.37410229444503784,-0.008932828903198242,0.014436781406402588,0.03113037347793579,-0.07024237513542175,0.015896013006567955,-0.04555313661694527,-0.6561110259801949,-1.0790903257718263,0.9711266322778914
1687006955.878391,-0.28901156783103943,0.8845772743225098,-0.36605343222618103,-0.010838806629180908,-0.017039000988006592,-0.012868136167526245,-0.3454591631889343,0.04814476519823074,-0.01010513212531805,-0.6683264529512487,-1.085586876828257,0.955406886340503
1687006955.8977308,-0.28903692960739136,0.889977216720581,-0.35270100831985474,0.006886720657348633,-0.0016869902610778809,0.004480093717575073,-0.16447174549102783,-0.023665908724069595,0.024116486310958862,-0.6865159732544368,-1.09729522326009,0.9346429874219714
1687006955.9988909,-0.28983286023139954,0.8907328248023987,-0.3501313328742981,-0.014961421489715576,-0.022843539714813232,0.013308703899383545,-0.04534908011555672,-0.05919807031750679,0.009233678691089153,-0.691453871693357,-1.0989549456355063,0.9315656482652318
1687006956.004118,-0.2971217930316925,0.8898948431015015,-0.3461298644542694,-0.177960604429245,0.03576427698135376,-0.011566758155822754,-0.224290132522583,0.0928637683391571,-0.4926523268222809,-0.7093570110631661,-1.0971145602879662,0.9171698295816142
1687006956.0902848,-0.3346531093120575,0.8690678477287292,-0.3643187880516052,-0.15376541018486023,-0.2508276700973511,0.010391086339950562,0.8387727737426758,-0.39508938789367676,-1.2680306434631348,-0.7429817096611965,-1.0533148699996047,0.8933297580795336
1687006956.109159,-0.4094602167606354,0.8316108584403992,-0.3751874566078186,-0.14556291699409485,-0.3960183262825012,0.19195985794067383,-0.18125836551189423,-0.4935142397880554,-1.7718026638031006,-0.8290495794798822,-0.9820020090107666,0.8172300725887235
1687006956.169582,-0.5001067519187927,0.7915182113647461,-0.35127195715904236,-0.046600341796875,-0.21501076221466064,0.0745537281036377,0.21655456721782684,-1.0265748500823975,-1.938961386680603,-0.9584654881281177,-0.9132892634188278,0.7056585112770404
1687006956.1734009,-0.59540855884552,0.7388449907302856,-0.3155895173549652,-0.1799820065498352,-0.2501518130302429,0.12738749384880066,-0.9114624261856079,-1.0654593706130981,-2.118659257888794,-1.0834076161609352,-0.8313548016011891,0.6182141445857879
1687006956.268661,-0.6826153993606567,0.6897410750389099,-0.24143975973129272,-0.12376570701599121,-0.017606794834136963,-0.013672024011611938,-1.190657615661621,-0.8704180121421814,-2.1098132133483887,-1.2308308031818862,-0.761131349870467,0.4814327146380827
1687006956.274496,-0.7652050256729126,0.6249083876609802,-0.15475942194461823,-0.14014452695846558,-0.20339971780776978,0.021122828125953674,-2.7751619815826416,-0.7158051133155823,-2.425727367401123,-1.3712423924895902,-0.6750142185099637,0.3338066424164614
1687006956.3587952,-0.8468106985092163,0.5283747315406799,-0.061087433248758316,-0.21802377700805664,-0.06531625986099243,-0.03957492113113403,-2.787930965423584,0.1322987973690033,-2.89109468460083,-1.4987828342732223,-0.5566850962813227,0.14550901681059808
1687006956.376962,-0.9135154485702515,0.4065781235694885,-0.013554979115724564,-0.28938066959381104,-0.012168914079666138,-0.16100573539733887,-4.1531524658203125,1.2845168113708496,-2.777101516723633,-1.555959155755722,-0.4187055105094575,-0.043569442644368246
1687006956.411556,-0.9566642045974731,0.2910749316215515,-0.008294488303363323,-0.1303107738494873,0.1297471821308136,0.28829312324523926,-6.712517738342285,2.32330322265625,-2.0433382987976074,-1.5621263244515688,-0.2953502293928123,-0.3344879033701233
1687006956.4758801,-0.9739289879798889,0.2201269567012787,-0.05483007803559303,-0.11498385667800903,0.4173242449760437,0.30386871099472046,-6.23315954208374,2.965378761291504,-1.283793330192566,-1.5145578719127677,-0.22194461291107473,-0.6799548630926009
1687006956.506363,-0.969135582447052,0.20664764940738678,-0.13443514704704285,-0.004756510257720947,0.4555075168609619,0.09395349025726318,-4.58591365814209,2.6923515796661377,-0.44697460532188416,-1.4329593844352344,-0.20814741226914182,-0.9781678680225744
1687006956.532146,-0.949080228805542,0.22529271245002747,-0.22020363807678223,-0.02935892343521118,0.07950159907341003,0.29112643003463745,-2.920283317565918,2.4871883392333984,0.03176641836762428,-1.342812240212878,-0.22724346693359648,-1.1432875519625045
1687006956.5937018,-0.9130551815032959,0.281414657831192,-0.29518765211105347,0.031249940395355225,0.06158769130706787,0.2792879641056061,-3.9076967239379883,2.506509304046631,0.47320082783699036,-1.258105862189948,-0.2852680184948391,-1.311929768991944
1687006956.68685,-0.8632403612136841,0.3802165985107422,-0.33204126358032227,-0.07631945610046387,-0.0970592200756073,0.33033227920532227,-4.75108528137207,2.3171393871307373,0.9067282676696777,-1.2035965189626157,-0.3900304665803539,-1.5083327417220647
1687006956.7742329,-0.8070972561836243,0.502130389213562,-0.3105786144733429,-0.07392990589141846,-0.05637538433074951,0.252824068069458,-5.1523661613464355,2.0043816566467285,0.8409385681152344,-1.2034534714335134,-0.5260605125310654,-1.755454922445748
1687006956.7952309,-0.7709502577781677,0.5852920413017273,-0.2511351406574249,-0.04132080078125,0.1522110104560852,-0.03685927391052246,-2.8580968379974365,0.7911030650138855,0.18008825182914734,-1.2558884547843316,-0.625240164757624,-1.9847387926009683
1687006956.8637738,-0.7726080417633057,0.5932056307792664,-0.22623808681964874,-0.03307110071182251,0.18366503715515137,-0.19716277718544006,0.5914227962493896,-0.41165691614151,-0.23657022416591644,-1.2859360496875534,-0.6350349044698174,-2.047499211245904
1687006956.880261,-0.783791184425354,0.5732039213180542,-0.23897433280944824,-0.04106849431991577,-0.0082625150680542,-0.09076818823814392,1.3832136392593384,-0.6396784782409668,-0.004668288864195347,-1.2748544029523756,-0.6104105819875058,-1.9755270489500678
1687006956.920617,-0.7858421802520752,0.5687742829322815,-0.24279136955738068,-0.06729179620742798,-0.12892454862594604,-0.06906776130199432,0.046482305973768234,-0.13378335535526276,0.13849259912967682,-1.271142575577282,-0.6050148662388665,-1.9354941633267637
1687006957.0164251,-0.7831510305404663,0.5734014511108398,-0.24059335887432098,-0.024435579776763916,-0.03884023427963257,-0.0923534631729126,-0.017571644857525826,0.02438896894454956,0.06999769806861877,-1.2727362609797765,-0.6106516009469991,-1.9355720984886315
1687006957.0216432,-0.7831026315689087,0.5711252689361572,-0.24610202014446259,-0.017419159412384033,0.009837865829467773,-0.0690072774887085,0.46093595027923584,-0.05149460956454277,-0.06571060419082642,-1.2663039749121157,-0.6078760369078725,-1.923379757529243
1687006957.1078172,-0.7859711050987244,0.561906635761261,-0.257895827293396,-0.007562100887298584,-0.02649104595184326,-0.0037924349308013916,0.28630536794662476,0.04179073125123978,-0.09122181683778763,-1.2537416665437477,-0.5966889104633455,-1.8993876638402154
1687006957.126683,-0.7866131663322449,0.5574615597724915,-0.26547348499298096,0.004798710346221924,0.0074950456619262695,0.005906224250793457,0.1075499877333641,0.10155180096626282,-0.05502627044916153,-1.2453101210920892,-0.5913250546353823,-1.892988612449369
1687006957.1631188,-0.7876371145248413,0.5524447560310364,-0.2728229761123657,-0.01093149185180664,0.020156502723693848,0.04267460107803345,0.25007563829421997,0.009603897109627724,-0.05940237641334534,-1.2373487069134952,-0.5852943359821986,-1.8830185669777866
1687006957.2601151,-0.7884607911109924,0.5487525463104248,-0.277849406003952,2.396106719970703e-05,-0.0026710033416748047,0.04550379514694214,0.18365854024887085,-0.035644806921482086,-0.02626572549343109,-1.2319897260950519,-0.5808712790127228,-1.8707116531386436
1687006957.277072,-0.7901374101638794,0.5467044711112976,-0.2771225869655609,0.010321855545043945,0.04016375541687012,0.005333006381988525,0.2673341929912567,-0.0962504968047142,-0.035435523837804794,-1.2334739261182903,-0.5784233899677731,-1.8631672995476771
1687006957.312243,-0.7918012142181396,0.5448625087738037,-0.27599969506263733,-0.04325133562088013,-0.008454978466033936,0.030134767293930054,0.20699834823608398,-0.19463153183460236,0.1440572738647461,-1.2353942874759405,-0.5762251301279002,-1.8479401078936248
1687006957.401273,-0.7884756326675415,0.5503608584403992,-0.2746066749095917,-0.01947706937789917,0.034722089767456055,-0.047231703996658325,0.4927094578742981,-0.32226377725601196,0.2747034430503845,-1.2356587219195154,-0.5827964066234533,-1.8267157408964703
1687006957.405972,-0.787432074546814,0.5509597659111023,-0.27639442682266235,-0.041867733001708984,-0.040354907512664795,-0.04745817184448242,0.73769211769104,-0.42543718218803406,0.1774919331073761,-1.2332244117546312,-0.5835138885682899,-1.7865772376296105
1687006957.467227,-0.7917949557304382,0.5423210263252258,-0.28097766637802124,-0.014052093029022217,-0.016228556632995605,-0.03977736830711365,1.0266464948654175,-0.5567798614501953,0.02338172122836113,-1.229796990320623,-0.5731972150131576,-1.7347727019419952
1687006957.558959,-0.7996643781661987,0.527335524559021,-0.28714802861213684,0.005352973937988281,-0.002707839012145996,-0.028602123260498047,1.1545007228851318,-0.606049656867981,2.362765371799469e-06,-1.2260504158552727,-0.5554615640841782,-1.6737193606173448
1687006957.5771298,-0.8095982074737549,0.508049726486206,-0.29400044679641724,-0.044817566871643066,0.005423843860626221,0.010309040546417236,1.2871513366699219,-0.6483938097953796,-0.05044909194111824,-1.222460566109756,-0.5329189867736269,-1.6056480092247178
1687006957.6122332,-0.8214792013168335,0.4872252643108368,-0.2962827682495117,-0.0005270242691040039,-0.005474716424942017,0.05891701579093933,1.229304552078247,-0.7856761813163757,-0.14825262129306793,-1.2246478746510452,-0.508909529685298,-1.5433411418981007
1687006957.708372,-0.8401049375534058,0.45724648237228394,-0.29180338978767395,-0.03219413757324219,0.0058425068855285645,0.09598731994628906,1.716612696647644,-1.1276661157608032,-0.1977493315935135,-1.2364917655150824,-0.47489657317491213,-1.4659011768171246
1687006957.725124,-0.8646344542503357,0.4202587902545929,-0.2752995193004608,-0.0753374695777893,0.05241277813911438,0.10705605149269104,2.2803614139556885,-1.6563830375671387,-0.22397960722446442,-1.2625455246988275,-0.4337304950703215,-1.3679914525338897
1687006957.763297,-0.8909274935722351,0.38120293617248535,-0.24684461951255798,-0.048693299293518066,-0.008995294570922852,0.1870301514863968,2.529468059539795,-1.9237045049667358,-0.014248478226363659,-1.300511530346924,-0.391097147000559,-1.2367846730464531
1687006957.8543072,-0.9115083813667297,0.35882940888404846,-0.2009821981191635,-0.07417875528335571,0.04807668924331665,0.11065006256103516,2.2489423751831055,-1.9794329404830933,0.19646908342838287,-1.3537748089195387,-0.367013486094706,-1.1144869306505334
1687006957.859014,-0.9234554767608643,0.3540426790714264,-0.14793194830417633,-0.05139797925949097,0.021216779947280884,0.10699254274368286,1.9511611461639404,-1.9768524169921875,0.3830395042896271,-1.4119519906342408,-0.36189023729997577,-1.001222907162945
1687006957.917397,-0.9277156591415405,0.36248472332954407,-0.08915312588214874,-0.06308317184448242,0.07321470975875854,0.06480002403259277,2.202152967453003,-2.1561670303344727,0.46240168809890747,-1.4749909078113004,-0.37093257270522206,-0.8923900850579805
1687006958.0099459,-0.9241986870765686,0.3811269700527191,-0.024476448073983192,-0.0910906195640564,-0.13089802861213684,0.048936184495687485,1.4569443464279175,-2.1375181674957275,0.710056483745575,-1.544318549196284,-0.39101496573750627,-0.781506140974066
1687006958.028703,-0.9080621004104614,0.41705122590065,0.03861958160996437,-0.03731131553649902,0.15785416960716248,0.0412447452545166,2.551564931869507,-2.17496919631958,0.7950224876403809,-1.613300383979649,-0.43019850134384385,-0.6840305998245926
1687006958.065563,-0.8819177746772766,0.4659750759601593,0.07133130729198456,0.015004992485046387,0.0579812228679657,0.06701993942260742,2.6623454093933105,-2.0048818588256836,1.0745582580566406,-1.6515026860716053,-0.48473632561401425,-0.5338184935729468
1687006958.156612,-0.8409731984138489,0.5351035594940186,0.08017704635858536,0.0234377384185791,0.18338710069656372,0.016609318554401398,3.256530284881592,-1.7960995435714722,1.6572803258895874,-1.6658474474378338,-0.5646303464681972,-0.3723318983303128
1687006958.17324,-0.775153398513794,0.6295874714851379,0.052504636347293854,-0.03482884168624878,0.14856493473052979,0.0717780590057373,3.0778701305389404,-1.6621818542480469,2.4766952991485596,-1.6384275310773244,-0.6810221367868885,-0.1773801813713997
1687006958.2138271,-0.6798750758171082,0.7332875728607178,-0.007686597760766745,-0.061900317668914795,0.46995943784713745,0.07139188051223755,5.06402587890625,-1.8184025287628174,2.793818950653076,-1.5594909107345387,-0.8231446406927129,0.06363724375791861
1687006958.304651,-0.5757221579551697,0.8006508946418762,-0.1658371239900589,-0.22589820623397827,-0.33576148748397827,0.13461752235889435,3.472222089767456,-0.2534787356853485,2.8268847465515137,-1.2903379815041027,-0.928380822130755,0.49192783665036866
1687006958.309287,-0.4614587426185608,0.8546425700187683,-0.2379952073097229,-0.25126397609710693,-0.5756052136421204,-0.35654836893081665,0.3453458845615387,1.343141794204712,2.101551055908203,-1.0946319063197014,-1.024862074403,0.6873370176898397
1687006958.365689,-0.3773057460784912,0.8852010369300842,-0.2721383273601532,-0.41471683979034424,-1.0913779735565186,-0.08601602911949158,-1.1366281509399414,2.2098166942596436,0.7574871182441711,-0.9459390824533982,-1.0869259153742883,0.76096965765765
1687006958.487515,-0.34936970472335815,0.8937140107154846,-0.28145360946655273,-0.34138041734695435,-0.06294924020767212,0.0640920102596283,0.8187907934188843,1.307289958000183,-0.3462144434452057,-0.892647679205409,-1.105556531586065,0.6967479463441075
1687006958.4933782,-0.3582491874694824,0.8756895661354065,-0.3237670361995697,-0.2895168662071228,-0.05441594123840332,0.26499006152153015,0.18210139870643616,-0.3317563533782959,-0.12190303206443787,-0.8359142628744601,-1.0668620119140475,0.750195392267463
1687006958.579385,-0.35060766339302063,0.8761897683143616,-0.33070462942123413,0.2066563367843628,0.3877871632575989,-0.25715550780296326,0.6406437158584595,-0.07166579365730286,0.337804913520813,-0.8146026695370672,-1.0678988667564557,0.7739318255997689
1687006958.597606,-0.3417990505695343,0.8771591782569885,-0.33729085326194763,0.04631265997886658,-0.2225724458694458,0.2588300108909607,-0.24052369594573975,0.20129196345806122,0.06453821808099747,-0.7920366596808109,-1.069913937563352,0.7970004425833381
1687006958.665409,-0.3461414873600006,0.8721152544021606,-0.34583377838134766,0.009654760360717773,0.0726783275604248,-0.0794440507888794,0.29282858967781067,0.16963696479797363,-0.24012874066829681,-0.7858428315078493,-1.0595087957864997,0.7960058657539063
1687006958.681921,-0.3463541865348816,0.8686091303825378,-0.35433998703956604,-0.005482852458953857,0.022137820720672607,0.02326992154121399,0.012282191775739193,0.16321755945682526,0.02092095836997032,-0.7740017063874026,-1.0523883284037567,0.7979036539730431
1687006958.754241,-0.3435524106025696,0.8674448728561401,-0.3598766326904297,0.0015114545822143555,-0.05161851644515991,-0.03959858417510986,0.13914960622787476,0.052659887820482254,0.03397311270236969,-0.762195682181201,-1.050043472943672,0.8060398086412562
1687006958.758061,-0.34168583154678345,0.8664857745170593,-0.36394110321998596,0.00014841556549072266,-0.019974052906036377,0.0190008282661438,0.05614371970295906,0.06569646298885345,-0.017267704010009766,-0.7538688905523452,-1.048119071257269,0.811682699430202
1687006958.814431,-0.3429137170314789,0.8639706373214722,-0.3687341511249542,-0.01525580883026123,0.01737689971923828,0.03114861249923706,0.04385389760136604,0.047944895923137665,-0.06627732515335083,-0.749131459084059,-1.0431025759869477,0.8127522450624247
1687006958.910645,-0.34447646141052246,0.8635098934173584,-0.36835670471191406,-0.010275065898895264,0.018692195415496826,0.04033839702606201,-0.06336037069559097,0.06272291392087936,-0.05641590431332588,-0.7519102419147287,-1.0421881901681926,0.8067718228825447
1687006958.9305859,-0.3480457663536072,0.8648585677146912,-0.3617785573005676,-0.0017313957214355469,-0.004247725009918213,-0.002723515033721924,-0.13719671964645386,-0.012990094721317291,-0.05514424666762352,-0.766053827872327,-1.0448685527653385,0.7906994776515167
1687006958.9626389,-0.3503890037536621,0.868971049785614,-0.3494521975517273,0.001115351915359497,0.026094138622283936,-0.036656320095062256,-0.20004397630691528,-0.05695249140262604,-0.014162990264594555,-0.7867367756721599,-1.053119267284398,0.7689496476826627
1687006959.058272,-0.35136568546295166,0.8717938661575317,-0.34134674072265625,0.018891990184783936,0.019136250019073486,0.0592726469039917,-0.2329661101102829,-0.09415099769830704,0.03576648607850075,-0.7998605006812377,-1.0588523582782285,0.7577450646650962
1687006959.0758572,-0.34942057728767395,0.8780306577682495,-0.3270585834980011,0.04178822040557861,-0.03602027893066406,-0.010496437549591064,-0.4621966481208801,-0.15190163254737854,0.07862074673175812,-0.8184425726810559,-1.0717317829035888,0.7420660948004817
1687006959.112576,-0.3676648437976837,0.8820761442184448,-0.29455721378326416,-0.18259748816490173,-0.19660574197769165,-0.029020756483078003,-0.597362756729126,-0.10196244716644287,-0.6746418476104736,-0.8953503728117321,-1.0802510819077236,0.6602613312843351
1687006959.204922,-0.409336656332016,0.8705939650535583,-0.2729642689228058,-0.20070967078208923,-0.1799965500831604,-0.024887442588806152,-0.5029720067977905,-0.18172279000282288,-1.1289705038070679,-0.982669971739097,-1.0564083333443677,0.570545141582986
1687006959.209765,-0.4619365334510803,0.8510570526123047,-0.24963286519050598,-0.0698474645614624,-0.15257078409194946,0.04237258434295654,-0.48729318380355835,-0.35416871309280396,-1.209134817123413,-1.0753494484914787,-1.0179951818462898,0.47297029848490096
1687006959.2663121,-0.520123302936554,0.8292507529258728,-0.20448653399944305,-0.07904350757598877,-0.14716774225234985,0.0389590859413147,-1.027349829673767,-0.3429296612739563,-1.3696774244308472,-1.1962089426231708,-0.9777657534472414,0.3468200146610603
1687006959.3597832,-0.5884579420089722,0.7883612513542175,-0.17945392429828644,-0.10575586557388306,-0.0956275463104248,-0.1034899353981018,0.17601712048053741,-0.42947250604629517,-1.7862807512283325,-1.2747987445419602,-0.9081407100190829,0.2765578746305972
1687006959.377692,-0.6617352962493896,0.7339851260185242,-0.15287964046001434,-0.10469835996627808,-0.13552021980285645,0.040178120136260986,-1.3097059726715088,-0.0757923573255539,-1.8852938413619995,-1.3437514213284565,-0.8241711611717271,0.20113151081345765
1687006959.4135342,-0.7334344387054443,0.670107364654541,-0.11414781957864761,-0.08045393228530884,0.16950738430023193,-0.18925809860229492,-0.39820146560668945,0.1592390537261963,-2.122451066970825,-1.4164003231381452,-0.7343534070901205,0.09562536922250153
1687006959.50752,-0.7965616583824158,0.5952774286270142,-0.10551855713129044,-0.05893754959106445,0.0022566914558410645,-0.13357150554656982,-1.1567051410675049,0.5525002479553223,-2.0020177364349365,-1.4390955655047974,-0.6376108874019596,0.037943102773403584
1687006959.524574,-0.8500345349311829,0.5167776942253113,-0.10189025104045868,0.0018139481544494629,-0.07897263765335083,0.07379867136478424,-2.6281521320343018,1.556797981262207,-2.008950710296631,-1.45149948939184,-0.5430828218400497,-0.07929859596646424
1687006959.565917,-0.8840011954307556,0.45709866285324097,-0.0979926660656929,0.028212130069732666,0.07410553097724915,-0.06574952602386475,-4.059866905212402,2.2521839141845703,-1.6404849290847778,-1.4603957796885254,-0.4747303824861025,-0.29493752059355705
1687006959.690116,-0.9033658504486084,0.4124092757701874,-0.1176801323890686,0.06042468547821045,-0.006998538970947266,0.32851070165634155,-4.931776523590088,2.73763108253479,-1.315228819847107,-1.441257273103827,-0.4250971520217689,-0.5451421690763341
1687006959.6962528,-0.907478392124176,0.39150136709213257,-0.1523473560810089,0.022621214389801025,0.2543421983718872,0.05447743833065033,-3.7447702884674072,2.844658136367798,-0.9980843663215637,-1.4044674578304817,-0.402262627170491,-0.8063041839787644
1687006959.843647,-0.8990474939346313,0.37994641065597534,-0.21761009097099304,-0.0069887638092041016,0.13297778367996216,0.2835432291030884,-2.8791778087615967,2.743471384048462,-0.7716957330703735,-1.3333184704741126,-0.38973836670549095,-0.9845393976444182
1687006959.859436,-0.8777894973754883,0.3854479193687439,-0.28445592522621155,-0.05060076713562012,0.09412053227424622,0.26002660393714905,-2.628227710723877,2.5411369800567627,-0.47615671157836914,-1.2574154135314024,-0.3956931893934121,-1.1311235413495029
1687006959.898162,-0.8455583453178406,0.4166576862335205,-0.3338073790073395,-0.13210266828536987,0.019667387008666992,0.2171539068222046,-3.231091022491455,2.460327625274658,-0.17686614394187927,-1.194800227394975,-0.42976554152522367,-1.2862557439171343
1687006959.913193,-0.8113184571266174,0.4659009873867035,-0.35312679409980774,-0.19800454378128052,-0.1345105767250061,0.39855217933654785,-3.9042112827301025,2.259669065475464,-0.6076026558876038,-1.1602755135662357,-0.48465257458802546,-1.4785257588813103
1687006959.915791,-0.803638219833374,0.4863112270832062,-0.34302595257759094,-0.18455135822296143,0.10038918256759644,0.056343793869018555,-2.892246723175049,1.3005187511444092,-1.262941837310791,-1.1673671499402178,-0.5078631785418481,-1.6797403413526437
1687006959.9494429,-0.8158864974975586,0.48039984703063965,-0.3217843174934387,0.01112276315689087,0.37445852160453796,-0.04161900281906128,-0.9975380897521973,0.06103593111038208,-0.4972201883792877,-1.195128229899337,-0.501110545631876,-1.8094082714594861
1687006960.0153499,-0.8171302676200867,0.49249267578125,-0.2995811402797699,0.02904444932937622,0.1495513916015625,-0.07737201452255249,0.3221086263656616,-0.6862879395484924,0.7668792605400085,-1.2193874585373259,-0.5149515467542894,-1.817143867492632
1687006960.108248,-0.8050935864448547,0.5207584500312805,-0.2839624285697937,-0.12584495544433594,-0.1379002332687378,-0.10568603873252869,0.2529663145542145,-0.4770897328853607,0.696380615234375,-1.2317116740185161,-0.5477391193875044,-1.7793203203494519
1687006960.126182,-0.7986039519309998,0.5374409556388855,-0.2709043025970459,-0.05489647388458252,-0.16227304935455322,-0.10057094693183899,-0.5639506578445435,0.03978416696190834,0.04087655991315842,-1.2437550562234205,-0.5673995939905374,-1.7829064144970583
1687006960.161814,-0.7979578971862793,0.5440183877944946,-0.25943610072135925,0.03741413354873657,0.005786240100860596,-0.08428341150283813,-0.5497822165489197,0.19876649975776672,-0.05477859452366829,-1.2564513317638069,-0.5752188251738926,-1.82195668061733
1687006960.2526112,-0.7964845299720764,0.5461599230766296,-0.25946393609046936,-0.007256805896759033,0.012418508529663086,-0.02962908148765564,0.1322074681520462,0.025198834016919136,0.03772177919745445,-1.255875906467702,-0.5777731495849551,-1.8314319794576845
1687006960.2563438,-0.7956910133361816,0.5456196069717407,-0.263011634349823,-0.032372891902923584,-0.029384255409240723,0.013469338417053223,0.17543888092041016,-0.0693909227848053,0.04168402776122093,-1.251557418224496,-0.5771282824999806,-1.820379317639149
1687006960.3154159,-0.7959946990013123,0.544886589050293,-0.26361116766929626,-0.016261041164398193,-0.07186424732208252,0.018310874700546265,-0.06951221078634262,0.04158126935362816,-0.04166092723608017,-1.250992212869932,-0.576253890743187,-1.8173497456484593
1687006960.378772,-0.7980054020881653,0.5423384308815002,-0.26278528571128845,-0.01138162612915039,-0.02497398853302002,0.04347071051597595,-0.15501652657985687,0.060189709067344666,-0.08625342696905136,-1.2526777670723357,-0.5732179586027129,-1.8261797506477164
1687006960.468425,-0.8026525378227234,0.5368946194648743,-0.25979354977607727,-0.01204448938369751,0.007889866828918457,0.03773239254951477,-0.0014972034841775894,-0.05427761375904083,-0.08469680696725845,-1.2577689702096695,-0.5667519107725677,-1.8331049768810406
1687006960.474395,-0.8059059381484985,0.534624457359314,-0.254346638917923,-0.0012686848640441895,-0.01484912633895874,0.041837453842163086,-0.11644602566957474,-0.0768526941537857,-0.018892765045166016,-1.2650866638215605,-0.564063305828514,-1.837270874863448
1687006960.562615,-0.8073115348815918,0.5368767976760864,-0.24497179687023163,0.014678597450256348,-0.0026819705963134766,0.01946212351322174,-0.1814647614955902,-0.09618818014860153,0.016559768468141556,-1.27618522531573,-0.5667307512460195,-1.847235850253512
1687006960.582763,-0.8085657358169556,0.5400595664978027,-0.23357421159744263,-0.007001161575317383,-0.0022178292274475098,0.024986520409584045,-0.2218039333820343,-0.12156251817941666,0.036524154245853424,-1.289577195544662,-0.5705078703790729,-1.8592979919759978
1687006960.612062,-0.809183657169342,0.5438547134399414,-0.22235940396785736,-0.016347229480743408,-0.009934484958648682,-0.0021279454231262207,-0.1501973271369934,-0.1655607372522354,0.03476060926914215,-1.3026209725047815,-0.5750237680846442,-1.8700918428861204
1687006960.702219,-0.8114930987358093,0.5446302890777588,-0.2117941677570343,-0.0249326229095459,-0.02271866798400879,-0.021528005599975586,-0.14190204441547394,-0.13301144540309906,-0.02217590995132923,-1.3154981840156241,-0.5759482274065612,-1.8773287528059293
1687006960.7062669,-0.8136454820632935,0.54448002576828,-0.20376995205879211,0.0001843571662902832,0.007918596267700195,-0.05466817319393158,-0.13869953155517578,-0.09313153475522995,-0.03318062424659729,-1.325402926312705,-0.5757690582590919,-1.886864830371089
1687006960.765044,-0.8157705664634705,0.5428087711334229,-0.19969256222248077,-0.012796878814697266,0.02274298667907715,-0.05474776029586792,-0.0352620929479599,-0.06075815111398697,-0.03888830915093422,-1.3307270801092212,-0.5737778604031465,-1.8915388330980287
1687006960.859431,-0.816669762134552,0.541939377784729,-0.19837366044521332,-0.015773355960845947,0.008384108543395996,-0.043005168437957764,-0.07480770349502563,-0.005343228112906218,-0.010522183030843735,-1.3325058142667967,-0.5727430332794521,-1.8938385716758048
1687006960.879489,-0.8158296942710876,0.5434191823005676,-0.19778110086917877,0.009631693363189697,-0.007316946983337402,-0.022143825888633728,-0.14075195789337158,0.044487979263067245,0.02338811382651329,-1.332955519301187,-0.5745048326668482,-1.8992020432907752
1687006960.943326,-0.8142247796058655,0.5460189580917358,-0.19723394513130188,-0.005553543567657471,-0.01968228816986084,0.0002429485321044922,-0.1911812424659729,0.07283426821231842,0.030865468084812164,-1.3331389088114527,-0.5776048958830599,-1.9078640745934305
1687006960.96019,-0.8132911324501038,0.5473601222038269,-0.19736798107624054,-0.004610300064086914,-0.01487421989440918,-0.0040938109159469604,-0.10206002742052078,0.03868108615279198,-0.013585351407527924,-1.332720606266195,-0.57920657879922,-1.9150468985867795
1687006961.0031838,-0.8145228624343872,0.5457829833030701,-0.19665533304214478,-0.005347013473510742,-0.01573842763900757,0.0121307373046875,-0.030212271958589554,0.017391111701726913,-0.048795271664857864,-1.3338937852217847,-0.57732324393678,-1.9195921222535846
1687006961.064095,-0.8161482214927673,0.5437018275260925,-0.19567883014678955,0.0017257332801818848,-0.012146711349487305,0.007339552044868469,-0.06849927455186844,0.006686669774353504,-0.051801182329654694,-1.3354792903379897,-0.5748415695080908,-1.9233745669021598
1687006961.153541,-0.8182191848754883,0.5414018630981445,-0.19339412450790405,-0.007418513298034668,-0.02370166778564453,0.030643880367279053,-0.12315580248832703,0.024148084223270416,-0.0767669826745987,-1.338696121675759,-0.5721035766165384,-1.9297240206690043
1687006961.157685,-0.8214402198791504,0.5376431941986084,-0.19019895792007446,0.007231354713439941,0.008987665176391602,0.020704269409179688,-0.05971356853842735,-0.01602703146636486,-0.14448371529579163,-1.3432627032225548,-0.5676394382702878,-1.9381626194160066
