Timestamp,gravityX,gravityY,gravityZ,accelerationX,accelerationY,accelerationZ,rotationRateX,rotationRateY,rotationRateZ,attitudeRoll,attitudePitch,attitudeYaw
1687008712.556573,-0.8828056454658508,0.45592761039733887,-0.1130666732788086,0.0009850263595581055,0.005223453044891357,-0.01628214120864868,0.029248639941215515,-0.016760066151618958,0.022939637303352356,-1.4434132983847534,-0.4734141891418781,-2.874846499828547
1687008712.562249,-0.882362961769104,0.4565809965133667,-0.1138826310634613,-0.0012887120246887207,0.005394041538238525,-0.005608975887298584,0.07285962998867035,-0.012814326211810112,0.0173664391040802,-1.4424403877891907,-0.4741484248320664,-2.8719424882882616
1687008712.647018,-0.8821129202842712,0.4565276801586151,-0.11601362377405167,-0.004239559173583984,-0.007812529802322388,0.0030069947242736816,0.03325729817152023,0.008248480968177319,-0.000522012822329998,-1.4400289515121563,-0.47408850089034754,-2.867780407346296
1687008712.66536,-0.8820444941520691,0.45643350481987,-0.1169017031788826,0.0010324716567993164,-0.002301424741744995,0.005344673991203308,0.010794932022690773,0.010264893062412739,-0.0036709345877170563,-1.4390293285807794,-0.4739826718126383,-2.867068906007205
1687008712.699092,-0.882246196269989,0.4559226632118225,-0.11737130582332611,-0.004213094711303711,-0.003453850746154785,0.01002568006515503,0.01280901301652193,-0.00307128531858325,0.004000832326710224,-1.4385360523616932,-0.4734086214395181,-2.866113537241896
1687008712.795784,-0.8821874260902405,0.4561258554458618,-0.11702314764261246,-0.004912734031677246,-0.008860290050506592,0.008212685585021973,-0.007646793499588966,-0.009124251082539558,0.00572602916508913,-1.438915154470757,-0.4736369407547311,-2.8658329266682006
1687008712.813,-0.8824098110198975,0.45592454075813293,-0.11612854897975922,-0.0027373433113098145,-0.003257274627685547,0.006036326289176941,-0.015604184940457344,0.0027702252846211195,-0.015653828158974648,-1.439944421329587,-0.47341071103418186,-2.867293905368799
1687008712.85133,-0.8829746246337891,0.454966276884079,-0.11559152603149414,-0.0028742551803588867,-0.002955228090286255,-0.0021453499794006348,-0.02982420101761818,0.0029234900139272213,-0.010027367621660233,-1.440625088529354,-0.47233434914486616,-2.868521181480249
1687008712.9405642,-0.8830859661102295,0.45507901906967163,-0.1142904981970787,-0.0011456608772277832,0.003508627414703369,-0.00468231737613678,-0.032793957740068436,-0.005112198647111654,0.010207862593233585,-1.4420900369251568,-0.47246096731825726,-2.871060455177056
1687008712.945101,-0.8830463290214539,0.4552583396434784,-0.11388083547353745,0.004811584949493408,-0.004452764987945557,-0.005824379622936249,-0.002392043359577656,-0.0021889801137149334,0.0029451558366417885,-1.4425406305407453,-0.4726623338270476,-2.8715885390843625
1687008713.005378,-0.8829744458198547,0.4555070400238037,-0.11344316601753235,-0.015386700630187988,-0.007234394550323486,-0.001058816909790039,-0.06195124611258507,0.015081353485584259,-0.00919832568615675,-1.4430179027476993,-0.47294168741655795,-2.8732288198466835
1687008713.066906,-0.8834683299064636,0.45448797941207886,-0.11368569731712341,-0.0039370059967041016,-0.0003712177276611328,-0.0008925795555114746,-0.03275001794099808,0.0177659522742033,-0.02861117199063301,-1.4428184961105264,-0.4717973235871699,-2.875839521607938
1687008713.154657,-0.8841403722763062,0.453168123960495,-0.11372961103916168,-0.005035042762756348,0.005007535219192505,-0.006647005677223206,-0.03564221039414406,0.020937245339155197,-0.026416726410388947,-1.4428658637644134,-0.4703161429394033,-2.878242106434679
1687008713.160797,-0.8844020962715149,0.4525943994522095,-0.11397866159677505,-0.002164006233215332,1.1742115020751953e-05,-0.00633692741394043,-0.10037519782781601,0.03795258328318596,-0.017815249040722847,-1.4426262905700433,-0.4696726286752027,-2.881477893313562
1687008713.210463,-0.8844618797302246,0.4522843062877655,-0.11474421620368958,0.002854764461517334,-0.002775639295578003,-0.007448211312294006,-0.10643522441387177,0.060374267399311066,-0.022449683398008347,-1.4417835294549715,-0.46932492472049914,-2.885892212976595
1687008713.2771978,-0.8843292593955994,0.4526938498020172,-0.11414863169193268,-0.0033049583435058594,0.020557433366775513,-0.0027031898498535156,-0.1879177689552307,0.08448159694671631,-0.023595906794071198,-1.4424267903449315,-0.46978416141991847,-2.896797448679188
1687008713.283551,-0.8845992088317871,0.4516541361808777,-0.11615767329931259,0.00506746768951416,0.013937234878540039,0.008049137890338898,-0.015586275607347488,0.06670166552066803,-0.03179311752319336,-1.4402322550206133,-0.4686184669786831,-2.900612454394591
1687008713.362663,-0.8846132755279541,0.45118874311447144,-0.11784674972295761,0.0015262365341186523,0.003095865249633789,0.013079889118671417,-0.10977315902709961,0.07897897064685822,-0.031717218458652496,-1.4383577350779484,-0.46809691887957816,-2.904406816424749
1687008713.459735,-0.8847678899765015,0.45057213306427,-0.11903958022594452,0.0015435218811035156,0.022724926471710205,0.014303207397460938,-0.03670341148972511,0.0708404928445816,-0.05351812019944191,-1.4370561673501003,-0.46740610186752607,-2.9095791792015637
1687008713.4653878,-0.8850910663604736,0.4497435986995697,-0.1197676882147789,-0.0027719736099243164,0.0038085579872131348,0.020707614719867706,-0.1014452576637268,0.05671907961368561,-0.02071250230073929,-1.436296483586814,-0.46647824601203763,-2.913437646795432
1687008713.546115,-0.8847223520278931,0.45082026720046997,-0.11843761801719666,-0.002545654773712158,0.017166733741760254,0.012114346027374268,-0.05882056802511215,0.022866837680339813,-0.0039020972326397896,-1.4377177213808539,-0.467684060019413,-2.9194697913751244
1687008713.564372,-0.8848022818565369,0.45080259442329407,-0.11790595948696136,-0.0038084983825683594,0.010485798120498657,0.005936920642852783,0.024695567786693573,0.006341524422168732,-0.008593255653977394,-1.438319944690611,-0.46766426769967606,-2.920296142586869
1687008713.6004848,-0.8846623301506042,0.4514625072479248,-0.11642185598611832,-0.00019478797912597656,0.004515856504440308,0.004162907600402832,-0.09760557860136032,0.003543074708431959,0.0017304886132478714,-1.4399479091788467,-0.4684036992386556,-2.9227249063956746
1687008713.696412,-0.8842265009880066,0.45299407839775085,-0.1137528344988823,0.002665281295776367,0.00576135516166687,-0.011338770389556885,-0.10767199844121933,0.015720510855317116,0.013145861215889454,-1.4428523440676764,-0.470120918885354,-2.9298162218676493
1687008713.713361,-0.8839089870452881,0.45387953519821167,-0.11268676072359085,-0.01674097776412964,0.0032127201557159424,-0.008910536766052246,0.00293760746717453,-0.0047975461930036545,0.0035472968593239784,-1.4439935070745045,-0.47111435226015475,-2.9324611845646187
1687008713.7498112,-0.8836734294891357,0.454284131526947,-0.11290325224399567,0.0013187527656555176,-0.0019373893737792969,-0.009167075157165527,0.006632876582443714,-0.008103327825665474,0.015124323777854443,-1.4437190052631423,-0.4715684919657119,-2.932496420888555
1687008713.811794,-0.883232831954956,0.45500943064689636,-0.11342858523130417,-0.00202101469039917,-0.01566314697265625,-0.01268535852432251,0.010209901258349419,-0.012151598930358887,0.0317392535507679,-1.4430711125219504,-0.472382789045262,-2.930309203473044
1687008713.908149,-0.882549524307251,0.45612943172454834,-0.11424572765827179,-0.005603432655334473,-0.011244237422943115,-0.016125380992889404,0.015380961820483208,0.016253942623734474,0.02597111091017723,-1.4420625673357046,-0.4736409426777551,-2.9293965358950906
1687008713.914429,-0.8823912143707275,0.4558729827404022,-0.11647135019302368,0.0009062886238098145,-0.01033163070678711,-0.017119407653808594,0.08747731894254684,0.005331387277692556,0.007738846354186535,-1.4395598421638107,-0.4733527857955308,-2.9262418240883794
1687008713.963556,-0.8821991086006165,0.4554685652256012,-0.11946983635425568,-0.00838005542755127,-0.01892992854118347,-0.009863674640655518,0.019646480679512024,0.04007738456130028,0.007819273509085178,-1.43619243385194,-0.47289846592638507,-2.9223926581842643
1687008714.054301,-0.8823245167732239,0.45410457253456116,-0.12366227060556412,-0.012084603309631348,0.0023315250873565674,-0.010187864303588867,0.13873837888240814,0.03591939061880112,-0.030559539794921875,-1.4315482856422492,-0.4713669294854266,-2.917948958569137
1687008714.060134,-0.8829275965690613,0.4517817497253418,-0.1277957260608673,-0.0038367509841918945,-0.015212655067443848,-0.0020413249731063843,-0.018684662878513336,0.05994775891304016,-0.014061524532735348,-1.4270536915100027,-0.46876153733651393,-2.913650301483471
1687008714.115942,-0.8831077814102173,0.45033445954322815,-0.1316022276878357,-0.005945384502410889,0.0047740638256073,-0.003224417567253113,0.09668140858411789,0.06248189136385918,-0.03725605830550194,-1.422863271520394,-0.46713988523919076,-2.912087881921894
1687008714.209624,-0.8838629722595215,0.4475577771663666,-0.13593415915966034,0.002698540687561035,0.0032325685024261475,0.013497591018676758,0.07642287760972977,0.05330730229616165,-0.039339449256658554,-1.4181964798836704,-0.46403246263695924,-2.907486329407372
1687008714.216213,-0.8841939568519592,0.44576674699783325,-0.13961736857891083,0.0005881190299987793,0.00862470269203186,0.009368300437927246,0.06860676407814026,0.051574647426605225,-0.03592314571142197,-1.4141858549885993,-0.4620306250558483,-2.904452244762543
1687008714.2627459,-0.8848473429679871,0.44351059198379517,-0.1426299810409546,0.0025232434272766113,0.01590093970298767,0.01819451153278351,0.10286767035722733,0.02862565778195858,-0.04137703403830528,-1.4109793993509308,-0.45951178678791504,-2.900542913629671
1687008714.3548698,-0.8858495354652405,0.44032353162765503,-0.14623862504959106,0.002625107765197754,0.035033464431762695,-0.010194480419158936,0.4517251253128052,-0.05852682143449783,-0.07124491780996323,-1.407188976772247,-0.45595898509178734,-2.8898460290068515
1687008714.359669,-0.890647828578949,0.42291224002838135,-0.1670069545507431,0.0233079195022583,0.18707305192947388,-0.06399588286876678,2.8435590267181396,-0.3276742398738861,-0.2820245325565338,-1.3854370005441914,-0.4366567090405512,-2.8170971696127474
1687008714.477271,-0.9016839265823364,0.3708288073539734,-0.2223779410123825,-0.028995275497436523,0.041463643312454224,-0.0006293058395385742,4.393206596374512,-0.6791850328445435,-0.2753080427646637,-1.3289964983959892,-0.37990129136571665,-2.61523844800919
1687008714.48329,-0.9172037839889526,0.2950384318828583,-0.2677490711212158,-0.029314100742340088,0.21663454174995422,0.010302722454071045,7.154987335205078,-1.2879770994186401,-0.15354937314987183,-1.286769834360015,-0.2994957262562704,-2.341876753648154
1687008714.566401,-0.9400664567947388,0.1526903659105301,-0.3048943281173706,0.03525090217590332,0.1519055813550949,0.3718193471431732,10.89954662322998,-1.6430386304855347,-0.0696379691362381,-1.2571680678039336,-0.15328999279665742,-1.8854715695293631
1687008714.583669,-0.964785635471344,-0.001198772108182311,-0.26303455233573914,-0.11289674043655396,-0.10077566653490067,0.486850380897522,10.262718200683594,-1.6434587240219116,0.4566996097564697,-1.3046299637873024,0.0011987723777134702,-1.3564413828454398
1687008714.689014,-0.9831942319869995,-0.05295686423778534,-0.17471283674240112,-0.16275596618652344,-0.18523277342319489,0.33241236209869385,6.520875930786133,-1.361635684967041,1.2731823921203613,-1.3949328655578184,0.052981647117385004,-0.9346831909942996
1687008714.694282,-0.9952096343040466,-0.011832671239972115,-0.09704366326332092,-0.16422927379608154,0.10466718673706055,0.19521857798099518,5.207675933837891,-1.329689383506775,1.912316083908081,-1.4735928565877767,0.01183294778268066,-0.6489345725661938
1687008714.776964,-0.9950562119483948,0.08596327155828476,-0.04973307251930237,-0.2590330243110657,0.16875173151493073,0.07141566276550293,4.887120723724365,-0.8229967951774597,2.7526402473449707,-1.520857718544862,-0.08606949637930132,-0.38082671506946736
1687008714.781828,-0.9720360040664673,0.22817115485668182,-0.05553167685866356,-0.24053406715393066,0.13941308856010437,-0.05712413787841797,3.2475881576538086,-0.15978127717971802,3.343337059020996,-1.5137291171641871,-0.23019886713102836,-0.17216107550370463
1687008714.8674932,-0.9182817935943604,0.3811172544956207,-0.10727478563785553,-0.3038249611854553,-0.10005038976669312,-0.03809582442045212,1.688793420791626,0.6696702837944031,3.437249183654785,-1.4545022433263801,-0.3910044421749849,-0.014943423259406608
1687008714.885583,-0.8370546102523804,0.5184485912322998,-0.1747874766588211,-0.30004554986953735,-0.21226578950881958,-0.20723164081573486,0.43549853563308716,1.4513096809387207,2.9501261711120605,-1.3649417316649577,-0.5450356896432476,0.06542741009497323
1687008714.952435,-0.7423649430274963,0.6230746507644653,-0.24631696939468384,-0.28853392601013184,-0.2840549945831299,-0.2575131058692932,-0.17655059695243835,2.104416847229004,2.3277647495269775,-1.2504260723693583,-0.6726675278468056,0.11121415867098607
1687008714.967725,-0.6429215669631958,0.703294575214386,-0.3033619225025177,-0.10250067710876465,-0.49687373638153076,-0.10027894377708435,-1.3431334495544434,2.301128625869751,1.7965686321258545,-1.1299220491696722,-0.7800212937844611,0.12267286226601201
1687008715.011745,-0.5529413819313049,0.7698214650154114,-0.3187958896160126,-0.019400477409362793,-0.3780367970466614,-0.10765683650970459,-0.9863708019256592,2.080077886581421,1.2215255498886108,-1.047801284871439,-0.87856134584582,0.08402998984694812
1687008715.1108332,-0.48192745447158813,0.8037940859794617,-0.34879931807518005,-0.0550292432308197,-0.30231404304504395,-0.02778768539428711,-0.25715047121047974,1.8476308584213257,0.7409009337425232,-0.9443020852599967,-0.9336456372650394,0.09124127885099993
1687008715.116053,-0.4273953437805176,0.8300662040710449,-0.3582223653793335,-0.23897114396095276,0.18377339839935303,0.9059975147247314,0.37405362725257874,0.007642611861228943,0.8278257250785828,-0.8732208187900825,-0.9792264052447971,0.12930241920255542
1687008715.2007751,-0.40246549248695374,0.8187134265899658,-0.4095483422279358,0.04910251498222351,-0.17955327033996582,0.044420719146728516,0.6493275165557861,0.057120949029922485,0.4509112238883972,-0.7766757810502688,-0.9591667545935212,0.24916372399164421
1687008715.218103,-0.3849726915359497,0.8256665468215942,-0.41239628195762634,0.13906210660934448,0.004686176776885986,0.13943177461624146,0.16233839094638824,-0.01196025125682354,0.29858827590942383,-0.7510190832946911,-0.9713826356794216,0.27525716164929
1687008715.247777,-0.37818723917007446,0.8260058164596558,-0.4179578125476837,0.12150394916534424,-0.18960756063461304,0.16075557470321655,0.25496333837509155,-0.32399898767471313,0.2048039734363556,-0.7354857053677335,-0.9719843076399564,0.3066610406023435
1687008715.34658,-0.377577543258667,0.8271057605743408,-0.41633063554763794,-0.049180179834365845,0.053158462047576904,0.022882699966430664,0.04152547940611839,-0.33271709084510803,0.18128693103790283,-0.7366238056875606,-0.9739384946119962,0.32580901907150633
1687008715.364217,-0.37738505005836487,0.8292258381843567,-0.4122680127620697,-0.05373668670654297,0.13046032190322876,-0.02922987937927246,0.06789763271808624,-0.24047891795635223,0.1193774938583374,-0.7412518283057976,-0.9777211864144941,0.3387525461288528
1687008715.3999271,-0.3778451383113861,0.8320450186729431,-0.4061206877231598,0.02593180537223816,0.059022367000579834,0.044655174016952515,-0.243078351020813,-0.032274045050144196,-0.015640245750546455,-0.7493464722107808,-0.9827842278615447,0.33702126395711335
1687008715.488677,-0.3812369108200073,0.8344929814338684,-0.3978438377380371,-0.004200011491775513,-0.000768125057220459,0.038514554500579834,-0.18276168406009674,0.10698464512825012,-0.17176379263401031,-0.7640853266492776,-0.987212041802235,0.3165665341194705
1687008715.493413,-0.3860039710998535,0.8334195613861084,-0.3954903483390808,-0.020856231451034546,-0.02326953411102295,0.0074745118618011475,-0.12256918847560883,0.1837015151977539,-0.20779477059841156,-0.7732600009183885,-0.9852668362576504,0.2963793496410592
1687008715.555404,-0.3905137777328491,0.831304669380188,-0.3955143094062805,-0.022358447313308716,0.011651813983917236,-0.029885590076446533,-0.020694218575954437,0.17942875623703003,-0.18444018065929413,-0.7790364953028559,-0.9814508622778507,0.27854736292381854
1687008715.616891,-0.3948192000389099,0.8292105793952942,-0.3956355154514313,-0.002656906843185425,-0.010637640953063965,0.012792408466339111,-0.11524049192667007,0.1040118858218193,-0.16415753960609436,-0.7843654360902238,-0.9776938302139775,0.26354398548789093
1687008715.7052321,-0.39996957778930664,0.8275003433227539,-0.39403989911079407,0.010763764381408691,-0.011414587497711182,0.0007597804069519043,-0.10841188579797745,0.053826216608285904,-0.11871709674596786,-0.7928660503584427,-0.9746408979321285,0.24905122587543907
1687008715.7109761,-0.403613805770874,0.8276711106300354,-0.38994383811950684,0.013675540685653687,-0.022312402725219727,0.006505697965621948,-0.13141454756259918,0.02666730247437954,-0.09780728071928024,-0.8026226333964398,-0.974945167478763,0.23492188565698693
1687008715.7647,-0.40660494565963745,0.8298240900039673,-0.3821837604045868,0.001331627368927002,0.00033026933670043945,0.009808182716369629,-0.22455261647701263,-0.01870657131075859,-0.07624845951795578,-0.8163486554169208,-0.9787923545646375,0.21818275542789461
1687008715.853949,-0.4100308418273926,0.833926796913147,-0.3693790137767792,0.012493699789047241,-0.03291672468185425,0.012719988822937012,-0.42687782645225525,-0.07967311888933182,-0.09397739171981812,-0.8375081625371616,-0.986185240630489,0.19440703137462956
1687008715.859858,-0.41770270466804504,0.8368962407112122,-0.353736013174057,-0.0009678900241851807,0.06994879245758057,0.042639732360839844,0.06912361830472946,-0.19001413881778717,-0.1441982239484787,-0.8681276188688009,-0.9915879843670143,0.1657521364889702
1687008715.912922,-0.4296281337738037,0.8271833062171936,-0.36219778656959534,-0.01722538471221924,0.032389938831329346,0.044463932514190674,0.5692140460014343,-0.17824096977710724,-0.28596973419189453,-0.870351265246059,-0.974076569544499,0.17416529302975234
1687008716.004047,-0.45270535349845886,0.8037017583847046,-0.38616204261779785,-0.003959625959396362,-0.07195138931274414,0.0990525484085083,0.7491583824157715,-0.27989622950553894,-0.6910408139228821,-0.8645575863731639,-0.9334904756970724,0.19373385365302814
1687008716.0102491,-0.5011065602302551,0.759153425693512,-0.4154253602027893,0.030479848384857178,-0.20110905170440674,0.17688459157943726,1.1795666217803955,-0.5629522800445557,-1.3534765243530273,-0.8786113926109619,-0.8620115307224906,0.20219786744178628
1687008716.063792,-0.5776971578598022,0.6974215507507324,-0.4241097569465637,0.1121973991394043,-0.4043765664100647,0.15337294340133667,0.38520514965057373,-1.0774132013320923,-1.900205373764038,-0.9375240468388524,-0.7717933333772289,0.1773477688223509
1687008716.150064,-0.6755555272102356,0.6266908049583435,-0.3884371519088745,0.05604875087738037,-0.2219056487083435,0.007257223129272461,0.399929016828537,-1.471015214920044,-2.402524948120117,-1.0489701252810613,-0.6772994072256581,0.10612208871869416
1687008716.169271,-0.7732608914375305,0.5215701460838318,-0.36059969663619995,-0.05951792001724243,-0.05555146932601929,-0.1929587721824646,0.825114905834198,-1.396572470664978,-2.4645752906799316,-1.1344404004119146,-0.5486901991743273,0.08418944283325101
1687008716.246396,-0.8571664094924927,0.4149025082588196,-0.30515825748443604,-0.11228537559509277,-0.24015888571739197,-0.035692691802978516,-0.7272585034370422,-1.1886998414993286,-2.6557776927948,-1.2287790669330008,-0.42783565624285164,0.027990976904749925
1687008716.262461,-0.9192565083503723,0.3020194470882416,-0.25249096751213074,-0.17679756879806519,-0.015154212713241577,-0.1915093958377838,-0.8648456931114197,-0.7399248480796814,-2.907680034637451,-1.302738185109483,-0.30681033114891093,-0.04471610010263319
1687008716.301295,-0.9618209004402161,0.18671973049640656,-0.20009008049964905,-0.1496291160583496,0.007646709680557251,0.025056377053260803,-4.0056657791137695,-0.28467392921447754,-2.8765604496002197,-1.3656892025043554,-0.18782209611612888,-0.2083804445974315
1687008716.39203,-0.9812554717063904,0.09831906855106354,-0.16574311256408691,-0.2443913221359253,0.039803504943847656,-0.09092508256435394,-4.887049198150635,0.3102613389492035,-2.488382339477539,-1.4034664794722413,-0.09847816678263178,-0.452542246931895
1687008716.396929,-0.9813805222511292,0.030217226594686508,-0.1896817684173584,-0.2260625958442688,-0.037770263850688934,0.37309229373931885,-8.5153169631958,1.4041962623596191,-2.3630025386810303,-1.3798700510455766,-0.030221826200256475,-0.8061981025352625
1687008716.4535851,-0.9609441161155701,0.03855453059077263,-0.27404338121414185,-0.15810483694076538,0.27447959780693054,0.29803013801574707,-8.690581321716309,2.2592008113861084,-1.3065093755722046,-1.2929894228802852,-0.038564088575077794,-1.2539578669040523
1687008716.5175161,-0.9323059916496277,0.13232499361038208,-0.3365939259529114,-0.054128825664520264,0.2334434688091278,0.2114565670490265,-7.541140556335449,1.7340911626815796,-0.35892996191978455,-1.2243258905693328,-0.1327142422694133,-1.6575661646648505
1687008716.638933,-0.9098623394966125,0.24145899713039398,-0.3374136686325073,0.009273409843444824,-0.03699120879173279,0.3325461149215698,-6.843822956085205,1.1098333597183228,-0.06693992018699646,-1.215677436313156,-0.24386904909692095,-1.993704367798908
1687008716.643046,-0.8950006365776062,0.33958736062049866,-0.2892306447029114,-0.06525015830993652,0.13065800070762634,0.05220061540603638,-5.305850028991699,0.8600404262542725,-0.04954202100634575,-1.2582272828157448,-0.3464781451239796,-2.3004891436314594
1687008716.72546,-0.8883150815963745,0.3922742009162903,-0.23878264427185059,-0.03760349750518799,-0.1087200939655304,-0.0319388210773468,-4.2129435539245605,0.6216434836387634,-0.22099819779396057,-1.3081995745061819,-0.403102657961176,-2.5356924444586446
1687008716.7315202,-0.8874160051345825,0.4235430359840393,-0.18194498121738434,-0.07297205924987793,0.0957440435886383,-0.024353861808776855,-3.0106823444366455,0.3405470550060272,-0.2002391219139099,-1.3685710173262573,-0.43735293768017475,-2.742456990376343
1687008716.816155,-0.8903244137763977,0.42988255620002747,-0.15007725358009338,-0.012339651584625244,-0.02990400791168213,-0.1400838941335678,-1.3354519605636597,0.14142358303070068,-0.23004202544689178,-1.4038014962853547,-0.4443627107473949,-2.8524597119781894
1687008716.833918,-0.8937195539474487,0.4280569851398468,-0.13428489863872528,0.026394784450531006,0.03844991326332092,-0.0807572603225708,-0.5476452112197876,0.10974527895450592,-0.13115006685256958,-1.4216580160125574,-0.4423417446157062,-2.9072802552755745
1687008716.904935,-0.8942587375640869,0.42782366275787354,-0.1314089447259903,-0.004255115985870361,-0.025601983070373535,-0.07368446886539459,-0.562802255153656,0.14293172955513,0.014341888017952442,-1.424893192006197,-0.4420835814478414,-2.9303720874676493
1687008716.920597,-0.8923283219337463,0.43377694487571716,-0.1248500868678093,-0.008153736591339111,0.05964648723602295,-0.05064129829406738,-0.3634636700153351,0.07330550998449326,0.07341692596673965,-1.4317837877402602,-0.4486804142434487,-2.960843065166685
1687008716.99192,-0.8901278972625732,0.4382724463939667,-0.12485737353563309,-0.014626622200012207,-0.010263502597808838,-0.024632982909679413,-0.10784237086772919,0.08220726251602173,0.0773051455616951,-1.4314365388156756,-0.453675800143158,-2.9669637117719097
1687008716.995545,-0.8885452151298523,0.44118091464042664,-0.12588338553905487,0.0015214085578918457,0.011165797710418701,-0.026078924536705017,-0.17116574943065643,0.15652664005756378,-0.002418450079858303,-1.430059352209158,-0.45691416310607735,-2.978271071489424
1687008717.055891,-0.8882355093955994,0.44022002816200256,-0.13131634891033173,-0.004418849945068359,0.012416660785675049,0.0023642778396606445,0.02003876306116581,0.14817775785923004,-0.04142710193991661,-1.42401993693337,-0.4558437021832676,-2.9822096705579697
1687008717.115551,-0.8884738087654114,0.43782463669776917,-0.13756433129310608,-0.023421883583068848,0.02158692479133606,0.04990255832672119,-0.08651451021432877,0.12219022959470749,-0.06272946298122406,-1.4171839277085063,-0.45317763997696225,-2.983751910968375
1687008717.236161,-0.8880206942558289,0.4382152557373047,-0.13923601806163788,0.017430424690246582,0.021532028913497925,0.0500178188085556,-0.019189799204468727,0.043156132102012634,0.03886640444397926,-1.4152689318275897,-0.45361217581652846,-2.988235429540881
1687008717.254045,-0.8873209357261658,0.4413800835609436,-0.13358525931835175,-0.0012898445129394531,0.02526414394378662,0.024118661880493164,0.18166974186897278,-0.08137048780918121,0.07037293165922165,-1.4213695223205343,-0.45713610242417313,-2.9883318988232714
1687008717.3223572,-0.8863700032234192,0.445121705532074,-0.12733709812164307,-0.01374584436416626,-0.02805328369140625,0.02160896360874176,-0.04908311367034912,-0.05036583170294762,0.036282338201999664,-1.428111246675068,-0.46131015760534544,-2.985534957896757
1687008717.3264198,-0.8866101503372192,0.44543665647506714,-0.1245328038930893,4.410743713378906e-05,0.007184743881225586,-0.011362016201019287,0.1506327986717224,-0.0452650785446167,-0.0047202203422784805,-1.4312497632221821,-0.46166192164063274,-2.984004367101515
1687008717.416136,-0.8877366185188293,0.4430541694164276,-0.1250065565109253,0.005168318748474121,0.0025634467601776123,-0.018883883953094482,0.24581104516983032,-0.09436298906803131,0.06572305411100388,-1.4309012283920324,-0.45900260686042926,-2.9719254988280666
1687008717.433634,-0.8855360746383667,0.4470852017402649,-0.12625578045845032,-0.0010147690773010254,-0.012148737907409668,-0.03045201301574707,0.08971437811851501,-0.04217727482318878,0.09426947683095932,-1.429175260013712,-0.4635040683264735,-2.962061834142501
1687008717.5042849,-0.8839389085769653,0.44912272691726685,-0.13015708327293396,-0.009356439113616943,0.002552717924118042,-0.03681989014148712,0.21170978248119354,-0.013938447460532188,0.03330545872449875,-1.4246001722229231,-0.4657832133085613,-2.952450078496893
1687008717.518903,-0.8837224245071411,0.447933167219162,-0.1356106996536255,-0.009023427963256836,0.0019568800926208496,-0.018182680010795593,0.1939985752105713,0.003075157292187214,0.004670619033277035,-1.4185301600960927,-0.464452289125126,-2.9426851805170218
1687008717.593488,-0.884247362613678,0.442851722240448,-0.1482870876789093,0.011856555938720703,0.12411913275718689,-0.01186920702457428,1.5799907445907593,-0.2808810770511627,-0.003664011135697365,-1.4046437283118007,-0.4587767891896709,-2.9044045535689653
1687008717.597629,-0.8866518139839172,0.42296111583709717,-0.18695591390132904,-0.02002549171447754,-0.09382903575897217,0.030599042773246765,2.380532741546631,-0.2731878459453583,0.05911415442824364,-1.3629843631723402,-0.4367106533756069,-2.774166999699792
1687008717.6527681,-0.888370156288147,0.40257754921913147,-0.22074776887893677,-0.027874231338500977,0.12398794293403625,-0.009110629558563232,3.101189374923706,-0.4605831801891327,0.0717356726527214,-1.3272428760366022,-0.4143309264064801,-2.6460137467366867
1687008717.746489,-0.8972939848899841,0.33462610840797424,-0.2879037857055664,-0.008849024772644043,0.35932832956314087,0.017518073320388794,7.88562536239624,-0.9964795112609863,-0.007796970196068287,-1.2603154448793876,-0.34120842785565536,-2.3696939081070427
1687008717.76443,-0.9147068858146667,0.17586973309516907,-0.3638423681259155,-0.029720664024353027,0.3286011219024658,0.23583635687828064,12.003161430358887,-1.2389707565307617,0.5781325101852417,-1.1922143794457083,-0.17678920391220526,-1.8731658501405708
1687008717.8022718,-0.9286841154098511,-0.009973976761102676,-0.3707374036312103,-0.2594718933105469,0.16691067814826965,0.6257269978523254,11.933327674865723,-0.5717445611953735,1.5108479261398315,-1.1909735770125576,0.009974142512521286,-1.2677094299157619
1687008717.893322,-0.9418065547943115,-0.08966869115829468,-0.32397496700286865,-0.12461483478546143,-0.26454877853393555,0.5646976232528687,7.03762149810791,-0.4381296634674072,2.1116645336151123,-1.239482841052754,0.08978929235890287,-0.7921202514038382
1687008717.8984752,-0.9591667056083679,-0.06159934028983116,-0.27605196833610535,-0.1099250316619873,-0.05624423548579216,0.20761620998382568,4.1515302658081055,-0.6585603952407837,2.2858245372772217,-1.2905657725064685,0.061638364943402364,-0.5078306965483855
1687008717.955442,-0.9715253710746765,0.00692946370691061,-0.23683346807956696,-0.09546053409576416,0.0209483802318573,0.1688707023859024,2.7120282649993896,-0.6314175128936768,2.428806781768799,-1.3316851409805217,-0.006929519281340694,-0.31283320078830784
1687008718.046331,-0.9696910381317139,0.10647812485694885,-0.2199125736951828,-0.21912109851837158,0.20963822305202484,-0.05801111459732056,2.726444721221924,-0.3116466999053955,2.8752708435058594,-1.3477823850882318,-0.10668036136466441,-0.15111471777402213
1687008718.065501,-0.9454922676086426,0.22436754405498505,-0.23601549863815308,-0.1481660008430481,-0.09060902893543243,-0.05533590912818909,1.045075535774231,0.3518172800540924,2.999913215637207,-1.3261736271974354,-0.22629398079924076,-0.01974340187188331
1687008718.133615,-0.8938168287277222,0.356939435005188,-0.2714509963989258,-0.14704608917236328,0.03923976421356201,-0.19427788257598877,0.05858462303876877,0.9718483686447144,2.949383020401001,-1.275949710900149,-0.36498943725098415,0.04203605419489814
1687008718.226532,-0.8188996911048889,0.4789898097515106,-0.3161836862564087,-0.11338174343109131,-0.17782709002494812,-0.18303823471069336,-0.39053472876548767,1.3161615133285522,2.553636312484741,-1.202322905606377,-0.4995035415682348,0.08063280208222719
1687008718.232023,-0.7356125116348267,0.5760209560394287,-0.3564743995666504,-0.023420631885528564,-0.383775532245636,-0.09964144229888916,-0.9456528425216675,1.5456969738006592,1.8834459781646729,-1.1195481905972173,-0.6138525828006522,0.09991185892991361
1687008718.3144732,-0.6608762145042419,0.6547644734382629,-0.36677777767181396,0.05092155933380127,-0.516901433467865,0.016695290803909302,-1.8146839141845703,1.4662995338439941,1.258577585220337,-1.0641323047227396,-0.7138709752813408,0.0668616722708191
1687008718.331039,-0.5996896028518677,0.7199087738990784,-0.34943339228630066,0.12006020545959473,-0.27729713916778564,-0.002022385597229004,-1.0364404916763306,0.9680644869804382,1.070870280265808,-1.043201697507435,-0.8036709047280814,0.005845901678177666
1687008718.40595,-0.5608581900596619,0.7481299042701721,-0.35459786653518677,0.04636240005493164,-0.3922339677810669,0.2695452570915222,-0.44875097274780273,0.3418162167072296,0.47318804264068604,-1.0070065253434917,-0.8452393090521555,0.009507360225936326
1687008718.410409,-0.5372945070266724,0.7718570232391357,-0.33992835879325867,-0.06619048118591309,0.16092801094055176,-0.015860915184020996,-0.01521629560738802,-0.2811770737171173,0.7422634363174438,-1.0067028548094188,-0.8817567332609173,0.011423790816933902
1687008718.502108,-0.5171704292297363,0.7887758612632751,-0.3322158753871918,-0.0632433295249939,-0.09561485052108765,0.03926229476928711,-0.29985836148262024,-0.1908252090215683,0.5422158241271973,-0.9998020982393433,-0.9088149108510929,0.03777599738926014
1687008718.5188298,-0.5080017447471619,0.7972579002380371,-0.32605844736099243,0.007025241851806641,0.012678563594818115,0.13991636037826538,0.556650698184967,-0.30360648036003113,0.17189157009124756,-1.000175252417572,-0.9227388915008246,0.05327344984508547
1687008718.583346,-0.5071149468421936,0.7960163950920105,-0.33044278621673584,-0.0006060004234313965,0.05406606197357178,0.015379160642623901,0.010754651390016079,-0.1199832558631897,0.05800894275307655,-0.9932878766285297,-0.9206849433081743,0.07632397465276873
1687008718.6768909,-0.5063159465789795,0.7949277758598328,-0.3342660665512085,-0.004593968391418457,0.06763625144958496,0.03247767686843872,0.011309786699712276,0.10351987183094025,-0.02697599120438099,-0.9872891289732608,-0.9188885133474102,0.08444173945909045
1687008718.682421,-0.5063690543174744,0.7951427698135376,-0.33367404341697693,-0.0015501976013183594,-0.026237130165100098,0.07074972987174988,-0.19197289645671844,0.1480492502450943,-0.07584366202354431,-0.9881521312742318,-0.9192430159496912,0.07450021579168077
1687008718.765335,-0.5080453157424927,0.7963007092475891,-0.3283214867115021,-0.008830785751342773,-0.014715135097503662,-0.0006733238697052002,-0.18080607056617737,0.09901340305805206,-0.10573738068342209,-0.9970657026361299,-0.9211547975950747,0.0560658562795455
1687008718.783839,-0.5106411576271057,0.795981228351593,-0.3250526189804077,-0.03000807762145996,0.019799232482910156,-0.027929037809371948,-0.010947315022349358,0.07319499552249908,-0.08683399856090546,-1.00392894684309,-0.9206268920767744,0.042705223231913676
1687008718.85484,-0.5121445655822754,0.7945733666419983,-0.3261302709579468,-0.015046536922454834,-0.010714173316955566,-0.006297767162322998,-0.049391310662031174,0.03105858713388443,-0.030859678983688354,-1.0037612494381418,-0.9183045840884004,0.039083662318550774
1687008718.870452,-0.514441192150116,0.7933602333068848,-0.3254682719707489,0.022024929523468018,-0.007380127906799316,0.016065746545791626,-0.05921224504709244,-0.027993014082312584,-0.04546445608139038,-1.006704997680645,-0.9163091551299243,0.034177626665955335
1687008718.9115381,-0.5173853039741516,0.7925912141799927,-0.3226628303527832,0.002614915370941162,-0.006809532642364502,7.668137550354004e-05,-0.10797785222530365,-0.02156427502632141,-0.053852081298828125,-1.0131746650860745,-0.9150469613462351,0.027373566278427765
1687008719.003663,-0.5202080011367798,0.7928235530853271,-0.31751254200935364,-0.006967782974243164,0.0163193941116333,0.009086579084396362,-0.03949959948658943,-0.01195985171943903,-0.10355784744024277,-1.0227962205075574,-0.9154280566658654,0.016881406464034406
1687008719.019271,-0.5247832536697388,0.7898550033569336,-0.31738200783729553,-0.018047988414764404,0.020768046379089355,-0.012452036142349243,0.028147755190730095,-0.007972300052642822,-0.10367263108491898,-1.0268645284534716,-0.9105725212890909,0.013071816457473443
1687008719.062362,-0.5278279781341553,0.7882401943206787,-0.31634634733200073,-0.02380770444869995,0.0022413134574890137,0.0005961060523986816,-0.05913921073079109,0.00439195754006505,-0.10107152163982391,-1.0308651397252102,-0.907943982014271,0.0080203219837961
1687008719.153522,-0.5363911986351013,0.7879095673561096,-0.30246156454086304,-0.009110450744628906,-0.10256099700927734,0.062013477087020874,-0.5300027132034302,-0.09899382293224335,-0.30600202083587646,-1.0573573550905906,-0.9074068264646744,-0.022629724660137785
1687008719.170003,-0.5572965741157532,0.7721282839775085,-0.30534955859184265,0.036209046840667725,-0.0029175281524658203,0.014822125434875488,1.2881368398666382,-0.33884331583976746,-0.6326544880867004,-1.069557498591985,-0.8821835329687359,-0.024764265761211855
1687008719.2086291,-0.5993484258651733,0.723236083984375,-0.3430900275707245,0.003523409366607666,-0.39859020709991455,0.1663321554660797,0.3768364191055298,-0.4719177186489105,-1.3206429481506348,-1.0508893082598916,-0.8084767605680199,0.027802510799441335
1687008719.307979,-0.6608874797821045,0.6821215152740479,-0.3129505217075348,-0.008362889289855957,-0.15027642250061035,-0.006400763988494873,-0.25866279006004333,-0.580701470375061,-1.7393872737884521,-1.128547484488277,-0.7506599567132279,-0.045173857214007865
1687008719.313395,-0.7344886064529419,0.6061302423477173,-0.30517643690109253,0.00380629301071167,-0.22620165348052979,-0.13435310125350952,0.36371323466300964,-0.4755120873451233,-2.2233235836029053,-1.1770038368482936,-0.6511861047396819,-0.07803719087108568
1687008719.3929439,-0.8060591816902161,0.5173192024230957,-0.28748810291290283,0.038511693477630615,-0.0859379768371582,-0.08859539031982422,-0.22062824666500092,-0.4357665181159973,-2.310563325881958,-1.2282017517896606,-0.5437154399490511,-0.13216699064134246
1687008719.3995872,-0.8658722639083862,0.41862255334854126,-0.273898720741272,-0.105593740940094,-0.08057934045791626,-0.006161212921142578,-0.15242648124694824,-0.1342078596353531,-2.383101463317871,-1.264428793623509,-0.4319280322634597,-0.16934773987886273
1687008719.4522839,-0.9071559906005859,0.3259541988372803,-0.2661232054233551,-0.10035109519958496,-0.02447107434272766,-0.08722469210624695,-1.8692253828048706,0.5702886581420898,-2.4120898246765137,-1.2854424287568886,-0.3320208687219329,-0.25966438744372883
1687008719.549552,-0.931203305721283,0.24750380218029022,-0.26758626103401184,-0.07197052240371704,0.10363151133060455,0.09323921799659729,-2.8015148639678955,0.9329575300216675,-2.321237087249756,-1.2909801037879942,-0.25010304961500507,-0.41783189467802023
1687008719.566513,-0.9420436024665833,0.1762727051973343,-0.2854496240615845,-0.08005088567733765,-0.1174347996711731,0.09299042820930481,-3.6893837451934814,1.1994824409484863,-2.4566023349761963,-1.276579394094409,-0.17719857071904016,-0.5943541103000495
1687008719.62923,-0.9390119910240173,0.13920529186725616,-0.31444934010505676,-0.1652817726135254,0.03234931826591492,0.2359122633934021,-6.10246467590332,1.7360914945602417,-2.3158042430877686,-1.2476611207011805,-0.13965885278171675,-0.8763021127114552
1687008719.7272549,-0.9210445284843445,0.15912064909934998,-0.35546794533729553,-0.1687837839126587,0.1438579112291336,0.32466039061546326,-7.225005149841309,2.0450639724731445,-1.597815990447998,-1.2024690734530843,-0.15979989451575,-1.2274523366655274
1687008719.732898,-0.8958587646484375,0.24806547164916992,-0.3686467409133911,-0.06193530559539795,0.15772674977779388,0.3333074152469635,-7.605178356170654,1.7736830711364746,-0.6173985600471497,-1.1804148033823214,-0.2506828007021054,-1.6058040160444969
1687008719.816183,-0.8725863695144653,0.3598734140396118,-0.33027881383895874,-0.05725365877151489,0.2510884702205658,0.11551135778427124,-6.050296306610107,1.3391046524047852,-0.06520247459411621,-1.2089558053087386,-0.3681322054972224,-1.9532941682979534
1687008719.834158,-0.8554131388664246,0.4352242946624756,-0.28079909086227417,-0.029398202896118164,0.013857126235961914,0.05844801664352417,-4.17997932434082,0.9759169816970825,-0.05052126571536064,-1.2536174500166957,-0.4502873949236016,-2.2102563113887745
1687008719.905527,-0.847403347492218,0.4791257381439209,-0.22879217565059662,-0.050942420959472656,-0.023315250873565674,-0.02802853286266327,-3.3500783443450928,0.6679600477218628,-0.1865704357624054,-1.3070919034441266,-0.4996584186211668,-2.414474863927431
1687008719.921109,-0.8477786779403687,0.4968852698802948,-0.185407817363739,-0.03489631414413452,-0.030775129795074463,-0.06863580644130707,-2.410490036010742,0.5502872467041016,-0.3410753309726715,-1.3554879092959566,-0.5200059256965334,-2.575713299199481
1687008719.96002,-0.8520143032073975,0.5011054873466492,-0.1515408754348755,-0.05664646625518799,-0.01355677843093872,-0.05242334306240082,-2.0542399883270264,0.5453321933746338,-0.35598158836364746,-1.394775165879609,-0.5248757407798866,-2.707195902061929
1687008720.055723,-0.8579213619232178,0.4970342516899109,-0.1301058977842331,-0.0638466477394104,0.02338188886642456,-0.051305875182151794,-1.378645658493042,0.4281817376613617,-0.36585870385169983,-1.4202906693368826,-0.5201775970750441,-2.8082080393530346
1687008720.071316,-0.8644207119941711,0.48890921473503113,-0.11723620444536209,-0.018712103366851807,0.0351690948009491,0.003680296242237091,-0.6804696321487427,0.1857369840145111,-0.29703304171562195,-1.4359948099203013,-0.5108388815575319,-2.871232717144558
1687008720.140672,-0.8702505230903625,0.47857218980789185,-0.116758793592453,0.014446139335632324,0.08008256554603577,-0.036012232303619385,0.4036741554737091,-0.01335042156279087,-0.2169552445411682,-1.4374259041696655,-0.49902786934453874,-2.8815459161152233
1687008720.2389998,-0.8740140199661255,0.46947556734085083,-0.12526831030845642,-0.0027406811714172363,-0.030388712882995605,-0.013434112071990967,0.07074574381113052,-0.005911146756261587,-0.08608298748731613,-1.4284405109114051,-0.4886967158321227,-2.8597073925197822
1687008720.256075,-0.8740969300270081,0.4702977240085602,-0.12155036628246307,0.018323063850402832,0.05103403329849243,-0.016434907913208008,-0.24164557456970215,0.036681320518255234,0.02891603484749794,-1.4326241728345983,-0.48962810051440836,-2.870278733708219
1687008720.322576,-0.8731233477592468,0.4728453457355499,-0.11862853914499283,0.007767021656036377,0.045526206493377686,-0.035286903381347656,-0.19516602158546448,0.06469018012285233,0.01258233655244112,-1.435756343979887,-0.4925171309264286,-2.8824506582773393
1687008720.3261452,-0.8714373707771301,0.47590479254722595,-0.11879172921180725,0.0024188756942749023,0.04207000136375427,-0.004590868949890137,-0.11460979282855988,0.08525644987821579,0.033463384956121445,-1.4353143957193155,-0.49599252200902505,-2.8914803745867093
1687008720.422188,-0.8684507012367249,0.48058590292930603,-0.12178005278110504,0.0014311671257019043,-0.014445245265960693,0.008254654705524445,-0.20858882367610931,0.09180741757154465,0.04160226881504059,-1.431477964703229,-0.5013227081973896,-2.8971747033423516
1687008720.437354,-0.8664337992668152,0.48424088954925537,-0.12166842073202133,-0.011114358901977539,0.011868059635162354,0.009394228458404541,-0.03984454274177551,0.07823275774717331,0.0051726242527365685,-1.431284199183861,-0.5054953297003393,-2.905638882940629
1687008720.5018291,-0.8663069605827332,0.48398080468177795,-0.12359203398227692,-0.013301253318786621,-0.019503235816955566,0.02627144753932953,-0.13723747432231903,0.07913916558027267,0.011401758529245853,-1.4290871752567287,-0.5051980892374933,-2.908284296147039
1687008720.5177832,-0.8655208349227905,0.48595601320266724,-0.12132684886455536,-0.013919353485107422,-0.000299304723739624,0.016895651817321777,-0.13304919004440308,0.03840278834104538,0.03047611564397812,-1.431525962043258,-0.5074566807594887,-2.917972940933653
1687008720.594533,-0.8663060069084167,0.4851142168045044,-0.11907199025154114,-0.011776328086853027,-0.011664509773254395,0.016807541251182556,0.03626713529229164,-0.029452160000801086,0.006825913675129414,-1.4342042413440752,-0.506493776021142,-2.9200507237154785
1687008720.598377,-0.8667486310005188,0.4847206473350525,-0.11744266748428345,-0.008007228374481201,-0.0019325613975524902,0.008784756064414978,0.027404334396123886,-0.023104116320610046,0.0026881610974669456,-1.4361185946803343,-0.5060437546588714,-2.9183335838128284
1687008720.651991,-0.8673937916755676,0.484004408121109,-0.11561974883079529,-0.009238958358764648,0.02277049422264099,-0.0058097392320632935,0.08198695629835129,-0.036493558436632156,0.007942845113575459,-1.4382818953892207,-0.505225077147877,-2.9177258839181897
1687008720.7440572,-0.8680420517921448,0.4819914698600769,-0.11910882592201233,-0.0045163631439208984,0.09353944659233093,-0.023499831557273865,0.8455525636672974,-0.21326152980327606,-0.0019507994875311852,-1.4344323901814713,-0.5029261924673247,-2.8979634013013524
1687008720.750402,-0.8708940744400024,0.4680679440498352,-0.14985258877277374,-0.0002301335334777832,0.17603600025177002,-0.08079928159713745,3.2494192123413086,-0.4833032786846161,-0.035488784313201904,-1.400397407420771,-0.48710317333285624,-2.787534019442977
1687008720.802456,-0.8765107989311218,0.4297899007797241,-0.21681660413742065,-0.006896793842315674,0.007420212030410767,0.012425094842910767,4.266025066375732,-0.710376501083374,0.09491875767707825,-1.3283007965343334,-0.4442600706335627,-2.5633457996740017
1687008720.8882818,-0.8833363652229309,0.38057079911231995,-0.27364689111709595,-0.012690126895904541,0.2512955963611603,0.02392151951789856,6.168884754180908,-1.2262065410614014,0.38715648651123047,-1.2703842124580778,-0.3904134678874713,-2.30401774595606
1687008720.9071112,-0.8953593969345093,0.2717508375644684,-0.35282155871391296,-0.16727781295776367,0.5081716775894165,0.16327685117721558,10.974803924560547,-1.378494143486023,0.8277679085731506,-1.1954247535427132,-0.2752118646297972,-1.8652598543996282
1687008720.949007,-0.9071967601776123,0.09361869841814041,-0.41015779972076416,-0.17217934131622314,0.025918707251548767,0.6595321297645569,10.558450698852539,-0.7683619260787964,1.2689647674560547,-1.1461844564184234,-0.0937559921111056,-1.3036737827814748
1687008721.0762901,-0.921137273311615,0.012184744700789452,-0.38904690742492676,-0.09760046005249023,-0.15070398151874542,0.36675381660461426,5.637601375579834,-0.9702670574188232,1.8763375282287598,-1.1711681683026585,-0.012185046040263539,-0.9169230188070727
1687008721.082543,-0.9395017027854919,0.015178029425442219,-0.342207670211792,-0.033749520778656006,0.005024658516049385,0.25385916233062744,4.106132984161377,-1.1629595756530762,2.020991802215576,-1.2214889284942925,-0.01517861196073659,-0.6575629639517611
1687008721.1653,-0.9539380669593811,0.055017489939928055,-0.2949155867099762,-0.10706645250320435,0.04031945765018463,0.16007351875305176,2.8404581546783447,-0.9585204124450684,2.128655433654785,-1.270960938063954,-0.05504528371884498,-0.4542056342967133
1687008721.181898,-0.9552080035209656,0.12554627656936646,-0.26798444986343384,-0.0940777063369751,0.11482545733451843,0.015741288661956787,2.0663905143737793,-0.6013553738594055,2.231238842010498,-1.2972768757073467,-0.1258784438094314,-0.30830845644261257
1687008721.253835,-0.9412199854850769,0.21589447557926178,-0.25979673862457275,-0.09859007596969604,0.10865998268127441,0.019882678985595703,1.2956538200378418,-0.2935619652271271,2.50996994972229,-1.3014808958776085,-0.217607817061741,-0.1959087212149298
1687008721.268752,-0.9076130986213684,0.3249353766441345,-0.26581084728240967,-0.10380035638809204,0.01869255304336548,-0.04530072212219238,0.5340766906738281,-0.007212367840111256,2.7957913875579834,-1.2858954108315659,-0.3309433866128787,-0.10653283825376207
1687008721.338155,-0.848013162612915,0.45206353068351746,-0.27660807967185974,-0.1640106439590454,-0.01903441548347473,-0.20804163813591003,-0.5054233074188232,0.541713297367096,2.917297124862671,-1.2554941867848695,-0.4690773927132157,-0.061337577358669446
1687008721.342012,-0.7644550800323486,0.5742552876472473,-0.29298320412635803,-0.15760290622711182,-0.11514884233474731,-0.18714994192123413,-0.7214663624763489,1.006435513496399,2.6519107818603516,-1.2048058571388123,-0.6116941801410382,-0.040621967297361554
1687008721.402779,-0.6710268259048462,0.6774081587791443,-0.30139824748039246,-0.12122458219528198,-0.43229109048843384,-0.13283643126487732,-1.7213040590286255,1.324766993522644,2.1855130195617676,-1.148641388636528,-0.7442335090046714,-0.04534459614525054
1687008721.500152,-0.5807772278785706,0.7675974369049072,-0.2710939645767212,-0.07966887950897217,-0.4035075306892395,-0.14959096908569336,-1.9542807340621948,1.3238005638122559,1.707905888557434,-1.1340778359537074,-0.875084100192507,-0.11951106478144331
1687008721.5156941,-0.5131733417510986,0.821591317653656,-0.24827519059181213,0.04442352056503296,-0.42106348276138306,-0.11146609485149384,-1.2856751680374146,1.1699031591415405,0.9274708032608032,-1.1201894815948843,-0.9641968487122233,-0.18307468773584668
1687008721.551677,-0.4715978503227234,0.8529160022735596,-0.2238960713148117,-0.04825371503829956,0.1999860405921936,0.26836010813713074,0.3843458294868469,-0.14205260574817657,0.5665104985237122,-1.1275433282776646,-1.0215458118058844,-0.22162794525453425
1687008721.644606,-0.449661523103714,0.8640673160552979,-0.22625617682933807,0.037125080823898315,-0.15804332494735718,0.1321093738079071,-0.0736977830529213,-0.34124693274497986,0.45594167709350586,-1.104615945880631,-1.0432945559161588,-0.17664289518091067
1687008721.6498852,-0.4397890865802765,0.8707365393638611,-0.22000737488269806,0.03356972336769104,0.13440555334091187,0.048284903168678284,0.3081139624118805,-0.30707311630249023,0.20406575500965118,-1.1069434974095447,-1.0566981806505733,-0.15938404533539258
1687008721.700494,-0.4359353184700012,0.8698394298553467,-0.23095375299453735,-0.018730729818344116,-0.044628918170928955,0.0594753623008728,0.22870782017707825,-0.04872891679406166,0.07122727483510971,-1.0836024470808758,-1.0548767126485898,-0.12332309791988566
1687008721.796476,-0.43457984924316406,0.8688011169433594,-0.23732854425907135,-0.018346697092056274,0.014423251152038574,0.0196770578622818,0.0887097716331482,0.04482327029109001,-0.029180023819208145,-1.0709443489345876,-1.0527759181285905,-0.10920607707125568
1687008721.802422,-0.4362565279006958,0.8658437728881836,-0.24493832886219025,-0.023902714252471924,0.05377286672592163,-0.00031626224517822266,0.22125117480754852,0.11276955902576447,-0.09186097979545593,-1.0592011868117928,-1.0468343842420151,-0.10047887734364004
1687008721.852285,-0.4395051598548889,0.862261176109314,-0.2516755759716034,-0.008965790271759033,-0.015123844146728516,0.008297830820083618,0.02801772765815258,0.0823630541563034,-0.06491085886955261,-1.0507420207534865,-1.0397175125060714,-0.09513032686099934
1687008721.9465551,-0.44103455543518066,0.8608086109161377,-0.2539627254009247,-0.0013481974601745605,-0.007445633411407471,0.0018416643142700195,0.009922746568918228,0.07972199469804764,-0.06063781678676605,-1.0483354403910412,-1.036856380621227,-0.09642987531222051
1687008721.952365,-0.44397175312042236,0.859176516532898,-0.25437143445014954,-0.000791400671005249,-0.005080997943878174,0.010871559381484985,-0.06178892031311989,0.0896139144897461,-0.09276565164327621,-1.0505077526067537,-1.0336581139297316,-0.10367069910395738
1687008722.003367,-0.44760966300964355,0.8572973608970642,-0.25433605909347534,-0.026099354028701782,0.049898624420166016,-0.007245421409606934,0.10781016200780869,0.0743570625782013,-0.09921050071716309,-1.0540802552022441,-1.029996780652382,-0.11193531650680195
1687008722.0962949,-0.45041581988334656,0.8546309471130371,-0.2583245038986206,0.006980210542678833,-0.012986719608306885,-0.005439043045043945,-0.021440569311380386,0.0709102675318718,-0.056667573750019073,-1.0500716508300263,-1.0248396451339004,-0.1110810673992109
1687008722.1029758,-0.4522583484649658,0.8536961078643799,-0.2581961154937744,0.013888686895370483,-0.004803955554962158,0.04336750507354736,0.08490471541881561,0.016850890591740608,-0.06897963583469391,-1.0520457262724656,-1.0230418912133061,-0.11580364097365399
1687008722.15225,-0.456132173538208,0.8501439690589905,-0.2630564570426941,0.005769073963165283,-0.0377049446105957,0.04183444380760193,0.12069712579250336,-0.055833835154771805,-0.12943658232688904,-1.0476770914423834,-1.0162586222670802,-0.1096587649081396
1687008722.246122,-0.46721622347831726,0.8441044092178345,-0.2630525827407837,0.011207371950149536,-0.08853501081466675,0.06552743911743164,0.05160221457481384,-0.1550280600786209,-0.3637220561504364,-1.0580111166247126,-1.0048926619962175,-0.11593403080752537
1687008722.252171,-0.49120011925697327,0.8258546590805054,-0.27692320942878723,0.003834456205368042,0.011471390724182129,0.006338983774185181,0.967278003692627,-0.24546568095684052,-0.6430855393409729,-1.057443698521432,-0.9717162188438416,-0.10342149754820378
1687008722.339386,-0.5289290547370911,0.7840554714202881,-0.3247939944267273,-0.06746065616607666,-0.05961388349533081,-0.018940836191177368,1.403472900390625,-0.294500470161438,-1.1712915897369385,-1.0201029352475581,-0.9011729376883307,-0.040458338447074145
1687008722.42608,-0.5852839946746826,0.7345901131629944,-0.34324923157691956,0.03586083650588989,-0.32638704776763916,0.1286953091621399,0.22049781680107117,-0.5836549401283264,-1.4961128234863281,-1.0403876335949438,-0.8250624221910383,-0.04042793396982579
1687008722.431772,-0.659134566783905,0.6743350028991699,-0.33288729190826416,0.016083478927612305,-0.1113010048866272,0.01141500473022461,1.0600371360778809,-0.9791814684867859,-1.8944095373153687,-1.10312730893557,-0.7400637829881392,-0.07214362103964168
1687008722.517385,-0.7385198473930359,0.580439031124115,-0.34304383397102356,0.059961557388305664,-0.06376111507415771,-0.12462291121482849,1.5379302501678467,-1.1395930051803589,-2.0024571418762207,-1.1359483307490963,-0.6192677029168345,-0.04086205121247518
1687008722.534152,-0.8146954774856567,0.47567251324653625,-0.33167269825935364,0.010450661182403564,-0.08732110261917114,0.013587862253189087,1.7300447225570679,-1.3226054906845093,-2.1818788051605225,-1.1841735860007931,-0.4957284053124377,-0.013256122726630487
1687008722.602668,-0.8805140256881714,0.3647068440914154,-0.30279359221458435,-0.12104225158691406,-0.2493961751461029,-0.1380023956298828,-0.5892362594604492,-0.6932288408279419,-2.464097261428833,-1.2395815314279863,-0.37331794473905777,-0.017796887165221178
1687008722.617816,-0.9256276488304138,0.2658035159111023,-0.2693725824356079,-0.058579325675964355,0.09267118573188782,-0.19463196396827698,-1.4539531469345093,-0.06967880576848984,-2.636047601699829,-1.2876018448464237,-0.26903732268868136,-0.11757750438830371
1687008722.692521,-0.9527298808097839,0.16126775741577148,-0.2574847340583801,-0.04900956153869629,0.12062312662601471,-0.06215643882751465,-1.3710523843765259,0.20833896100521088,-2.5927326679229736,-1.3068422199349612,-0.16197508588096737,-0.2220994471626604
1687008722.696135,-0.9622510075569153,0.06250309199094772,-0.26488935947418213,-0.13278061151504517,-0.12625427544116974,0.07250642776489258,-3.740176200866699,0.5592172145843506,-2.693340301513672,-1.3021689469223507,-0.06254385905440502,-0.3658081935460435
1687008722.787247,-0.957888662815094,0.018531646579504013,-0.286541223526001,-0.1932191252708435,0.14136525988578796,0.2049981653690338,-5.510890960693359,0.7262266874313354,-1.9508625268936157,-1.2801302307714997,-0.018532707361939144,-0.6347714163638205
1687008722.8045511,-0.9454153776168823,0.039638951420784,-0.32344767451286316,-0.20781326293945312,0.03335914388298988,0.24112647771835327,-7.322505474090576,1.1657932996749878,-1.2604485750198364,-1.2411566759466306,-0.03964933851314611,-0.9623405411190814
1687008722.838748,-0.9260247945785522,0.12959103286266327,-0.35451966524124146,-0.1017613410949707,0.11110115051269531,0.2680022716522217,-7.753760814666748,1.445345401763916,-0.4832566976547241,-1.205169702311184,-0.1299565294723781,-1.3371267462580008
1687008722.966261,-0.8997988104820251,0.25782954692840576,-0.35197436809539795,-0.04087495803833008,0.09864631295204163,0.20680218935012817,-7.542566299438477,1.5877350568771362,0.08749999105930328,-1.197925046928073,-0.26077512841305384,-1.7030533432667916
1687008722.98391,-0.8731229901313782,0.37881284952163696,-0.3068498373031616,-0.0096282958984375,0.12513917684555054,-0.01720103621482849,-5.961956024169922,1.3675711154937744,0.1587933450937271,-1.2328397589987774,-0.38851319649185956,-2.0390209584621695
1687008723.052419,-0.8516972661018372,0.45890456438064575,-0.2530181407928467,0.009305417537689209,0.030460000038146973,0.04464414715766907,-4.807311058044434,1.258440613746643,0.08066125959157944,-1.282024978206744,-0.47676186515626634,-2.313508968924096
1687008723.068387,-0.8381642699241638,0.5093885660171509,-0.19494600594043732,-0.032654762268066406,0.10406047105789185,-0.04499846696853638,-3.9204587936401367,1.0970349311828613,-0.059804778546094894,-1.342272432259466,-0.534474144459273,-2.5575309387970386
1687008723.142634,-0.8321112990379333,0.5336965322494507,-0.15085920691490173,0.0204048752784729,0.014200687408447266,-0.02943865954875946,-2.8328821659088135,0.8914248943328857,-0.11213695257902145,-1.3914474590328612,-0.5629656299938336,-2.7482076361524235
1687008723.1462321,-0.8292903304100037,0.5467540621757507,-0.1154879704117775,-0.025491714477539062,-0.05033993721008301,-0.04302036762237549,-2.446460247039795,0.8158459663391113,-0.08699831366539001,-1.4324250445280287,-0.5784826117898296,-2.899530712396463
1687008723.2033439,-0.8327457308769226,0.5465353727340698,-0.0885077714920044,-0.04680132865905762,-0.0189780592918396,-0.05072873830795288,-1.7216397523880005,0.7914115786552429,-0.5394116044044495,-1.4649095733672788,-0.5782214338848675,-3.0362329755087925
1687008723.296424,-0.8478640913963318,0.5219687223434448,-0.0931406244635582,-0.02948582172393799,-0.07740390300750732,-0.004332549870014191,-0.4114716947078705,0.5113864541053772,-0.688435435295105,-1.4613817979902757,-0.549157410491349,-3.0874809094428706
1687008723.301982,-0.8610376119613647,0.4990807771682739,-0.0976351872086525,-0.012177050113677979,0.010120213031768799,0.014306902885437012,-0.7345490455627441,0.39353811740875244,-0.48582932353019714,-1.4578861319303744,-0.5225376708472965,-3.126050169709265
1687008723.41652,-0.8690204620361328,0.4854256212711334,-0.09573498368263245,-0.0007457137107849121,0.039980173110961914,-0.02181875705718994,-0.4358867406845093,0.1827491819858551,-0.2698288559913635,-1.4610745202642037,-0.5068499318359939,3.120751527280163
1687008723.4357262,-0.871974766254425,0.4815840721130371,-0.08795873820781708,0.008388340473175049,0.008787602186203003,0.0117257758975029,-0.596094012260437,0.08860590308904648,-0.05697090923786163,-1.4702633661023463,-0.5024613087633714,3.0903133597946835
1687008723.5018492,-0.8723157048225403,0.48195481300354004,-0.08237043768167496,0.005036711692810059,0.038797080516815186,-0.04740560054779053,-0.11247839778661728,0.08637590706348419,-0.012400777079164982,-1.4766481642494906,-0.5028843693567023,3.066964358215882
1687008723.51834,-0.8718399405479431,0.48178964853286743,-0.08816904574632645,-0.0013747215270996094,0.024542659521102905,-0.021160244941711426,0.2976590096950531,0.0042734467424452305,0.07515756785869598,-1.4700091277420113,-0.502695891354596,3.0751734657201473
1687008723.564256,-0.8683455586433411,0.48698392510414124,-0.09392821788787842,0.01760709285736084,-0.01701328158378601,0.008890926837921143,0.16537073254585266,-0.01987023837864399,0.17357362806797028,-1.4630461010879023,-0.5086332082242924,3.091416364970659
1687008723.566928,-0.8648890852928162,0.4925631284713745,-0.09668678790330887,-0.012170791625976562,0.0011807084083557129,0.013999342918395996,0.04539831355214119,0.03750210627913475,0.0897892415523529,-1.4594675868356104,-0.5150324801540543,3.0977460493986557
1687008723.622088,-0.864221453666687,0.49313977360725403,-0.09967164695262909,-0.011999189853668213,-0.030325502157211304,0.007004976272583008,-0.002779866335913539,0.08386507630348206,-0.021188940852880478,-1.4559724915257921,-0.5156952153166369,3.1004716987194683
1687008723.681571,-0.8650853633880615,0.49118998646736145,-0.1017816960811615,-0.007412135601043701,0.004674822092056274,0.02882939577102661,0.13391652703285217,0.03236659988760948,-0.02981358766555786,-1.4536796615923009,-0.5134553701375194,3.1003251524242827
1687008723.740676,-0.8667975068092346,0.4873960614204407,-0.10538985580205917,-0.016167521476745605,-0.026672273874282837,0.028653383255004883,0.13806094229221344,0.0006158611504361033,-0.03605151176452637,-1.4498048795769476,-0.5091051391743158,3.109034526446885
1687008723.836605,-0.8684914708137512,0.48436129093170166,-0.10543510317802429,0.001120924949645996,-0.0073105692863464355,0.024349868297576904,0.07464294880628586,0.0013104137033224106,-0.0726739689707756,-1.4499872328324226,-0.5056329448781011,3.113407468894498
1687008723.854731,-0.8718744516372681,0.47816696763038635,-0.10578848421573639,-0.0007908940315246582,0.018720149993896484,0.0031883716583251953,0.11615923792123795,-0.004715787246823311,-0.11636179685592651,-1.450052013408807,-0.4985664369622115,3.116998424142446
1687008723.892344,-0.8746790289878845,0.47307679057121277,-0.10552121698856354,-0.005310535430908203,0.012259423732757568,0.013251304626464844,0.03993244469165802,-0.0250755213201046,-0.09245938807725906,-1.450736600424815,-0.4927798294785668,3.12064117737104
1687008723.951108,-0.8761393427848816,0.4707110822200775,-0.10397551953792572,0.006998777389526367,0.02019461989402771,0.007356822490692139,0.041928548365831375,-0.051916059106588364,-0.06925313919782639,-1.4526741593791475,-0.4900965544696575,3.1208202113172616
1687008724.0479379,-0.8773012161254883,0.469068706035614,-0.10157234966754913,0.009396612644195557,0.03125163912773132,0.00023871660232543945,0.09749779850244522,-0.0984814241528511,-0.023090705275535583,-1.4555313330005282,-0.48823599172052506,3.1238170204999816
1687008724.052888,-0.8769111037254333,0.4703318476676941,-0.09906993061304092,0.008975982666015625,0.021901369094848633,-0.01450127363204956,0.09008509665727615,-0.12128701061010361,0.02945772185921669,-1.4582973179314065,-0.4896667599640431,3.1299516720038247
1687008724.1361861,-0.875888466835022,0.47318458557128906,-0.09442266821861267,0.006381690502166748,0.015172898769378662,-0.023207366466522217,-0.00765551533550024,-0.11700104922056198,0.04743485897779465,-1.4634088767134195,-0.49290215954816213,3.1314422574481533
1687008724.154254,-0.8745248317718506,0.4763009250164032,-0.09134338051080704,-0.014894664287567139,-0.0019204914569854736,-0.024562418460845947,0.010824758559465408,-0.09397229552268982,0.05834050104022026,-1.4667245364722556,-0.4964429705210581,3.1337477681740555
