Timestamp,gravityX,gravityY,gravityZ,accelerationX,accelerationY,accelerationZ,rotationRateX,rotationRateY,rotationRateZ,attitudeRoll,attitudePitch,attitudeYaw
1687005774.6644711,-0.13168561458587646,0.2248763144016266,-0.9654478430747986,0.012071996927261353,0.0114365816116333,-0.029226839542388916,0.16350694000720978,0.015006650239229202,-0.008887534961104393,-0.13556191994653802,-0.22681609973871064,-0.8741463959112465
1687005774.752946,-0.13127662241458893,0.22258061170578003,-0.9660353660583496,-0.021387532353401184,-0.039536163210868835,0.01078939437866211,-0.06317833811044693,0.0058774687349796295,-0.007975935004651546,-0.13506481009353064,-0.22446068991433205,-0.8740808464776033
1687005774.75823,-0.13073928654193878,0.2244398444890976,-0.9656779766082764,-0.004804506897926331,-0.0058271437883377075,-0.007451295852661133,0.0011836679186671972,0.013323001563549042,0.053503137081861496,-0.13456780653006095,-0.2263681807910587,-0.8728539145348435
1687005774.81069,-0.12983115017414093,0.2248428910970688,-0.9657067656517029,0.007852420210838318,0.019023090600967407,-0.003241598606109619,-0.020542534068226814,0.029769351705908775,0.020503908395767212,-0.13364027165681677,-0.22678180149120872,-0.870801054811105
1687005774.8696342,-0.1286807507276535,0.2287842184305191,-0.9649347066879272,-0.024868428707122803,0.026754751801490784,0.03085273504257202,-0.09252644330263138,0.060395706444978714,0.11520804464817047,-0.13257472977659826,-0.23082859533049108,-0.8675266694409637
1687005774.961648,-0.12476281821727753,0.23487235605716705,-0.9639860987663269,-0.0076529234647750854,-0.036721691489219666,0.011486709117889404,-0.18675334751605988,0.06774044036865234,0.08559742569923401,-0.1287084169651364,-0.23708724578626358,-0.8638782156534156
1687005774.975521,-0.12234565615653992,0.2448451668024063,-0.9618120193481445,-0.0010979175567626953,0.03860211372375488,-0.01928234100341797,-0.12052512168884277,0.045509301126003265,0.0843004658818245,-0.1265237982325625,-0.24735999553442606,-0.8613335790671084
1687005775.0542169,-0.11881256103515625,0.2516721487045288,-0.9604918956756592,0.004203833639621735,-0.02817666530609131,0.011746227741241455,-0.1822618693113327,0.04535749927163124,0.057459261268377304,-0.12307449606344797,-0.25440763180314047,-0.8583028338834398
1687005775.068417,-0.11630909889936447,0.2567599415779114,-0.9594511389732361,-0.011940993368625641,0.038726478815078735,-0.00829172134399414,-0.06105154752731323,0.03987538069486618,0.04370403662323952,-0.12063598325436041,-0.2596682677568419,-0.856672032798113
1687005775.1121058,-0.11558972299098969,0.2578698694705963,-0.9592403769493103,-0.005366675555706024,0.028858065605163574,-0.017352581024169922,0.08423501253128052,-0.017032241448760033,0.05282190069556236,-0.11992308704609206,-0.2608168542963977,-0.8547747702453
1687005775.171588,-0.1173461303114891,0.2529120445251465,-0.960346519947052,0.005087241530418396,-0.0019507110118865967,0.001713097095489502,0.054591432213783264,-0.04330472648143768,0.028577014803886414,-0.12158870129130951,-0.2556889598098274,-0.8520138990539332
1687005775.26299,-0.11791440099477768,0.25160157680511475,-0.9606210589408875,0.004251718521118164,0.049957871437072754,-0.00014853477478027344,0.07073338329792023,0.004132032860070467,-0.019534053280949593,-0.12213711979404109,-0.2543347038995173,-0.8519706711300271
1687005775.279746,-0.1183832511305809,0.24658460915088654,-0.9618635177612305,0.006078585982322693,-0.014528915286064148,0.004084587097167969,0.1481972187757492,-0.045993052423000336,-0.022076839581131935,-0.12246110375856652,-0.24915444631198297,-0.8519748724422851
1687005775.32266,-0.12104204297065735,0.24374476075172424,-0.9622563719749451,-0.0003110840916633606,0.009184956550598145,-0.02626901865005493,0.04591398686170578,-0.03677478805184364,-0.011556554585695267,-0.12513257368132233,-0.24622520703208664,-0.852684648005758
1687005775.414732,-0.12199091166257858,0.2387949377298355,-0.9633769989013672,-0.01193545013666153,0.008534803986549377,0.011198043823242188,0.11476529389619827,0.017171936109662056,-0.01742083579301834,-0.12595804866278823,-0.24112469609919682,-0.8527707880699053
1687005775.4199681,-0.1220507025718689,0.23266366124153137,-0.9648684859275818,0.002879589796066284,-1.2874603271484375e-05,-0.028387069702148438,0.14153312146663666,-0.0027021709829568863,-0.021719444543123245,-0.12582637544925057,-0.23481560905547683,-0.8529608712382853
1687005775.4728909,-0.12378329038619995,0.2295103669166565,-0.9654028415679932,-0.004421025514602661,-0.0009031593799591064,0.016046762466430664,0.023202482610940933,-0.04185383394360542,-0.016614696010947227,-0.1275235141628637,-0.23157459123382249,-0.8535905455421972
1687005775.566424,-0.12594403326511383,0.22753649950027466,-0.9655905961990356,-0.007509291172027588,-0.009335801005363464,-0.01368790864944458,0.024239452555775642,-0.04109683260321617,5.722418427467346e-05,-0.12969992928170773,-0.22954706584377746,-0.8541626480495735
1687005775.572937,-0.12806007266044617,0.22575747966766357,-0.9657298922538757,0.015496015548706055,0.0071984827518463135,0.011399447917938232,0.034827981144189835,-0.027797937393188477,-0.03341924399137497,-0.13183530533361298,-0.22772052457087147,-0.8547899748057679
1687005775.622356,-0.12770633399486542,0.22446952760219574,-0.9660768508911133,-0.0176030695438385,-0.025052398443222046,-0.011141717433929443,-0.005972045939415693,0.013885327614843845,0.01492591854184866,-0.13142864578244395,-0.22639864301188964,-0.8551173923300179
1687005775.718913,-0.1271567940711975,0.22375789284706116,-0.966314435005188,-0.0040077269077301025,0.01411139965057373,-0.0017946958541870117,0.02593342214822769,0.0020425166003406048,0.014016182161867619,-0.1308377288029417,-0.22566843483578336,-0.8543282974147467
1687005775.7236671,-0.12779036164283752,0.2221691906452179,-0.9665973782539368,0.005750581622123718,0.013380765914916992,-0.026353061199188232,0.01826944388449192,-0.017238371074199677,-0.003734850324690342,-0.13144411910677192,-0.22403869742972043,-0.8538685903654377
1687005775.834131,-0.1282193809747696,0.22210103273391724,-0.966556191444397,-0.005752772092819214,-3.986060619354248e-05,-0.014309227466583252,-0.004213827662169933,0.01075637899339199,-0.008610566146671772,-0.13188586250533313,-0.22396880176030828,-0.8542720305451631
1687005775.840516,-0.12743784487247467,0.22356703877449036,-0.966321587562561,0.005214974284172058,0.011006355285644531,0.008832573890686035,-0.035993658006191254,0.00979670975357294,0.005238669924438,-0.13112265785018187,-0.22547261879049715,-0.853769288193947
1687005775.954174,-0.12789900600910187,0.22577959299087524,-0.9657460451126099,0.004745349287986755,0.04108138382434845,-0.030057787895202637,-0.015249168500304222,-0.012658931314945221,0.009136206470429897,-0.13166922253344476,-0.22774322445552309,-0.8538996458177668
1687005775.959518,-0.12775284051895142,0.22602686285972595,-0.965707540512085,0.0021120011806488037,-0.026731789112091064,0.03637099266052246,-0.06280157715082169,-0.017225321382284164,-0.011085174977779388,-0.13152566159490325,-0.22799704484734856,-0.8536306474835759
1687005776.076159,-0.12735837697982788,0.2260397970676422,-0.9657565951347351,-0.0065985023975372314,0.020389676094055176,-0.030062437057495117,0.035361744463443756,0.026876093819737434,-0.003219795413315296,-0.1311176106065414,-0.22801032638871355,-0.8537417766147178
1687005776.092678,-0.1264662891626358,0.22708964347839355,-0.9656275510787964,0.016099482774734497,0.03560569882392883,-0.012354016304016113,0.013391997665166855,0.000523316441103816,-0.0008005797863006592,-0.13022677309528613,-0.2290882012609175,-0.8535687964895875
1687005776.1327538,-0.12620529532432556,0.22384758293628693,-0.9664183855056763,-0.01802074909210205,-0.023789584636688232,-0.03223884105682373,0.026372909545898438,0.003414443926885724,0.021975304931402206,-0.12985588912227583,-0.22576045515749216,-0.8528721316951776
1687005776.136426,-0.12558183073997498,0.22352012991905212,-0.9665753841400146,0.019594311714172363,0.009451091289520264,-0.0055468082427978516,0.01645163632929325,-0.0024419804103672504,-0.012094779871404171,-0.12920076913136003,-0.22542449068418446,-0.852092554377286
1687005776.140016,-0.1250162571668625,0.22346512973308563,-0.9666613936424255,0.01422223448753357,0.010787829756736755,0.017900466918945312,-0.018063463270664215,0.007089472841471434,-0.00018432457000017166,-0.1286139798652211,-0.22536805491450806,-0.852019886254466
1687005776.1936421,-0.1243981197476387,0.22284546494483948,-0.966884195804596,0.003121286630630493,0.00451052188873291,0.0026660561561584473,0.03212067857384682,0.011710191145539284,-0.004280532710254192,-0.12795582715487053,-0.22473235835526809,-0.8523091513999865
1687005776.2546659,-0.12465393543243408,0.2222282737493515,-0.9669932723045349,-0.0012157857418060303,-0.006285876035690308,0.029294908046722412,0.00873106624931097,-0.02687421813607216,0.00033392664045095444,-0.12820178458916534,-0.2240993008745702,-0.8522881613647374
1687005776.3190951,-0.1250552088022232,0.22074474394321442,-0.9672812223434448,0.0017794668674468994,-0.003017053008079529,-0.013080716133117676,0.020772483199834824,0.003773570992052555,-0.003729790449142456,-0.12857207735629922,-0.22257798639934406,-0.8522168949610868
1687005776.407805,-0.12583930790424347,0.22087010741233826,-0.967150866985321,-0.007049471139907837,0.005570352077484131,-0.00857234001159668,0.01818588748574257,-0.013373724184930325,0.003592570312321186,-0.1293865273344696,-0.22270651751226297,-0.8524344931226214
1687005776.424131,-0.1256154328584671,0.21986591815948486,-0.9674087762832642,-0.004709869623184204,-0.008516401052474976,-0.01232755184173584,0.008146102540194988,0.007192137651145458,-0.002799016423523426,-0.12912484804201715,-0.22167702339954418,-0.8523782666941219
1687005776.462821,-0.1257573515176773,0.21937625110149384,-0.9675015211105347,0.013223811984062195,-0.006470337510108948,0.028536677360534668,-0.03460602089762688,-0.01671425998210907,-0.01482664979994297,-0.12925686440342748,-0.22117510143197736,-0.8525426449818374
1687005776.525264,-0.1257437765598297,0.22029609978199005,-0.9672942161560059,0.008907273411750793,0.008036434650421143,-0.010839879512786865,0.033710118383169174,-0.015643268823623657,0.008211824111640453,-0.12927045214120642,-0.22211801248180105,-0.8525726422052545
1687005776.6196141,-0.12623848021030426,0.21989111602306366,-0.9673219323158264,-0.010541275143623352,-0.010525241494178772,0.009741365909576416,-0.03672429919242859,-0.0006271691527217627,0.00265513826161623,-0.129769675733806,-0.22170285098592013,-0.8524471330320001
1687005776.62551,-0.12579891085624695,0.2206621617078781,-0.9672036170959473,-0.006372705101966858,-0.012501731514930725,-0.008061885833740234,-0.01650085300207138,0.006402377504855394,0.0039670104160904884,-0.12933848321464841,-0.22249331381689755,-0.8526668482212798
1687005776.673454,-0.12569601833820343,0.2210959941148758,-0.9671179056167603,-0.006353512406349182,0.0006905198097229004,-0.0010827183723449707,0.014008786529302597,0.01499546691775322,0.003456217236816883,-0.1292451955646897,-0.22293813830554657,-0.8524988710394498
1687005776.769299,-0.1245988979935646,0.21737249195575714,-0.9681034684181213,-0.0051160454750061035,0.010746434330940247,-0.010839402675628662,0.15277773141860962,0.01896757073700428,0.02050577476620674,-0.12800044203045688,-0.2191217882466737,-0.8516947279009005
1687005776.7753448,-0.12446105480194092,0.21044975519180298,-0.969649612903595,0.0035656914114952087,0.01011607050895691,-0.004913985729217529,0.1421985775232315,-0.00873862486332655,-0.01674705557525158,-0.12765870614520874,-0.21203499529103143,-0.8500171274058838
1687005776.82252,-0.12406729906797409,0.20189417898654938,-0.9715173840522766,0.0023327022790908813,0.050043731927871704,-0.004266917705535889,0.26795315742492676,0.009044898673892021,-0.00023279432207345963,-0.1270171501586805,-0.20329153646612735,-0.848821164809061
1687005776.9193292,-0.1232856810092926,0.1856517195701599,-0.9748507738113403,0.0037636160850524902,-0.0027293413877487183,-0.007845699787139893,0.3311506509780884,-0.012854274362325668,0.021131083369255066,-0.12579837825924509,-0.1867350652070247,-0.8454964198196143
1687005776.925438,-0.12455300986766815,0.17474408447742462,-0.9767041802406311,0.0057633668184280396,-0.02813759446144104,0.027882158756256104,0.14372576773166656,-0.039793215692043304,0.015277988277375698,-0.12683917498364744,-0.17564584398584487,-0.8426266216234568
1687005777.008038,-0.1265774667263031,0.16936014592647552,-0.9773920774459839,0.013891339302062988,-0.03933997452259064,-0.03876698017120361,0.0907650887966156,-0.0879218578338623,0.06045318767428398,-0.1287885097431892,-0.17018040500782583,-0.8400411880793691
1687005777.022223,-0.12726299464702606,0.16716189682483673,-0.9776814579963684,-0.02059464156627655,-0.013780519366264343,-0.025126159191131592,-0.014658346772193909,-0.003634011372923851,0.0339728444814682,-0.12944035919393793,-0.16795035066583114,-0.8358439521033177
1687005777.1273851,-0.1293235719203949,0.1689954400062561,-0.9770956635475159,-0.008646354079246521,0.03988213837146759,0.0012198686599731445,0.001361567061394453,-0.005971068516373634,-0.007534382864832878,-0.13159024242239256,-0.1698103550828524,-0.8366861114962787
1687005777.142618,-0.12837791442871094,0.16911441087722778,-0.9771997928619385,0.005758315324783325,-0.012513428926467896,-0.0031926631927490234,0.03569996729493141,-0.028401009738445282,0.010865130461752415,-0.13062519201365727,-0.16993107200807103,-0.8359890426598564
1687005777.217945,-0.1287185400724411,0.16702911257743835,-0.9775136113166809,0.0012313872575759888,-0.009085357189178467,0.007603943347930908,-0.008486602455377579,0.03224223107099533,-0.012380003929138184,-0.13092627315525973,-0.1678156790552306,-0.8363199310105428
1687005777.222873,-0.1291206330060959,0.16950947046279907,-0.9770334959030151,0.009461238980293274,0.0034794509410858154,4.374980926513672e-05,0.0193827785551548,-0.044784512370824814,-0.025073427706956863,-0.1313943862264665,-0.170331912021651,-0.8368465951619919
1687005777.3077831,-0.127537339925766,0.16839540004730225,-0.977433979511261,-0.018916472792625427,-0.04539428651332855,0.005342364311218262,-0.14505383372306824,0.06217043474316597,0.05354148522019386,-0.12974876242047056,-0.16920159602952597,-0.837174739864136
1687005777.324321,-0.128767192363739,0.17202061414718628,-0.9766411185264587,0.010511606931686401,0.0324166864156723,-0.0008978843688964844,0.08225654810667038,-0.04865860939025879,-0.036521557718515396,-0.13109086429733458,-0.172880487252284,-0.8370873911090657
1687005777.363303,-0.12748828530311584,0.17277027666568756,-0.9766765832901001,-0.0023182034492492676,-0.028223738074302673,-0.011787712574005127,-0.10687655955553055,0.015891220420598984,0.013438011519610882,-0.12979886039626054,-0.17364154765395623,-0.8375833334367745
1687005777.458356,-0.12902013957500458,0.171121284365654,-0.9767657518386841,-0.009590685367584229,0.01917111873626709,0.017201542854309082,0.09230053424835205,0.014211964793503284,-0.01221329066902399,-0.1313288597527199,-0.1719676272396033,-0.8382894845884992
1687005777.5509129,-0.12797096371650696,0.1730218529701233,-0.9765689373016357,0.014735519886016846,-0.007433444261550903,-0.019112825393676758,-0.03336365520954132,-0.044482242316007614,-0.001629621721804142,-0.13029896867492513,-0.17389697390076567,-0.8376390026831955
1687005777.5548801,-0.12970572710037231,0.17230446636676788,-0.9764668941497803,-0.014245674014091492,-0.005388543009757996,0.020976781845092773,-0.023827342316508293,0.024338766932487488,-0.010869459249079227,-0.13205859258678884,-0.1731686495731887,-0.8385673198933484
1687005777.63766,-0.12898953258991241,0.17335858941078186,-0.976375162601471,0.006080031394958496,0.008953437209129333,-0.004429221153259277,0.009389998391270638,-0.011017092503607273,-0.002711930312216282,-0.13134998938085113,-0.1742388830162029,-0.8385297887664174
1687005777.643097,-0.12905871868133545,0.17448583245277405,-0.976165235042572,-0.014953702688217163,0.007139578461647034,-0.009689867496490479,-0.006280506495386362,0.020633378997445107,-0.0019697071984410286,-0.13144757751835354,-0.17538356578634323,-0.8391115645256402
1687005777.7293792,-0.1285807490348816,0.17427870631217957,-0.9762653112411499,0.0028636008501052856,-0.02426953613758087,-0.0031658411026000977,-0.06207992509007454,0.009329724125564098,0.0001594899222254753,-0.13095303509734313,-0.17517322262794707,-0.8385540219497686
1687005777.7446299,-0.12835761904716492,0.17622371017932892,-0.9759454727172852,-0.004302263259887695,0.03996284306049347,-0.014945030212402344,0.039627060294151306,0.023572709411382675,0.020659171044826508,-0.13077073815195212,-0.17714879574341558,-0.8387638396607582
1687005777.8168058,-0.12915103137493134,0.17737360298633575,-0.9756324291229248,-0.003676697611808777,-0.024511024355888367,0.025101423263549805,-0.04754345864057541,-0.01686672680079937,-0.012085191905498505,-0.13161152370534912,-0.178317090347175,-0.8382697037117827
1687005777.82239,-0.12819480895996094,0.17883139848709106,-0.9754924178123474,0.007192626595497131,0.0037247836589813232,0.002408921718597412,-0.04139435291290283,-0.024402139708399773,0.012028132565319538,-0.13066670809584652,-0.17979857776675662,-0.8389082305983605
1687005777.9079409,-0.13024678826332092,0.17896872758865356,-0.9751953482627869,0.01975792646408081,0.013490408658981323,0.010626256465911865,-0.0003169565461575985,-0.04392630606889725,-0.03299686685204506,-0.13277393549557423,-0.17993816050494157,-0.8395958278525113
1687005777.923164,-0.13234248757362366,0.1788475215435028,-0.9749354124069214,0.007708728313446045,0.008713558316230774,0.013845324516296387,-0.02553343027830124,-0.027378089725971222,-0.04964934661984444,-0.13492019911307798,-0.17981495706317022,-0.8423818990695657
1687005777.965177,-0.13171984255313873,0.18145114183425903,-0.9745385646820068,0.007299706339836121,0.023092955350875854,-0.020639657974243164,-0.004212428815662861,-0.06136241927742958,-0.01970343105494976,-0.13434708376379284,-0.18246189331819312,-0.8434905759270305
1687005778.057714,-0.13799065351486206,0.18089967966079712,-0.9737730026245117,-0.014261499047279358,0.013344734907150269,-0.050213754177093506,-0.13045305013656616,-0.024756740778684616,-0.04709431156516075,-0.14076993582792416,-0.18190113986673287,-0.8456692468703001
1687005778.07375,-0.13566941022872925,0.1833755522966385,-0.9736360907554626,-0.027401253581047058,-0.0232192724943161,-0.008984148502349854,-0.018729986622929573,0.03209935128688812,0.01639784872531891,-0.13845154390789052,-0.18441913984582103,-0.8456882406465133
1687005778.114222,-0.1353280246257782,0.18676097691059113,-0.9730399250984192,0.003888845443725586,0.004782631993293762,0.00931006669998169,-0.06031304970383644,0.005244168918579817,0.012250241823494434,-0.13819112751350332,-0.18786407669908026,-0.8453471257123621
1687005778.23791,-0.1344757080078125,0.18880949914455414,-0.9727627038955688,0.0020447075366973877,-0.0042696744203567505,-0.00016820430755615234,-0.06138190999627113,0.001335181063041091,0.016794659197330475,-0.13737036701064184,-0.1899497039117051,-0.8446356184976758
1687005778.244478,-0.13403993844985962,0.1917680948972702,-0.9722439646720886,-0.005379587411880493,0.005268678069114685,0.003554999828338623,-0.01504257321357727,0.01310382317751646,0.006150537170469761,-0.13700291383464708,-0.19296336867579394,-0.8443092226414243
1687005778.327122,-0.13378822803497314,0.19274009764194489,-0.9720863699913025,-0.006592616438865662,-0.012243837118148804,-0.018453121185302734,-0.07742080092430115,0.004610336385667324,0.021362245082855225,-0.13677071881392452,-0.19395383409980518,-0.8440286731979553
1687005778.342822,-0.13313616812229156,0.19605401158332825,-0.971513032913208,0.00029318034648895264,0.006247043609619141,0.003175020217895508,-0.03521029278635979,0.00798256415873766,-0.0003824634477496147,-0.13619169949666446,-0.19733220789363512,-0.8436373767797065
1687005778.419034,-0.1333153247833252,0.19731631875038147,-0.9712328910827637,0.005065232515335083,-0.005803227424621582,-0.010303974151611328,-0.01806386187672615,-0.021058274433016777,0.0014476608484983444,-0.13641154687779553,-0.19861966722850274,-0.8437937624822442
1687005778.424092,-0.13329154253005981,0.19861525297164917,-0.9709713459014893,0.006079047918319702,0.0011986196041107178,0.025765657424926758,-0.028420832008123398,0.0065742842853069305,-0.008551177568733692,-0.13642380240032947,-0.19994482376628162,-0.8438967490757312
1687005778.509994,-0.13315939903259277,0.19953884184360504,-0.9708001017570496,0.006496205925941467,-0.00241050124168396,0.01193779706954956,-0.03260698541998863,-0.00409633619710803,0.007055212743580341,-0.1363139558076633,-0.20088727335853584,-0.8437736012688399
1687005778.52356,-0.1332731693983078,0.1994466483592987,-0.970803439617157,-0.003033578395843506,0.0065623074769973755,-0.0012424588203430176,0.018909001722931862,-0.000744348275475204,-0.000409894622862339,-0.1364285202778294,-0.20079319081505845,-0.8438522291997985
1687005778.5639482,-0.13329285383224487,0.19999246299266815,-0.9706884026527405,-0.0038683563470840454,0.004139617085456848,-0.006224989891052246,-0.012103641405701637,0.006220882758498192,0.0052708955481648445,-0.13646440089323267,-0.2013502353676625,-0.8435475078472826
1687005778.658225,-0.1329570710659027,0.20022323727607727,-0.9706869125366211,-0.008736029267311096,-0.007443666458129883,-0.021653175354003906,-0.02144787460565567,0.012903552502393723,0.006014448590576649,-0.13612506186717002,-0.20158576629467936,-0.8434409778563162
1687005778.672818,-0.13277357816696167,0.20094360411167145,-0.9705631732940674,-0.0037010014057159424,0.008117109537124634,0.003461122512817383,0.02768491581082344,0.01657125912606716,0.01137832272797823,-0.13595663810853464,-0.2023210756625826,-0.8432015997600458
1687005778.716105,-0.1319703608751297,0.20076875388622284,-0.9707088470458984,0.004101738333702087,-0.0013363361358642578,-0.013681352138519287,-0.03839177265763283,-0.005798628553748131,0.010146343149244785,-0.13512413154842226,-0.20214258563223556,-0.8429997661069666
1687005778.8057761,-0.13278482854366302,0.20201840996742249,-0.9703384637832642,0.006167411804199219,0.014763236045837402,0.00251924991607666,0.01628299057483673,-0.015169360674917698,-0.012011422775685787,-0.13599910085297293,-0.20341839111335383,-0.8429900328165995
1687005778.812155,-0.13297823071479797,0.20162202417850494,-0.9703944325447083,0.0012338608503341675,0.0006485134363174438,-0.007068336009979248,0.004600903019309044,-0.005592633038759232,0.0012324769049882889,-0.13618698865867987,-0.20301367335418324,-0.8433807567974462
1687005778.8645902,-0.13273170590400696,0.20216692984104156,-0.9703148007392883,-0.0019423216581344604,-0.008563384413719177,0.009285807609558105,-0.04783567041158676,0.014317158609628677,-0.00036941375583410263,-0.13594864807959559,-0.2035700322150238,-0.8433355427866231
1687005778.9563441,-0.13247038424015045,0.20204994082450867,-0.9703748822212219,-0.003348052501678467,0.0008767098188400269,-0.0246812105178833,0.04860730841755867,-0.003747994313016534,-0.0038997000083327293,-0.13567596865298676,-0.2034505838856913,-0.843207631105882
1687005778.9629169,-0.13185681402683258,0.20083434879779816,-0.9707107543945312,0.0011958181858062744,-0.006681486964225769,0.00267791748046875,-0.010014591738581657,0.0032310853712260723,0.0041020335629582405,-0.13500900999440063,-0.20220954915390313,-0.8429598640719146
1687005779.015493,-0.13239416480064392,0.2009066641330719,-0.9706226587295532,0.0025266408920288086,-0.0019778013229370117,0.011531472206115723,0.0076337773352861404,-0.010556898079812527,-0.01067238487303257,-0.13556466557905422,-0.202283361037317,-0.8430560579212386
1687005779.106067,-0.13290058076381683,0.20058824121952057,-0.970619261264801,0.004467383027076721,0.01675797998905182,-0.004844605922698975,0.044958509504795074,0.002493389882147312,0.009288805536925793,-0.13607730883054478,-0.2019583292823697,-0.8434908997821217
1687005779.11215,-0.1318178027868271,0.1974209100008011,-0.9714159965515137,0.0001497417688369751,-1.7940998077392578e-05,0.0014147758483886719,0.11281252652406693,-0.004965591710060835,0.007420332171022892,-0.13487274731832224,-0.19872635893037754,-0.8422432894896601
1687005779.162695,-0.12953463196754456,0.18939515948295593,-0.9733191728591919,0.006808236241340637,0.027798473834991455,0.02518385648727417,0.21453915536403656,0.036246560513973236,0.027430258691310883,-0.1323079834905861,-0.1905461133754155,-0.8405573783181581
1687005779.220372,-0.12722809612751007,0.18245813250541687,-0.9749472141265869,0.0029300302267074585,0.006659328937530518,-0.018811941146850586,0.11057014763355255,0.006018882617354393,0.022756408900022507,-0.1297641231079469,-0.18348597308996217,-0.8386449550060697
1687005779.3210778,-0.12778332829475403,0.1790160983800888,-0.9755125045776367,-0.002816617488861084,-0.02749629318714142,-0.003994941711425781,0.02870277687907219,-0.01983708143234253,0.018307335674762726,-0.13024937966984454,-0.17998630267370797,-0.8369350622262502
1687005779.3271809,-0.12869416177272797,0.17586499452590942,-0.9759658575057983,-0.000532492995262146,0.019279703497886658,-0.00517427921295166,0.07013863325119019,0.00021731917513534427,0.019581388682127,-0.13110699182836835,-0.17678438406004368,-0.8356279010022883
1687005779.37777,-0.12843602895736694,0.1771201342344284,-0.9757728576660156,0.006884545087814331,0.024860486388206482,-0.004039764404296875,0.030829977244138718,-0.013381579890847206,-0.011445767246186733,-0.13087258935636903,-0.17805954595811607,-0.8357155621682213
1687005779.3894649,-0.12808723747730255,0.1765470951795578,-0.9759225249290466,0.011510118842124939,-0.03448773920536041,0.02577298879623413,-0.10878324508666992,-0.005815139971673489,0.025177758187055588,-0.13050141970437681,-0.17747733423085976,-0.834678466393449
1687005779.4335032,-0.12855836749076843,0.17643973231315613,-0.9758800268173218,0.0040008872747421265,0.022061899304389954,0.0021709203720092773,0.05758589133620262,-0.020690225064754486,-0.0032277852296829224,-0.13098160512540863,-0.17736825264764422,-0.8349415388794564
1687005779.49332,-0.12794475257396698,0.17699472606182098,-0.9758601188659668,-0.005111858248710632,-0.024269461631774902,-0.0012669563293457031,-0.012803587131202221,0.0049948967061936855,0.001191464252769947,-0.13036613374745412,-0.1779321194042433,-0.8345890282523205
1687005779.557452,-0.12782549858093262,0.17532342672348022,-0.9761773943901062,-0.007367327809333801,-0.00863640010356903,-0.025928258895874023,-0.003467076923698187,0.011347867548465729,0.00987390149384737,-0.13020413916853277,-0.17623427933145056,-0.8350579975211386
1687005779.676754,-0.12793199717998505,0.1779581755399704,-0.9756865501403809,0.006563633680343628,0.004124969244003296,-0.029104650020599365,-0.004443857818841934,-0.016693221405148506,-0.019795043393969536,-0.13037620048596696,-0.1789111188769427,-0.8351895597463714
1687005779.690823,-0.12811614573001862,0.17584392428398132,-0.9760456681251526,0.0032840222120285034,-0.0031296461820602417,0.015855848789215088,-0.012262232601642609,-0.006561757065355778,0.014017247594892979,-0.1305142573194267,-0.17676297824638895,-0.835382285394655
1687005779.767854,-0.12877508997917175,0.17707739770412445,-0.9757359027862549,0.0006623268127441406,0.016785547137260437,0.004590272903442383,0.05028969421982765,0.006947393529117107,-0.03210284188389778,-0.13121904669166815,-0.17801613027439175,-0.8362794356383786
1687005779.773891,-0.12847301363945007,0.17646528780460358,-0.9758865833282471,0.011193990707397461,-0.02551005780696869,0.011821091175079346,-0.07709156721830368,-0.014291582629084587,0.005027481354773045,-0.13089476279403242,-0.17739422277459957,-0.8361907849461901
1687005779.85784,-0.12841489911079407,0.1774323433637619,-0.9757189154624939,-0.011050403118133545,0.018917784094810486,0.011668622493743896,0.03008655644953251,0.02955922856926918,-0.008075270801782608,-0.13085846083147082,-0.17837678600187376,-0.8370786265151087
1687005779.872498,-0.12806734442710876,0.17751629650592804,-0.9757493138313293,0.0025638341903686523,-0.002482682466506958,0.007777512073516846,-0.003713153302669525,-0.008125964552164078,0.0006311358883976936,-0.13050428508563558,-0.17846208178900172,-0.8366104759921534
1687005779.916695,-0.12826856970787048,0.17578814923763275,-0.9760357141494751,-0.003964066505432129,-0.009818270802497864,-0.014900565147399902,-0.0162094384431839,0.01751614734530449,-0.00501609779894352,-0.13066908956112316,-0.1767063231595379,-0.8372384959785796
1687005780.0072122,-0.12828566133975983,0.1772727370262146,-0.9757649302482605,-0.0022990256547927856,0.015049070119857788,0.009944617748260498,0.024488192051649094,0.011211647652089596,-0.010927782393991947,-0.1307221677162217,-0.17821460334206302,-0.8373195722932311
1687005780.013799,-0.12788096070289612,0.17700374126434326,-0.9758668541908264,-0.0009031742811203003,-0.020845279097557068,-0.010751128196716309,-0.045885972678661346,-0.014355764724314213,0.016312625259160995,-0.13030097828369797,-0.17794128819893085,-0.8374208129159076
1687005780.066702,-0.12811152637004852,0.1776292622089386,-0.9757229685783386,-0.0038159340620040894,0.008085489273071289,0.009643256664276123,0.006498338654637337,0.016002541407942772,-0.015645040199160576,-0.13055228113319323,-0.17857687974563097,-0.8377443703287328
1687005780.156637,-0.12754610180854797,0.17911066114902496,-0.9755262136459351,0.007291615009307861,-0.015368565917015076,-0.014662384986877441,-0.007887258194386959,-0.02209610864520073,0.0008292747661471367,-0.1300084870308722,-0.18008241562366148,-0.8374678838544168
1687005780.163059,-0.12794087827205658,0.1783430129289627,-0.9756151437759399,-0.007404550909996033,0.005174487829208374,0.010481476783752441,-0.0008028503507375717,0.023918254300951958,-0.0015457328408956528,-0.13039459348165908,-0.17930220804747188,-0.838226685391786
1687005780.215349,-0.12723594903945923,0.18019327521324158,-0.9753673076629639,0.010750383138656616,-0.0015128105878829956,-0.03636670112609863,0.030907409265637398,-0.03673044592142105,-0.02047441527247429,-0.12971678057199548,-0.18118293171718647,-0.8380776583027201
1687005780.307621,-0.12726587057113647,0.1791847050189972,-0.9755492210388184,-0.0045090168714523315,-0.01538155972957611,-0.0015168190002441406,-0.033590227365493774,0.026082605123519897,-0.0013936655595898628,-0.1297230138825177,-0.18015767663774948,-0.8386379401035722
1687005780.313714,-0.12716874480247498,0.18121008574962616,-0.9751876592636108,0.010072842240333557,0.025317654013633728,0.009474217891693115,0.03314013406634331,-0.015261505730450153,-0.004605172201991081,-0.12967263838661364,-0.18221676514842092,-0.8386518401643497
1687005780.365793,-0.12662138044834137,0.17880704998970032,-0.9757023453712463,0.0024759024381637573,-0.016056761145591736,-0.0014399886131286621,-0.035863034427165985,-0.00020985183073207736,0.0033414335921406746,-0.129053349029923,-0.1797738197645452,-0.8388404422332995
1687005780.457934,-0.12783606350421906,0.18224133551120758,-0.9749082326889038,0.001035541296005249,0.003107205033302307,0.02529275417327881,-0.051528945565223694,-0.029031911864876747,-0.02319510094821453,-0.13038237562390492,-0.18326547577466804,-0.8389305830665013
1687005780.4728332,-0.1287543773651123,0.18332213163375854,-0.974584698677063,-0.0015709251165390015,0.007122844457626343,-0.01662623882293701,-0.012430744245648384,-0.020401272922754288,-0.016422150656580925,-0.13135138135762564,-0.1843647992709891,-0.8399870944579118
1687005780.5158339,-0.13360345363616943,0.18332768976688385,-0.9739307165145874,0.01872006058692932,0.020453467965126038,-0.0036236047744750977,0.033159445971250534,-0.142393097281456,-0.08269704133272171,-0.13632872128164872,-0.1843704491995699,-0.8428234719834675
1687005780.608041,-0.13601475954055786,0.18297788500785828,-0.9736627340316772,-0.03454795479774475,-0.01809138059616089,0.002013564109802246,-0.04168323799967766,0.06665493547916412,-0.0031601404771208763,-0.13879573650585755,-0.1840146225378011,-0.8454136475960755
1687005780.6230311,-0.13510118424892426,0.18389858305454254,-0.9736164212226868,0.0007780939340591431,0.00190773606300354,-0.009842991828918457,0.012094838544726372,-0.0357045941054821,-0.004179865121841431,-0.13788174792218252,-0.1849512110698706,-0.8449177111143947
1687005780.663945,-0.13707765936851501,0.18405112624168396,-0.9733113050460815,-0.0017620325088500977,0.008957326412200928,0.019255518913269043,-0.03177434951066971,-0.003620695322751999,-0.003246692940592766,-0.13991616811939198,-0.18510641280593196,-0.8456933815197413
1687005780.755426,-0.13690169155597687,0.1842934787273407,-0.973290205001831,-0.0019990354776382446,0.00842505693435669,0.0020682811737060547,-0.0017964094877243042,0.007063507102429867,0.0039038946852087975,-0.1397418755019498,-0.1853529803870436,-0.8458494722587139
1687005780.761726,-0.13701310753822327,0.18552127480506897,-0.9730412364006042,-0.006526276469230652,-0.004628315567970276,0.0067632198333740234,-0.04874594509601593,0.009960760362446308,0.01288274209946394,-0.13988944972561945,-0.186602318810457,-0.8459131434699092
1687005780.814412,-0.1367444545030594,0.18750861287117004,-0.9726980328559875,-0.010716453194618225,0.006171226501464844,-0.008579432964324951,-0.016707714647054672,0.020021116361021996,0.01553338672965765,-0.1396673276527374,-0.1886251555152961,-0.8456246226799999
1687005780.941128,-0.1364065706729889,0.18889261782169342,-0.9724776744842529,-0.005118668079376221,-0.009525522589683533,0.0038650035858154297,-0.08144057542085648,0.018672626465559006,0.015661485493183136,-0.13935783929958898,-0.19003434462898725,-0.8455838323501611
1687005780.947237,-0.13634368777275085,0.19055818021297455,-0.9721614718437195,-0.003579378128051758,-0.0002047717571258545,0.017342805862426758,-0.05712417885661125,0.002843595342710614,0.011718674562871456,-0.1393391425407697,-0.1917307171353256,-0.8452740230076626
1687005781.028599,-0.1362777054309845,0.19144900143146515,-0.9719957113265991,0.00035244226455688477,0.009539797902107239,0.005488753318786621,-0.0070032221265137196,0.019755467772483826,0.011976468376815319,-0.13929603137132612,-0.19263824435170696,-0.8456094987444398
1687005781.040985,-0.13545440137386322,0.19240017235279083,-0.9719229936599731,-0.001218542456626892,-0.002443477511405945,0.009734272956848145,-0.05053631588816643,0.012583307921886444,0.006180097348988056,-0.13847547152190165,-0.19360743559426422,-0.8453759843995942
1687005781.147715,-0.13511425256729126,0.19512002170085907,-0.9714279770851135,-0.0034050047397613525,0.005685657262802124,0.0002670884132385254,-0.05298702418804169,0.012762139551341534,0.008215284906327724,-0.13820164724860018,-0.19637982535719212,-0.8454197533602343
1687005781.1619182,-0.13503609597682953,0.195868581533432,-0.9712882041931152,-0.0031932443380355835,-0.0020208805799484253,0.004354000091552734,0.009500520303845406,0.01273510791361332,-0.013705725781619549,-0.13814234193013064,-0.1971431083775834,-0.8456295952315483
1687005781.239073,-0.13451366126537323,0.19657711684703827,-0.9712175130844116,-0.005516216158866882,-0.00028802454471588135,-0.018330156803131104,-0.021376103162765503,0.011485686525702477,0.008404902182519436,-0.13762450988668626,-0.19786569487536104,-0.8460964600303695
1687005781.245844,-0.1345004290342331,0.19685794413089752,-0.9711624979972839,0.001657441258430481,-0.0005535781383514404,-0.0041792988777160645,0.011949962005019188,-0.0018044195603579283,-0.010483833029866219,-0.13761884774941618,-0.19815211001937627,-0.8460014276655424
1687005781.328393,-0.1346423178911209,0.1953650265932083,-0.9714442491531372,0.0062396228313446045,-0.005255743861198425,0.00042068958282470703,0.006469443440437317,-0.007713973987847567,-0.001887948252260685,-0.137722730285709,-0.19662964150009285,-0.8461635420283775
1687005781.341398,-0.1344408094882965,0.1968415230512619,-0.9711740612983704,0.0013841986656188965,0.017224058508872986,-0.006517589092254639,0.019684847444295883,-0.004603401757776737,-0.0012796828523278236,-0.13755698690810333,-0.19813536139967333,-0.8461456091172613
1687005781.41836,-0.13452959060668945,0.1967329978942871,-0.9711837768554688,0.002281695604324341,-0.0015120208263397217,-0.00333404541015625,-0.037417054176330566,-0.0031021777540445328,0.007084506563842297,-0.13764533026670742,-0.198024676877242,-0.8459390180074476
1687005781.423568,-0.1343480497598648,0.1969859004020691,-0.9711576104164124,-0.0016229897737503052,0.01254783570766449,0.001080155372619629,0.02659282088279724,0.01606139726936817,-0.006339688785374165,-0.13746556900442383,-0.19828262771610722,-0.845888571343105
1687005781.50822,-0.13409322500228882,0.19623081386089325,-0.9713457226753235,-0.001603156328201294,-0.013613596558570862,-0.018400371074676514,-0.012995067983865738,0.008361930958926678,0.004859968088567257,-0.13718186097743612,-0.19751251015293025,-0.8458954412968597
1687005781.5140371,-0.13290619850158691,0.1915273368358612,-0.9724470376968384,-0.005140036344528198,0.02830606698989868,0.01718580722808838,0.21235643327236176,0.06422066688537598,0.006842692382633686,-0.13583035552619252,-0.19271805003211184,-0.8447679142491276
1687005781.560536,-0.1290474534034729,0.1864076852798462,-0.9739604592323303,0.019641950726509094,0.04242841899394989,0.04335743188858032,0.09947481751441956,-0.02037743851542473,0.07222383469343185,-0.13173033543474602,-0.1875044604349068,-0.8420854405151074
1687005781.65384,-0.1279100775718689,0.18238027393817902,-0.9748725295066833,-0.013325244188308716,0.007179692387580872,0.01390451192855835,0.06709790229797363,0.06512027978897095,0.01324439886957407,-0.1304617426815361,-0.18340678930230608,-0.8406178808047426
1687005781.661174,-0.1271209716796875,0.18095730245113373,-0.9752408266067505,0.014450117945671082,-0.00506921112537384,-0.025125324726104736,0.0849190503358841,-0.05101524293422699,-0.0008988501504063606,-0.12961749082468493,-0.18195972902533003,-0.8386450651463024
1687005781.714755,-0.1289317011833191,0.17710798978805542,-0.9757096767425537,-0.0059407055377960205,0.004135936498641968,0.01771712303161621,0.047652699053287506,0.012024310417473316,-0.008981810882687569,-0.1313802924774792,-0.1780472118923601,-0.8387485384443581
1687005781.8086638,-0.12770874798297882,0.1765054315328598,-0.9759796857833862,-0.0027844011783599854,-0.008368805050849915,-0.00931084156036377,-0.003450032789260149,0.011319371871650219,0.009807855822145939,-0.13011260291864316,-0.17743500546546884,-0.8384578144791247
1687005781.814825,-0.12609058618545532,0.17733725905418396,-0.9760392904281616,-0.01250496506690979,-0.02403216063976288,-0.003422379493713379,-0.08214165270328522,0.061504244804382324,0.007511411793529987,-0.1284744283971387,-0.17828016186210863,-0.8385626359948162
1687005781.865903,-0.12579017877578735,0.1794651299715042,-0.9756890535354614,0.011379808187484741,0.025902941823005676,-0.0023535490036010742,0.05515468865633011,-0.05190007761120796,0.015489709563553333,-0.12821719460263362,-0.18044272709931874,-0.8379843788103295
1687005781.955199,-0.12669770419597626,0.1775612086057663,-0.9759199023246765,-0.007945820689201355,-0.013422384858131409,0.02493119239807129,-0.04572172462940216,0.013255223631858826,0.024685338139533997,-0.1291018062799624,-0.17850772393019027,-0.8369757716826486
1687005781.961379,-0.1273098886013031,0.17863547801971436,-0.9756441712379456,0.010229229927062988,0.013213291764259338,-0.012057185173034668,0.06537476927042007,-0.05221473053097725,-0.004575078375637531,-0.1297548879614201,-0.17959944760755672,-0.835745569294882
1687005782.014686,-0.1279081404209137,0.17600493133068085,-0.9760439395904541,-0.005667269229888916,-0.02558375895023346,0.0054628849029541016,-0.02783227153122425,0.011107517406344414,-0.00600865762680769,-0.13030498134922328,-0.17692653752022952,-0.8359001871401149
1687005782.1072412,-0.12841501832008362,0.17630410194396973,-0.9759233593940735,-0.0080137699842453,0.005763798952102661,0.006502032279968262,0.05183379352092743,0.0029880721122026443,-0.007250489667057991,-0.13083147380571178,-0.17723045950760014,-0.8362308561956632
1687005782.113721,-0.12805871665477753,0.17672058939933777,-0.9758948683738708,0.009147003293037415,-0.009011194109916687,-0.00974661111831665,-0.021486755460500717,-0.022632868960499763,-0.006472314242273569,-0.13047634350704762,-0.17765359028682076,-0.8364830945595473
1687005782.164288,-0.12826412916183472,0.17614895105361938,-0.9759712219238281,0.0013720840215682983,-0.002549678087234497,0.0080299973487854,-0.002329906914383173,0.004472384694963694,-0.006810802035033703,-0.13067315233676213,-0.17707284499220213,-0.8367961124611258
1687005782.251764,-0.1286034882068634,0.17753171920776367,-0.9756760001182556,0.014940798282623291,0.017673999071121216,0.006483495235443115,0.006153858732432127,-0.02426045946776867,-0.0010586399585008621,-0.13105414170158755,-0.17847776047826164,-0.8370211565051985
1687005782.265456,-0.12803621590137482,0.17643821239471436,-0.9759489297866821,0.0012967437505722046,-0.009247630834579468,0.005566239356994629,-0.05126043036580086,0.023784298449754715,-0.004110090434551239,-0.1304465429024228,-0.17736670774648902,-0.837634062293072
1687005782.345015,-0.12829475104808807,0.17652662098407745,-0.9758989810943604,-0.0011455267667770386,0.018053486943244934,-0.0024030208587646484,0.10598631203174591,-0.012690623290836811,-0.013802398927509785,-0.1307135682334204,-0.17745653255022317,-0.8375769908875871
1687005782.36113,-0.1278643161058426,0.17401470243930817,-0.976406455039978,-0.000919833779335022,-0.03395424783229828,-0.009936869144439697,-0.08901380002498627,-0.00973824318498373,0.012783405371010303,-0.13021301083995626,-0.1749051095719669,-0.8378926832410488
1687005782.402508,-0.12881076335906982,0.17525233328342438,-0.9760606288909912,-0.013248533010482788,0.01224769651889801,-0.012296855449676514,0.036303307861089706,0.015878837555646896,-0.017791813239455223,-0.13121181996413905,-0.1761620638503085,-0.8385204294520651
1687005782.46804,-0.1281605213880539,0.1760270744562149,-0.9760068655014038,0.005266264081001282,-0.002549871802330017,-0.009634613990783691,-0.041956543922424316,-0.019248656928539276,0.00590392854064703,-0.13056409061354346,-0.17694903527912664,-0.8389281808892766
1687005782.558375,-0.12851518392562866,0.17545540630817413,-0.9760631322860718,-0.01120951771736145,-0.012766167521476746,0.029575705528259277,-0.017207056283950806,0.030302250757813454,0.008388924412429333,-0.13091382995382192,-0.17636832806093913,-0.8392142421019587
1687005782.564694,-0.12752600014209747,0.1780465692281723,-0.9757235646247864,0.02256081998348236,0.008080169558525085,-0.014022469520568848,-0.02089799754321575,-0.042594462633132935,-0.008050503209233284,-0.12996223229045253,-0.17900094439401398,-0.8390168289603696
1687005782.647709,-0.12850752472877502,0.17687830328941345,-0.9758073091506958,-0.014909803867340088,-0.0072920918464660645,0.0212479829788208,-0.02269536629319191,0.026960117742419243,0.007380650378763676,-0.13094004966420694,-0.17781383971554182,-0.8395139211264898
1687005782.661562,-0.12764431536197662,0.17834340035915375,-0.975653886795044,0.011814877390861511,0.01973097026348114,-0.006233870983123779,0.030643021687865257,-0.019196325913071632,-0.012636999599635601,-0.13009063895650733,-0.17930260834693135,-0.839577171434728
1687005782.699751,-0.1271495521068573,0.17670473456382751,-0.976016640663147,-0.016252517700195312,-0.020622551441192627,-0.005367636680603027,-0.05804390460252762,0.03406330198049545,0.012926151044666767,-0.12954440274641577,-0.17763748644199906,-0.8398522024471913
1687005782.7691221,-0.1279423087835312,0.17837414145469666,-0.9756092429161072,-0.0026881545782089233,0.012742206454277039,-0.020789623260498047,0.059911031275987625,-0.023301057517528534,-0.009334679692983627,-0.13039680453590263,-0.17933384526488977,-0.8399324173147827
1687005782.85692,-0.12802542746067047,0.17832797765731812,-0.9756067991256714,0.004108831286430359,0.010423287749290466,0.018545031547546387,-0.04569868743419647,-0.003594596404582262,0.009959123097360134,-0.1304808983388112,-0.179286927643092,-0.8402694222096853
1687005782.863513,-0.12861718237400055,0.17929625511169434,-0.9753514528274536,-0.003798559308052063,-0.010350912809371948,0.012643933296203613,-0.016636807471513748,-0.007677754852920771,0.0017107808962464333,-0.13111104640553758,-0.18027107302543727,-0.8402565767175592
1687005782.939903,-0.12904255092144012,0.18046100437641144,-0.9750804305076599,0.013503044843673706,0.01582808792591095,-0.0060443878173828125,-0.008228542283177376,-0.03642977401614189,-0.011177054606378078,-0.13157584123621055,-0.18145512634404076,-0.8409253705738006
1687005782.943243,-0.13259004056453705,0.18019449710845947,-0.9746537208557129,0.004248395562171936,-0.0011478215456008911,0.0005326271057128906,0.003982183989137411,-0.10223115235567093,-0.03776046261191368,-0.13520810558083804,-0.18118417677930024,-0.8420300302255069
1687005783.003319,-0.13539022207260132,0.17990262806415558,-0.9743226170539856,-0.039307624101638794,-0.0518966019153595,-0.018002212047576904,-0.062263015657663345,0.02158612385392189,-0.025310184806585312,-0.13807412739745134,-0.1808874600257052,-0.8440426392118745
1687005783.062279,-0.13498704135417938,0.1826552301645279,-0.9738662838935852,0.02713795006275177,0.0221940279006958,-0.0060530900955200195,-0.004213561303913593,-0.0936262235045433,-0.009525894187390804,-0.13773182543312978,-0.18368644686505803,-0.8442989907298027
1687005783.151322,-0.13854911923408508,0.18369697034358978,-0.9731698632240295,-0.03109806776046753,-0.012722209095954895,-0.03577178716659546,-0.03133958950638771,-0.03286859393119812,0.018518522381782532,-0.14141854597270756,-0.18474611153717807,-0.8456455085670832
1687005783.1610599,-0.13779234886169434,0.18464145064353943,-0.9730985760688782,0.00023439526557922363,-0.01725250482559204,0.009383976459503174,-0.044590678066015244,-0.00367236090824008,0.0003254050388932228,-0.14066644893589134,-0.18570702552306845,-0.8453633374259131
1687005783.2111402,-0.13832738995552063,0.18650294840335846,-0.9726675748825073,-0.004204943776130676,-0.017054051160812378,0.014797091484069824,-0.07813359051942825,-0.0036886059679090977,0.005892476998269558,-0.14126716213082938,-0.18760142717095116,-0.8455324012624843
1687005783.3082151,-0.13715443015098572,0.1913621872663498,-0.9718894958496094,0.0055931806564331055,0.014906167984008789,-0.017414093017578125,-0.02650042250752449,0.0074011958204209805,0.016619954258203506,-0.14019564558859676,-0.1925497938128397,-0.8454482051686003
1687005783.313576,-0.13704346120357513,0.1919984519481659,-0.9717796444892883,-0.002376064658164978,-0.004055917263031006,-0.0008613467216491699,-0.024941209703683853,0.0026222867891192436,-0.0019888821989297867,-0.14009932040351103,-0.19319808254037,-0.8454021628576956
1687005783.453196,-0.13656358420848846,0.19418279826641083,-0.9714131355285645,0.00018055737018585205,0.00425778329372406,-0.012137889862060547,0.009037462994456291,0.0047822436317801476,-0.010093414224684238,-0.1396671054608284,-0.19542432454334954,-0.8456862364638414
1687005783.459615,-0.1362396627664566,0.19430756568908691,-0.9714336395263672,-0.004171684384346008,-0.022310465574264526,-0.0016193389892578125,-0.0496990866959095,0.00954850297421217,0.004207494668662548,-0.1393371919328279,-0.1955515077293028,-0.8454438994996076
1687005783.51867,-0.1354173719882965,0.1979101151227951,-0.9708211421966553,0.0041155219078063965,0.013668268918991089,-0.005024135112762451,-0.022400155663490295,0.008982980623841286,0.004845588468015194,-0.13859320699765534,-0.19922539880992501,-0.8455735638676347
1687005783.5297031,-0.13524635136127472,0.1987076997756958,-0.9706820845603943,0.004585370421409607,-0.008537381887435913,0.013986527919769287,-0.012304776348173618,-0.009070588275790215,0.00016694609075784683,-0.13844000077609783,-0.20003914874072967,-0.8453859618148178
1687005783.5332232,-0.13512635231018066,0.1992024928331375,-0.9705973863601685,0.0038550198078155518,-0.0057973116636276245,0.001557469367980957,-0.007193837780505419,0.0008407652494497597,-0.006749815307557583,-0.13833063772399254,-0.20054403770975732,-0.8457631348604061
1687005783.571302,-0.13505706191062927,0.2010965794324875,-0.9702163338661194,-0.0036605745553970337,0.0024404376745224,0.0004897713661193848,-0.02787887677550316,0.0003078666632063687,0.006281564943492413,-0.1383142083971062,-0.20247724778771148,-0.8458158648291357
1687005783.633412,-0.13482949137687683,0.20177577435970306,-0.9701069593429565,-0.004269585013389587,0.00287511944770813,-0.010972082614898682,-0.01992647722363472,0.012594226747751236,0.006680239923298359,-0.13809948078493992,-0.20317065262329784,-0.8456568735901562
1687005783.6938648,-0.13481289148330688,0.2016151398420334,-0.970142662525177,-0.0022872835397720337,-0.004013806581497192,-0.0031238794326782227,-0.013444543816149235,0.004537232685834169,-0.00225147046148777,-0.1380776793472302,-0.2030066435988985,-0.8458322054728268
1687005783.7586899,-0.13499873876571655,0.20184379816055298,-0.9700692892074585,0.00012631714344024658,0.010817959904670715,-0.011376023292541504,0.0353056862950325,-0.004079158417880535,-0.010259329341351986,-0.13827592858106272,-0.20324010853439917,-0.8462626167835456
1687005783.813873,-0.1346510797739029,0.20126156508922577,-0.9702385663986206,0.004127427935600281,-0.015378966927528381,0.015206217765808105,-0.0532514788210392,0.012739501893520355,0.0025307685136795044,-0.1379005806375487,-0.20264566587178823,-0.8462053118214166
1687005783.91052,-0.1339230090379715,0.20283430814743042,-0.9700117707252502,0.00933501124382019,0.005844920873641968,0.005229055881500244,0.015676990151405334,-0.005837110802531242,-0.0022525349631905556,-0.137195941847829,-0.20425153835385382,-0.8461701442998603
1687005783.92129,-0.13443246483802795,0.20155006647109985,-0.970209002494812,-0.003583252429962158,-0.009319812059402466,0.0008791685104370117,-0.007794447708874941,0.001740780659019947,-0.0006916569545865059,-0.1376836531968951,-0.20294020590223216,-0.8461611271231129
1687005783.964143,-0.13417047262191772,0.2024868279695511,-0.9700501561164856,-0.0011902153491973877,0.0206272155046463,-0.001949906349182129,0.013808581978082657,0.007708924822509289,0.005286873318254948,-0.13744091748888124,-0.20389669386428924,-0.8460871824647451
1687005784.053395,-0.13441617786884308,0.20179465413093567,-0.9701604247093201,-0.011534109711647034,-0.003827109932899475,-0.005120337009429932,-0.011958766728639603,0.004425379913300276,0.0054804859682917595,-0.13767399745625625,-0.20318993278291464,-0.8460779924259554
1687005784.0610251,-0.1349726915359497,0.2028001844882965,-0.9698734283447266,0.0012752115726470947,0.006870865821838379,-0.011159896850585938,0.015259605832397938,-0.022865496575832367,0.0013690972700715065,-0.13827716399198944,-0.2042166827003027,-0.8456976716634137
1687005784.115024,-0.1352071762084961,0.2030581831932068,-0.9697867631912231,-0.0032205283641815186,-0.00016203522682189941,0.008299946784973145,-0.038519471883773804,0.0029293494299054146,0.007211274467408657,-0.13852654433746706,-0.2044801603079643,-0.8457339732636261
1687005784.2078629,-0.13520310819149017,0.20329852402210236,-0.9697369933128357,0.007990613579750061,0.004449918866157532,0.016337335109710693,0.04149514064192772,-0.013727790676057339,-0.0028378982096910477,-0.138529447382484,-0.20472562410184947,-0.8453652819015796
1687005784.215142,-0.13540272414684296,0.20361138880252838,-0.9696434736251831,-0.009555742144584656,-0.006116852164268494,0.012307047843933105,-0.02561725303530693,0.01629309169948101,0.015303554944694042,-0.13874457535682075,-0.205045170013489,-0.8455364957754654
1687005784.264519,-0.1344906985759735,0.20408065617084503,-0.9696717858314514,-0.00044274330139160156,0.005376771092414856,0.002188265323638916,-0.001061843242496252,0.010230138897895813,0.0022663166746497154,-0.13781789276325287,-0.2055245105193456,-0.8450135782372181
1687005784.357188,-0.13429683446884155,0.2050580531358719,-0.9694924354553223,-0.00793030858039856,0.0005694180727005005,-0.023259639739990234,-0.01768309623003006,0.004792630206793547,0.0020423447713255882,-0.1376468779908159,-0.20652302083683532,-0.8450911300550941
1687005784.362471,-0.1341712921857834,0.2051563858985901,-0.9694889783859253,-0.003981739282608032,-0.003175780177116394,-0.008645117282867432,-0.013085548765957355,-0.0021449048072099686,0.004501773975789547,-0.13752030048341335,-0.206623486736255,-0.8447556690587793
