Timestamp,gravityX,gravityY,gravityZ,accelerationX,accelerationY,accelerationZ,rotationRateX,rotationRateY,rotationRateZ,attitudeRoll,attitudePitch,attitudeYaw
1687016803.367465,-0.14771166443824768,0.2891523241996765,-0.9458182454109192,0.00368402898311615,-0.005323618650436401,0.0020621418952941895,0.0049444991163909435,0.00883104745298624,-0.0012780847027897835,-0.15492197226285495,-0.29334121206931474,-1.80695625428879
1687016803.373919,-0.14807063341140747,0.2889385223388672,-0.9458274841308594,0.0007776170969009399,-0.002103865146636963,0.0032462477684020996,-0.006791519001126289,-0.006412087474018335,-0.008159160614013672,-0.1552909580125662,-0.2931178840322297,-1.8071611603411155
1687016803.426291,-0.14797136187553406,0.28944140672683716,-0.9456892609596252,-0.0021750330924987793,0.0001550912857055664,-0.004704475402832031,-2.3827655240893364e-05,0.0007034791633486748,0.008034191094338894,-0.15521084484728814,-0.2936432275641201,-1.806967362053539
1687016803.517504,-0.14795242249965668,0.2895676791667938,-0.9456535577774048,0.0022158026695251465,0.0008680820465087891,-0.0008491277694702148,-0.013559676706790924,-0.0026762052439153194,-0.0036794571205973625,-0.15519705943718962,-0.2937751203641216,-1.8070483849444419
1687016803.523252,-0.14766018092632294,0.2895686626434326,-0.9456989169120789,-0.006041526794433594,0.008664309978485107,-0.006098568439483643,-0.0012787091545760632,0.005497968290001154,0.004206695593893528,-0.15488807142932928,-0.2937761651878552,-1.8072011547049813
1687016803.575717,-0.14738233387470245,0.2895367443561554,-0.9457520246505737,0.007733970880508423,-0.009492218494415283,0.01044929027557373,-0.0013222519773989916,-0.0023948424495756626,-0.003507949411869049,-0.1545927021990194,-0.2937428040539166,-1.8070792508376825
1687016803.669454,-0.14770010113716125,0.28965023159980774,-0.9456676840782166,-0.003316059708595276,0.0030743181705474854,0.0014385581016540527,0.0015192744322121143,0.004994497634470463,0.003790975548326969,-0.15493431321950205,-0.29386139581350806,-1.8071852348081487
1687016803.6813102,-0.1470872163772583,0.2896465063095093,-0.9457643628120422,0.0009385943412780762,-0.004581838846206665,-0.00020426511764526367,-0.012589753605425358,0.012698223814368248,-0.004860302433371544,-0.154286056245546,-0.2938574864900643,-1.807188192609985
1687016803.7272758,-0.1471993774175644,0.2895943522453308,-0.9457628726959229,0.00042515993118286133,0.0011008083820343018,0.00038933753967285156,0.025256628170609474,0.004287028685212135,-0.0049814763478934765,-0.15440209392987989,-0.29380299725480913,-1.807618120146603
1687016803.813257,-0.14697925746440887,0.28979572653770447,-0.9457354545593262,0.007987022399902344,0.005293935537338257,-0.008778095245361328,-0.0005332904402166605,-0.0008060004329308867,-0.0009715547785162926,-0.15417924584577158,-0.29401340585742824,-1.8076639522099442
1687016803.817169,-0.14702121913433075,0.28920507431030273,-0.9459096789360046,-0.0011720508337020874,0.01023334264755249,-0.004056692123413086,0.03824739530682564,0.010756113566458225,-0.0063780383206903934,-0.15419460221030326,-0.2933963206766203,-1.8078028512597217
1687016803.911175,-0.14687834680080414,0.2889026403427124,-0.9460242986679077,0.0303928405046463,-0.04999580979347229,0.10088574886322021,-0.050267089158296585,-0.005425918847322464,0.007779325358569622,-0.1540287607432882,-0.2930803900958273,-1.8078463046378903
1687016803.999133,-0.1470005065202713,0.2888931334018707,-0.9460082650184631,0.009503647685050964,-0.02465677261352539,0.055169641971588135,0.006130870897322893,0.002900320803746581,0.010302671231329441,-0.15415741707606515,-0.2930704769207198,-1.8081566694675346
1687016804.005656,-0.14655770361423492,0.28895074129104614,-0.9460593461990356,0.022046059370040894,-0.01946529746055603,0.008834004402160645,-0.002264344831928611,0.0017016319325193763,-0.0015963325276970863,-0.15369217062041166,-0.29313063558799546,-1.8082586165765564
1687016804.115096,-0.1464698314666748,0.28929176926612854,-0.945968747138977,-0.0020743906497955322,0.027205944061279297,-0.02864062786102295,0.024893173947930336,0.0034807571209967136,-0.007622533477842808,-0.1536159604395952,-0.29348688908469145,-1.8082766362798115
1687016804.118544,-0.1458490788936615,0.2888510823249817,-0.9461992979049683,-0.010095655918121338,0.012235283851623535,-0.015150189399719238,-0.0028784701135009527,0.011486086063086987,-0.0074403733015060425,-0.15293835215971344,-0.29302654388275345,-1.8083366313468445
1687016804.201479,-0.14597997069358826,0.28912803530693054,-0.9460945129394531,-0.012070491909980774,0.021739214658737183,-0.009288787841796875,0.027492284774780273,0.0025891303084790707,-0.0038000978529453278,-0.15309016511097479,-0.293315852944123,-1.808630926855845
1687016804.2133842,-0.14551964402198792,0.2884939908981323,-0.9463589191436768,0.008572086691856384,-0.012493044137954712,0.007058382034301758,-0.011163763701915741,0.009048361331224442,0.0010223537683486938,-0.1525728956503962,-0.2926535666292627,-1.8084288353859868
1687016804.324661,-0.14556802809238434,0.2889600992202759,-0.9462092518806458,0.004546374082565308,0.011210739612579346,-0.003604590892791748,0.015486556105315685,0.005645240657031536,-0.00868353620171547,-0.15264661562936513,-0.29314041818044984,-1.8086520190908075
1687016804.3381472,-0.14509183168411255,0.2882597744464874,-0.9464960098266602,0.001384630799293518,-0.0016692280769348145,-0.00028139352798461914,0.006011094897985458,0.014594393782317638,-0.004446979612112045,-0.1521095665168396,-0.29240895559288677,-1.808598931462332
1687016804.420136,-0.14447276294231415,0.28917962312698364,-0.9463101029396057,0.005511060357093811,-0.001292109489440918,-0.005868852138519287,0.015794217586517334,0.006424348335713148,-0.0010676952078938484,-0.15149975778026978,-0.29336973077295325,-1.8088571434715865
1687016804.4312549,-0.1448836326599121,0.28819262981414795,-0.946548342704773,-0.009977728128433228,0.013595640659332275,0.0010679960250854492,0.014571426436305046,-0.0005568618071265519,0.000524875707924366,-0.15188636291341628,-0.29233883655289816,-1.8087765844056298
1687016804.4345078,-0.14434242248535156,0.2874172627925873,-0.9468667507171631,0.006082609295845032,0.012311071157455444,-0.01527625322341919,0.02721332013607025,-0.006551104597747326,-0.012973356992006302,-0.15127752730275504,-0.29152922348701965,-1.8084929429216103
1687016804.470362,-0.14505235850811005,0.2869744598865509,-0.9468925595283508,-0.006452083587646484,-0.0029321610927581787,0.004585981369018555,-0.002587652998045087,0.0037360205315053463,0.006438423879444599,-0.15200610908002987,-0.29106694060355554,-1.808924751809795
1687016804.562014,-0.14395567774772644,0.28713077306747437,-0.9470124840736389,0.00662665069103241,-0.0029053688049316406,0.000250399112701416,0.0024957223795354366,0.001939052832312882,0.0004447139799594879,-0.1508554520064273,-0.29123013360961697,-1.808687989650133
1687016804.568581,-0.14506614208221436,0.2868303656578064,-0.9469341039657593,-0.005141302943229675,-0.003932476043701172,0.005604088306427002,0.009773742407560349,0.0008676630677655339,-0.0004538362845778465,-0.1520137638398081,-0.2909165441819475,-1.8090764267358805
1687016804.6251369,-0.1441127210855484,0.2872147560119629,-0.9469631314277649,0.0013973414897918701,-0.007307589054107666,-0.005353152751922607,-0.03200473263859749,0.01331101730465889,-0.006876581814140081,-0.15102528595243422,-0.2913178034147938,-1.8090261689947638
1687016804.7144341,-0.14446556568145752,0.28733164072036743,-0.9468739032745361,0.00022430717945098877,0.010794520378112793,-0.005259275436401367,0.021645449101924896,0.0016082881484180689,-0.0033537521958351135,-0.15140348177570798,-0.2914398294213887,-1.8092879593951647
1687016804.7207599,-0.14420737326145172,0.2871512770652771,-0.9469679594039917,-0.00468781590461731,0.009235382080078125,-0.0092087984085083,-0.0029670868534594774,0.00356331467628479,0.001312372274696827,-0.1511222101465801,-0.2912515502108464,-1.8092224517990234
1687016804.77128,-0.14409546554088593,0.28736937046051025,-0.9469188451766968,-0.0028160959482192993,0.006301254034042358,-0.0019336938858032227,0.013321406207978725,0.007530492730438709,-0.003464539535343647,-0.15101442374092486,-0.29147921941108673,-1.8093273223027526
1687016804.860795,-0.1440180391073227,0.286883145570755,-0.9470780491828918,0.0015620589256286621,0.00651279091835022,0.006007492542266846,0.030111238360404968,0.0033380112145096064,-0.007366870064288378,-0.15090952669033456,-0.2909716178006014,-1.8094753026085066
1687016804.875504,-0.14396318793296814,0.28664490580558777,-0.9471585154533386,0.002590581774711609,-0.010048866271972656,0.005248725414276123,-0.005473454482853413,0.0019157503265887499,-0.0045045046135783195,-0.15084029547945527,-0.29072293112365477,-1.8098731352325728
1687016804.980373,-0.1437869817018509,0.2836836576461792,-0.9480764269828796,0.0013767927885055542,0.018531858921051025,-0.009977161884307861,0.16526466608047485,0.011442543007433414,0.006795021705329418,-0.1505147938357226,-0.2876334050026343,-1.8095876841515837
1687016804.9838018,-0.14459821581840515,0.2752128541469574,-0.9504468441009521,-0.0022828131914138794,0.0012916028499603271,0.0063703060150146484,0.14266587793827057,-0.013259075582027435,-0.01952499896287918,-0.1509793466474896,-0.2788111018317549,-1.8086064612188733
1687016805.074445,-0.14428895711898804,0.27556562423706055,-0.9503916501998901,0.0059528648853302,-0.008628427982330322,-0.013689160346984863,0.023326503112912178,-0.0026686154305934906,0.006573180668056011,-0.1506699371113712,-0.27917806073555723,-1.808967615455163
1687016805.07851,-0.144262433052063,0.275840163230896,-0.9503160119056702,-0.008691594004631042,-0.003089338541030884,0.005171358585357666,-0.00932791456580162,0.006759640760719776,0.004047173075377941,-0.15065446059149384,-0.2794636593565106,-1.8087810869328178
1687016805.165529,-0.143849179148674,0.2758817672729492,-0.9503666162490845,0.0021256357431411743,0.017300546169281006,0.005221962928771973,0.022096853703260422,0.00019574759062379599,-0.0023241741582751274,-0.15022149472790897,-0.2795069436310021,-1.808738494974008
1687016805.170831,-0.1446525603532791,0.27183738350868225,-0.9514095187187195,0.003829285502433777,0.0009133815765380859,-0.005606472492218018,0.14810332655906677,-0.021337639540433884,-0.006415855139493942,-0.1508847211309819,-0.2753017999210319,-1.8084878791165857
1687016805.2271,-0.14506469666957855,0.2498304545879364,-0.9573614597320557,-0.023453280329704285,0.013414129614830017,0.051935434341430664,0.724156379699707,0.07652127742767334,0.04355090484023094,-0.15038157341048516,-0.25250515834730836,-1.8041494342745055
1687016805.3465939,-0.1416795402765274,0.22576189041137695,-0.9638249278068542,0.012636035680770874,-0.012215182185173035,0.04989975690841675,0.41179022192955017,-0.00018282077508047223,0.0076235318556427956,-0.14595190848864983,-0.22772504439897215,-1.7982478360594285
1687016805.3514938,-0.14158429205417633,0.21314403414726257,-0.9667075276374817,0.0259990394115448,-0.05245378613471985,-0.02001732587814331,0.18537120521068573,-0.04370792955160141,0.012079532258212566,-0.14542636811784843,-0.21479181787048027,-1.7957683793106833
1687016805.467833,-0.14439456164836884,0.20717836916446686,-0.9675884246826172,0.004196882247924805,-0.024607017636299133,-0.009370863437652588,0.08333377540111542,-0.06293249130249023,-0.0011294800788164139,-0.14813816085281953,-0.20868986953260846,-1.7946135979542372
1687016805.4727259,-0.14691419899463654,0.20410475134849548,-0.9678623080253601,0.019076138734817505,0.037563905119895935,0.023297488689422607,0.16020838916301727,-0.061924081295728683,-0.001498594880104065,-0.1506424938439082,-0.2055491160995802,-1.7942174025952697
1687016805.5600948,-0.14774909615516663,0.20010437071323395,-0.9685702919960022,-0.012834325432777405,-0.07046574354171753,-0.012615621089935303,-0.06693621724843979,-0.01249741017818451,-0.002452804706990719,-0.15137653222557798,-0.20146444041987588,-1.793548400989538
1687016805.573049,-0.1482708603143692,0.19756314158439636,-0.9690121412277222,-0.026625290513038635,-0.03209689259529114,-0.020596623420715332,0.02796020358800888,0.013362681493163109,0.002895887941122055,-0.15183474257853774,-0.1988714475349018,-1.7928578717466728
1687016805.679018,-0.14902767539024353,0.19843944907188416,-0.9687169790267944,0.0185956209897995,0.02024945616722107,0.018094360828399658,0.09302742034196854,-0.04062451794743538,-0.013337410986423492,-0.1526435728281617,-0.19976545312481614,-1.793455087761669
1687016805.685252,-0.14894333481788635,0.19772304594516754,-0.9688764214515686,0.019762501120567322,-0.03175324201583862,-0.020488262176513672,-0.09818608313798904,-0.01729762554168701,-0.0015412047505378723,-0.1525338120726144,-0.19903456015601773,-1.793048971518707
1687016805.690299,-0.14929579198360443,0.19826380908489227,-0.9687116146087646,-0.0252494215965271,0.0059750378131866455,-0.02001214027404785,0.00880428496748209,0.025289781391620636,0.008663495071232319,-0.15291477115777763,-0.19958625360538246,-1.7932016949097285
1687016805.7646,-0.14918583631515503,0.20198678970336914,-0.9679591655731201,0.0030525028705596924,0.034478604793548584,0.018969297409057617,0.008918002247810364,-0.011964645236730576,-0.006454737391322851,-0.15292083844204896,-0.2033861040819869,-1.7937948930286047
1687016805.768237,-0.14875711500644684,0.20203372836112976,-0.9680153131484985,0.019225329160690308,-0.007560506463050842,0.003629326820373535,-0.041923340409994125,-0.007861779071390629,0.009043528698384762,-0.1524794637145361,-0.20343402275390465,-1.7934816482722709
1687016805.82482,-0.1488940566778183,0.2043166607618332,-0.9675149917602539,-0.004853427410125732,0.0016769468784332275,0.0020914077758789062,-0.012094339355826378,0.011969716288149357,-0.002105528488755226,-0.15269535873329196,-0.20576558410499143,-1.7941742081298686
1687016805.9155831,-0.14860299229621887,0.20339511334896088,-0.9677538871765137,-0.006212607026100159,-0.013331681489944458,-0.009006977081298828,-0.028073638677597046,0.007646207232028246,-0.0071783182211220264,-0.15236443866157323,-0.20482427328116262,-1.7943775384815226
1687016805.919508,-0.14896142482757568,0.2043740451335907,-0.9674925208091736,-0.006739169359207153,-0.00730682909488678,0.009789884090423584,-0.009077710099518299,0.00521900225430727,-0.006202269345521927,-0.15276687359207977,-0.20582420574812255,-1.7949470497037765
1687016805.975964,-0.14884190261363983,0.20332646369934082,-0.9677315950393677,0.0026475340127944946,-0.002185150980949402,-0.017803072929382324,-0.018558697775006294,0.004594490863382816,-0.00953388400375843,-0.1526090773554966,-0.2047541677551561,-1.7952898986608528
1687016806.042072,-0.14875559508800507,0.2049340009689331,-0.9674057364463806,-0.002062186598777771,0.0019140839576721191,-0.0031142830848693848,-0.01947995088994503,0.0077118538320064545,-0.0034403055906295776,-0.15257252234586427,-0.20639628165099638,-1.7956722999824675
1687016806.1294842,-0.14870402216911316,0.20476093888282776,-0.9674503207206726,0.0038676857948303223,-0.007419079542160034,0.010342776775360107,-0.011984417214989662,0.0004942878731526434,-0.011225258000195026,-0.15251352860056117,-0.20621946226399426,-1.7962233929887552
1687016806.135437,-0.1489013284444809,0.20485526323318481,-0.9673999547958374,0.009085118770599365,-0.014410361647605896,0.006294608116149902,-0.012277698144316673,-0.001779652200639248,-0.0017417408525943756,-0.1527205806501405,-0.20631582580886806,-1.7967092625272703
1687016806.217599,-0.1480662077665329,0.2133316993713379,-0.9656945466995239,-0.0007984638214111328,-0.05183272063732147,-0.019397616386413574,-0.49041852355003357,0.05200115218758583,-0.024893399327993393,-0.15214128884914338,-0.2149839029753833,-1.7984739826408194
1687016806.2238212,-0.14776621758937836,0.23564434051513672,-0.9605398774147034,0.029159724712371826,0.105191171169281,0.005797445774078369,-0.1352672129869461,-0.006701306905597448,-0.007759686093777418,-0.15264002418508146,-0.23788152718973468,-1.8043117783775582
1687016806.276465,-0.1464734673500061,0.24098491668701172,-0.9594122171401978,0.007649078965187073,-0.0802793949842453,-0.041304945945739746,-0.16973017156124115,0.005720607936382294,0.04762580618262291,-0.15150017639452196,-0.24338054420586772,-1.8044789213379457
1687016806.369879,-0.14553850889205933,0.24625422060489655,-0.9582157135009766,-0.018249258399009705,-0.01332886517047882,0.0073795318603515625,-0.1393243968486786,0.01602131500840187,0.011701363138854504,-0.1507328673972857,-0.24881355699424101,-1.804451682399282
1687016806.382416,-0.14578838646411896,0.2480963170528412,-0.9577024579048157,0.011617928743362427,0.022152051329612732,-0.008270502090454102,0.04244386777281761,-0.020426839590072632,0.0031294459477066994,-0.151067450559593,-0.2507146446275785,-1.8045084943148906
1687016806.4281921,-0.14660048484802246,0.24852368235588074,-0.9574676156044006,-0.00322549045085907,-0.005191832780838013,0.026238977909088135,-0.03964593634009361,-0.012814193964004517,0.007817675359547138,-0.15193278425322293,-0.25115582103067746,-1.8041311363220751
1687016806.514334,-0.14549730718135834,0.25021660327911377,-0.957194983959198,0.0067797452211380005,0.001812756061553955,0.009807288646697998,0.0029838799964636564,-0.008537556044757366,0.0037097493186593056,-0.150849117478973,-0.25290396324508974,-1.8038934016687656
1687016806.520679,-0.14729949831962585,0.24990059435367584,-0.9570018649101257,-0.009667575359344482,-0.008231967687606812,-0.005171597003936768,-0.029593240469694138,0.003140138229355216,0.011121858842670918,-0.15271919767320566,-0.2525775974945732,-1.8044114265322668
1687016806.578609,-0.14662326872348785,0.2511662244796753,-0.9567743539810181,0.0007645785808563232,-0.006567895412445068,0.000658571720123291,-0.039607856422662735,-0.009241829626262188,-0.011134976521134377,-0.15206445450366832,-0.25388492711438415,-1.8043106055438622
1687016806.667877,-0.1478891223669052,0.2524157166481018,-0.9562505483627319,-0.0011739134788513184,0.017283320426940918,-0.0025812387466430664,0.01197737455368042,-0.00591673981398344,-0.0023470772430300713,-0.15343957373428022,-0.2551760121818336,-1.8052208075678493
1687016806.673994,-0.14765037596225739,0.2529105842113495,-0.9561566710472107,-0.010491639375686646,0.006549805402755737,-0.008992254734039307,-0.026474276557564735,0.01361222006380558,-0.0003590276464819908,-0.1532105294673779,-0.25568747784257223,-1.8051555456318655
1687016806.726653,-0.14711280167102814,0.25290927290916443,-0.9562398791313171,0.0076628029346466064,0.0012716054916381836,0.006136119365692139,0.0002731813583523035,-0.0027443822473287582,-0.009547200053930283,-0.1526482859823066,-0.2556861017483436,-1.8053101384569428
1687016806.846453,-0.14779764413833618,0.2528844475746155,-0.9561408758163452,0.003312245011329651,0.0005334913730621338,0.01557379961013794,-0.027981823310256004,-0.004330427851527929,-0.008126935921609402,-0.15336345947854507,-0.25566043620365725,-1.8057033453894207
1687016806.852281,-0.14731384813785553,0.253568172454834,-0.9560344219207764,-0.004923015832901001,-0.01466137170791626,-0.009099245071411133,-0.011906319297850132,0.0076133175753057,0.007085571996867657,-0.15288599804122013,-0.256367224613399,-1.8059427953947995
1687016806.9438062,-0.14770561456680298,0.25413811206817627,-0.9558226466178894,-0.0012658685445785522,-0.003421008586883545,-0.0005067586898803711,-0.024312056601047516,-0.003422689391300082,-0.002255997620522976,-0.1533196837034953,-0.25695644767149783,-1.8061236638337341
1687016806.956413,-0.14777818322181702,0.25429099798202515,-0.95577073097229,-0.005770936608314514,-0.004642009735107422,0.003881692886352539,-0.0017806482501327991,0.0034820884466171265,0.0029089367017149925,-0.15340203253315296,-0.2571145398827307,-1.806115650057455
1687016807.026495,-0.14772939682006836,0.25432050228118896,-0.9557704329490662,0.0040069520473480225,0.00488048791885376,-0.010187268257141113,-0.02206321619451046,-0.0028646239079535007,-0.004163886420428753,-0.15335224157338126,-0.2571450450975946,-1.8063249630435398
1687016807.038927,-0.1482245922088623,0.2555142641067505,-0.9553753137588501,-0.003279849886894226,0.0026643872261047363,0.008994638919830322,-0.011935747228562832,-0.001898695481941104,0.01559224259108305,-0.15392084717139454,-0.2583795914160013,-1.8063845668582812
1687016807.116685,-0.14771263301372528,0.2553444802761078,-0.9554999470710754,0.00391387939453125,-0.0032998621463775635,0.0038550496101379395,0.010497522540390491,0.0004467504331842065,-0.0007595671340823174,-0.1533778240412209,-0.2582039925491836,-1.8059832728953351
1687016807.122262,-0.14776328206062317,0.2539156675338745,-0.9558728337287903,-0.0011624246835708618,0.0020352303981781006,0.0009930729866027832,0.09137605875730515,0.026454515755176544,0.006042412482202053,-0.15337068350795896,-0.25672645079522627,-1.8056880030356057
1687016807.174487,-0.1479104608297348,0.24833106994628906,-0.9573161005973816,-0.0020681023597717285,0.023763611912727356,-0.0016530156135559082,0.18491514027118683,-0.023693740367889404,0.008906909264624119,-0.15329322323854655,-0.25095697869154776,-1.8044634548079463
1687016807.266526,-0.1466510146856308,0.23833364248275757,-0.96004718542099,-0.03239552676677704,0.005883201956748962,-0.05751568078994751,0.3085038363933563,0.07613817602396011,0.0635102316737175,-0.15158221575205694,-0.24064969027124716,-1.8017477446020522
1687016807.2723851,-0.14401859045028687,0.223903626203537,-0.9639117121696472,0.010244861245155334,-0.05106736719608307,0.010939300060272217,0.15002591907978058,-0.0035507874563336372,-0.00019550975412130356,-0.1483134228800048,-0.22581794979464812,-1.7965108300462531
1687016807.3271642,-0.14527654647827148,0.21978086233139038,-0.9646714925765991,-0.005709096789360046,0.050452232360839844,0.013545393943786621,0.21438068151474,-0.005967605859041214,-0.001925765536725521,-0.14947367587483246,-0.22158983718051598,-1.7962175611323665
1687016807.41756,-0.14535820484161377,0.21659326553344727,-0.9653798937797546,0.02279968559741974,0.03642792999744415,0.05381983518600464,0.06128120794892311,-0.02800592966377735,-0.0033486923202872276,-0.1494483264591868,-0.21832354401181842,-1.795979134219994
1687016807.423495,-0.1452682912349701,0.21290040016174316,-0.9662145376205444,0.011357232928276062,-0.06348638236522675,0.012372374534606934,-0.029877331107854843,-0.01698097586631775,0.006917794235050678,-0.14923014021053718,-0.21454245875153066,-1.795015415359126
1687016807.4751868,-0.14550940692424774,0.21356332302093506,-0.9660319685935974,0.004350438714027405,-0.045274198055267334,-0.008180677890777588,-0.036645155400037766,-0.0016623398987576365,0.021600332111120224,-0.1495019928479442,-0.21522099256945554,-1.794878505099783
1687016807.566965,-0.1461297869682312,0.2130800038576126,-0.9660450220108032,-0.02537892758846283,0.015847548842430115,-0.0020793676376342773,0.03515639901161194,0.009882863610982895,-0.0014666365459561348,-0.1501278814308854,-0.21472628409629638,-1.7948595865349246
1687016807.57282,-0.1454266756772995,0.21240505576133728,-0.9662997126579285,0.006220832467079163,-0.009264856576919556,-0.004845917224884033,-0.014584261924028397,-0.013313270173966885,-0.010373312048614025,-0.14937746512322603,-0.21403552546242066,-1.794305183816985
1687016807.6258268,-0.14652499556541443,0.21258459985256195,-0.9660943150520325,0.009440109133720398,-0.026671558618545532,-0.005554854869842529,-0.021239833906292915,-0.0066813332960009575,0.01155755203217268,-0.15052023268324644,-0.21421926255960777,-1.7943700570867778
1687016807.717622,-0.146280437707901,0.21329964697360992,-0.9659737348556519,-0.00407959520816803,-0.023755013942718506,-0.009078145027160645,-0.031935423612594604,-0.009784315712749958,0.0036354465410113335,-0.15029125683499903,-0.21495109908278104,-1.7941747375499002
1687016807.723516,-0.1463228017091751,0.21306970715522766,-0.9660180807113647,0.0002199709415435791,-0.005214527249336243,-0.009140610694885254,-0.02449328452348709,-0.012959469109773636,-0.005870972294360399,-0.15032732691799008,-0.214715739740102,-1.7942735232396936
1687016807.776073,-0.14650839567184448,0.2134779393672943,-0.9658998250961304,-0.008215650916099548,-0.017066851258277893,-0.007244706153869629,-0.052331775426864624,0.006577613763511181,-0.0037937061861157417,-0.1505332914650982,-0.21513358590907972,-1.7943218106044097
1687016807.8653169,-0.14719298481941223,0.21296873688697815,-0.9659081697463989,-0.012673258781433105,-4.7653913497924805e-05,-0.004001498222351074,0.010391529649496078,6.032577948644757e-05,-0.0073556844145059586,-0.15122474984095396,-0.21461239800912166,-1.794726150512653
1687016807.871119,-0.1469918042421341,0.21269015967845917,-0.9660001397132874,-0.0009420812129974365,-0.00042520463466644287,-0.0034822821617126465,-0.003428745549172163,0.005394238047301769,-0.003295429050922394,-0.15100702683298484,-0.2143272968282174,-1.7947765646344758
1687016807.9266949,-0.14685386419296265,0.21330448985099792,-0.9658856987953186,4.914402961730957e-05,-0.0141315758228302,-0.0055345892906188965,-0.05155113339424133,0.0021390561014413834,-0.0011036479845643044,-0.15088506641335017,-0.2149560511129856,-1.7947990244288736
1687016808.048073,-0.14701685309410095,0.21269690990447998,-0.9659948945045471,-0.0002761632204055786,0.008265569806098938,-0.0030145645141601562,0.02870016358792782,0.009240108542144299,-0.0005457149818539619,-0.15103318613518643,-0.21433419659044226,-1.794851574251688
1687016808.0542278,-0.14667829871177673,0.21408611536026,-0.9657394289970398,-0.00020273029804229736,0.005670905113220215,0.02210533618927002,-0.0028563658706843853,2.8634269256144762e-05,0.003274056129157543,-0.15072988517243674,-0.21575616438609857,-1.7951234708827029
1687016808.166786,-0.14603325724601746,0.21377041935920715,-0.965907096862793,0.014136359095573425,-0.01850375533103943,-0.003972053527832031,-0.04572533443570137,0.00018562754848971963,-0.0011646337807178497,-0.15005128796347242,-0.21543298391212234,-1.7947050955895985
1687016808.171727,-0.14652082324028015,0.2144692987203598,-0.9656782746315002,-0.00956125557422638,0.017555803060531616,0.010111868381500244,0.04885509982705116,0.011412981897592545,0.006784102879464626,-0.15057988591531568,-0.21614844762072957,-1.795009735813667
1687016808.258754,-0.14581787586212158,0.21422050893306732,-0.9658399224281311,0.006077960133552551,-0.009157702326774597,-0.0018420219421386719,-0.015943139791488647,-0.011794469319283962,-0.002766525372862816,-0.1498435585103322,-0.21589374272157197,-1.7951424052999565
1687016808.2721791,-0.14637461304664612,0.21357831358909607,-0.9658979177474976,0.004086479544639587,0.0018757283687591553,-0.014570832252502441,0.02409229427576065,0.005983728915452957,-0.0012051137164235115,-0.15039819555090886,-0.215236332229565,-1.795149253365579
1687016808.35027,-0.1461825668811798,0.2126641422510147,-0.9661287069320679,-0.01598776876926422,-0.003573015332221985,0.012576401233673096,0.028408680111169815,-0.007164697162806988,-0.012517956085503101,-0.15016847980327516,-0.21430067226949256,-1.7954877888719312
1687016808.355688,-0.1461477130651474,0.21162080764770508,-0.9663630127906799,0.01617342233657837,-0.012142717838287354,-0.0017308592796325684,0.003738686442375183,-0.007622893899679184,-0.009422297589480877,-0.1500973561851382,-0.21323303339130195,-1.7955980735296557
1687016808.4384642,-0.14671577513217926,0.21162955462932587,-0.9662750363349915,0.00038407742977142334,0.005335107445716858,0.010388195514678955,0.007563051767647266,0.008009195327758789,-0.011910755187273026,-0.15068551367483424,-0.2132419780653504,-1.796191471761033
1687016808.450842,-0.14620918035507202,0.2127777487039566,-0.9660996198654175,0.006255641579627991,-0.010492026805877686,0.0047501325607299805,-0.04622327908873558,-0.009565136395394802,-0.0045282067731022835,-0.15019986200345875,-0.21441692866718096,-1.7966268430712815
1687016808.555732,-0.14675606787204742,0.21329356729984283,-0.9659029245376587,-0.0040159523487091064,-0.023993074893951416,-0.0036863088607788086,-0.06420900672674179,0.0055542937479913235,-0.014197612181305885,-0.1507834516721918,-0.2149448668194797,-1.7970066083483824
1687016808.568649,-0.14664331078529358,0.2228478342294693,-0.9637606739997864,0.010107755661010742,-0.06348510086536407,-0.015929877758026123,-0.402748703956604,-0.004885563626885414,-0.03265544772148132,-0.15099919471000334,-0.22473478854449755,-1.7994220540476351
1687016808.6433492,-0.14664708077907562,0.23139744997024536,-0.9617431163787842,-0.009129822254180908,0.10705770552158356,0.00947260856628418,0.08002573251724243,0.02446473389863968,0.05913492664694786,-0.15131498948666455,-0.23351387509611213,-1.8019246784285154
1687016808.6531591,-0.14499624073505402,0.2300828993320465,-0.9623086452484131,0.002189323306083679,0.038181811571121216,0.017759084701538086,-0.035726696252822876,0.005735788494348526,-0.0027699870988726616,-0.14955042563418838,-0.23216287421153936,-1.8012965413114135
1687016808.741026,-0.14444498717784882,0.23334115743637085,-0.9616067409515381,0.005147576332092285,0.014965057373046875,-0.015154123306274414,0.031641822308301926,0.006281736772507429,0.007299424149096012,-0.1490973903844359,-0.23551228456538867,-1.8015303271132515
1687016808.75402,-0.14499212801456451,0.23270630836486816,-0.9616782665252686,-0.009350433945655823,-0.020731285214424133,0.0032279491424560547,-0.07952237874269485,-0.0021234662272036076,0.004505236633121967,-0.14964281446669314,-0.23485946574529265,-1.8018625617954835
1687016808.830714,-0.14420537650585175,0.2369501143693924,-0.9607598185539246,-0.005818963050842285,0.0067479610443115234,0.0025383830070495605,0.011653068475425243,-0.003400984685868025,0.014488094486296177,-0.1489829823598427,-0.23922535859674987,-1.8017539834574579
1687016808.835369,-0.14472737908363342,0.2364405393600464,-0.9608069062232971,0.0008981078863143921,-0.002080857753753662,-0.005059242248535156,-0.038857776671648026,-0.001615601358935237,-0.008152768015861511,-0.14950708900993226,-0.23870088228107525,-1.8019693575728368
1687016808.918593,-0.14533402025699615,0.23985275626182556,-0.9598690867424011,-0.006506115198135376,0.013153180480003357,-0.017807304859161377,-0.006755299866199493,-0.002847979310899973,0.01077777985483408,-0.1502688788467886,-0.24221418097363243,-1.8024516634215582
1687016808.923966,-0.145005002617836,0.2392951250076294,-0.9600580334663391,-0.007460743188858032,-0.001197025179862976,-0.00043702125549316406,-0.037659887224435806,0.008747024461627007,-0.008067280985414982,-0.14990471060050412,-0.24163981283832173,-1.8026544588532474
1687016808.971719,-0.14518707990646362,0.2409004271030426,-0.9596289396286011,0.004882588982582092,0.0005546063184738159,0.005771517753601074,-0.017907287925481796,-0.004731899127364159,-0.011776532046496868,-0.1501562313314164,-0.24329349510383771,-1.8032078211834923
1687016809.1014729,-0.14525729417800903,0.24068628251552582,-0.9596720337867737,0.0022519975900650024,-0.007745668292045593,0.013794958591461182,-0.023207644000649452,0.004111126996576786,-0.003283178433775902,-0.15022111715216419,-0.2430728606350843,-1.8033619651273343
1687016809.107367,-0.14505590498447418,0.2421591877937317,-0.9593319296836853,0.008245691657066345,7.4043869972229e-05,-0.0037113428115844727,-0.0256553553044796,-0.005377715919166803,0.001325688324868679,-0.150068353809783,-0.24459065432626015,-1.803719082935175
1687016809.18777,-0.14534622430801392,0.2439257800579071,-0.9588403105735779,-0.0034116357564926147,-0.006254926323890686,-0.00014412403106689453,-0.03557323291897774,0.002025072928518057,0.004290851764380932,-0.15044013864095362,-0.24641185238222282,-1.8041370488587551
1687016809.199738,-0.14481668174266815,0.24487897753715515,-0.9586774110794067,0.0004991292953491211,0.006753668189048767,-0.011690020561218262,-0.008611856028437614,0.005126723553985357,-0.007185774855315685,-0.1499253061278029,-0.24739486074338923,-1.8041060624502976
1687016809.278854,-0.1449647843837738,0.24454517662525177,-0.958740234375,-0.006127670407295227,0.01575446128845215,-0.011260986328125,0.012754818424582481,0.005373332183808088,-0.0023912861943244934,-0.15006665237974023,-0.2470505943724859,-1.8045372766822407
1687016809.2909942,-0.1450727880001068,0.24436718225479126,-0.9587693214416504,0.0025405138731002808,-0.002179741859436035,0.008039891719818115,0.007143737748265266,-0.002686325227841735,-0.004078664816915989,-0.15017230343273805,-0.24686704357946704,-1.804759069843047
1687016809.367902,-0.1449621617794037,0.2443448007106781,-0.9587917327880859,0.004947587847709656,-0.002920284867286682,0.009389877319335938,-0.0017675324343144894,-0.00378501252271235,0.0018284926190972328,-0.15005603867989561,-0.24684395549134067,-1.80461016216944
1687016809.373177,-0.14469993114471436,0.24421072006225586,-0.9588655233383179,-0.0018606632947921753,0.005224660038948059,0.003955185413360596,0.013999713584780693,0.01265121903270483,0.0014708302915096283,-0.14977729434551135,-0.24670568805769016,-1.8042778821671477
1687016809.45969,-0.1441717892885208,0.24374817311763763,-0.9590627551078796,0.004264041781425476,-0.0029950588941574097,-0.0026529431343078613,0.010814439505338669,0.001305886311456561,0.004614691250026226,-0.14920847143877067,-0.2462287215526964,-1.8041661306589383
1687016809.548815,-0.14429472386837006,0.2444390505552292,-0.9588683843612671,-0.0038680434226989746,-0.008461922407150269,-0.0008636713027954102,-0.0256667397916317,0.0077296975068748,0.008593187667429447,-0.14936364662453522,-0.24694115822554796,-1.803998603948399
1687016809.554244,-0.1435556411743164,0.24454686045646667,-0.9589518308639526,0.0050822049379348755,0.024908065795898438,-0.0017567873001098633,0.053706713020801544,-0.004137747921049595,0.0004985099658370018,-0.14859709524011827,-0.24705232966226878,-1.8034036403073688
1687016809.638843,-0.14447785913944244,0.24080078303813934,-0.9597609639167786,0.003151029348373413,0.03001217544078827,-0.0068680644035339355,0.1617554873228073,-0.03517569229006767,0.006212056614458561,-0.14941337683019643,-0.24319082012823925,-1.8026939844455745
1687016809.652142,-0.14353737235069275,0.22831152379512787,-0.9629490375518799,-0.018968656659126282,0.011571869254112244,-0.025683164596557617,0.37190380692481995,0.04230764880776405,0.07252583652734756,-0.14797069950722885,-0.2303430422089308,-1.7995466394178428
1687016809.730342,-0.14235734939575195,0.2163325697183609,-0.9658854007720947,0.014473512768745422,-0.0005275607109069824,0.015262842178344727,0.21345815062522888,-0.013057740405201912,-0.0037750648334622383,-0.1463318411519401,-0.21805651373034782,-1.7960532560029814
1687016809.736432,-0.14323049783706665,0.21045155823230743,-0.9670549035072327,0.02512754499912262,0.010648250579833984,0.027403414249420166,0.1469799280166626,-0.023895740509033203,0.001973634585738182,-0.1470410160216828,-0.21203683581303015,-1.7953113977717183
1687016809.818077,-0.14397650957107544,0.2083786427974701,-0.9673929214477539,0.010233297944068909,-0.020161524415016174,-0.018034934997558594,-0.04341337829828262,-0.029417939484119415,0.010513593442738056,-0.14774490386537284,-0.20991691807783328,-1.7947527319426893
1687016809.823267,-0.1445733904838562,0.2059171348810196,-0.9678308963775635,-0.02955983579158783,0.006561458110809326,-0.03694510459899902,0.017564620822668076,0.002843861933797598,0.0036959005519747734,-0.14828233513122682,-0.20740084117078303,-1.7938810527632714
1687016809.908046,-0.144260972738266,0.20699343085289001,-0.967647910118103,-0.00854046642780304,0.04247245192527771,-0.03238260746002197,0.04834776744246483,0.004117518197745085,0.00836681853979826,-0.14799414060920968,-0.20850083411059625,-1.7935937660831451
1687016809.920418,-0.14472182095050812,0.20498491823673248,-0.9680066108703613,-0.01677711308002472,-0.006834343075752258,-0.03580808639526367,-0.05656759813427925,0.007956997491419315,-0.0007017767056822777,-0.14840579278277596,-0.20644829948300164,-1.7933597542645432
1687016809.964329,-0.1449950635433197,0.2057548463344574,-0.9678023457527161,-0.008447214961051941,0.03438790142536163,0.0059798359870910645,0.04989219829440117,0.0069845449179410934,0.002341683954000473,-0.14871281725627158,-0.20723499534714518,-1.7933310241922282
1687016810.029752,-0.14481215178966522,0.20517757534980774,-0.9679522514343262,-0.006936416029930115,-0.00032839179039001465,0.006022930145263672,-0.013779720291495323,-0.005076113156974316,0.0034032193943858147,-0.14850529270269572,-0.20664514529874015,-1.7932237332916632
1687016810.1177769,-0.14592194557189941,0.20717975497245789,-0.9673589468002319,0.005159690976142883,0.011463388800621033,0.029706358909606934,0.043164920061826706,-0.014871219173073769,-0.0010328078642487526,-0.14971694036579009,-0.2086912826181974,-1.7932730318665535
1687016810.122819,-0.14606311917304993,0.20753918588161469,-0.9672605991363525,0.009909018874168396,-0.0017439424991607666,-0.005624532699584961,-0.030930878594517708,-0.016898684203624725,0.00463919248431921,-0.1498746342742479,-0.2090586925870085,-1.7931553149539567
1687016810.176229,-0.14644432067871094,0.20778107643127441,-0.9671509861946106,-0.0018710345029830933,-0.01257544755935669,-0.008587539196014404,-0.004873709753155708,-9.120802860707045e-05,-0.008248908445239067,-0.15027670444857139,-0.20930598335292827,-1.7932560075679174
1687016810.270853,-0.14637967944145203,0.20829717814922333,-0.967049777507782,0.009813591837882996,-0.011321529746055603,0.0038539767265319824,-0.024610131978988647,-0.02131899818778038,0.002604537643492222,-0.15022685997253954,-0.20983363358728524,-1.7935287553217418
1687016810.2826738,-0.14692097902297974,0.20843857526779175,-0.966937243938446,-0.0014248937368392944,-0.021243810653686523,-0.0031555891036987305,-0.05340975522994995,-0.005435239989310503,0.004956374876201153,-0.15079130296442814,-0.20997820213781973,-1.7935565406110487
1687016810.3262901,-0.14648328721523285,0.20888060331344604,-0.9669082164764404,-0.010209143161773682,-0.01141667366027832,0.00708460807800293,0.0024958555586636066,0.005259215831756592,1.115165650844574e-05,-0.150353264773377,-0.21043017458865398,-1.793506690998039
1687016810.4170609,-0.14668461680412292,0.20850630104541779,-0.9669585227966309,0.0018177628517150879,-0.018336087465286255,-0.004232883453369141,-0.026068944483995438,-0.003537737997248769,0.00036242231726646423,-0.1505491079026589,-0.21004745102054193,-1.7936342648991501
1687016810.423178,-0.14689026772975922,0.20865651965141296,-0.9668948650360107,-0.006231591105461121,-0.019096627831459045,-0.005837678909301758,-0.010174999013543129,0.012226710096001625,0.013232414610683918,-0.1507667672226191,-0.2102010377393648,-1.7932849200783398
1687016810.4761028,-0.14647912979125977,0.20955252647399902,-0.9667634963989258,-0.007695585489273071,0.011257350444793701,-0.0018033981323242188,0.011656863614916801,0.0039209770038723946,-0.009363175369799137,-0.15037123591390072,-0.21111729772536655,-1.7933391569040904
1687016810.568584,-0.14650878310203552,0.20954568684101105,-0.9667604565620422,0.009912177920341492,-0.02731001377105713,-0.010824382305145264,-0.07087429612874985,-0.015407047234475613,-0.0034546861425042152,-0.15040168202534082,-0.2111103130465029,-1.7935997370500065
1687016810.5741858,-0.14651407301425934,0.20975543558597565,-0.9667141437530518,-0.005173474550247192,-0.008019030094146729,-0.006170988082885742,-0.008773443289101124,0.022803321480751038,0.005715643055737019,-0.1504141279561687,-0.2113248236450614,-1.7936628367785148
1687016810.656625,-0.14576484262943268,0.21114377677440643,-0.9665251970291138,-0.0019859373569488525,0.0007397085428237915,0.012606680393218994,-0.012810262851417065,0.0033292227890342474,0.0009395293891429901,-0.14968524586024223,-0.2127449744126359,-1.7938695746310884
1687016810.670155,-0.14572475850582123,0.21045181155204773,-0.9666821360588074,0.009570673108100891,0.018155306577682495,-0.001594841480255127,0.017720747739076614,0.005720475222915411,-0.006282430607825518,-0.14962075399071004,-0.21203709489240014,-1.7938747057350537
1687016810.71593,-0.14613400399684906,0.21073608100414276,-0.9665583968162537,-0.01008540391921997,0.009966984391212463,0.008108079433441162,-0.017446959391236305,0.00936927180737257,-0.00113693717867136,-0.15005360014477875,-0.21232789692602602,-1.7943185746988883
1687016810.7769341,-0.1454559564590454,0.21295154094696045,-0.9661750197410583,0.004892066121101379,-0.0035857409238815308,0.0036963820457458496,-0.06263035535812378,0.005181318148970604,-0.008186324499547482,-0.14942608696796136,-0.21459479654714847,-1.79458301671767
1687016810.8689141,-0.14624053239822388,0.22257575392723083,-0.963884711265564,0.00477638840675354,-0.025722146034240723,-0.022382378578186035,-0.45736056566238403,0.0023273415863513947,-0.03630238026380539,-0.15057162439412086,-0.2244556989616809,-1.7974364012777722
1687016810.874504,-0.146170511841774,0.2514013648033142,-0.9567818641662598,0.008963555097579956,0.1468682587146759,0.030436038970947266,0.007391611114144325,-0.010448507964611053,0.09180659055709839,-0.15160089686296307,-0.2541278447448362,-1.8023236380462477
1687016810.925284,-0.144326314330101,0.24531589448451996,-0.9586396813392639,0.022957980632781982,0.00671347975730896,0.007193148136138916,-0.08525523543357849,0.0063879964873194695,-0.015643175691366196,-0.14943097770332214,-0.24784552379509167,-1.8001657632838974
1687016811.016794,-0.1437160223722458,0.24709151685237885,-0.9582752585411072,0.003442049026489258,0.02608652412891388,0.009682118892669678,0.051276177167892456,0.0031222954858094454,0.004418416880071163,-0.14886415308967435,-0.24967754864581537,-1.800483537085655
1687016811.022465,-0.14419403672218323,0.2457936704158783,-0.958537220954895,-0.007600307464599609,-0.028401747345924377,0.004298269748687744,-0.07731328904628754,0.002496852073818445,-0.021944213658571243,-0.14931177499314574,-0.24833839718868167,-1.801370032666949
1687016811.138205,-0.14382456243038177,0.24787543714046478,-0.9580565094947815,-0.006688058376312256,0.012485235929489136,-0.012524604797363281,-0.0037845438346266747,-0.005755618214607239,0.010551410727202892,-0.14900845192268064,-0.2504866369632835,-1.801074324218104
1687016811.151695,-0.14400354027748108,0.2468562126159668,-0.9582927227020264,0.0024936050176620483,-0.006270930171012878,-0.010686159133911133,-0.01749669387936592,3.5558477975428104e-05,-0.007055013906210661,-0.1491549021513691,-0.24943471576249163,-1.8013015743033771
1687016811.2263541,-0.1445854902267456,0.24756301939487457,-0.9580227732658386,-0.0016546696424484253,-0.005222976207733154,0.010802865028381348,-0.022261489182710648,-0.004618315491825342,-0.009356250986456871,-0.14979028580857862,-0.2501641598403217,-1.8020093610814465
1687016811.2388248,-0.14464473724365234,0.24884560704231262,-0.9576814770698547,0.003378957509994507,-0.005574777722358704,-0.008291482925415039,-0.018040312454104424,-0.01337918359786272,-0.0006921896710991859,-0.14990337217078842,-0.2514881797449275,-1.802625315284317
1687016811.319663,-0.14525718986988068,0.24903887510299683,-0.9575384855270386,0.0021908581256866455,-0.017624124884605408,0.008289217948913574,-0.027295328676700592,0.0021811341866850853,-0.00845423899590969,-0.1505506944284642,-0.25168773904788355,-1.8031815410055185
1687016811.325224,-0.144741028547287,0.2502196133136749,-0.957308828830719,0.0048637837171554565,0.016397178173065186,-0.009182870388031006,0.005888323299586773,-0.002321206033229828,-0.002484496682882309,-0.15005917556447226,-0.2529070653771647,-1.8034285777220336
1687016811.373732,-0.14488771557807922,0.2505306899547577,-0.9572052955627441,0.00026498734951019287,0.0016360282897949219,-0.0032745003700256348,-0.03429531306028366,0.012268389575183392,-0.010973854921758175,-0.1502249894574465,-0.2532283759262067,-1.8038428748286275
1687016811.467677,-0.14456522464752197,0.25255557894706726,-0.9567217826843262,7.98255205154419e-05,0.01847100257873535,-0.013187885284423828,0.003009046893566847,0.0007432934362441301,-0.001467701978981495,-0.14997023158852751,-0.25532053458274007,-1.8044367017181975
1687016811.473352,-0.14464740455150604,0.252885103225708,-0.956622302532196,-0.0014554262161254883,0.003142058849334717,0.006411731243133545,-0.001971597084775567,0.007016902323812246,0.0030365027487277985,-0.15006958736054793,-0.25566113193054135,-1.8046933299839698
1687016811.5240521,-0.1445475071668625,0.2530887722969055,-0.956583559513092,-0.000761866569519043,-0.00034224987030029297,0.008677065372467041,0.0036912155337631702,0.0009100072784349322,-0.01084921881556511,-0.14997346545209975,-0.2558716473562637,-1.8047760853838288
1687016811.617021,-0.144608274102211,0.2529943585395813,-0.9565993547439575,0.0012520253658294678,-0.014667361974716187,-0.0005387067794799805,-0.017333243042230606,-0.0014785819221287966,-0.005265635903924704,-0.15003314112478758,-0.2557740420701366,-1.8052292545970428
1687016811.6233912,-0.14497090876102448,0.2534762918949127,-0.9564168453216553,-0.0005368292331695557,0.0018032193183898926,-0.00011086463928222656,0.0009917020797729492,-0.005396357737481594,-0.0014980621635913849,-0.1504319957954479,-0.2562722193051294,-1.8055931003735763
1687016811.708613,-0.14501729607582092,0.2520967721939087,-0.9567743539810181,-0.0006125122308731079,0.001946777105331421,0.0026422739028930664,0.01609342359006405,-0.00446798000484705,-0.0068779136054217815,-0.15042402042845085,-0.25484639524558916,-1.8057060565613803
1687016811.719435,-0.14537988603115082,0.2523084878921509,-0.9566635489463806,-0.002508223056793213,0.003978103399276733,-0.00909578800201416,0.014440931379795074,0.0009864401072263718,0.0012375367805361748,-0.15081166860117118,-0.25506518117927185,-1.805803059508928
1687016811.766859,-0.14532408118247986,0.25223979353904724,-0.9566901326179504,0.0014185160398483276,0.007113814353942871,-0.0058190226554870605,0.010584341362118721,-0.007786411792039871,0.011957558803260326,-0.15075053161393473,-0.25499419348486874,-1.8053422422002303
1687016811.858362,-0.1451926976442337,0.252797931432724,-0.9565627574920654,-0.004236564040184021,-0.0034235715866088867,0.01004481315612793,-0.015547460876405239,0.007218769285827875,3.8049183785915375e-05,-0.15063604199486808,-0.2555710195706599,-1.8053665988744774
1687016811.8717241,-0.1452436000108719,0.25209182500839233,-0.9567413330078125,0.0042829811573028564,-0.007264584302902222,0.000213623046875,0.005031784065067768,-0.008694017305970192,-0.004058425314724445,-0.15066035715383017,-0.25484127770314097,-1.8053147148943445
1687016811.9106789,-0.145783931016922,0.25166526436805725,-0.9567714333534241,0.003984078764915466,-0.0023519694805145264,0.004836618900299072,-0.0008495405782014132,-0.0030694210436195135,0.003579520620405674,-0.15120766298706076,-0.2544005255389513,-1.8052626418039892
1687016812.0394611,-0.14561130106449127,0.2525025010108948,-0.9565771222114563,-0.0008272230625152588,-0.005493253469467163,0.0007207989692687988,-0.00213078735396266,-0.003031603991985321,0.008887999691069126,-0.15106154377661385,-0.25526568663459903,-1.8050405709530577
1687016812.0525599,-0.1459176391363144,0.2525271475315094,-0.9565239548683167,-0.0017873793840408325,0.0005703568458557129,0.0006523728370666504,-0.014062747359275818,-0.0020940382964909077,-0.0009499834850430489,-0.15138279712555186,-0.25529116024395715,-1.8047147316769554
