Timestamp,gravityX,gravityY,gravityZ,accelerationX,accelerationY,accelerationZ,rotationRateX,rotationRateY,rotationRateZ,attitudeRoll,attitudePitch,attitudeYaw
1687010371.277947,-0.9128957390785217,0.40181025862693787,0.07190339267253876,-0.002799510955810547,0.004851728677749634,0.004009127616882324,0.009806832298636436,0.018798859789967537,-0.00020056962966918945,-1.6493981365991648,-0.4134928454267064,0.2497599371921561
1687010371.2830791,-0.9126531481742859,0.4024277925491333,0.07152758538722992,-0.0038354992866516113,0.0205458402633667,0.0054531097412109375,0.0031963337678462267,0.018806850537657738,0.005579554475843906,-1.6490096951193687,-0.4141673086257256,0.24865359889005736
1687010371.339037,-0.9126242995262146,0.4026288092136383,0.07075990736484528,-0.0033455491065979004,0.007802069187164307,0.005686633288860321,-0.017656151205301285,0.02016732469201088,-0.005447263363748789,-1.6481760611646772,-0.41438692660810816,0.24861196475477063
1687010371.431299,-0.9122522473335266,0.40337303280830383,0.07131630927324295,0.005178332328796387,0.0009543299674987793,0.011447422206401825,-0.04267801344394684,-0.00985528901219368,0.022141486406326294,-1.6488137367203521,-0.41520010498142523,0.2470806396019354
1687010371.447859,-0.9116628766059875,0.4045340418815613,0.07227097451686859,-0.004627406597137451,0.004493027925491333,0.005243770778179169,-0.014333192259073257,-0.0011379634961485863,0.025084543973207474,-1.649904683178977,-0.4164692616924291,0.24577041031496036
1687010371.486223,-0.911085307598114,0.4057033956050873,0.07299558073282242,-0.0033434033393859863,-0.0003384053707122803,0.0034357309341430664,0.017369277775287628,-0.0033048444893211126,0.007746036164462566,-1.6507449234869316,-0.41774828669861686,0.2450313940503073
1687010371.581959,-0.9107919931411743,0.4062844514846802,0.07342489808797836,-0.0025534629821777344,-0.0007362961769104004,-0.0019221231341362,-0.024556001648306847,0.001915350672788918,0.015217001549899578,-1.65123889637682,-0.41838407948993545,0.2443324624606403
1687010371.5978289,-0.9106634259223938,0.40645793080329895,0.07405438274145126,0.0026129484176635742,0.00435444712638855,-0.0002017095685005188,-0.02417190745472908,0.007073760498315096,0.003592570312321186,-1.6519369388001353,-0.4185739372504635,0.24261058866009955
1687010371.671073,-0.9108349084854126,0.405953586101532,0.07471039146184921,-0.005333423614501953,0.005453944206237793,-0.004718296229839325,0.017198702320456505,0.003496868535876274,-0.002452538348734379,-1.6526371883842133,-0.4180220366798249,0.2410217767783428
1687010371.675621,-0.9110127687454224,0.4055713415145874,0.07461567968130112,-0.003797292709350586,0.0012889504432678223,0.007827632129192352,-0.004951074719429016,0.0008446268038824201,-0.0011965921148657799,-1.6525180133691093,-0.41760380954257903,0.24181437556083438
1687010371.731278,-0.9112948775291443,0.40491655468940735,0.07472784072160721,-0.0012417435646057129,0.006078928709030151,-0.005727536976337433,-0.03971032053232193,0.01289290003478527,-0.01164310798048973,-1.6526150911844542,-0.4168875520157743,0.24037398074081348
1687010371.821241,-0.9114469885826111,0.4045727550983429,0.07473430037498474,-0.0023102760314941406,0.01571527123451233,0.005572669208049774,0.012325383722782135,-0.002522673923522234,0.003146224655210972,-1.6526085346530073,-0.41651160048382313,0.23952069422513297
1687010371.836905,-0.9111913442611694,0.4051564931869507,0.07469000667333603,-0.005571961402893066,0.007929444313049316,0.0021686553955078125,0.003612918546423316,-0.0033401313703507185,0.01653127372264862,-1.652583095982287,-0.4171499909680676,0.23946515288649217
1687010371.879319,-0.9108526706695557,0.40597793459892273,0.07436167448759079,-0.004522264003753662,0.005673736333847046,-0.005056135356426239,0.022402985021471977,0.010377012193202972,0.0076983654871582985,-1.6522553051128381,-0.41804865886382675,0.2402109734813802
1687010371.97703,-0.9106686115264893,0.4064601957798004,0.0739782378077507,-0.010123014450073242,0.006595224142074585,0.0021479129791259766,-0.012068705633282661,0.011734159663319588,0.006151336245238781,-1.6518534181698645,-0.4185764238338925,0.23977305215618963
1687010371.982109,-0.9106227159500122,0.4067031145095825,0.07320474088191986,-0.00017446279525756836,0.0027359724044799805,0.004020094871520996,-0.017403217032551765,0.007015969604253769,0.006076500751078129,-1.651013583375545,-0.41884233443976465,0.23972780334710128
1687010372.028933,-0.910539984703064,0.40676599740982056,0.07388149201869965,0.0024588704109191895,0.004321038722991943,-0.0013717412948608398,-0.030417419970035553,0.004973059054464102,0.005079413764178753,-1.6517592653765303,-0.41891115974140763,0.23811938097473953
1687010372.123636,-0.9105444550514221,0.40672001242637634,0.07407792657613754,-0.00699692964553833,0.00839531421661377,0.0034062787890434265,0.016886912286281586,0.0031001907773315907,-0.0020847562700510025,-1.6519731821650787,-0.4188608039493774,0.23762449316390594
1687010372.129366,-0.9104264974594116,0.40693795680999756,0.07433023303747177,-0.0036664605140686035,0.0015550553798675537,0.010172955691814423,-0.024824049323797226,0.0042589325457811356,0.0018287589773535728,-1.6522589565934236,-0.41909940723153877,0.2371286181014454
1687010372.1810532,-0.9105030298233032,0.4067578911781311,0.07437993586063385,-0.005299031734466553,0.008967816829681396,0.006201744079589844,0.016321789473295212,0.006712502799928188,-0.0034261904656887054,-1.65230636502138,-0.41890228879210745,0.2365705864336308
1687010372.301313,-0.9105556607246399,0.40657779574394226,0.07472000271081924,0.002001464366912842,-0.00015988945960998535,0.0070519521832466125,-0.008996416814625263,-0.013815541751682758,-0.0013055149465799332,-1.6526726588352043,-0.41870516240761974,0.23688979932961787
1687010372.317375,-0.910474419593811,0.4066298305988312,0.0754222422838211,-0.002413153648376465,-0.0044386982917785645,-0.005506403744220734,-0.01282857172191143,-0.008402667939662933,-0.0019958065822720528,-1.6534460190561915,-0.4187620886969877,0.23621906470941295
1687010372.389598,-0.9102712273597717,0.4069989025592804,0.07588323950767517,-0.0039438605308532715,0.0012957751750946045,0.005705595016479492,0.01086723618209362,-0.017575792968273163,0.0048045748844742775,-1.653967349547194,-0.41916610856248226,0.23727874565479237
1687010372.394721,-0.9101389646530151,0.4072655737400055,0.07603825628757477,-6.306171417236328e-05,0.006537526845932007,-0.0012396574020385742,0.009753569029271603,0.006051905453205109,0.0017544571310281754,-1.6541485226589716,-0.41945807088097103,0.23698525205189042
1687010372.448782,-0.9100950956344604,0.4073117971420288,0.0763154849410057,-0.0031739473342895508,0.004324525594711304,0.00043629854917526245,0.0021511761005967855,-0.01207942795008421,-0.004581203684210777,-1.65445501517829,-0.41950868575806577,0.2368330712132038
1687010372.536549,-0.9098486304283142,0.40774455666542053,0.07694306969642639,-0.005587339401245117,0.015030771493911743,0.001288779079914093,-0.0006274331826716661,0.0018142838962376118,0.012683537788689137,-1.6551624800791758,-0.4199825916359718,0.2361614429727161
1687010372.540444,-0.909675657749176,0.40816834568977356,0.07674015313386917,0.0018386244773864746,-0.003489941358566284,-0.0022467300295829773,-0.062425822019577026,0.010355041362345219,0.008203300647437572,-1.6549569630376026,-0.4204467731339158,0.23530911888017841
1687010372.6323829,-0.9093143939971924,0.40887391567230225,0.07726112753152847,-0.013842284679412842,0.018311113119125366,-0.004323966801166534,-0.01390808541327715,0.01225946843624115,0.016844727098941803,-1.6555590976319534,-0.42121978824554873,0.23306068182565767
1687010372.6475282,-0.9090877771377563,0.4094972014427185,0.07662586867809296,0.007552742958068848,-0.002133280038833618,-0.006572723388671875,-0.06646143645048141,0.019732030108571053,0.010189753957092762,-1.6548863070596964,-0.4219028541766797,0.23189862217407076
1687010372.725539,-0.9087149500846863,0.41031911969184875,0.07665153592824936,-0.0005868077278137207,0.022496432065963745,-0.005225062370300293,0.016595961526036263,0.01981125958263874,0.026727717369794846,-1.6549486950231398,-0.42280395511875873,0.22823886554059197
1687010372.813729,-0.908341646194458,0.4113272428512573,0.07566768676042557,-0.017119228839874268,0.0038644075393676758,0.007996320724487305,-0.08922041952610016,0.032149553298950195,0.030145350843667984,-1.6539075516981703,-0.4239097274577639,0.22775040194587182
1687010372.829629,-0.9074920415878296,0.41322627663612366,0.07551271468400955,0.007543981075286865,0.025234997272491455,-0.0001494958996772766,-0.10785362124443054,0.046101320534944534,0.05505656078457832,-1.6538154036780286,-0.42599413670038766,0.22205427621366078
1687010372.9009209,-0.9062235355377197,0.4159374237060547,0.07586255669593811,-0.0018422603607177734,0.018526077270507812,0.0033611059188842773,-0.18155406415462494,0.05062629655003548,0.08505813777446747,-1.6543144480869127,-0.42897338459853185,0.21588686673469912
1687010372.914307,-0.9037444591522217,0.42113250494003296,0.07677058130502701,0.013088762760162354,0.045160889625549316,-0.009876005351543427,-0.156720831990242,0.07380498945713043,0.11791595816612244,-1.655540106559596,-0.4346935870679898,0.20428213953428032
1687010372.990958,-0.9006668925285339,0.42772799730300903,0.07647041976451874,-0.012312114238739014,0.05432760715484619,-0.005699999630451202,-0.13103337585926056,0.0632597953081131,0.17958810925483704,-1.655497406032063,-0.44197773089108855,0.1965147520353869
1687010372.9957318,-0.8961116075515747,0.4372697174549103,0.07602096349000931,0.014107823371887207,0.12510818243026733,-0.026872403919696808,-0.12787912786006927,0.14071758091449738,0.2384738028049469,-1.6554279483868102,-0.4525605096356871,0.1861187564301722
1687010373.0836592,-0.8898118734359741,0.4506290555000305,0.0718899667263031,0.010493695735931396,0.19013327360153198,-0.020269520580768585,-0.22195789217948914,0.17752738296985626,0.4016227722167969,-1.6514135400733212,-0.46746985808422314,0.17603241810737733
1687010373.0968451,-0.8783594965934753,0.4732894003391266,0.06694914400577545,0.01181262731552124,0.23954027891159058,-0.015374287962913513,-0.06525716185569763,0.15502993762493134,0.6462122201919556,-1.646869894789309,-0.4930211708829366,0.16677748995695785
1687010373.1356258,-0.860113263130188,0.5067107677459717,0.05873214453458786,-0.04351222515106201,0.2763092517852783,-0.012131690979003906,0.1778813898563385,0.16711096465587616,0.8914890885353088,-1.6389746892670003,-0.5313651689868616,0.16810148274508718
1687010373.23393,-0.8333388566970825,0.550439178943634,0.050627969205379486,-0.03781592845916748,0.26973599195480347,-0.008071064949035645,-0.3952586352825165,0.274624764919281,1.1787046194076538,-1.631474908840707,-0.5828902230908484,0.1612343763353176
1687010373.247606,-0.7960136532783508,0.6029223203659058,0.05336029827594757,-0.080130934715271,0.3534833788871765,0.017089612782001495,-0.43228983879089355,0.21772727370262146,1.46992826461792,-1.637730592439703,-0.6471590581206951,0.12837769326995505
1687010373.324957,-0.7448524236679077,0.6644587516784668,0.060742780566215515,-0.10793083906173706,0.260712206363678,0.009981758892536163,-0.28223422169685364,0.13839423656463623,1.774640440940857,-1.6521663513637221,-0.7267693729499429,0.09271830894929747
1687010373.413115,-0.6809872388839722,0.7304134964942932,0.052466027438640594,-0.2009708285331726,0.18107032775878906,-0.054083339869976044,0.49038663506507874,0.15785500407218933,1.882980465888977,-1.6476884972709946,-0.8189271391701235,0.08767899393288174
1687010373.420018,-0.6081616282463074,0.793210506439209,0.030926238745450974,-0.20954155921936035,0.09564441442489624,0.08978605270385742,0.031828444451093674,0.12687353789806366,1.9591364860534668,-1.6216045667742802,-0.9160632624964784,0.11215953556304037
1687010373.532971,-0.5259922742843628,0.8499205708503723,0.031101947650313377,-0.18750876188278198,0.20345473289489746,0.05099046230316162,-0.037805162370204926,0.04089830443263054,2.077592372894287,-1.6298576017086117,-1.0158344899479026,0.09716041702810879
1687010373.5387092,-0.4303857684135437,0.9019503593444824,0.03540535643696785,-0.2749364972114563,0.2648434042930603,-0.0019122399389743805,-0.268180251121521,0.11829522252082825,2.268921375274658,-1.6528757474452218,-1.124264820323502,0.06575329310133159
1687010373.6237512,-0.3209206163883209,0.9459241628646851,0.04729852080345154,-0.3011038601398468,0.24891513586044312,0.021793358027935028,-0.24166661500930786,0.050939884036779404,2.4893977642059326,-1.7171267312917744,-1.2404318795475822,-0.008806254078480357
1687010373.629334,-0.19619394838809967,0.9796961545944214,0.04127112030982971,-0.36699265241622925,0.22373396158218384,0.07706081867218018,0.46380528807640076,-0.0454321913421154,2.6770708560943604,-1.778132121616009,-1.3689402164707505,-0.07250331602133452
1687010373.775379,-0.059438031166791916,0.9981631636619568,0.01172787044197321,-0.4033762812614441,0.09244358539581299,0.10355234146118164,0.6224350333213806,-0.10656318813562393,2.817319869995117,-1.7656064758894605,-1.510175999210554,-0.05653631217627932
1687010373.781349,0.0830693319439888,0.9961082339286804,-0.02945638820528984,-0.4403691589832306,0.07353276014328003,0.14238673448562622,0.8200516700744629,-0.07790490984916687,2.904350757598877,1.2300293589394367,-1.48254349027674,2.9437176225140216
1687010373.786281,0.22668172419071198,0.9718542695045471,-0.06414765119552612,-0.4324312210083008,0.04039871692657471,0.1516110897064209,0.5419371128082275,-0.08761852234601974,2.910942554473877,1.2950212873818816,-1.3329779558073347,3.012579060349531
1687010373.8597221,0.36544081568717957,0.927435040473938,-0.07948137074708939,-0.45911455154418945,-0.014059185981750488,0.10055381059646606,0.11537966132164001,-0.1945210099220276,2.9515581130981445,1.3566371126469823,-1.1874950598047511,3.0841910210975625
1687010373.863488,0.5024973154067993,0.859525740146637,-0.09333766251802444,-0.4738565683364868,0.029436051845550537,0.07682770490646362,0.32860586047172546,-0.32987576723098755,3.2182042598724365,1.3871418004033533,-1.0343410104090003,3.13253034786284
1687010373.952462,0.6343775987625122,0.7630230188369751,-0.12394050508737564,-0.5386133790016174,0.08849382400512695,0.08944045007228851,0.4200793504714966,-0.5884994864463806,3.443338394165039,1.37785335762017,-0.8679772270303098,-3.134556080753415
1687010373.966192,0.7581977844238281,0.6318158507347107,-0.16107402741909027,-0.6132546067237854,-0.028803765773773193,0.14692921936511993,0.3764723837375641,-0.961225688457489,3.924894332885742,1.3614651956535808,-0.6838936358497917,-3.1034187103750046
1687010374.041688,0.8620099425315857,0.4563851058483124,-0.22057132422924042,-0.6367443203926086,0.2073265016078949,-0.052774578332901,1.734226942062378,-0.7268409132957458,4.275827884674072,1.3202910077885108,-0.47392828894923866,-3.0977764677306747
1687010374.047349,0.9322349429130554,0.23982425034046173,-0.27096566557884216,-0.6091911196708679,0.06150634586811066,0.035431087017059326,1.3249014616012573,-0.08552714437246323,4.349667549133301,1.2879279707404427,-0.24218481631798372,-3.127095265590593
1687010374.133593,0.961864709854126,0.032787762582302094,-0.2715533971786499,-0.5849878787994385,-0.0724300816655159,-0.11502793431282043,-0.7113117575645447,0.12093042582273483,4.3291015625,1.2956378137670919,-0.03279364034779316,-3.064814000115393
1687010374.147264,0.9505994915962219,-0.17203883826732635,-0.25838586688041687,-0.5099714398384094,-0.061039164662361145,-0.06626003980636597,0.5866213440895081,0.28844696283340454,4.119564533233643,1.3053948915047833,0.1728989862654317,-3.0164759896011963
1687010374.189111,0.9009005427360535,-0.356402188539505,-0.24770081043243408,-0.45944851636886597,-0.1838352382183075,-0.11124688386917114,-1.0054020881652832,0.44800493121147156,4.058305740356445,1.3024784546857222,0.36441437721364317,-2.938028741539242
1687010374.313685,0.8221972584724426,-0.5192326307296753,-0.2332148402929306,-0.4069750905036926,-0.03609573841094971,-0.07066386938095093,0.21445319056510925,0.5642653703689575,3.7098844051361084,1.2944077956917717,0.5459528226821107,-2.8622525509319674
1687010374.3202949,0.7239898443222046,-0.6535170674324036,-0.2208036482334137,-0.3982452154159546,-0.1731431484222412,0.06929916143417358,-1.2563964128494263,0.6647928357124329,3.455085277557373,1.2747754714714195,0.712221739237822,-2.779547740318258
1687010374.402225,0.6146766543388367,-0.7489725351333618,-0.24741226434707642,-0.25540852546691895,0.017908692359924316,-0.036843642592430115,-0.34180447459220886,0.43096908926963806,3.0844287872314453,1.1881297547424088,0.8465100399409908,-2.6241589455939054
1687010374.4170241,0.5048328638076782,-0.8341965675354004,-0.22194567322731018,-0.2730060815811157,-0.06913900375366211,-0.07401376962661743,0.050283282995224,0.906573474407196,2.925851821899414,1.1565895336443903,0.9866742902235924,-2.541064619740127
1687010374.49037,0.38372766971588135,-0.9028571844100952,-0.19391176104545593,-0.11241117119789124,0.13941431045532227,0.04890754818916321,0.6543911099433899,0.6822695136070251,2.9898054599761963,1.1028882918502374,1.1263693803248538,-2.4315587200622897
1687010374.495579,0.263517290353775,-0.9568564891815186,-0.12240978330373764,-0.345975786447525,0.1587761640548706,0.3567237854003906,2.324375867843628,0.2722022235393524,1.6766939163208008,1.1359311046951563,1.2759833807643135,-2.4459429053468518
1687010374.585762,0.22901731729507446,-0.9715465307235718,-0.060403238981962204,-0.21581843495368958,-0.8948628306388855,0.19088119268417358,1.688005805015564,-0.17783044278621674,0.2825738787651062,1.3129192471041864,1.3316751696018352,-2.6218177879213154
1687010374.6021361,0.22620950639247894,-0.9717807173728943,-0.06687033921480179,0.20385946333408356,0.5272006392478943,-0.10444003343582153,-0.7199340462684631,-0.3331266939640045,0.13399025797843933,1.2833696843331917,1.3326661829806628,-2.606368675928605
1687010374.6346831,0.21831955015659332,-0.9743376970291138,-0.05479994788765907,-0.11082133650779724,-0.24288660287857056,-0.08933449536561966,0.5185999274253845,-0.07004938274621964,0.17353953421115875,1.324869196396588,1.3437595563586502,-2.6585254003093226
1687010374.762038,0.21412503719329834,-0.9753840565681458,-0.05269230157136917,-0.07974088191986084,-0.07031601667404175,0.10293954610824585,-0.01272158045321703,-0.18149122595787048,-0.046573661267757416,1.3295086440051997,1.3484561204429526,-2.6698226501190314
1687010374.768434,0.2166767567396164,-0.9755014181137085,-0.038059528917074203,0.05801200866699219,0.11930006742477417,-0.04017222300171852,0.43043848872184753,-0.11089468747377396,-0.014163522981107235,1.3969188926145193,1.3489889104770139,-2.7450702226943577
1687010374.8482041,0.21547476947307587,-0.9759206175804138,-0.03391018509864807,0.006983160972595215,-0.04504507780075073,0.033772941678762436,-0.02898930013179779,-0.022864431142807007,0.03059542551636696,1.4147022955538957,1.3509025997674735,-2.7673255137371626
1687010374.8606892,0.21397185325622559,-0.9764520525932312,-0.027528028935194016,-0.010495871305465698,-0.05401986837387085,0.035706814378499985,0.05380531772971153,0.019031086936593056,0.023771874606609344,1.44284659413531,1.3533523610930192,-2.7960909717083138
1687010374.9422488,0.2148602455854416,-0.9764173030853271,-0.021073617041110992,-0.003053039312362671,-0.0105973482131958,0.010758761316537857,0.08075890690088272,-0.00224357470870018,-0.017328424379229546,1.4730284489985284,1.3531912798142505,-2.8255808635880766
1687010374.947785,0.21514633297920227,-0.976295530796051,-0.02364673651754856,-0.014539003372192383,-0.0036696791648864746,-0.030674517154693604,-0.07587078213691711,0.0021394556388258934,-0.028691068291664124,1.4613257112938274,1.3526280381905502,-2.8145351039729802
1687010375.033931,0.21490707993507385,-0.9762357473373413,-0.02790665626525879,0.007337212562561035,0.007714629173278809,-0.0050370097160339355,-0.05460398271679878,-0.024839699268341064,0.03306151181459427,1.4416643831011726,1.3523518849903344,-2.794148768331074
1687010375.050143,0.2132750153541565,-0.9764984846115112,-0.03105589933693409,0.001095697283744812,-0.013049185276031494,-0.006282266229391098,-0.10549040138721466,0.011474767699837685,-0.0008485168218612671,1.4261982748690205,1.3535675703164165,-2.7780293157851546
1687010375.087615,0.21438013017177582,-0.9760366678237915,-0.0373302660882473,-0.003457888960838318,0.01540440320968628,0.02468079701066017,-0.10288502275943756,-0.038402777165174484,-0.021290941163897514,1.39839378198283,1.351435252174008,-2.750573556680741
1687010375.183187,0.21406924724578857,-0.9761020541191101,-0.03740575909614563,-0.00650392472743988,0.010297000408172607,-0.028145909309387207,0.01911897398531437,0.016066189855337143,-0.020097047090530396,1.397806120998909,1.3517359497254235,-2.7497186749671307
1687010375.20032,0.21418945491313934,-0.9760268926620483,-0.03866072744131088,0.008131101727485657,0.015394508838653564,0.003748655319213867,-0.03260327875614166,0.014399982988834381,-0.010873720049858093,1.3922212426270506,1.351390190942329,-2.743059142362173
1687010375.2366781,0.21384590864181519,-0.9759082794189453,-0.0432799868285656,-0.010995551943778992,-0.006483137607574463,-0.008630335330963135,-0.08276697993278503,-0.013567202724516392,-0.021107714623212814,1.3711050328080525,1.3508459155770012,-2.722220105528647
1687010375.330838,0.21547898650169373,-0.97553551197052,-0.04358309134840965,-0.013940900564193726,0.038172781467437744,-0.05053305625915527,0.048087507486343384,0.011161979287862778,-0.02638663351535797,1.3712272489747785,1.3491437937213198,-2.723026974512835
1687010375.3367062,0.21591173112392426,-0.9753925204277039,-0.04462893679738045,0.0019227564334869385,0.016469120979309082,0.014523446559906006,-0.003677617758512497,0.018351582810282707,-0.020570555701851845,1.3669669215140519,1.3484944733172999,-2.718218725220641
1687010375.4303808,0.2168954610824585,-0.9751479029655457,-0.04520313814282417,0.0037466734647750854,-0.005610942840576172,0.004797931760549545,-0.021946771070361137,0.016696160659193993,-0.021963123232126236,1.3653276544772979,1.3473876311688344,-2.715307392398756
1687010375.435542,0.2180543690919876,-0.9748297929763794,-0.046468958258628845,0.011941388249397278,-0.005623817443847656,-0.008065883070230484,-0.002524136332795024,-0.04707975313067436,-0.006400675047188997,1.3608300276273213,1.3459563895114581,-2.7116303875457137
1687010375.476383,0.2186923772096634,-0.974742591381073,-0.04528328776359558,0.0013546347618103027,-0.011524498462677002,0.008357107639312744,0.00326750660315156,-0.050504446029663086,-0.028089724481105804,1.3666179176015987,1.345565419542047,-2.7200723057540843
1687010375.570022,0.2221747189760208,-0.9738448262214661,-0.04758724197745323,-0.008551672101020813,-0.04689180850982666,-0.005864258855581284,-0.11032623797655106,-0.10014403611421585,-0.10078363120555878,1.3597960561171174,1.341580401974824,-2.717928662407356
1687010375.589329,0.22753125429153442,-0.9715908169746399,-0.06512055546045303,-0.023063480854034424,-0.04517853260040283,0.0403861477971077,-0.7454030513763428,-0.19325773417949677,-0.19996348023414612,1.2920431466493676,1.3318623583024565,-2.654304523346812
1687010375.625677,0.24448728561401367,-0.9566291570663452,-0.15838800370693207,-0.08547541499137878,-0.4194847345352173,0.20637696981430054,-2.735523223876953,-0.6265508532524109,-0.6767239570617676,0.995942885371941,1.2752019494038453,-2.3675684312412155
1687010375.693129,0.3014622926712036,-0.9175465106964111,-0.2592853605747223,-0.3912755250930786,0.019948244094848633,-0.16065168380737305,-0.10686365514993668,-0.06418243795633316,-2.0772061347961426,0.8604723332750017,1.1618656199860717,-2.2529958352965727
1687010375.815526,0.4240606725215912,-0.8716925978660583,-0.24561063945293427,-0.4152258038520813,-0.7040215134620667,-0.10897302627563477,-0.9468687176704407,0.39037254452705383,-3.2746806144714355,1.0458207200294474,1.0586456460355989,-2.4483391089286077
1687010375.831822,0.5843722820281982,-0.7667006254196167,-0.265855610370636,-0.34654879570007324,-0.3093491792678833,0.01030150055885315,-0.5512627363204956,0.5439273118972778,-4.105136394500732,1.1438400599625493,0.8736860911460045,-2.536351791601541
1687010375.906832,0.7390961647033691,-0.6182762384414673,-0.26734164357185364,-0.41275638341903687,-0.11928790807723999,0.056373655796051025,-0.4561421573162079,0.5184950828552246,-4.365017414093018,1.223723971696564,0.6665476063047435,-2.61457715662499
1687010375.921846,0.8641873002052307,-0.4371778070926666,-0.2491099238395691,-0.4764920473098755,-0.009858876466751099,-0.024388521909713745,-0.40603965520858765,0.8054801225662231,-4.4359636306762695,1.2901454193568704,0.4524583314867498,-2.6804065731722413
1687010375.988874,0.9488584399223328,-0.23194094002246857,-0.21417514979839325,-0.503286600112915,0.05893680453300476,0.034319907426834106,-0.5670538544654846,1.1342147588729858,-4.313743591308594,1.3487978635795626,0.23407255608340577,-2.7098057978626753
1687010376.002469,0.9867411851882935,-0.025261290371418,-0.16032399237155914,-0.5011759996414185,0.0974201038479805,0.059570252895355225,-0.33029210567474365,1.1994761228561401,-4.048544883728027,1.4097256096916577,0.025263977467013754,-2.72822407867411
1687010376.116314,0.9804210066795349,0.16911444067955017,-0.1008724570274353,-0.49738866090774536,0.08036677539348602,0.09785126149654388,-0.15954217314720154,1.1353399753570557,-3.794386625289917,1.4682702068070976,-0.16993110577776688,-2.744327719132302
1687010376.131122,0.9381276369094849,0.3427272439002991,-0.049542851746082306,-0.43484705686569214,0.14822429418563843,0.028668884187936783,0.22216004133224487,1.0091956853866577,-3.4351930618286133,1.5180349876267565,-0.3498184289505343,-2.7580759710950584
1687010376.2003012,0.870883584022522,0.49131059646606445,-0.013251719065010548,-0.36595505475997925,0.06130167841911316,0.09633588790893555,0.26531270146369934,0.7958571910858154,-3.184088706970215,1.5555810939260053,-0.5135938542890724,-2.7800733920868783
1687010376.214573,0.7851510643959045,0.6192814111709595,0.0053108022548258305,-0.3459727168083191,0.07813680171966553,0.036788225173950195,0.605341911315918,0.6566974520683289,-2.9673714637756348,1.5775602751295004,-0.6678271395794266,-2.8033112300197125
1687010376.3257198,0.6863790154457092,0.7271066904067993,0.014123613014817238,-0.334572434425354,-0.03783673048019409,0.05203855037689209,-0.08196796476840973,0.521557092666626,-2.8875131607055664,1.5913704111024658,-0.8140980646616394,-2.825381225170416
1687010376.331126,0.5748194456100464,0.8171447515487671,0.04309561103582382,-0.2622430920600891,0.05797743797302246,0.06821727752685547,0.07161294668912888,0.6198112368583679,-2.9034855365753174,1.6456287579174391,-0.9564402006709526,-2.7955934675879432
1687010376.412716,0.44818615913391113,0.8931479454040527,0.03763008490204811,-0.33034253120422363,-0.03856414556503296,0.03417789936065674,0.5428500175476074,0.4832409620285034,-2.9581680297851562,1.6545607026360865,-1.104296307609518,-2.815730158381379
1687010376.41895,0.3082951009273529,0.9508088231086731,0.030276842415332794,-0.2889622449874878,-0.014956831932067871,0.04769563674926758,0.23017488420009613,0.4679638743400574,-3.072943687438965,1.6686897571164387,-1.2558365900217725,-2.827663244037472
1687010376.5328379,0.15896877646446228,0.987033486366272,0.022220604121685028,-0.30252349376678467,-0.05623215436935425,0.022777674719691277,0.08730814605951309,0.38789939880371094,-3.091881513595581,1.70967616943912,-1.4095846277425625,-2.80836990042411
1687010376.55007,0.0032112004701048136,0.9994146227836609,0.03406408056616783,-0.30951613187789917,0.06386369466781616,0.012215856462717056,-0.09681235998868942,0.3677852153778076,-3.0981674194335938,3.0476010240416196,-1.5365783080495192,-1.488763090352475
1687010376.5881848,-0.14377827942371368,0.9895390272140503,0.011847936548292637,-0.2845969796180725,0.10427200794219971,0.083687424659729,0.5743707418441772,0.12676554918289185,-2.7083401679992676,-1.6530147774375108,-1.4260257378778909,0.08458896272861618
1687010376.601286,-0.27259892225265503,0.9620378613471985,0.013155889697372913,-0.39262324571609497,0.1831037402153015,-0.04272735118865967,0.13887320458889008,0.017242509871721268,-2.5815012454986572,-1.6190198831551983,-1.2943734860769776,0.11901593526838838
1687010376.6039128,-0.38989734649658203,0.9206400513648987,-0.020051907747983932,-0.26349925994873047,-0.11743265390396118,0.05670356750488281,0.446683406829834,-0.211603045463562,-2.448725700378418,-1.5194129144453512,-1.169716757872806,0.2312342611186613
1687010376.648238,-0.5047659873962402,0.8628478050231934,-0.0265494454652071,-0.36811304092407227,0.09076541662216187,-0.05455094575881958,0.5518434643745422,-0.33451688289642334,-2.5850281715393066,-1.5182472196919186,-1.0408769410683512,0.24828082815570912
1687010376.709012,-0.6071923971176147,0.7928881645202637,-0.0514388382434845,-0.19319218397140503,0.18381178379058838,0.03979640454053879,0.8369302749633789,-0.28911834955215454,-2.413141965866089,-1.4862822449959907,-0.9155340867578674,0.3029361131989773
1687010376.773127,-0.698061466217041,0.7137431502342224,-0.05728161707520485,-0.31576305627822876,0.28625690937042236,-0.02993757277727127,0.4354846477508545,-0.38308173418045044,-2.2952775955200195,-1.4889216373978504,-0.7948280162561462,0.32513171648692013
1687010376.8314462,-0.773928165435791,0.6301522850990295,-0.0627971962094307,-0.11575078964233398,0.30684417486190796,0.07439392805099487,1.0573033094406128,-0.6714249849319458,-2.1172468662261963,-1.4898328387270234,-0.6817493366727714,0.3611747996814031
1687010376.9253411,-0.8339333534240723,0.5478695631027222,-0.06628783792257309,-0.21620702743530273,0.47965723276138306,-0.04862599819898605,1.1939021348953247,-0.664951503276825,-1.7683241367340088,-1.491474930848877,-0.5798154785466787,0.4236056642733883
1687010376.93055,-0.8772416114807129,0.47669199109077454,-0.05667273700237274,-0.02708566188812256,0.6016771197319031,-0.09101700037717819,0.5086113810539246,-0.7357631921768188,-1.3784735202789307,-1.5062826401657659,-0.4968877635378451,0.46090602375156164
1687010376.9763842,-0.9040067791938782,0.42576342821121216,-0.03869326412677765,0.12213122844696045,0.38630932569503784,-0.21640312671661377,0.7308809161186218,-0.62606281042099,-0.7958852052688599,-1.528020474842195,-0.43980543231318775,0.49591022327439455
1687010377.042134,-0.9181163311004639,0.39562445878982544,-0.023318925872445107,-0.003651857376098633,0.3638512194156647,-0.18464303016662598,-0.017582915723323822,-0.32156842947006226,-0.49203768372535706,-1.5454031251301252,-0.4067476985138384,0.5122255168539669
1687010377.133452,-0.924820065498352,0.38018134236335754,-0.013040503486990929,-0.09877002239227295,0.32495778799057007,-0.13516807556152344,0.09016299247741699,-0.08699826896190643,-0.19017450511455536,-1.5566966768513197,-0.38999235146821004,0.5124603548210162
1687010377.149754,-0.9255567193031311,0.3785552978515625,-0.006379546131938696,0.0033002495765686035,0.1424102783203125,-0.09342813491821289,-0.4096951484680176,-0.02561640925705433,0.05487333610653877,-1.5639037777648865,-0.3882349345005991,0.5001335648680677
1687010377.221215,-0.9240991473197937,0.3821483254432678,-0.0019482278730720282,0.03887563943862915,0.03612568974494934,-0.05515009164810181,-0.1993507742881775,0.06818771362304688,0.09885410964488983,-1.568688084430504,-0.39211994626929053,0.4834917192235264
1687010377.235314,-0.9221372604370117,0.3868618309497833,-0.0008755738381296396,-0.009655952453613281,-0.024236708879470825,0.037954509258270264,-0.13105322420597076,0.05875719338655472,0.08090280741453171,-1.5698468221870936,-0.3972260176723962,0.4710337513581751
1687010377.277909,-0.9209645986557007,0.3896426260471344,-0.0017486156430095434,-0.0015513896942138672,-0.059579700231552124,0.04319155216217041,0.02203500270843506,-0.037952832877635956,0.04289683327078819,-1.5688976506058359,-0.40024352505840316,0.4718802578003053
1687010377.373327,-0.9211201667785645,0.38927558064460754,0.0014398787170648575,-0.0047830939292907715,-0.03957468271255493,0.029566049575805664,-0.010087180882692337,-0.056335970759391785,0.016187991946935654,-1.5723595077717858,-0.39984501804971234,0.47337947075117087
1687010377.461798,-0.9233840703964233,0.3837811350822449,0.008614026010036469,-0.005296468734741211,0.009834647178649902,0.004874826408922672,0.03442735597491264,-0.05652998387813568,-0.029039673507213593,-1.5801248130781553,-0.3938875256412875,0.4688388551034812
1687010377.468029,-0.9249655604362488,0.3798021078109741,0.01375033799558878,-0.01357203722000122,0.007633835077285767,-0.008440136909484863,0.011316046118736267,-0.09405765682458878,-0.0007806066423654556,-1.5856610151527715,-0.3895823515120126,0.47026484873070673
1687010377.5525122,-0.9248074293136597,0.3800593912601471,0.01691628061234951,-0.008237004280090332,0.014258235692977905,-0.024408340454101562,0.013174465857446194,-0.07309631258249283,0.0008654939010739326,-1.589085965273031,-0.3898605190054408,0.4731543482457068
1687010377.56796,-0.9246199131011963,0.38049477338790894,0.017373647540807724,0.010023355484008789,0.044340431690216064,-0.03452444076538086,0.1564999222755432,-0.04613899439573288,-0.010320315137505531,-1.589584158677756,-0.39033124885143367,0.4753042915096792
1687010377.639632,-0.9241606593132019,0.381713330745697,0.014901183545589447,-0.007525742053985596,-0.01896613836288452,-0.013436317443847656,-0.06778696179389954,-0.024016380310058594,0.019425861537456512,-1.5869189477540517,-0.3916492815931281,0.48087749590276513
1687010377.644438,-0.9231613278388977,0.38419508934020996,0.012948637828230858,-0.009395003318786621,0.010961830615997314,-0.01473378948867321,-0.018321342766284943,0.004955748561769724,0.0028610005974769592,-1.5848218151952007,-0.3943358434223619,0.4799310384260926
1687010377.733204,-0.9231019616127014,0.3843517303466797,0.0125059699639678,-0.0006345510482788086,0.010408401489257812,-0.009332180954515934,0.01905851997435093,-0.024130765348672867,0.02416788414120674,-1.5843432642920865,-0.3945054956545105,0.47951000406325056
1687010377.751054,-0.92229163646698,0.38630759716033936,0.01202674861997366,-0.00886070728302002,-0.011566966772079468,-0.00047576427459716797,-0.02881246618926525,-0.0020973673090338707,0.028217487037181854,-1.5838356583848774,-0.39662503879501615,0.4813691429301482
1687010377.820683,-0.9216141104698181,0.3879268765449524,0.011853252537548542,0.0055373311042785645,0.006436586380004883,0.002139093354344368,0.016923798248171806,0.006866432726383209,0.014077967964112759,-1.5836570229926306,-0.39838127229659254,0.4794842288918256
1687010377.834566,-0.9214144349098206,0.3884081542491913,0.011615469120442867,-0.0032073259353637695,-0.007075697183609009,-0.002154945395886898,0.005430792458355427,-0.003252247115597129,0.014938968233764172,-1.5834017883548717,-0.3989034883850216,0.4804923852560943
1687010377.875834,-0.9211012125015259,0.38916251063346863,0.011199037544429302,-0.008449137210845947,0.009091943502426147,-0.007216452620923519,-0.0690959095954895,0.04004942253232002,0.0134870121255517,-1.582954041536186,-0.3997222571599944,0.4797025336475835
1687010377.9733539,-0.9208073019981384,0.3898959159851074,0.009756548330187798,0.0038761496543884277,0.06821870803833008,-0.03018808364868164,0.06443272531032562,0.04176183044910431,0.034603748470544815,-1.5813915763105642,-0.4005185497700552,0.4779205018040279
1687010377.9905791,-0.9188157320022583,0.39458951354026794,0.008742977865040302,0.011101067066192627,0.09884914755821228,-0.08410608768463135,-0.2743614614009857,0.09562905877828598,0.15931132435798645,-1.5803115255087778,-0.40562108725366053,0.4726936463944039
1687010378.028023,-0.9133278727531433,0.4072205424308777,0.0018881299765780568,-0.005419015884399414,0.2676146626472473,-0.14269614219665527,-0.432879239320755,0.3919737935066223,0.4111286401748657,-1.5728636318480427,-0.41940876197354454,0.4600374282802956
1687010378.0885649,-0.9007536172866821,0.43430814146995544,-0.004405270796269178,0.05059492588043213,0.43672457337379456,-0.14392530918121338,-1.1880887746810913,0.6718291640281677,0.8047888278961182,-1.565905715858784,-0.4492700538306471,0.41190385319845824
1687010378.1851459,-0.8768810033798218,0.4806690216064453,-0.006114911288022995,0.008838832378387451,0.5297070145606995,-0.08356094360351562,-1.1558239459991455,0.6462591886520386,1.2877882719039917,-1.5638229610158942,-0.5014174829003626,0.3430299682926653
1687010378.191846,-0.8374309539794922,0.5465047955513,-0.0064651696011424065,-0.11506837606430054,0.4547921419143677,-0.05864405632019043,-0.818579912185669,0.5667959451675415,1.743610143661499,-1.563076238025904,-0.578184911137412,0.2859574859414315
1687010378.274832,-0.7810543179512024,0.6244531869888306,-0.003557799616828561,-0.18182110786437988,0.34327447414398193,-0.002805054187774658,-0.9658347368240356,0.5420231819152832,2.086560010910034,-1.5662412336669824,-0.6744312680638643,0.23342082649721305
1687010378.290732,-0.708552360534668,0.7056336402893066,0.005908341612666845,-0.27660083770751953,0.32285457849502563,0.03300166130065918,-0.560392439365387,0.3459307849407196,2.2846195697784424,-1.5791347429048381,-0.7833169579654394,0.17926873294917184
1687010378.3282828,-0.6201677322387695,0.7844351530075073,0.007326032966375351,-0.29520708322525024,0.22153115272521973,0.05050492286682129,0.16756616532802582,0.13576236367225647,2.4833428859710693,-1.5826087636862067,-0.9017848617797382,0.15947286455516652
1687010378.425848,-0.5163288712501526,0.8563466668128967,-0.008662755601108074,-0.3164043426513672,0.17713111639022827,0.06647837162017822,0.026227351278066635,0.15593834221363068,2.5706048011779785,-1.5540203062268922,-1.0281530567520425,0.1862644441425008
1687010378.4310532,-0.39872613549232483,0.9170700907707214,-5.675131251337007e-05,-0.38455328345298767,0.10932761430740356,-0.003986775875091553,-0.5150582790374756,0.178367480635643,2.719369411468506,-1.5706539952331267,-1.1606691277698955,0.157439354735304
1687010378.478801,-0.2700311541557312,0.9628102779388428,0.008926964364945889,-0.4279058575630188,0.15498757362365723,0.022384166717529297,0.04003084450960159,0.11867552250623703,2.743532180786133,-1.6038433073232774,-1.2972180481908597,0.11372470199401723
1687010378.6330972,-0.133904367685318,0.9909515976905823,0.009205047972500324,-0.4500037431716919,0.0013428330421447754,0.050655245780944824,-0.36782121658325195,0.16200381517410278,2.8218135833740234,-1.6394317929139541,-1.4361704247450993,0.07130822398861072
1687010378.650024,0.004834581632167101,0.999455988407135,0.03262629732489586,-0.4425787329673767,0.008448123931884766,0.04879462718963623,-0.45449405908584595,0.04966689273715019,2.7754099369049072,2.9944826231626935,-1.5378090775737259,-1.5850253283095876
1687010378.721694,0.1428554356098175,0.9889179468154907,0.040418412536382675,-0.3846309781074524,-0.013698220252990723,0.10222077369689941,0.16763441264629364,-0.08203374594449997,2.777280330657959,1.8465220368089936,-1.4217823827829148,-2.7347891079771633
1687010378.7360868,0.2766358554363251,0.9607317447662354,0.021616974845528603,-0.4143006503582001,0.04842352867126465,0.07492542266845703,0.28251913189888,-0.42243140935897827,2.798945903778076,1.6487802017708095,-1.2896274477706544,-2.923587941559018
1687010378.739649,0.4243256151676178,0.9054738879203796,0.008043172769248486,-0.44996047019958496,0.15881133079528809,0.04191422462463379,0.1594114452600479,-0.541635274887085,3.460306406021118,1.5897492463007612,-1.1324949500935066,-2.959523515424318
1687010378.8108149,0.5820953249931335,0.8130753040313721,-0.008592799305915833,-0.517962634563446,0.036976635456085205,0.11584687232971191,-0.38050946593284607,-0.9020107984542847,3.840981960296631,1.556035557167465,-0.9494153573960527,-2.956291883508755
1687010378.90171,0.728046715259552,0.6846796274185181,-0.034086354076862335,-0.521595299243927,0.15482842922210693,0.012357890605926514,0.0890200287103653,-1.2915270328521729,3.9986519813537598,1.5240115815192394,-0.75416406183377,-2.920955170364839
1687010378.919131,0.8479186296463013,0.5212362408638,-0.09667789936065674,-0.6067688465118408,0.14229214191436768,0.0066816359758377075,0.7910354137420654,-1.1773709058761597,4.211636543273926,1.457268695483499,-0.54829891550217,-2.928621720540414
1687010378.992476,0.9318406581878662,0.32849448919296265,-0.15415769815444946,-0.49708712100982666,-0.011599928140640259,-0.019441500306129456,0.4366186261177063,-0.831724226474762,4.191287040710449,1.406847690685439,-0.3347091770313039,-2.9303740248374237
1687010378.998425,0.9723535776138306,0.13290724158287048,-0.19200024008750916,-0.5459162592887878,-0.026141494512557983,0.06468096375465393,0.0384242944419384,-0.5630316138267517,3.94441294670105,1.375844958865292,-0.13330167578621158,-2.908246934588488
1687010379.083312,0.975516676902771,-0.056048668920993805,-0.21266399323940277,-0.5044320225715637,-0.0568205825984478,0.0024132132530212402,-0.3608972430229187,-0.37137356400489807,3.8347671031951904,1.3561531565675384,0.05607805751574381,-2.863436633133915
1687010379.100556,0.9438457489013672,-0.23372800648212433,-0.2335091084241867,-0.4621562361717224,-0.018713384866714478,-0.020839571952819824,-0.36172664165496826,-0.37109991908073425,3.791395902633667,1.3282645424401227,0.2359101390300589,-2.7966976429108046
1687010379.169139,0.8796151876449585,-0.40889397263526917,-0.24306951463222504,-0.43430274724960327,0.08520931005477905,-0.0716886967420578,1.5241318941116333,-0.31621748208999634,3.659576892852783,1.3011882987883996,0.42124174230153616,-2.769776342880657
1687010379.183728,0.7890073657035828,-0.5712224245071411,-0.226213276386261,-0.42873209714889526,-0.1897944211959839,-0.03126347064971924,-0.3383180499076843,0.05725903436541557,3.4898054599761963,1.2915798970177579,0.6079943906651044,-2.7707273475714618
1687010379.227244,0.6848754286766052,-0.687735915184021,-0.24075919389724731,-0.27555835247039795,-0.0713430643081665,0.01521909236907959,-0.08510243892669678,0.05906039476394653,3.194645881652832,1.2327527062196866,0.7583656787974535,-2.6721452887923185
1687010379.354413,0.5735732316970825,-0.7919775247573853,-0.20925000309944153,-0.23615562915802002,-0.07734626531600952,-0.013741910457611084,1.2357934713363647,0.2883903980255127,2.9404046535491943,1.2209818512937463,0.9140411009302732,-2.6441719046590957
1687010379.371141,0.46140503883361816,-0.8717471361160278,-0.164809450507164,-0.15857914090156555,-0.1548641324043274,0.018416717648506165,0.22230331599712372,0.5094802975654602,2.6757986545562744,1.2277302231593998,1.058757007310343,-2.6275679855105056
1687010379.468993,0.34965780377388,-0.9273958206176758,-0.1329527497291565,-0.09678915143013,-0.02991008758544922,0.06508173048496246,1.573819875717163,0.28869932889938354,2.4630656242370605,1.2074424192289657,1.187390128539188,-2.5820714322449057
1687010379.4881148,0.25772109627723694,-0.9661539793014526,0.011241408064961433,-0.15574657917022705,-0.7084370851516724,0.7319380044937134,1.9059092998504639,-0.1704312413930893,1.041935920715332,1.6143871986370768,1.3098799625025914,-3.003943603855617
1687010379.5578089,0.24725426733493805,-0.9686968922615051,0.022166648879647255,-0.06420984864234924,-0.6656107902526855,0.08263075351715088,-0.5344071388244629,-0.0270643699914217,-0.15071257948875427,1.6602085257575414,1.3199267343045331,-3.049808791578793
1687010379.561767,0.2533835172653198,-0.9666734337806702,0.03659578785300255,0.11699309945106506,0.31078964471817017,-0.18512475490570068,0.7232729196548462,-0.290656715631485,-0.06815778464078903,1.7142329163306669,1.311901250526353,-3.1166499409006065
1687010379.715076,0.24740156531333923,-0.9673907160758972,0.05429040640592575,-0.08652816712856293,0.05122262239456177,-0.0738673284649849,0.5092436075210571,-0.15775208175182343,0.10379134863615036,1.7868147591699897,1.3147180379257357,3.0817009493440164
1687010379.720804,0.2458610087633133,-0.9677454829216003,0.05496572330594063,-0.0471915602684021,0.014864623546600342,-0.04953348636627197,-0.30396780371665955,0.08450530469417572,-0.047121740877628326,1.7907437384142872,1.316122304473267,3.0765153048421627
1687010379.7380319,0.24838630855083466,-0.9673725366592407,0.04994574934244156,0.04157647490501404,0.059520423412323,0.03295528516173363,0.16773314774036407,0.08480969816446304,-0.03896341100335121,1.769231019735564,1.3146461466829633,3.103857091803216
1687010379.7416549,0.24939678609371185,-0.9669510126113892,0.05298343300819397,-0.0021585673093795776,-0.03892374038696289,0.06518066674470901,-0.09244243800640106,-0.051619913429021835,-0.006791627034544945,1.7801303648168483,1.3129877423981222,3.092540746304638
1687010379.7442799,0.25235751271247864,-0.9666488766670227,0.04365764185786247,-0.04038235545158386,-0.01615464687347412,-0.050997015088796616,-0.1841881424188614,-0.007430214434862137,-0.06324052065610886,1.7420999704761506,1.3118052331260683,3.128934586386337
1687010379.8280091,0.2551661729812622,-0.9658886194229126,0.0441562682390213,0.0038365721702575684,0.025641918182373047,0.040270689874887466,0.009728535078465939,-0.06012684851884842,-0.051443252712488174,1.7421484136088314,1.3088532273182467,3.1280633574080223
1687010379.955425,0.25505080819129944,-0.9660505652427673,0.041179001331329346,0.012939363718032837,0.006379365921020508,-0.002879377454519272,-0.04405653104186058,-0.02289292775094509,-0.0063508739694952965,1.7308690964286018,1.3094792935363215,3.1380015476366436
1687010379.972106,0.2560988962650299,-0.9656664133071899,0.04361196979880333,0.017399638891220093,-0.031236112117767334,-0.005281805992126465,0.020055674016475677,-0.008747946470975876,-0.01795453205704689,1.7394717029172901,1.3079964595860882,3.1296999422279277
1687010380.040728,0.25689995288848877,-0.9654860496520996,0.042888641357421875,0.008801370859146118,-0.03137081861495972,0.010654572397470474,-0.04968426004052162,-0.02713201381266117,-0.012702778913080692,1.7362176110834706,1.3073030697662287,3.1320989614710464
1687010380.055252,0.2566109597682953,-0.9657512903213501,0.03841297701001167,-0.011356383562088013,0.04030561447143555,-0.032126303762197495,-0.0027197455056011677,-0.01601717807352543,-0.004073604941368103,1.7193864487523556,1.3083234774153516,-3.13497957817292
1687010380.129678,0.25661394000053406,-0.9656926393508911,0.03983885422348976,-0.009452074766159058,-0.022481858730316162,-0.0059947967529296875,-0.04265497624874115,0.0009656674228608608,0.0014031855389475822,1.7248150018474555,1.3080973856472466,-3.140224242933471
1687010380.133613,0.2560736835002899,-0.9659579396247864,0.036762043833732605,-0.012482404708862305,-0.0024410486221313477,-0.002872232347726822,-0.032995227724313736,0.010478345677256584,-0.005262972787022591,1.7133825197866146,1.3091211037646908,-3.1285591426039376
1687010380.2240438,0.25603562593460083,-0.9660919904708862,0.033350035548210144,-0.006233960390090942,-0.011050403118133545,0.0073757171630859375,-0.07848474383354187,0.008845694363117218,-0.024416159838438034,1.7003225320739308,1.3096396747244503,-3.1147720949594624
1687010380.241564,0.2572194039821625,-0.9657947421073914,0.03284602612257004,-0.026353895664215088,-0.030299007892608643,-0.09159231185913086,0.17975786328315735,-0.035884756594896317,-0.07099271565675735,1.697805480526007,1.3084909991713312,-3.1120882159907906
1687010380.274914,0.26272284984588623,-0.9645768404006958,0.023837978020310402,0.0057250261306762695,-0.1107558012008667,0.07827389240264893,-0.8429311513900757,-0.11723048239946365,-0.16107626259326935,1.661282862643078,1.303834580773256,-3.0770374502782087
1687010380.3719249,0.27665603160858154,-0.9593901038169861,-0.055064890533685684,-0.08416637778282166,-0.16165786981582642,0.11095786094665527,-1.3223724365234375,-0.43514958024024963,-0.5040200352668762,1.3743265355494894,1.2848320151560741,-2.793984319059888
1687010380.3877401,0.3118676543235779,-0.944507360458374,-0.10317216068506241,-0.156609445810318,-0.20360970497131348,0.09844201803207397,-1.1329145431518555,-0.17476221919059753,-1.1681146621704102,1.2513091672970087,1.2360916531843953,-2.681926269801625
1687010380.46013,0.38889753818511963,-0.9108880758285522,-0.13799157738685608,-0.24764692783355713,-0.47151243686676025,-0.12043122947216034,-0.9469751715660095,0.27889326214790344,-2.077692747116089,1.229827257061698,1.1454310298182322,-2.6532247535804814
1687010380.5543199,0.4971237778663635,-0.8503072261810303,-0.17275899648666382,-0.15761569142341614,-0.3442575931549072,-0.008835792541503906,-0.6770085096359253,0.23030245304107666,-2.747791051864624,1.2363351864661722,1.0165687903952743,-2.6411393704961212
1687010380.570061,0.6161882877349854,-0.7670491337776184,-0.17873859405517578,-0.15314507484436035,-0.18764746189117432,0.017483770847320557,-0.27247241139411926,0.06526755541563034,-3.0560364723205566,1.2884730746096358,0.8742291493754777,-2.694675112784092
1687010380.636404,0.730076253414154,-0.6564781069755554,-0.1898033618927002,-0.2563823461532593,-0.10015946626663208,0.00851374864578247,-0.33810293674468994,0.19695661962032318,-3.2664315700531006,1.3164493746546537,0.7161404163511972,-2.724423496624709
1687010380.651542,0.830406129360199,-0.5273270010948181,-0.1798664778470993,-0.2545546293258667,-0.08355861902236938,0.027843236923217773,0.2483879178762436,0.2371571660041809,-3.3519792556762695,1.3574907702151158,0.5554515227631478,-2.7749968753356438
1687010380.7269201,0.9090909361839294,-0.3793940544128418,-0.17208704352378845,-0.29585540294647217,-0.0330815315246582,0.08910983800888062,-0.43293097615242004,0.22751198709011078,-3.4130666255950928,1.3837141764106722,0.38914130823052906,-2.8065090258223626
1687010380.730566,0.9622594714164734,-0.2179763913154602,-0.1629209965467453,-0.33130836486816406,0.05522613227367401,-0.004437342286109924,-0.3027683198451996,0.3647196292877197,-3.315687417984009,1.4030760126721038,0.21974052603277036,-2.8159327096148665
1687010380.824331,0.987410306930542,-0.058661457151174545,-0.14690080285072327,-0.3172594904899597,0.026785846799612045,0.01999354362487793,-0.021527720615267754,0.35367631912231445,-3.2114782333374023,1.4231057889825263,0.05869515492151453,-2.8358448638178992
1687010380.841712,0.9864893555641174,0.09962330758571625,-0.13005399703979492,-0.30748844146728516,0.02856578677892685,0.0357089638710022,-0.16041356325149536,0.2674388885498047,-3.1406328678131104,1.4397170713821659,-0.09978883897818171,-2.8473924079400645
1687010380.879345,0.9611636400222778,0.24581126868724823,-0.12546399235725403,-0.33360016345977783,0.03737659752368927,0.019247666001319885,0.7446663975715637,0.11735432595014572,-2.9232661724090576,1.4409967794322958,-0.24835654770812907,-2.8859075923520896
1687010380.9705,0.9167163968086243,0.3780486583709717,-0.12926892936229706,-0.2852465510368347,-0.07508531212806702,0.08466754853725433,-0.1966913491487503,-0.059009917080402374,-2.873868227005005,1.4307069986704342,-0.38768761236141874,-2.9238651422792987
1687010380.986915,0.8527109622955322,0.5059456825256348,-0.13001173734664917,-0.2617838382720947,-0.048319339752197266,0.07762838900089264,0.22748862206935883,-0.11406984180212021,-2.893470287322998,1.4194928806679357,-0.5304779408303755,-2.9434393775868695
1687010381.091883,0.7706531882286072,0.6214600801467896,-0.14100046455860138,-0.3069385886192322,-0.07797247171401978,0.009240865707397461,-0.053964026272296906,-0.0756584033370018,-2.8603954315185547,1.3898355619703164,-0.6706049684430748,-2.9862824967008987
1687010381.110402,0.672095775604248,0.7301727533340454,-0.12302550673484802,-0.29753822088241577,-0.051461756229400635,0.02544562518596649,-0.44218897819519043,0.12228397279977798,-2.9908201694488525,1.3897530233562991,-0.8185747812122625,-2.989314401507727
1687010381.213598,0.5535195469856262,0.8258578777313232,-0.10758743435144424,-0.30745625495910645,-0.11090719699859619,-0.06488259136676788,-0.31152570247650146,0.4328339993953705,-3.1713180541992188,1.3788203271046804,-0.971721894169046,-3.018649828677429
1687010381.219339,0.41190704703330994,0.9088534712791443,-0.06571123003959656,-0.3873556852340698,-0.09023469686508179,0.004584558308124542,-0.7990213632583618,0.5378748178482056,-3.4335110187530518,1.4126000705006632,-1.1405270321527856,-3.0100650046988826
1687010381.362856,0.2521568834781647,0.9670230150222778,-0.035823628306388855,-0.39375847578048706,-0.04186743497848511,0.010997656732797623,-0.17809656262397766,0.5333941578865051,-3.4483940601348877,1.429671919332062,-1.3132701359859886,-3.020863737043897
1687010381.3684568,0.08439156413078308,0.9961245656013489,-0.02477751299738884,-0.41472911834716797,-0.04019194841384888,0.026425540447235107,-0.20183931291103363,0.5840503573417664,-3.391505479812622,1.2852197522219158,-1.4827289382894628,3.087189103327128
1687010381.421551,-0.0773448497056961,0.9969692230224609,0.008382716216146946,-0.4223805069923401,0.03919410705566406,0.05053150653839111,-1.0815649032592773,0.49647995829582214,-2.9977173805236816,-1.6787559893559874,-1.4929207513523457,0.09499150678762415
1687010381.435668,-0.21338549256324768,0.9755382537841797,0.052837125957012177,-0.3374110162258148,0.05296516418457031,0.018238425254821777,-0.44012323021888733,0.2901471257209778,-2.699337959289551,-1.8135275860176745,-1.3491565151965859,-0.06055751381612971
1687010381.438314,-0.3442012071609497,0.9384996294975281,0.02728079818189144,-0.3596409857273102,-0.05208587646484375,0.12561237812042236,0.5379768013954163,0.12843453884124756,-2.748460531234741,-1.6498892723335914,-1.218258866782121,0.09923454734233066
1687010381.480403,-0.47237059473991394,0.8809057474136353,0.029516402631998062,-0.39576297998428345,0.28454530239105225,-0.01688206195831299,0.22679373621940613,0.15900816023349762,-2.8553149700164795,-1.6332008826692972,-1.077772517443818,0.11149383139448876
1687010381.5726771,-0.5896392464637756,0.8076666593551636,0.00028932795976288617,-0.27348941564559937,0.05915457010269165,0.09602415561676025,0.523074209690094,-0.0836554765701294,-2.656705856323242,-1.5712870131759242,-0.940184076894942,0.18293687337383455
1687010381.589539,-0.6907416582107544,0.7230667471885681,0.007088001351803541,-0.35041123628616333,0.37655776739120483,0.03441596031188965,0.05543190613389015,-0.1493316888809204,-2.618147373199463,-1.5810574028735331,-0.808231645755791,0.17949662129243882
1687010381.625077,-0.7739167809486389,0.6332852244377136,0.0016624480485916138,-0.10523360967636108,0.2849581837654114,0.08631980419158936,0.660801351070404,-0.3684275448322296,-2.312922239303589,-1.5729444202339231,-0.6857908302504575,0.20907145305429495
1687010381.718709,-0.8380495309829712,0.5455875396728516,0.0027329560834914446,-0.20549917221069336,0.4921017289161682,-0.00982820987701416,0.29795581102371216,-0.31061312556266785,-2.057577133178711,-1.5740574064671915,-0.5770900436277699,0.23816074150489355
1687010381.735961,-0.8862015008926392,0.46308204531669617,0.014212106354534626,-0.044371068477630615,0.566321611404419,-0.01923227310180664,0.379641056060791,-0.3902466893196106,-1.7615597248077393,-1.586832057128528,-0.4814694199170066,0.2473156882695909
1687010381.775467,-0.9194564819335938,0.3927308917045593,0.01903688721358776,0.0124739408493042,0.45820605754852295,-0.11425173282623291,0.705456018447876,-0.3908199369907379,-1.294693112373352,-1.5914978692567239,-0.40359920396390486,0.28568933258460455
1687010381.871571,-0.9389699101448059,0.342995285987854,0.026264160871505737,0.004872620105743408,0.650931715965271,-0.19839847087860107,0.8016293048858643,-0.3599529564380646,-0.8657886385917664,-1.5987602844850652,-0.35010377618576594,0.31825844445840806
1687010381.888565,-0.9493042230606079,0.31383419036865234,0.018154457211494446,-0.18384391069412231,0.49340149760246277,-0.17934823036193848,1.3621877431869507,-0.06407005339860916,-0.4002281427383423,-1.5899179569210167,-0.31922856653997267,0.38208254225664895
1687010381.928566,-0.9514285922050476,0.30782464146614075,0.005282536614686251,0.08080768585205078,0.13109445571899414,-0.02473747730255127,-0.1803961992263794,0.0785781741142273,0.04631047323346138,-1.576348485183582,-0.3129058141681194,0.41587670148417655
1687010382.111651,-0.9487590193748474,0.3159850239753723,0.0031090732663869858,0.06106376647949219,0.0701691210269928,-0.054103970527648926,0.3557727634906769,0.08765009045600891,0.2568807601928711,-1.5740733043428146,-0.32149469695070537,0.4139071303888223
1687010382.1173139,-0.9451066851615906,0.32673123478889465,-0.004501291550695896,-0.0564192533493042,-0.16532373428344727,0.048538267612457275,-0.19389250874519348,0.10868986696004868,0.16325867176055908,-1.5660336292293653,-0.3328429065426833,0.4238516631642265
1687010382.138482,-0.9437851309776306,0.330520898103714,-0.005067804362624884,-0.048768579959869385,-0.08694484829902649,0.06570631265640259,-0.13890281319618225,0.056962624192237854,-0.0002122875303030014,-1.5654267191641036,-0.3368554355290262,0.41064343757396815
1687010382.1411018,-0.9437997937202454,0.33050891757011414,-0.0024192004930227995,0.04156285524368286,-0.011768072843551636,0.015587568283081055,-0.12553894519805908,-0.08161789178848267,0.010350874625146389,-1.568233076335582,-0.3368427364379912,0.40369965165952504
1687010382.143748,-0.944179892539978,0.3294299840927124,0.0006063298787921667,-0.021762549877166748,0.0429760217666626,0.022144556045532227,0.06810083240270615,-0.028671586886048317,-0.0035937028005719185,-1.5714385029435172,-0.3356998119234903,0.40391147585677784
1687010382.1954222,-0.9442557096481323,0.32920587062835693,0.002230793470516801,0.0030934810638427734,0.04809826612472534,-0.04082012176513672,0.017218807712197304,-0.0316707044839859,0.003823998384177685,-1.573158811157299,-0.33546242829463624,0.404515392007211
1687010382.294452,-0.943182647228241,0.3322570025920868,0.003403346287086606,-0.010399997234344482,0.02536320686340332,-0.017105698585510254,0.10443194210529327,-0.02152233012020588,0.06816544383764267,-1.5744046751602052,-0.338695511510386,0.4083478317340539
1687010382.38061,-0.9413331151008606,0.33747926354408264,0.00012988370144739747,-0.0008819103240966797,-0.009201645851135254,-0.0085526704788208,-0.05458667129278183,0.009376595728099346,0.05432206019759178,-1.5709343052679263,-0.34423775770486187,0.4109521002554788
1687010382.3867002,-0.9393463730812073,0.3429696261882782,-0.000642418977804482,0.0005341172218322754,-0.010709494352340698,0.0032212138175964355,0.0022798734717071056,-0.004028558265417814,0.065973661839962,-1.5701124268978022,-0.35007645829856254,0.4093373030062782
1687010382.472573,-0.9388983249664307,0.34419485926628113,-0.00019965987303294241,-0.0008752942085266113,-0.03264090418815613,0.018067777156829834,-0.06776878237724304,-0.00967752281576395,0.04024512320756912,-1.5705836734457488,-0.35138111451231946,0.40766487932856627
1687010382.491075,-0.9389445781707764,0.3440564274787903,0.0028875526040792465,-0.012868165969848633,-0.004044830799102783,0.0013849735260009766,-0.03725568577647209,-0.033900968730449677,0.017225824296474457,-1.573871634343277,-0.3512336816803084,0.40330319279205296
1687010382.558892,-0.939522385597229,0.3424079418182373,0.007384361699223518,-0.005439162254333496,-0.006516218185424805,-0.005553245544433594,-0.1516992449760437,-0.017498960718512535,0.021259445697069168,-1.5786558623946938,-0.3494785626476023,0.39805717585705297
1687010382.575272,-0.9392902255058289,0.3430153429508209,0.008639373816549778,0.011418402194976807,0.026018500328063965,-0.03189361095428467,-0.02948298305273056,0.00846353080123663,0.0384320430457592,-1.5799938355266296,-0.3501251239720283,0.394441106304655
1687010382.620212,-0.938012957572937,0.3465080261230469,0.007996192201972008,-0.010458111763000488,0.08430862426757812,-0.033264756202697754,-0.07771162688732147,0.033267147839069366,0.10352529585361481,-1.5793207276627805,-0.35384591892765616,0.3911226771731006
1687010382.679002,-0.9345126152038574,0.355858713388443,0.007114877458661795,-0.019680440425872803,0.18624025583267212,-0.07803773880004883,-0.3698590099811554,0.1544400453567505,0.2899990379810333,-1.5784096429184407,-0.36383276327525976,0.3809448521167991
1687010382.7735438,-0.9268556833267212,0.3753792643547058,0.005376317072659731,0.03089010715484619,0.3421958088874817,-0.09618127346038818,-0.5082993507385254,0.31522664427757263,0.5499166250228882,-1.5765968592031872,-0.3848059416654109,0.3549712370262243
1687010382.790617,-0.9127501845359802,0.40851831436157227,0.0004979021614417434,0.025649845600128174,0.3895622193813324,-0.05852699279785156,-0.6279782652854919,0.3581770658493042,0.9237802028656006,-1.5713418233983676,-0.4208301367901351,0.3238252069608805
1687010382.824603,-0.8885857462882996,0.45869988203048706,-0.0031498412135988474,-0.01198798418045044,0.40856391191482544,-0.02941232919692993,-0.48733556270599365,0.341339647769928,1.288977861404419,-1.5672515615841762,-0.4765315240422016,0.29205894268258137
1687010382.953572,-0.8528584837913513,0.5221066474914551,-0.006086832843720913,-0.09033304452896118,0.37044090032577515,0.008711397647857666,-0.40129703283309937,0.2842932343482971,1.6069103479385376,-1.563659469376262,-0.5493191355674342,0.26514815708917905
1687010382.972076,-0.8043041229248047,0.5941197872161865,-0.010811449028551579,-0.13203638792037964,0.2595027685165405,0.009453474543988705,-0.18928270041942596,0.24302929639816284,1.8658137321472168,-1.5573551451490855,-0.6361708932341311,0.2524875397959849
1687010383.039062,-0.7431620359420776,0.6690186858177185,-0.011142970062792301,-0.22453510761260986,0.18464946746826172,0.0450175404548645,-0.21316538751125336,0.16022682189941406,1.9838565587997437,-1.5558034526462774,-0.7328877111967267,0.23835879404099075
1687010383.056254,-0.6711716055870056,0.741175651550293,-0.013696071691811085,-0.23732155561447144,0.1380663514137268,0.051110684871673584,-0.032188087701797485,0.08966437727212906,2.1206893920898438,-1.5503929438877466,-0.8348199339455085,0.23664249100655996
1687010383.192618,-0.587853729724884,0.8088468313217163,-0.013959589414298534,-0.29134249687194824,0.10626852512359619,0.034406423568725586,-0.07484187930822372,0.10443519800901413,2.1602768898010254,-1.5470540827688826,-0.9421884009243966,0.2369492172983724
1687010383.2125049,-0.49755755066871643,0.8674272298812866,0.0025992945302277803,-0.27749741077423096,0.09193867444992065,0.005060672760009766,-0.7937677502632141,0.10744044929742813,2.154355049133301,-1.5760203876066017,-1.0500080040320434,0.19569754319467217
1687010383.2516642,-0.39996469020843506,0.9159783720970154,0.031811561435461044,-0.21369805932044983,0.13584047555923462,-0.02137446403503418,-0.6711428761482239,0.052811555564403534,2.2811944484710693,-1.650165174947574,-1.1579396421279469,0.10738217083761398
1687010383.265595,-0.2913806140422821,0.9551975131034851,0.051912449300289154,-0.2784435749053955,0.14158886671066284,-0.00522053986787796,-0.1520983874797821,-0.023839548230171204,2.3558950424194336,-1.7471067172267372,-1.2703263391098356,0.0025407634753478302
1687010383.267673,-0.17531029880046844,0.9833805561065674,0.04721185192465782,-0.34066563844680786,0.22262835502624512,0.008513331413269043,0.5257839560508728,-0.01924319751560688,2.440796136856079,-1.8338598082831994,-1.388227411173069,-0.08531061185213806
1687010383.307936,-0.04993864521384239,0.9987029433250427,0.00994118768721819,-0.3391757309436798,0.13137835264205933,0.03244781494140625,0.8548912405967712,-0.009530782699584961,2.601942777633667,-1.767295603635886,-1.5198582747697584,-0.01777552297642131
1687010383.370325,0.08337581902742386,0.9962274432182312,-0.02407657913863659,-0.36198604106903076,-0.030284881591796875,0.07717722654342651,0.41209694743156433,0.11486507207155228,2.6636509895324707,1.2896722712651907,-1.4839062328289248,3.036695449755584
1687010383.4278831,0.2182803899049759,0.9751205444335938,-0.038648441433906555,-0.3524509370326996,0.007865965366363525,0.011426806449890137,0.24880144000053406,0.12234549224376678,2.822892189025879,1.3955538339870819,-1.3472641650052317,3.138248293673313
1687010383.519975,0.35875359177589417,0.9322829842567444,-0.0463089793920517,-0.41507378220558167,0.04334878921508789,0.07968002557754517,-0.1012386679649353,-0.1168144941329956,3.152109384536743,1.4424232170867997,-1.200673617103897,-3.0970670831210994
1687010383.537712,0.5109847187995911,0.8588946461677551,-0.03456314653158188,-0.47552335262298584,0.06020325422286987,0.06447046995162964,-0.4673297107219696,-0.4808185398578644,3.6413395404815674,1.5032589269728291,-1.0331074609296327,-3.0134475022293503
1687010383.6081939,0.662202775478363,0.747921347618103,-0.045839641243219376,-0.6056079268455505,0.09303635358810425,0.11865466833114624,0.10385896265506744,-0.9668555855751038,3.954490900039673,1.501683610910371,-0.8449250125176762,-2.9683830679521095
1687010383.624888,0.7969719767570496,0.5949421525001526,-0.10430499166250229,-0.5834252834320068,0.05090135335922241,0.05698753148317337,0.9969261884689331,-0.9461026191711426,4.209560871124268,1.4406593761960769,-0.6371936737401279,-2.9851147537412404
1687010383.668663,0.8981929421424866,0.4076535999774933,-0.16452369093894958,-0.4763332009315491,0.0277407169342041,0.03976786136627197,1.13007652759552,-0.5928286910057068,4.13790225982666,1.3896327670541215,-0.41988296725593877,-3.0108837489660827
1687010383.792669,0.956771194934845,0.21655090153217316,-0.19415076076984406,-0.40759217739105225,-0.11718566715717316,-0.02733050286769867,-0.020211786031723022,-0.19784796237945557,3.8309285640716553,1.3705918994146482,-0.21828015186483088,-3.007763895269426
1687010383.912291,0.9789303541183472,0.04495606943964958,-0.1991841346025467,-0.41566741466522217,0.056316524744033813,-0.020817041397094727,-0.714356541633606,-0.21729344129562378,3.614556312561035,1.3700653193627297,-0.044971224792223666,-2.931627803285294
1687010383.917176,0.9703871011734009,-0.13044719398021698,-0.20330344140529633,-0.34492939710617065,-0.014084041118621826,-0.04314115643501282,0.6600293517112732,-0.05475178733468056,3.5279552936553955,1.3642758029236977,0.130820013119736,-2.9038051288030733
1687010383.9206948,0.9326900839805603,-0.29270222783088684,-0.2107481062412262,-0.4134029150009155,-0.03145548701286316,0.032067716121673584,-1.170052170753479,-0.0214120764285326,3.3675012588500977,1.348570927867369,0.29705161870488833,-2.856119346704398
1687010383.9994311,0.8734422326087952,-0.4340364933013916,-0.22070610523223877,-0.2342209815979004,-0.0522153377532959,-0.08276063203811646,0.33291757106781006,0.0018743380205705762,3.195622682571411,1.3232918251968688,0.4489685092477729,-2.7834896956846493
1687010384.003481,0.796235203742981,-0.569892406463623,-0.2030572146177292,-0.3114634156227112,0.018805980682373047,0.029717445373535156,0.4181694984436035,0.23711775243282318,3.09590744972229,1.3210970093034686,0.6063748934159153,-2.7708839531539935
1687010384.092047,0.7013093829154968,-0.6846769452095032,-0.19845090806484222,-0.2565004229545593,0.028762638568878174,0.0769299864768982,-0.15074017643928528,0.1770501434803009,3.0570130348205566,1.2950338377976354,0.7541603954477369,-2.715317148982069
1687010384.109603,0.5907313823699951,-0.7867300510406494,-0.179142564535141,-0.2755000591278076,0.08238446712493896,0.10695327818393707,0.8354791402816772,0.23380424082279205,3.099487781524658,1.2763554782309097,0.9054937835956227,-2.6781633320606595
1687010384.145845,0.4683254659175873,-0.8756274580955505,-0.11810062825679779,-0.2587459981441498,0.021760940551757812,0.12150342017412186,1.7508823871612549,0.10883407294750214,2.854074716567993,1.3237703469285738,1.0667334616436137,-2.7257283331466455
1687010384.240911,0.3418424129486084,-0.9392334818840027,-0.031375616788864136,-0.1695859134197235,-0.06508481502532959,0.2326086163520813,1.7033147811889648,0.00732316542416811,2.329735040664673,1.4792689043186111,1.2203904752085561,-2.8919483954057954
1687010384.257609,0.259447306394577,-0.9655528664588928,0.0198720283806324,-0.19351404905319214,-0.8409351706504822,0.33321642875671387,-0.7988799810409546,0.3904714584350586,0.6024410724639893,1.6472407651052896,1.3075597886712282,-3.0627918756801242
1687010384.3287148,0.2692052721977234,-0.9611043930053711,0.06169810891151428,0.059728413820266724,-0.45506370067596436,0.1564110517501831,1.8417385816574097,0.18244583904743195,-0.5466932058334351,1.7960915725158348,1.2909735519262513,3.082763971530825
1687010384.332353,0.2810839116573334,-0.9481786489486694,0.1481533944606781,0.2149488627910614,0.3550541400909424,-0.18668173253536224,0.45315468311309814,-0.18841637670993805,0.18450243771076202,2.0558716398918544,1.24745382089635,2.798490415745496
1687010384.421482,0.26637986302375793,-0.9555927515029907,0.1260322481393814,-0.20154526829719543,0.03702902793884277,-0.03104628622531891,-0.911216676235199,-0.035245466977357864,0.23932147026062012,2.0127176006231107,1.2716646939110299,2.838380574238685
1687010384.439939,0.26396825909614563,-0.9584256410598755,0.10835520923137665,-0.04347875714302063,0.013937234878540039,-0.05227912962436676,0.20744507014751434,0.22570358216762543,-0.10159429907798767,1.9603093550833641,1.2814327238126733,2.8990064347472786
1687010384.572151,0.2667902410030365,-0.9573494791984558,0.11092878133058548,0.08608454465866089,0.038739800453186035,0.09750640392303467,-0.16900299489498138,0.1304689347743988,-0.03432977944612503,1.9648404476764474,1.2776847023350972,2.905514694152979
1687010384.5921931,0.264273077249527,-0.9589523673057556,0.10281018912792206,0.037560999393463135,-0.049836575984954834,0.02476857602596283,-0.21026034653186798,0.0072861481457948685,0.05560809746384621,1.9418102930209333,1.2832842829386424,2.9322421301801205
1687010384.661861,0.26344433426856995,-0.9589886665344238,0.10458333790302277,-0.008180081844329834,-0.01702439785003662,-0.03489638864994049,0.19481544196605682,0.069588802754879,-0.009457451291382313,1.948700498418468,1.2834123451383739,2.92782970028898
1687010384.665522,0.26494839787483215,-0.9579166769981384,0.11044519394636154,-0.033014774322509766,-0.011321604251861572,-0.010851025581359863,-0.08439236879348755,0.006371485069394112,-0.04607298597693443,1.9657483178004143,1.27965435829552,2.9122721714602586
1687010384.669086,0.26645031571388245,-0.9582622051239014,0.10362298786640167,0.036924928426742554,0.07070428133010864,-0.0014042928814888,0.012653685174882412,-0.08170630782842636,-0.011793043464422226,1.9416987808510315,1.2808604216562678,2.9350478383271046
1687010384.715654,0.26482662558555603,-0.9585723280906677,0.10490960627794266,-0.008539974689483643,-0.08094793558120728,-0.024480462074279785,-0.019298188388347626,0.0024648939725011587,-0.012533135712146759,1.9479745607875134,1.2819471670034615,2.9253637757830697
1687010384.846709,0.26649585366249084,-0.9584933519363403,0.10134275257587433,0.03492623567581177,0.018384158611297607,0.017675861716270447,-0.09682340919971466,0.0013158731162548065,0.001762712374329567,1.9341870153098042,1.2816699644743428,2.9409590425787737
1687010384.8520122,0.2655039131641388,-0.9591954350471497,0.09722127765417099,-0.019822150468826294,-0.015291929244995117,0.0006943941116333008,-0.09368147701025009,0.017411351203918457,-0.014091618359088898,1.9218089250353774,1.2841426964293676,2.9541999608226384
1687010384.933001,0.267196923494339,-0.9588577747344971,0.09590385854244232,0.0017544925212860107,0.02468419075012207,-0.0011924579739570618,0.016672594472765923,-0.019853994250297546,-0.013056446798145771,1.9154005795405313,1.2829509011198463,2.96110716272231
1687010384.939292,0.266205370426178,-0.9591620564460754,0.09562074393033981,-0.009247273206710815,-0.012884080410003662,0.0027375444769859314,-0.00545840710401535,-0.036876652389764786,-0.0267496220767498,1.9156427749886247,1.2840248369644516,2.9593264338333425
1687010385.052507,0.26821407675743103,-0.9584785103797913,0.09685163199901581,-0.008860409259796143,-0.02165454626083374,-0.04149270057678223,0.10317320376634598,-0.0531897135078907,-0.03367730230093002,1.9173238256077982,1.2816179536395051,2.9556937591940566
1687010385.071631,0.27025270462036133,-0.9583351612091064,0.09250453859567642,0.010478496551513672,-0.07657688856124878,0.03525733947753906,-0.4997106194496155,-0.10703496634960175,-0.07770893722772598,1.9005852232917,1.2811158103944624,2.9702400428163993
1687010385.171996,0.278876930475235,-0.9595127105712891,0.03953569009900093,-0.025001198053359985,-0.12564659118652344,0.09782397747039795,-1.2258607149124146,-0.3532886803150177,-0.2637496590614319,1.7116253940851063,1.2852669661147276,-3.1304191585671974
1687010385.190741,0.30211180448532104,-0.9530860781669617,-0.018859704956412315,-0.13235771656036377,-0.09691709280014038,0.15092462301254272,-0.9620020985603333,-0.27228596806526184,-0.7073090076446533,1.5084509872794576,1.2632726929674865,-2.939744309900542
1687010385.226913,0.3545282781124115,-0.9331461787223816,-0.059567395597696304,-0.16116884350776672,-0.37524938583374023,-0.18667888641357422,-1.036799669265747,0.0009165322408080101,-1.5324596166610718,1.4043324073579682,1.2030672813587593,-2.8340519297975524
1687010385.229535,0.44309201836586,-0.8902246952056885,-0.10568656772375107,-0.17035633325576782,-0.2834357023239136,-0.02238042652606964,-0.6438857913017273,0.1354232132434845,-2.2830793857574463,1.336650647748028,1.0978381762770988,-2.7542600300900597
1687010385.232154,0.5526623725891113,-0.8235546946525574,-0.12775832414627075,-0.15495717525482178,-0.2852711081504822,0.08404193818569183,-0.7890809774398804,-0.04140389338135719,-2.7793447971343994,1.3436180816725662,0.9676495053248862,-2.758092566193481
1687010385.286037,0.6689579486846924,-0.7266364097595215,-0.15650856494903564,-0.2429630160331726,-0.2000146508216858,0.05064314603805542,-0.297337144613266,-0.11118283867835999,-3.2207391262054443,1.340971335603679,0.8134132550021332,-2.7609104370645916
1687010385.35069,0.7794673442840576,-0.6056725382804871,-0.15997393429279327,-0.2669549584388733,-0.12145459651947021,0.04527364671230316,0.4215872585773468,-0.22910268604755402,-3.5042712688446045,1.3683722620536214,0.6506107820306665,-2.8165369595101386
1687010385.472609,0.8729311227798462,-0.4576687812805176,-0.168909952044487,-0.3266969323158264,-0.03883695602416992,0.03895092010498047,-0.614458441734314,-0.08051614463329315,-3.5818071365356445,1.3796609457547737,0.47537147646921046,-2.8522314566506157
1687010385.4931831,0.9408450722694397,-0.28978201746940613,-0.17560423910617828,-0.3586612939834595,0.011660099029541016,-0.05468134582042694,0.03290562704205513,0.19533474743366241,-3.5928354263305664,1.3862742577391785,0.2939990630489764,-2.8672361573322496
1687010385.556184,0.9784066081047058,-0.1199687048792839,-0.16831007599830627,-0.3174262046813965,0.05490522086620331,0.12576864659786224,-0.33650410175323486,0.11594964563846588,-3.5145320892333984,1.400439017141715,0.1202583594330568,-2.895193860879517
1687010385.572535,0.9854524731636047,0.050787027925252914,-0.16218498349189758,-0.3401583433151245,0.035455647855997086,-0.013046905398368835,0.02472040243446827,0.1137932762503624,-3.3681488037109375,1.4076793810082047,-0.05080888512949802,-2.912292137554458
1687010385.6476521,0.964753270149231,0.20876957476139069,-0.16020773351192474,-0.3500376343727112,0.05761837959289551,0.05545622110366821,0.2603246569633484,0.04209592565894127,-3.187868356704712,1.4062371707232846,-0.2103166366970399,-2.950565616330637
1687010385.741533,0.9218577146530151,0.3532402813434601,-0.15937362611293793,-0.30734044313430786,0.05209419131278992,0.046992719173431396,-0.07579874992370605,0.0639687329530716,-2.9774131774902344,1.399605378028425,-0.3610324217290773,-2.981878439263528
1687010385.758778,0.8615283966064453,0.4842566251754761,-0.15252713859081268,-0.23434633016586304,-0.043964236974716187,0.03599584102630615,-0.001684841001406312,0.0739249587059021,-2.8975253105163574,1.3955695374689225,-0.5055133128450263,-3.0025349182887235
1687010385.827509,0.7823899984359741,0.6039610505104065,-0.15197689831256866,-0.3129838705062866,-0.046481192111968994,0.061904311180114746,0.0034209713339805603,0.07329192757606506,-2.907628059387207,1.3789385816771742,-0.6484617052584256,-3.039178173975228
1687010385.844141,0.6872037053108215,0.7126503586769104,-0.14099863171577454,-0.31641513109207153,-0.1032295823097229,0.055030643939971924,-0.5353173017501831,0.049598585814237595,-2.924217462539673,1.3684275439319697,-0.7932690615163402,-3.060412307501046
1687010385.95118,0.5748953223228455,0.8080004453659058,-0.1289597451686859,-0.28148406744003296,-0.09277522563934326,-0.0349348783493042,0.06583168357610703,0.09966640919446945,-3.0036067962646484,1.350130511840183,-0.9407504327882391,-3.0871756628675833
1687010385.956728,0.4417932629585266,0.8896968364715576,-0.11514468491077423,-0.3818872272968292,-0.14177203178405762,0.04048347473144531,-0.6859961152076721,0.10985193401575089,-3.2970707416534424,1.3158380111703212,-1.096680710088863,-3.1340055068640944
1687010386.042608,0.29099932312965393,0.9528260231018066,-0.08626875281333923,-0.39445391297340393,-0.06308585405349731,-0.0030255988240242004,-0.2075451910495758,0.2583230435848236,-3.302133798599243,1.2825932607678276,-1.2624146741933664,3.1029076812302896
1687010386.061933,0.1299225240945816,0.9874535799026489,-0.08975345641374588,-0.3575683832168579,-0.09009945392608643,-0.02258169651031494,0.1628679633140564,0.05728566646575928,-3.332735538482666,0.9662560478233778,-1.4122232112290698,2.7712385193241484
1687010386.1626182,-0.028744570910930634,0.9949295520782471,-0.09637919068336487,-0.32088005542755127,0.08231043815612793,0.03191089630126953,0.025804772973060608,0.11264266073703766,-2.9170007705688477,-0.2898455381155108,-1.470051681883511,1.5025913850629313
1687010386.167181,-0.16284605860710144,0.9839747548103333,-0.07263004779815674,-0.40235474705696106,0.1576116681098938,-0.04107839614152908,-0.09552005678415298,-0.18862663209438324,-2.6378390789031982,-1.1512701648333983,-1.3915299982113043,0.6363275994718376
1687010386.255096,-0.2875863313674927,0.9516924619674683,-0.10759048908948898,-0.2741355001926422,0.047514140605926514,0.026551127433776855,0.9189450144767761,-0.31102004647254944,-2.5196080207824707,-1.2128013800862794,-1.2587015916266602,0.5857491254239826
1687010386.274957,-0.4126240015029907,0.9022521376609802,-0.1252298355102539,-0.3078044354915619,0.23550420999526978,0.048646047711372375,0.5368590950965881,-0.39811623096466064,-2.7474594116210938,-1.2761350656355246,-1.1249641404169624,0.5340943043559455
1687010386.337682,-0.530188798904419,0.8375828862190247,-0.13173851370811462,-0.28362351655960083,-0.012662172317504883,0.08890712261199951,0.19783832132816315,-0.5292829871177673,-2.53481125831604,-1.3272537255247996,-0.9928436410425093,0.502728571571704
1687010386.354436,-0.63877934217453,0.7588663697242737,-0.12681706249713898,-0.3289940357208252,0.23750191926956177,0.022981062531471252,0.6066308617591858,-0.7077932357788086,-2.655764102935791,-1.3748143206282144,-0.8615706743039994,0.4840673638015456
1687010386.428179,-0.7305556535720825,0.6722074151039124,-0.1201067790389061,-0.15561378002166748,0.07348960638046265,0.15102112293243408,-0.2254386991262436,-0.6467328071594238,-2.331179141998291,-1.4078492964918488,-0.737186295793814,0.4821972098938943
1687010386.4444718,-0.8072523474693298,0.5849258899688721,-0.07877315580844879,-0.3850235342979431,0.6846358776092529,-0.19762450456619263,0.5853339433670044,-0.6889976859092712,-2.1971139907836914,-1.4735224727450915,-0.6247886484593664,0.43933648657244345
1687010386.517941,-0.8630122542381287,0.49975115060806274,-0.07388422638177872,-0.07219892740249634,0.38699814677238464,0.007264375686645508,0.8763277530670166,-0.8856834769248962,-1.7523757219314575,-1.485392550326627,-0.5233114391183034,0.4878537271124124
1687010386.521562,-0.9018478393554688,0.4299435317516327,-0.04264846071600914,-0.037193238735198975,0.3455843925476074,-0.08670026063919067,-0.2733476459980011,-0.7292857766151428,-1.4254151582717896,-1.523541449995544,-0.4444302463540877,0.49168817559999806
1687010386.6113691,-0.9292247891426086,0.36929428577423096,-0.012764397077262402,-0.026524662971496582,0.5867146253585815,-0.22994184494018555,0.7357352375984192,-0.6844690442085266,-1.1287931203842163,-1.5570605825363497,-0.37824952700908016,0.4976060618319965
1687010386.61553,-0.9448361992835999,0.3275437653064728,3.5148470487911254e-05,-0.0453982949256897,0.5108809471130371,-0.30672144889831543,1.0468971729278564,-0.48955038189888,-0.6051392555236816,-1.5708335273899658,-0.3337027606589167,0.5526865561369395
1687010386.705132,-0.9502333998680115,0.31147563457489014,0.006272221449762583,0.02785491943359375,0.4640065133571625,-0.27220237255096436,0.23611074686050415,-0.07242731750011444,-0.14225038886070251,-1.577396947669585,-0.3167455280014244,0.577473511353939
1687010386.791702,-0.9491264224052429,0.3148775100708008,-0.003379181493073702,0.00033485889434814453,0.07162761688232422,-0.1129080057144165,-0.0021314530167728662,0.2876122295856476,0.2190883755683899,-1.5672360348592078,-0.3203276072883947,0.5890924448649026
1687010386.810657,-0.9456590414047241,0.32489651441574097,-0.013086210004985332,-0.02225172519683838,-0.011343687772750854,0.05384248495101929,-0.5004585385322571,0.3170730471611023,0.1891416609287262,-1.5569590191914953,-0.3309023196174173,0.5707769339359067
1687010386.8798661,-0.9429513216018677,0.33258217573165894,-0.015228447504341602,0.009739041328430176,-0.11128395795822144,0.1059725284576416,-0.6889885067939758,0.1502692699432373,0.1264953315258026,-1.5546479600223704,-0.3390403074509608,0.539448928643691
1687010386.8839211,-0.9413467645645142,0.33720827102661133,-0.012536551803350449,0.01188802719116211,-0.02631041407585144,0.051995813846588135,-0.0037138371262699366,0.004173977766185999,0.08560328930616379,-1.5574794373074878,-0.343949905351499,0.5216935669909402
1687010386.887455,-0.9402554035186768,0.3402959406375885,-0.010888445191085339,-0.014563322067260742,-0.004663616418838501,0.049539029598236084,-0.11939562857151031,-0.0172177292406559,0.02892668917775154,-1.5592165389056223,-0.34723160348238835,0.5185320211223432
1687010386.972305,-0.9402530193328857,0.34036436676979065,-0.008752227760851383,-0.020440399646759033,0.004926770925521851,0.001733243465423584,0.05538550019264221,-0.024718789383769035,0.0007938547059893608,-1.5614882200637543,-0.34730437809450815,0.5165740666341567
1687010387.0300422,-0.940583348274231,0.3395264446735382,-0.004973892122507095,0.007981479167938232,0.006878584623336792,-0.009338796138763428,0.02341724932193756,-0.05885478854179382,0.041997749358415604,-1.5655082830613782,-0.34641338150310585,0.5207774839942313
1687010387.123688,-0.939410388469696,0.3427852392196655,-0.0024956066627055407,0.0013611912727355957,0.045520395040512085,-0.015051960945129395,0.09183398634195328,-0.051691684871912,0.05593433603644371,-1.5681397659258896,-0.3498801623684376,0.5186482743644679
1687010387.142391,-0.9378654956817627,0.3469705879688263,-0.004418844357132912,-0.005844712257385254,-0.01583963632583618,-0.013098180294036865,0.17216186225414276,-0.07562550902366638,0.09527748823165894,-1.566084764818873,-0.35433908764177363,0.531096506518493
1687010387.1760201,-0.9354706406593323,0.35340240597724915,-0.0011197237763553858,-0.004806339740753174,0.014303863048553467,-0.0013063548831269145,0.026849664747714996,-0.08042213320732117,0.061204198747873306,-1.569599364389541,-0.3612057265682332,0.5312701204218423
1687010387.269027,-0.9349948167800903,0.3546619117259979,2.6267101929988712e-05,-0.011065542697906494,-0.03184691071510315,0.003208637237548828,0.01675102487206459,-0.05374165251851082,0.05978553369641304,-1.570824420108821,-0.36255244367156764,0.5377989020505589
1687010387.273329,-0.9339402914047241,0.35737842321395874,0.006047994829714298,0.012400805950164795,0.010968774557113647,-0.01283800508826971,-0.15426751971244812,-0.06372997164726257,0.06250409036874771,-1.577272019685781,-0.36545943221388344,0.5285554186188529
1687010387.329451,-0.9337615966796875,0.35776230692863464,0.009757705964148045,-0.0032957792282104492,-0.005131721496582031,0.00014531519263982773,-0.004271236248314381,-0.08621770888566971,0.05256091430783272,-1.5812458358745116,-0.365870502257672,0.5282993749509263
1687010387.423747,-0.9324755668640137,0.3609621524810791,0.013990248553454876,-0.006535053253173828,0.027023106813430786,-0.005033254623413086,-0.02406691201031208,-0.07226487249135971,0.05661370977759361,-1.585798542196909,-0.3692993871836212,0.52405820575611
1687010387.443202,-0.9322640895843506,0.3614921271800995,0.014392577111721039,-0.009645700454711914,-0.012309998273849487,0.006832480430603027,0.028621332719922066,-0.04453364014625549,0.023823007941246033,-1.5862334048985056,-0.3698677487309676,0.5292918478438726
1687010387.477026,-0.9311580657958984,0.3642159104347229,0.017068995162844658,0.005209028720855713,0.007961183786392212,-0.004526140168309212,-0.023888878524303436,-0.07694005221128464,0.05808643624186516,-1.5891252054075187,-0.37279074378923727,0.5264988285550274
1687010387.634186,-0.9303354620933533,0.3662356436252594,0.018642712384462357,-0.018898606300354004,0.0012417733669281006,-0.028301477432250977,0.16730491816997528,-0.08172015845775604,0.06507750600576401,-1.5908323439758383,-0.3749603712791048,0.5323208138765896
1687010387.6399899,-0.9287592768669128,0.3702111840248108,0.018709981814026833,-0.0009740591049194336,0.000974118709564209,-0.016710996627807617,0.1123742163181305,-0.04995623603463173,0.046271324157714844,-1.590938739590714,-0.37923635255391175,0.5390746075003897
1687010387.692306,-0.9281690716743469,0.3717997968196869,0.016345344483852386,-0.003044307231903076,-0.02664598822593689,0.0066649895161390305,-0.07066024839878082,0.006883744150400162,0.051390718668699265,-1.5884048158998718,-0.38094705074333673,0.5437937272673016
1687010387.695782,-0.9274826049804688,0.3735148310661316,0.01620563305914402,0.0028458237648010254,0.005589783191680908,0.001311538740992546,0.002205171622335911,-0.007750325836241245,0.028231602162122726,-1.588267258619355,-0.3827952089692848,0.541435826497866
1687010387.699091,-0.9274954795837402,0.37351930141448975,0.015344706363976002,0.00740581750869751,0.012192368507385254,-0.0011082906275987625,0.14496318995952606,-0.02341570518910885,0.016320616006851196,-1.5873390565154468,-0.38280001583662154,0.5457166645047191
1687010387.779406,-0.9272322654724121,0.37421512603759766,0.014258865267038345,-0.004454076290130615,0.018424004316329956,0.008049486204981804,0.07767496258020401,-0.0011554071679711342,0.0013509877026081085,-1.5861729935983522,-0.38355026457340236,0.5502363232778366
1687010387.873426,-0.9269841909408569,0.37484294176101685,0.013894916512072086,-0.002855837345123291,0.016239851713180542,0.010320782661437988,0.10801035910844803,-0.021714478731155396,0.02874106541275978,-1.5857845816549245,-0.3842273574069829,0.5552513083406725
1687010387.892048,-0.9257813692092896,0.3777269124984741,0.0158564280718565,-0.0001068115234375,0.013386428356170654,0.024777771905064583,-0.02778714895248413,-0.045845914632081985,0.07102114707231522,-1.5879222692405888,-0.3873401171269638,0.5569528224798279
1687010387.926758,-0.9242132902145386,0.38142722845077515,0.018526000902056694,0.012225925922393799,0.02134379744529724,0.011381268501281738,0.04955491051077843,-0.05162843316793442,0.05772877857089043,-1.590838799491751,-0.39133975367043183,0.5571630222866859
1687010388.017324,-0.9228421449661255,0.3846166729927063,0.02079908177256584,-0.012155473232269287,0.015468776226043701,0.004728913307189941,0.10485465079545975,-0.05418772995471954,0.048508912324905396,-1.5933305826568402,-0.39479251920873065,0.5608519033849686
1687010388.02147,-0.9212218523025513,0.3883671760559082,0.022834062576293945,0.009860098361968994,-0.006973713636398315,-0.0076209306716918945,-0.024417318403720856,-0.04784967377781868,0.05942414328455925,-1.5955779668005456,-0.3988590112519005,0.5625935265677292
