Timestamp,gravityX,gravityY,gravityZ,accelerationX,accelerationY,accelerationZ,rotationRateX,rotationRateY,rotationRateZ,attitudeRoll,attitudePitch,attitudeYaw
1687096195.756897,-0.6921395063400269,0.2962011694908142,0.6581856608390808,0.010544538497924805,-0.11207330226898193,0.025606632232666016,-0.12877336144447327,0.0516054667532444,0.0552457757294178,-2.3310548435896727,-0.3007128912958899,2.942031849937243
1687096195.757608,-0.6906611323356628,0.2876233756542206,0.6635212302207947,0.010668396949768066,-0.06972777843475342,-0.0018236637115478516,-0.4964911937713623,-0.07357055693864822,0.15937195718288422,-2.336155622762637,-0.2917444141676106,2.9301384887431774
1687096195.846685,-0.6877219676971436,0.27424100041389465,0.6721836924552917,-0.042624831199645996,0.04182964563369751,0.006222248077392578,-0.5522801280021667,0.1077829897403717,0.2457772046327591,-2.3447690075613283,-0.27780035781453094,2.894005097425055
1687096195.848604,-0.6876423954963684,0.2688491642475128,0.6744393110275269,-0.002115964889526367,0.16283735632896423,-0.031723737716674805,-0.01800306886434555,-0.017615625634789467,-0.0635099858045578,-2.346501448741035,-0.27219799064506184,2.883638639780672
1687096195.962383,-0.6865279078483582,0.2696516811847687,0.6752539873123169,0.006199359893798828,0.020540088415145874,-0.004034936428070068,0.06056230887770653,-0.001426003873348236,0.041450466960668564,-2.3479158829547733,-0.2730313087100883,2.885170511906928
1687096195.964048,-0.6847031712532043,0.2714734375476837,0.6763758659362793,0.02222752571105957,-0.07391780614852905,-0.0010673999786376953,-0.18775902688503265,0.03232226520776749,0.152425616979599,-2.3500764197840778,-0.274923619089251,2.8809439684587503
1687096196.054261,-0.6858564019203186,0.2705436050891876,0.675579309463501,0.021427690982818604,0.006708651781082153,-0.02968984842300415,-0.022957561537623405,-0.07338471710681915,-0.06063206493854523,-2.3486459344778328,-0.27395763629659337,2.8764488610973453
1687096196.058186,-0.6841009259223938,0.267503023147583,0.6785633563995361,-0.0640985369682312,-0.04948538541793823,0.016138970851898193,0.0074874297715723515,0.06696120649576187,-0.08114240318536758,-2.352130723497149,-0.2708006767877898,2.878394183744794
1687096196.145124,-0.6896273493766785,0.26332923769950867,0.6745906472206116,3.6776065826416016e-05,-0.010918259620666504,-0.0025780200958251953,-0.02134176902472973,0.15966573357582092,-0.11790578812360764,-2.3451727082124627,-0.2664716282535866,2.8821861997453886
1687096196.1464272,-0.6944512724876404,0.26105374097824097,0.6705141067504883,0.02971726655960083,0.03144213557243347,0.0020936131477355957,0.06494630128145218,-0.006151037290692329,-0.12561389803886414,-2.3386594564075294,-0.2641136323500954,2.8889088979873523
1687096196.263876,-0.694786787033081,0.2572597563266754,0.6716317534446716,0.02738255262374878,0.005160987377166748,0.010878801345825195,-0.08956743031740189,-0.015031508170068264,0.011577458120882511,-2.339250315843011,-0.2601854264376939,2.887303673247929
1687096196.266366,-0.6933178305625916,0.25820255279541016,0.672787070274353,-0.029872536659240723,0.05686101317405701,-0.0016442537307739258,-0.003985201939940453,-0.0848296582698822,-0.04533635824918747,-2.3411669311958887,-0.26116119107584557,2.8909534794774623
1687096196.3594642,-0.693244457244873,0.25547027587890625,0.6739045977592468,-0.01789146661758423,-0.03792569041252136,-0.011535704135894775,-0.15889978408813477,0.15826576948165894,0.05289655551314354,-2.342049316175236,-0.2583341003690668,2.8830310913596495
1687096196.360862,-0.6971890926361084,0.2546663284301758,0.6701288223266602,0.036178410053253174,0.022936880588531494,-0.00994187593460083,0.01346803642809391,0.03850676491856575,-0.013953888788819313,-2.336406289737792,-0.25750264352835606,2.8818176249785328
1687096196.444219,-0.6965204477310181,0.25370171666145325,0.67118901014328,0.000795900821685791,0.029821932315826416,0.00959700345993042,-0.11122521013021469,-0.04811324179172516,0.06747619062662125,-2.33767552607282,-0.2565052747988127,2.8803306295378728
1687096196.446167,-0.6972079873085022,0.25472864508628845,0.6700857281684875,-0.03225374221801758,0.03766036033630371,0.026981830596923828,0.14852312207221985,0.07414694130420685,-0.08722501993179321,-2.336360635521726,-0.2575670878892598,2.8780907447405766
1687096196.533298,-0.6973104476928711,0.25542688369750977,0.6697131395339966,0.017454981803894043,-0.027933508157730103,0.007655203342437744,-0.0615716390311718,0.00236671045422554,0.0325082391500473,-2.336009356550391,-0.2582892215092038,2.8831966981677963
1687096196.535349,-0.6982067227363586,0.25613856315612793,0.6685066223144531,0.022028625011444092,0.04050767421722412,-0.020419776439666748,0.10336538404226303,-0.05540657415986061,-0.06186480447649956,-2.334466883853864,-0.2590253843808429,2.884118852213514
1687096196.62408,-0.6975661516189575,0.25727009773254395,0.668740451335907,-0.021992504596710205,-0.04862138628959656,0.01981264352798462,0.03895885869860649,0.03840428590774536,-0.009471345692873001,-2.3351000500726586,-0.2601961564227014,2.8857114164565196
1687096196.628909,-0.6958185434341431,0.2574024498462677,0.6705082058906555,0.0030998587608337402,0.01777467131614685,-0.018454134464263916,0.0367395356297493,-0.09672828763723373,-0.04637095332145691,-2.3376722401359333,-0.2603330939142716,2.89078316167525
1687096196.685113,-0.6973104476928711,0.25690364837646484,0.6691480875015259,-0.010682165622711182,-0.005011469125747681,0.017512917518615723,0.053668346256017685,0.07904241979122162,-0.027386941015720367,-2.33558767627836,-0.2598169523744562,2.890870344252849
1687096196.7751698,-0.6974453926086426,0.2565340995788574,0.6691493391990662,0.009548604488372803,0.022076189517974854,-0.011556267738342285,-0.015505611896514893,-0.05769156664609909,-0.02323782444000244,-2.3354919310016826,-0.25943459309118266,2.896478009381637
1687096196.777206,-0.6975783109664917,0.25674495100975037,0.6689298152923584,-0.0070421695709228516,0.012954235076904297,0.0069432854652404785,0.0805719718337059,0.034990593791007996,-0.040359798818826675,-2.3352328188020106,-0.2596527565556411,2.8967411317819094
1687096196.83433,-0.6974523067474365,0.25738584995269775,0.6688147187232971,0.0021245479583740234,-0.007782489061355591,-0.0019596219062805176,-0.04529599845409393,-0.016009099781513214,0.019631100818514824,-2.3352370861298115,-0.2603159187725508,2.8987229667973926
1687096196.924748,-0.6976326107978821,0.2575932741165161,0.6685467958450317,-0.009795427322387695,0.022191941738128662,-0.005781114101409912,0.008239399641752243,0.008845648728311062,0.01450591441243887,-2.3349078010143467,-0.26053059856164584,2.8975901416108907
1687096196.930232,-0.6978878974914551,0.2582755982875824,0.6680173873901367,0.006145656108856201,0.008051455020904541,0.005399167537689209,-0.022557608783245087,0.006486247293651104,0.036103859543800354,-2.334329323356539,-0.26123682186505415,2.8955400122421024
1687096196.984638,-0.6983250975608826,0.26043593883514404,0.6667200922966003,-0.008706212043762207,0.018601655960083008,-0.00584644079208374,0.08044041693210602,0.012162242084741592,0.0013166756834834814,-2.333045530705603,-0.26347370480720855,2.8970047758987088
1687096197.1043348,-0.6973906755447388,0.26249998807907104,0.6668883562088013,0.0014525651931762695,-0.004641681909561157,-0.008853018283843994,-0.025040047243237495,0.0018618814647197723,0.04604475572705269,-2.3338404079989385,-0.26561214801289024,2.8974979359889903
1687096197.1108289,-0.6986008882522583,0.26389941573143005,0.6650669574737549,-0.013068974018096924,0.003159940242767334,0.001345515251159668,0.06817495822906494,0.0072854626923799515,-0.03249290958046913,-2.3316084801525743,-0.26706271126334336,2.8977211163213052
1687096197.196185,-0.6983790397644043,0.2640385031700134,0.6652446985244751,0.007506906986236572,-0.024933218955993652,0.021690785884857178,-0.0327778086066246,0.04708970710635185,0.060459204018116,-2.3319005244138347,-0.2672069086761417,2.8979854171657413
1687096197.198848,-0.6984564661979675,0.26596522331237793,0.6643954515457153,0.02746647596359253,0.044352829456329346,-0.014401495456695557,0.07145379483699799,-0.06334652006626129,-0.002744445111602545,-2.3312072399296966,-0.26920506123491456,2.898067368231574
1687096197.2851949,-0.6957677006721497,0.26837635040283203,0.6662446856498718,-0.008745908737182617,-0.031224191188812256,0.01998913288116455,-0.336845338344574,0.14920632541179657,0.43872636556625366,-2.3345218405942267,-0.27170716280753554,2.88616846733219
1687096197.290767,-0.6954366564750671,0.2779957354068756,0.6626358032226562,0.02871924638748169,0.3406108617782593,-0.048911988735198975,-0.20610661804676056,0.08572583645582199,0.6473936438560486,-2.332046704692041,-0.28170697745250234,2.857539957635477
1687096197.375239,-0.6881803870201111,0.3024570643901825,0.6594904065132141,0.05399447679519653,0.49606603384017944,0.1559087038040161,-0.4731663763523102,0.5719265937805176,1.472825050354004,-2.3349091188833384,-0.3072693916873518,2.801320488062237
1687096197.377966,-0.6699809432029724,0.35389629006385803,0.6525976061820984,0.2505776882171631,0.9139108657836914,0.2405148148536682,0.3609284460544586,-0.22793136537075043,1.862657904624939,-2.343051734893696,-0.3617337159208494,2.735026296959782
1687096197.4958901,-0.6085537672042847,0.45723283290863037,0.648537278175354,0.21063512563705444,0.9186521768569946,0.529517650604248,2.1243226528167725,-1.1401429176330566,2.1689116954803467,-2.3879901487205992,-0.474881256635468,2.697545183974385
1687096197.5597382,-0.49940088391304016,0.611701250076294,0.6135316491127014,-0.2196391224861145,0.7806176543235779,0.5504547953605652,3.581670045852661,-2.097546339035034,2.0255119800567627,-2.458386834952873,-0.6582093180021613,2.7344928095064347
1687096197.561594,-0.36171069741249084,0.7569198608398438,0.5442776679992676,-0.524779200553894,0.3476639986038208,0.7168155908584595,2.7396953105926514,-1.5323230028152466,2.8931469917297363,-2.5550428798536275,-0.8585869510280586,2.726126574007608
1687096197.5634232,-0.19716164469718933,0.8653082847595215,0.46083512902259827,-0.5927553176879883,0.24862909317016602,0.7058519721031189,2.565441608428955,-0.9825948476791382,3.4758832454681396,-2.737322745681097,-1.0457650808640944,2.5820055920455736
1687096197.613935,-0.02795131877064705,0.9467318654060364,0.3208085596561432,-0.6787136793136597,0.317596435546875,0.6516038179397583,3.8305773735046387,-1.0349440574645996,3.031923532485962,-3.054684404683714,-1.2429309350779703,2.2914119801601296
1687096197.7077708,0.1293604075908661,0.9844279289245605,0.11902931332588196,-0.7262078523635864,0.18526530265808105,0.7438704967498779,4.234561920166016,-0.9260818958282471,3.0068466663360596,2.3146262002521767,-1.3940895571325485,1.3993581041587035
1687096197.8550339,0.27920183539390564,0.9558812379837036,-0.09131143987178802,-0.744091272354126,0.17740440368652344,0.7666350603103638,4.188571453094482,-0.7684018015861511,3.2832937240600586,1.2547162958566584,-1.2726451618954908,0.3666575546261846
1687096197.8621979,0.4273791015148163,0.8531063795089722,-0.2992604672908783,-0.8023332357406616,0.2626926302909851,0.669576108455658,4.262221813201904,-0.6517210006713867,3.5798213481903076,0.9599210736408537,-1.0219105744043233,0.08290861906078012
1687096197.9834862,0.5543221235275269,0.6796921491622925,-0.48036009073257446,-0.8340308666229248,0.2088119387626648,0.6694775819778442,4.523134708404541,-0.48665958642959595,3.3506596088409424,0.8567596381446344,-0.7473428362879199,-0.01809048096289088
1687096197.98554,0.6358800530433655,0.4695376753807068,-0.612528383731842,-0.7196965217590332,0.1734371781349182,0.6476999521255493,3.291348695755005,-0.3203207850456238,3.7190473079681396,0.8041011363965765,-0.4887670736167455,-0.05362342124560672
1687096197.987575,0.7075988054275513,0.26890504360198975,-0.6534478664398193,-0.7301969528198242,0.14128166437149048,0.5506188869476318,1.6770477294921875,0.5114363431930542,3.734222888946533,0.8251634554542098,-0.2722560325684706,-0.010799015860221747
1687096198.188448,0.7639620900154114,0.0697050467133522,-0.6414851546287537,-0.6393434405326843,0.12064831703901291,0.2386074662208557,2.169283866882324,0.658126711845398,4.10392427444458,0.8723229922707799,-0.06976161469590388,0.0579257000629129
1687096198.1962,0.7587093710899353,-0.18209902942180634,-0.6254599690437317,-0.464535117149353,0.32312068343162537,0.20349347591400146,3.661194086074829,-0.1697900891304016,3.92197847366333,0.8813691199507855,0.18312074609733883,0.06579028682693946
1687096198.24789,0.705808699131012,-0.4180040657520294,-0.5719323754310608,-0.5523815751075745,0.13898178935050964,0.30993908643722534,2.977605104446411,0.6015929579734802,3.4143693447113037,0.8897930725517237,0.43124711645201425,0.0521182971628747
1687096198.249754,0.6671355962753296,-0.5898981690406799,-0.4549180865287781,-0.5250151753425598,-0.05353456735610962,0.20830565690994263,2.8553357124328613,1.9888818264007568,2.1596972942352295,0.9723232936975605,0.630932718101348,0.024159790363363683
1687096198.2512732,0.6601061224937439,-0.6847226023674011,-0.30889326333999634,-0.4629930257797241,-0.26828038692474365,0.1888372302055359,1.8459385633468628,2.1538636684417725,1.2463327646255493,1.1331200675717656,0.7542230440166017,-0.060787467737325344
1687096198.334815,0.6156833171844482,-0.7585237622261047,-0.2134852409362793,-0.28966403007507324,-0.47037339210510254,0.24282802641391754,0.5865375399589539,1.1332353353500366,1.5905746221542358,1.237024024088073,0.8610447364704923,-0.09318265713148144
1687096198.337163,0.5861115455627441,-0.7908881306648254,-0.17598159611225128,-0.29178470373153687,-0.2614496946334839,0.13409638404846191,0.359367698431015,0.5021874904632568,0.8451149463653564,1.2791076644061488,0.9122589041569349,-0.09706675673891094
1687096198.430118,0.5621566772460938,-0.8116883635520935,-0.15856219828128815,-0.19791412353515625,-0.26503288745880127,0.1625601202249527,0.07416184991598129,0.20160146057605743,0.40649306774139404,1.2958779256512059,0.9470369186754827,-0.09471503274336539
1687096198.431777,0.5468705892562866,-0.8216911554336548,-0.16048790514469147,-0.10401475429534912,-0.13759851455688477,0.12748324871063232,-0.039332807064056396,-0.4129350781440735,0.3509822487831116,1.2853447892193592,0.9643720290574745,-0.0881712855336741
1687096198.518939,0.5315600633621216,-0.8289860486984253,-0.17385637760162354,-0.04704773426055908,-0.05658829212188721,-0.01227019727230072,0.30980384349823,-1.0166544914245605,0.11001706123352051,1.2546949809694927,0.9772922995021034,-0.09268794553840794
1687096198.5266829,0.5139603018760681,-0.8338074684143066,-0.20151914656162262,-0.0008378028869628906,-0.028878748416900635,0.03945566713809967,-0.2889575958251953,-1.1749601364135742,0.30681872367858887,1.1971266900783317,0.985969051403744,-0.0982065936924804
1687096198.610578,0.5059221982955933,-0.8325543999671936,-0.22560186684131622,-0.056489765644073486,0.003010094165802002,0.04939344525337219,0.1258426159620285,-0.13526684045791626,-0.37551623582839966,1.1513388037539738,0.9837030988859188,-0.08249688450639803
1687096198.617342,0.5333284139633179,-0.8175942301750183,-0.21702665090560913,-0.0077394843101501465,-0.020326972007751465,0.036713674664497375,-0.04365842044353485,0.22669249773025513,-0.780985951423645,1.1843312221740416,0.9572203764321433,-0.11538405663906504
1687096198.6991029,0.5713160037994385,-0.7923595309257507,-0.21392692625522614,-0.0395013689994812,-0.0645895004272461,-0.014298677444458008,0.03365282714366913,0.09170867502689362,-0.9034023284912109,1.2125115323242805,0.9146670636041869,-0.1382702389300047
1687096198.701878,0.5968709588050842,-0.7730244994163513,-0.2148909866809845,-0.027489304542541504,-0.10134994983673096,0.030824407935142517,-0.0649833083152771,-0.37051650881767273,-0.5774410367012024,1.225214888932625,0.8835950933442291,-0.1617849839299381
1687096198.822839,0.6257162094116211,-0.7435125112533569,-0.2359415888786316,-0.13095003366470337,-0.21361035108566284,0.07847101986408234,-0.23276667296886444,-0.4317818582057953,-1.3216443061828613,1.210208218847302,0.8383077162211551,-0.17332989786821537
1687096198.8287868,0.687544584274292,-0.6786308884620667,-0.25834670662879944,-0.2708269953727722,-0.4396249055862427,0.1544954776763916,-0.7909713983535767,-0.4667336046695709,-2.2947754859924316,1.2113659636931011,0.7458969480704623,-0.198002362606975
1687096198.938846,0.7490742802619934,-0.5703510642051697,-0.3370276093482971,-0.32718396186828613,-0.4756390452384949,0.29546278715133667,-2.1508278846740723,-1.0220285654067993,-2.3937132358551025,1.148004388968748,0.6069331956307935,-0.1635447414196179
1687096198.9406981,0.7959402203559875,-0.4149908423423767,-0.4407515823841095,-0.481181800365448,-0.46051281690597534,0.31047213077545166,-3.0469162464141846,-1.0636948347091675,-3.025083303451538,1.0650788783443916,0.42793272513628,-0.09949195533222716
1687096199.027472,0.8215400576591492,-0.19159917533397675,-0.5369932651519775,-0.5907508134841919,-0.4785516858100891,0.4030821919441223,-4.080794334411621,-0.9936643838882446,-3.6480538845062256,0.9918649656800701,0.19279125133518848,-0.030079364399175048
1687096199.034605,0.8010895252227783,0.09349343925714493,-0.5911976099014282,-0.645983874797821,-0.4405393898487091,0.444408118724823,-4.862685680389404,-0.9356997609138489,-3.9295198917388916,0.9350247843647956,-0.09363018040662255,0.04804286328339369
1687096199.118932,0.7561147809028625,0.3669242262840271,-0.5419014096260071,-0.7173268795013428,-0.416622132062912,0.40618979930877686,-4.5578436851501465,0.16386719048023224,-2.5810279846191406,0.9489553157248451,-0.3757004594638068,0.13100842444123847
1687096199.126267,0.6885172724723816,0.5858991146087646,-0.42739495635032654,-0.796030580997467,-0.3836590647697449,0.5720177292823792,-4.991800785064697,0.4728350341320038,-2.5628788471221924,1.015261280355015,-0.6259891103564221,0.28002801364664764
1687096199.211607,0.626477837562561,0.7490609884262085,-0.21548426151275635,-1.023252010345459,-0.2679818272590637,0.6246487498283386,-4.84736967086792,2.099295139312744,-3.1039938926696777,1.2395111227553945,-0.8466436035145475,0.488795461311997
1687096199.214468,0.5043519139289856,0.8598622679710388,0.07916013151407242,-0.9886199831962585,-0.23110854625701904,0.8021723031997681,-6.7348785400390625,2.7689054012298584,-2.665558338165283,1.726480387295843,-1.0349998360824748,0.9529223253506611
1687096199.3292398,0.36023712158203125,0.8285527229309082,0.42863762378692627,-0.9999922513961792,0.0750119686126709,0.7655001282691956,-4.83167028427124,4.772548675537109,-2.1725032329559326,2.442684598750125,-0.9765178353925105,1.5633246294224306
1687096199.332333,0.14177261292934418,0.7691889405250549,0.6230962872505188,-0.3476288914680481,0.38130849599838257,0.7743799686431885,-2.7695517539978027,2.609510898590088,-2.6503262519836426,2.917872162880037,-0.8775709535171367,1.8910207778256507
1687096199.419446,-0.007642855867743492,0.6854070425033569,0.7281200885772705,-0.4611528813838959,0.3825097680091858,0.5767200589179993,-2.362924575805664,1.4471403360366821,-2.6754398345947266,-3.131096341889246,-0.7551625128497479,2.098652469042724
1687096199.428258,-0.1664389818906784,0.594890296459198,0.7863867878913879,-0.6894722580909729,0.13565492630004883,0.6120357513427734,-2.074596405029297,2.8259143829345703,-2.95926833152771,-2.9330204199930736,-0.6371291333121568,2.2532696833352843
1687096199.5401978,-0.35163232684135437,0.48896679282188416,0.7982900142669678,-0.373678982257843,0.19757208228111267,0.6047712564468384,-1.763245701789856,2.4030601978302,-2.3441240787506104,-2.726682084597741,-0.5109048868921735,2.389282474359874
1687096199.549837,-0.5185843110084534,0.3669542670249939,0.7722793817520142,-0.4655771255493164,0.5392042398452759,0.7694536447525024,-1.432364821434021,3.315265655517578,-2.363368034362793,-2.5502525133348546,-0.37573277195100824,2.4407224912955376
1687096199.687716,-0.6578289866447449,0.254066526889801,0.7090216875076294,-0.03943663835525513,0.6482467651367188,0.6304103136062622,-0.7234322428703308,2.2697110176086426,-2.278825044631958,-2.393630009855013,-0.2568824485836161,2.504254476676961
1687096199.698217,-0.749200165271759,0.1691763550043106,0.6403740048408508,0.19577914476394653,0.7425973415374756,0.6575083136558533,0.3667108416557312,1.765045166015625,-2.431272268295288,-2.2780378103302668,-0.16999392407993796,2.5801659481424846
1687096199.74829,-0.7996630668640137,0.1114421933889389,0.5900166630744934,0.19221073389053345,0.6237873435020447,0.5474345684051514,0.3390684425830841,0.8942726850509644,-1.0804684162139893,-2.2064640289712036,-0.11167416940453226,2.651429018141031
1687096199.751079,-0.8086885809898376,0.07258079946041107,0.5837421417236328,0.3602938652038574,1.2574210166931152,0.5100384950637817,1.0962809324264526,-0.21591204404830933,-0.6432338953018188,-2.1960288013482487,-0.07264467642417664,2.681885047734546
1687096199.7532902,-0.8053442239761353,0.10874868929386139,0.5827478766441345,0.07124370336532593,0.6284645199775696,0.19825822114944458,0.9622825384140015,-0.9771575331687927,0.1789184808731079,-2.197186892367796,-0.10896418460489316,2.739092850853496
1687096199.867862,-0.7746727466583252,0.14606554806232452,0.6152617335319519,0.00872725248336792,-0.16394877433776855,0.09338676929473877,-0.6427333950996399,-0.4788389801979065,1.4657379388809204,-2.2420038257981907,-0.14658999223936542,2.71334308127376
1687096199.871265,-0.7392111420631409,0.18538716435432434,0.6474554538726807,0.10919106006622314,0.36762192845344543,-0.04398548603057861,0.0037765810266137123,-1.2312136888504028,1.2437219619750977,-2.2901208546283964,-0.1864658459070026,2.653226171901005
1687096199.960196,-0.6943225860595703,0.24199563264846802,0.6777569055557251,-0.11758232116699219,0.24172331392765045,0.4124531149864197,-0.05829770863056183,-0.18471656739711761,1.9150880575180054,-2.3441216501622404,-0.2444220966975275,2.5978880489238088
1687096199.9699259,-0.6596054434776306,0.3146965801715851,0.6825595498085022,0.149824321269989,0.7174690961837769,0.5780304074287415,0.8282650709152222,-0.9791845679283142,1.693646788597107,-2.3732951378655107,-0.32013697304797617,2.5438642421575564
1687096200.0793219,-0.5672540068626404,0.4244403839111328,0.7057433724403381,-0.0994483232498169,0.6362744569778442,0.7296053171157837,2.4046452045440674,-1.6669902801513672,1.8741763830184937,-2.464558342091298,-0.43834374743462473,2.52852762995255
1687096200.0830588,-0.4513416886329651,0.5808683037757874,0.6774090528488159,-0.23115339875221252,0.7230715751647949,0.7699788212776184,3.593618392944336,-2.450016975402832,2.2039778232574463,-2.5538602511338286,-0.6197949739022061,2.5379372157369158
1687096200.199253,-0.30024492740631104,0.7752187252044678,0.555777907371521,-0.724077582359314,0.4965708255767822,1.0463645458221436,6.282698631286621,-1.9353300333023071,2.523406982421875,-2.6462854923894095,-0.887061313649752,2.5636851205857694
1687096200.202764,-0.10669481009244919,0.9528077840805054,0.2842077910900116,-0.8088630437850952,0.44468384981155396,1.1659570932388306,6.523735046386719,-2.0225369930267334,4.440333843231201,-2.7824614684999047,-1.2623545279785935,2.537307682113411
1687096200.32393,0.14860829710960388,0.9867849946022034,-0.0645865723490715,-1.3113431930541992,0.6961833834648132,1.0913047790527344,7.666738986968994,-1.7264899015426636,5.232549667358398,1.160814611105037,-1.4080435525245296,0.26904206529469565
1687096200.334646,0.3904552757740021,0.8090975284576416,-0.4392106831073761,-1.6322154998779297,0.7498929500579834,1.3121812343597412,7.858738422393799,0.11236219108104706,5.858795642852783,0.7267005785146617,-0.9426148493381352,-0.12973105228367926
1687096200.337047,0.6066089868545532,0.44141513109207153,-0.6611946225166321,-1.5474810600280762,0.7771212458610535,0.9820106625556946,7.31027889251709,1.4289048910140991,6.056259632110596,0.7423694830248562,-0.4571751493758814,-0.16928493399119593
1687096200.412444,0.7427501082420349,0.016132650896906853,-0.669374406337738,-1.3744486570358276,0.8119312524795532,0.5988178253173828,6.393143177032471,2.243837594985962,5.354151725769043,0.8373126928498831,-0.016133351009771292,-0.2023238369770116
1687096200.416419,0.7681456804275513,-0.3628668189048767,-0.527522623538971,-1.2690916061401367,0.7226690053939819,0.3986011743545532,5.3079328536987305,2.8416802883148193,5.025800704956055,0.9690197264225147,0.37134256147889744,-0.2696992642919094
1687096200.4194012,0.7125247120857239,-0.6466749310493469,-0.2722504734992981,-1.0518343448638916,0.4991375803947449,0.4622683525085449,4.412685871124268,3.7431576251983643,4.482646465301514,1.205821962059284,0.7032171076922862,-0.40583147402377345
1687096200.528512,0.6060230135917664,-0.7920712828636169,-0.07320869714021683,-0.7793781161308289,0.16643023490905762,0.30117517709732056,2.0257158279418945,1.6081092357635498,2.6022751331329346,1.4505770174302075,0.914194748264206,-0.5607168896532777
1687096200.617708,0.5221024751663208,-0.8519216775894165,0.04048100486397743,-0.9030991792678833,-0.44406843185424805,0.7615668773651123,0.7416542768478394,2.1869401931762695,1.4629377126693726,1.6481761095217158,1.0196440467781362,-0.6665772657921336
1687096200.621697,0.4777275025844574,-0.8731979131698608,0.09644821286201477,-0.68161541223526,-0.2523057460784912,0.5719784498214722,0.15994088351726532,1.0350892543792725,0.47065940499305725,1.7700081565358026,1.0617258564164307,-0.7158320031976422
1687096200.7429318,0.46283990144729614,-0.8786023259162903,0.1176329031586647,-0.5326336622238159,-0.07879525423049927,0.42251312732696533,0.2516571581363678,0.3630635440349579,0.08957485109567642,1.8196813920306092,1.0729275015093613,-0.7393001051336939
1687096200.75232,0.46504899859428406,-0.8744850754737854,0.13786035776138306,-0.44049766659736633,-0.20806503295898438,0.34582817554473877,0.060248058289289474,0.10836094617843628,-0.3235275149345398,1.858986300836207,1.0643732232668441,-0.7657579507561286
1687096200.798647,0.5034421682357788,-0.8567377328872681,0.11201230436563492,-0.5116819143295288,-0.4814276695251465,0.4042994976043701,-1.0812571048736572,-0.1334075778722763,-1.452130913734436,1.789723182100701,1.0289108124018886,-0.6986510146675693
1687096200.826905,0.5936617255210876,-0.8044736981391907,0.019697902724146843,-0.6654695272445679,-0.4597781300544739,0.45018136501312256,-3.038825511932373,-0.736596405506134,-2.78387713432312,1.6039645090072414,0.9347888905762176,-0.4939497323445147
1687096200.890032,0.7135955095291138,-0.6829773187637329,-0.1559600681066513,-0.9042845964431763,-0.31841129064559937,0.6300050020217896,-5.26543664932251,-0.31736910343170166,-3.6912689208984375,1.3556244651244798,0.7518310018757944,-0.19549516916348228
1687096200.901939,0.827659547328949,-0.45402976870536804,-0.32990458607673645,-0.9665448069572449,-0.2480425238609314,0.5640965700149536,-6.442951202392578,0.2521926164627075,-4.301512718200684,1.19149796647468,0.4712829816176765,0.07464042117261993
1687096200.9480948,0.9041419625282288,-0.11306013911962509,-0.4120011031627655,-1.1050848960876465,-0.12021630257368088,0.3780198395252228,-6.389113426208496,0.1579734981060028,-5.491459846496582,1.1432274112152492,0.11330239982185225,0.2841431732842346
1687096201.040389,0.8955525159835815,0.2591015696525574,-0.36173513531684875,-1.2116992473602295,-0.003074347972869873,0.5608013868331909,-6.329158782958984,1.4143763780593872,-5.1120829582214355,1.1869117987247564,-0.2620918844960693,0.4694651867904858
1687096201.052191,0.8209656476974487,0.5499330163002014,-0.15358786284923553,-1.2029540538787842,0.20182174444198608,0.5374685525894165,-5.525950908660889,2.1531879901885986,-4.662459373474121,1.385852252650232,-0.5822840239914597,0.6890908786701471
1687096201.13361,0.7094613313674927,0.680249810218811,0.1841880977153778,-1.1673927307128906,-0.04597240686416626,1.011216163635254,-7.426059246063232,4.892347812652588,-2.083730936050415,1.8248054425050553,-0.7481034105439265,1.130848587678638
1687096201.136835,0.5495429635047913,0.6373448371887207,0.5401798486709595,-0.828305721282959,0.5069575905799866,0.7834743857383728,-3.7293851375579834,4.560571670532227,-2.1216847896575928,2.3476024854574167,-0.691047625383703,1.5427345519638385
1687096201.1879249,0.3341754078865051,0.6317633986473083,0.6994298696517944,-0.7079088687896729,0.4404412508010864,0.7931849956512451,-1.690852403640747,3.7605016231536865,-3.1408751010894775,2.6958764097139216,-0.6838260207881118,1.7727070956425883
1687096201.281029,0.11056944727897644,0.5915791392326355,0.7986292839050293,-0.6488842368125916,-0.003154456615447998,0.7265936136245728,-1.8952001333236694,3.7973175048828125,-2.707324743270874,3.0040181952849423,-0.6330160314681872,1.9720675603868896
1687096201.285501,-0.11749723553657532,0.526271402835846,0.8421601057052612,-0.4207565486431122,0.07347548007965088,0.8097109198570251,-1.4270809888839722,2.8982183933258057,-2.676685094833374,-3.0029686193886675,-0.5542096396743922,2.1479947042673473
1687096201.3379931,-0.32587558031082153,0.4490916132926941,0.8319386839866638,-0.4286104738712311,0.4511922299861908,0.960389256477356,-1.5428835153579712,3.4828851222991943,-2.2216906547546387,-2.7682564602479847,-0.46574840966453984,2.27852280207103
1687096201.4900532,-0.4769253730773926,0.3403673768043518,0.8103660941123962,-0.19795575737953186,0.10656270384788513,0.8426647782325745,-1.1320880651474,3.012481212615967,-1.7913131713867188,-2.6096491005955795,-0.34730758586417937,2.3183732022486505
1687096201.554905,-0.6306778192520142,0.2598362863063812,0.7312530875205994,0.02043306827545166,0.8984279632568359,0.6980379819869995,0.1594727635383606,2.2817201614379883,-2.5340263843536377,-2.4299082396135843,-0.26285266972126037,2.4141161177310155
1687096201.565758,-0.7254588007926941,0.19208090007305145,0.6609195470809937,0.1860453486442566,0.8143583536148071,0.7580717206001282,0.7345320582389832,2.0495615005493164,-2.218273639678955,-2.309675655706444,-0.19328208693156781,2.505605398946273
1687096201.568366,-0.7822449803352356,0.15835610032081604,0.6025087833404541,0.44710075855255127,0.7018277049064636,0.6863709092140198,1.012012243270874,0.42909127473831177,-1.0057328939437866,-2.2271195810125106,-0.15902552099607445,2.600927581600756
1687096201.6722841,-0.7895244359970093,0.15546591579914093,0.5937018394470215,0.2437174916267395,0.880728006362915,0.6453730463981628,0.9043415784835815,-0.2736099362373352,-0.4914727807044983,-2.215559592913021,-0.1560990811854502,2.657125695981331
1687096201.685318,-0.7584173083305359,0.18154260516166687,0.6259756088256836,0.17014533281326294,0.3333805203437805,0.22496134042739868,0.5718463659286499,-1.3775027990341187,0.3644116520881653,-2.26081704856779,-0.18255489696068666,2.6950179125519065
1687096201.7627811,-0.7193755507469177,0.21196499466896057,0.6614906191825867,0.011764466762542725,-0.027547210454940796,0.08777707815170288,-0.0019537964835762978,-0.6632103323936462,1.0117977857589722,-2.3142997567148225,-0.21358519970421433,2.668763851224177
1687096201.7665792,-0.6912415027618408,0.25616076588630676,0.6756979823112488,0.02340984344482422,0.3631936311721802,0.2643658518791199,0.6120558381080627,-0.2709999680519104,1.061592698097229,-2.3448239545062703,-0.2590483368241357,2.645321042109305
1687096201.849978,-0.6747584342956543,0.33004555106163025,0.6601299047470093,0.10528510808944702,0.7929098606109619,0.673549473285675,1.19227135181427,0.0804130882024765,1.6337199211120605,-2.3452363131899294,-0.33635184428276355,2.622933535314
1687096201.854881,-0.5992879271507263,0.46171367168426514,0.653968870639801,0.21453744173049927,1.0442832708358765,0.9384081959724426,3.187670946121216,-2.0999326705932617,1.9849518537521362,-2.399797881680459,-0.479926137262391,2.63706922118618
1687096201.9718509,-0.4458203613758087,0.6390308737754822,0.6268051266670227,-0.3034168481826782,0.9278486967086792,1.1827960014343262,3.7928967475891113,-3.0009267330169678,3.196662425994873,-2.5233506985891037,-0.6932376613353155,2.6574039242030567
1687096201.985493,-0.21551963686943054,0.8308132290840149,0.5131285190582275,-0.9211990833282471,0.8055087924003601,1.1604862213134766,5.355565071105957,-3.091952323913574,4.1357903480529785,-2.7439552828648743,-0.9805672820858549,2.5691313042656825
1687096202.0616,0.037155650556087494,0.9721037149429321,0.23159027099609375,-1.4338994026184082,0.7887606024742126,1.2629472017288208,6.908500671386719,-2.584707260131836,4.793432712554932,2.9825113227020807,-1.334039289281982,2.128126871964643
1687096202.076323,0.2975906431674957,0.9453221559524536,-0.13343900442123413,-1.6944717168807983,0.6313685774803162,1.239182472229004,8.042864799499512,-1.8006445169448853,5.135699272155762,1.1492755497006721,-1.2385809416897493,0.36257517881159057
1687096202.149883,0.49632108211517334,0.7082781195640564,-0.5020036101341248,-1.8501722812652588,0.7375074028968811,1.415257453918457,7.728455543518066,-0.1112562045454979,5.458522796630859,0.7797061291034014,-0.7870561006358907,0.014347439599207498
1687096202.154901,0.6747307181358337,0.33596551418304443,-0.6571649312973022,-1.661195993423462,0.6716638803482056,1.0649255514144897,6.2547101974487305,1.6377555131912231,5.585790634155273,0.798585965273438,-0.3426301283044132,-0.03350537141526743
1687096202.239043,0.7870796918869019,-0.05866055190563202,-0.6140558123588562,-1.5305030345916748,0.6463222503662109,0.7697413563728333,5.519477367401123,2.6569201946258545,5.528759479522705,0.9082644708194081,0.05869424643336862,-0.07289735034690271
1687096202.253063,0.7932032346725464,-0.4281315207481384,-0.4330500364303589,-1.2966821193695068,0.7104952335357666,0.40712541341781616,6.1922926902771,3.1711513996124268,5.143041610717773,1.0710671361456563,0.44242421918130265,-0.16896557485468205
1687096202.330621,0.7096278071403503,-0.6943902373313904,-0.11937626451253891,-1.1760280132293701,0.19980698823928833,0.43878865242004395,4.893856525421143,4.131311416625977,4.143850803375244,1.404133021031301,0.7675721905016216,-0.4091870888732056
1687096202.419557,0.592658519744873,-0.797367513179779,0.11384592950344086,-0.8980937600135803,-0.11024051904678345,0.5646058320999146,1.8198270797729492,3.03031587600708,2.22151255607605,1.7605781917385404,0.9229205185693222,-0.6574963973130018
1687096202.4340448,0.5029745101928711,-0.8283846378326416,0.24656790494918823,-0.7959432601928711,-0.3135374188423157,0.4494009017944336,1.5345648527145386,1.8665351867675781,1.062328577041626,2.026588953425904,0.976217731243836,-0.8238406169994333
1687096202.539762,0.45660489797592163,-0.8277854323387146,0.3260118067264557,-0.6275032758712769,-0.12430208921432495,0.49121856689453125,0.668944776058197,0.9429421424865723,0.4420453608036041,2.190850656906033,0.9751488779839019,-0.9464600316933164
1687096202.554421,0.4310670793056488,-0.8274996280670166,0.3597583472728729,-0.3996644616127014,-0.04211413860321045,0.3915998935699463,0.4490288197994232,0.4511678218841553,0.26562148332595825,2.2662676992130555,0.9746396446461429,-0.9981643831852771
1687096202.666045,0.4233624041080475,-0.8253294825553894,0.3736249804496765,-0.21932199597358704,-0.0847199559211731,0.2636738121509552,-0.0990142971277237,-0.20914298295974731,-0.09798858314752579,2.293868516908677,0.9707854467341044,-1.0232131685457686
1687096202.669723,0.43905630707740784,-0.8255014419555664,0.3546507656574249,-0.08332818746566772,-0.02484041452407837,0.14943882822990417,-0.32184281945228577,-0.2862085998058319,-0.2418977916240692,2.2502492110185366,0.9710901044749582,-0.9909693130266258
1687096202.672559,0.4542043209075928,-0.8226182460784912,0.3420495390892029,-0.010204076766967773,0.038118064403533936,-0.043801069259643555,0.0714145302772522,-0.4279295802116394,-0.1813252568244934,2.216261999326552,0.9660005978277953,-0.9709975729877347
1687096202.753234,0.4689958691596985,-0.8172551989555359,0.3348692059516907,0.012083262205123901,0.0028476715087890625,0.04243505001068115,-0.09706252068281174,-0.41598179936408997,-0.19524629414081573,2.1908653017849806,0.9566317812992897,-0.9650277518679177
1687096202.7670488,0.48408037424087524,-0.8146923780441284,0.31928446888923645,-0.08309474587440491,-0.011754155158996582,0.0010282397270202637,0.0024387151934206486,-0.49358221888542175,-0.16529828310012817,2.1538691591537007,0.95219849793611,-0.9475885921318071
1687096202.842303,0.5018801093101501,-0.80643230676651,0.31270354986190796,-0.20956754684448242,-0.18731164932250977,0.16131088137626648,-0.03692717105150223,-0.26131176948547363,-0.5162080526351929,2.128002446194392,0.9380937119019253,-0.9366837500426975
1687096202.8578959,0.5417174100875854,-0.7914973497390747,0.28297463059425354,-0.09419232606887817,-0.13468080759048462,0.07466104626655579,-0.5182703733444214,-0.9190371632575989,-0.882161557674408,2.0521760685759274,0.9132551345339975,-0.8812061285673768
1687096202.897562,0.5971877574920654,-0.7690297365188599,0.22794854640960693,-0.34312885999679565,-0.20979130268096924,0.17383089661598206,-1.3624382019042969,-0.679948627948761,-1.4916146993637085,1.9354308653701662,0.877321903543924,-0.7866342548772783
1687096203.0257602,0.6653563976287842,-0.7356290817260742,0.12708695232868195,-0.4912078380584717,-0.21261322498321533,0.4246252775192261,-3.282412052154541,-0.19776132702827454,-1.9631783962249756,1.759528867163567,0.8265949244512415,-0.581191443408563
1687096203.029284,0.7546064853668213,-0.6561244130134583,-0.008373643271625042,-0.6154768466949463,-0.1916387677192688,0.34078651666641235,-3.757833480834961,-0.44542351365089417,-3.0729689598083496,1.559700080596218,0.7156715964862697,-0.3158034391951205
1687096203.114953,0.8524062037467957,-0.5044633746147156,-0.13755285739898682,-0.6724743843078613,-0.12622827291488647,0.28339648246765137,-3.7983956336975098,-0.5094247460365295,-3.697096586227417,1.4108054673082215,0.5287603499971535,-0.10160324589905367
1687096203.1187449,0.9263045191764832,-0.28931528329849243,-0.24136430025100708,-0.7471357583999634,-0.14169976115226746,0.23790064454078674,-3.763197422027588,-0.69822096824646,-4.40147590637207,1.3158973296195382,0.29351146326965377,0.05592756295406123
1687096203.203352,0.9474775195121765,-0.0105474554002285,-0.3196486532688141,-0.8163739442825317,-0.12241768836975098,0.23935699462890625,-3.954380512237549,-1.5078482627868652,-4.972714900970459,1.2454189191802665,0.010547650640865056,0.17054800612440832
1687096203.218069,0.881005048751831,0.2986448407173157,-0.36693519353866577,-0.9633108973503113,-0.19595322012901306,0.44971421360969543,-4.6946001052856445,-1.4395503997802734,-4.991231441497803,1.1761505184031578,-0.30327237591033773,0.29200988686809703
1687096203.260668,0.7528155446052551,0.5927813649177551,-0.2861451506614685,-1.1226122379302979,-0.09259825944900513,0.45016196370124817,-5.854488849639893,-0.5710897445678711,-5.114190578460693,1.2075619980470982,-0.6345080243477269,0.4470071795640428
1687096203.351659,0.6008785367012024,0.7992035746574402,-0.014785302802920341,-1.0739924907684326,-0.24463814496994019,0.7334896326065063,-7.129040241241455,2.26657772064209,-3.4446799755096436,1.546195150028675,-0.9259689840698684,0.8794148603179663
1687096203.3565521,0.412550151348114,0.8616804480552673,0.2954820394515991,-1.1803113222122192,0.4848162531852722,0.6879317760467529,-3.748810052871704,3.2225775718688965,-4.406742572784424,2.192334046533895,-1.038571932790535,1.4523562382681072
1687096203.534278,0.1638239622116089,0.8708263635635376,0.46349045634269714,-0.8699548840522766,0.2166675329208374,0.7949478030204773,-2.644151449203491,2.885650873184204,-4.485264778137207,2.801841384121361,-1.056880775282718,2.0075907175036765
1687096203.5399761,-0.1053350493311882,0.8067446351051331,0.5814365148544312,-0.6900293231010437,0.5045806765556335,0.9383696913719177,-2.303764820098877,3.5895638465881348,-4.162680625915527,-2.9623729936199696,-0.9386220603495399,2.424087690942681
1687096203.652981,-0.3395422399044037,0.6921181678771973,0.6369335651397705,-0.3637353777885437,0.5854851603507996,0.8592367768287659,-2.6548030376434326,2.2013630867004395,-2.962768316268921,-2.6518256162895577,-0.7644195490189555,2.6262040096298005
1687096203.6675038,-0.513116717338562,0.5686722993850708,0.6429023742675781,-0.4099332094192505,0.9127273559570312,0.922008752822876,-1.3409420251846313,2.2715227603912354,-2.943436861038208,-2.4679958111778806,-0.6048908250248155,2.7171137418982316
1687096203.6706362,-0.6409726142883301,0.449561208486557,0.6221326589584351,-0.0875278115272522,0.7526940703392029,0.6976916193962097,-0.5961877703666687,1.5889132022857666,-2.801490306854248,-2.3412800357889365,-0.46627405803739297,2.799906578901924
1687096203.7791948,-0.7232080101966858,0.35558781027793884,0.5920541882514954,0.05346912145614624,0.9108155369758606,0.446810245513916,-0.2157757580280304,0.5343068242073059,-1.997868299484253,-2.256806164598713,-0.36354289429687414,2.8754949251831383
1687096203.783545,-0.7672944068908691,0.2890673279762268,0.5724509954452515,0.20075064897537231,0.8554945588111877,0.39327800273895264,0.3338734805583954,0.2656128704547882,-1.727582573890686,-2.2117738429361737,-0.2932524413742144,2.940246892367129
1687096203.78759,-0.7867319583892822,0.24897554516792297,0.5648577809333801,0.12471407651901245,0.6907675266265869,0.2905958294868469,1.169304370880127,-0.04251820594072342,-1.4173859357833862,-2.1934877059424216,-0.251622351795684,3.015655724952291
1687096203.862941,-0.7929064631462097,0.23580361902713776,0.5618682503700256,0.1593616008758545,0.6362361907958984,0.22841501235961914,1.6109981536865234,-0.8125540018081665,-1.174285650253296,-2.1872831923085014,-0.2380454242997397,3.118085311683967
1687096203.866897,-0.77377849817276,0.25202277302742004,0.5811646580696106,-0.04780071973800659,0.1713629961013794,0.06551849842071533,1.5700173377990723,-0.888293981552124,-0.43812045454978943,-2.2149842303316034,-0.25476991972414736,-3.0751121827097307
1687096203.950568,-0.763174295425415,0.2811354994773865,0.5818313360214233,0.06331473588943481,-0.12699121236801147,0.00787508487701416,0.6720801591873169,-0.37242862582206726,0.10749340057373047,-2.22217577236756,-0.2849771142396395,-3.0156785020930865
1687096203.9559531,-0.756908655166626,0.29811999201774597,0.5815615653991699,-0.010455787181854248,-0.18044418096542358,-0.03349626064300537,0.5026088356971741,-0.14742186665534973,-0.05287039652466774,-2.225930699571201,-0.3027224826787418,-2.9952651686421667
1687096204.068989,-0.7468271255493164,0.30662694573402405,0.590110182762146,-0.05293196439743042,-0.2835250496864319,-0.01592165231704712,-0.06876084208488464,-0.2469341903924942,0.17592914402484894,-2.2395061297122543,-0.31164724696676466,-2.990086318128419
1687096204.0746489,-0.7381865382194519,0.3021564483642578,0.6031439304351807,-0.11529868841171265,-0.05066102743148804,-0.07491493225097656,-0.21799826622009277,-0.1471724510192871,-0.12586963176727295,-2.2558544943453054,-0.3069540241321962,-2.999357565840559
1687096204.1609821,-0.7407174706459045,0.2929782271385193,0.6045676469802856,-0.04170757532119751,0.08730143308639526,-0.07871896028518677,-0.009526867419481277,0.024810608476400375,-0.14105167984962463,-2.2553327292064087,-0.29734026638348593,-2.9993189283815176
1687096204.177124,-0.7425828576087952,0.29146334528923035,0.6030093431472778,-0.019303858280181885,0.15703833103179932,-0.048779428005218506,0.09412682056427002,-0.07382915169000626,-0.03843728452920914,-2.252837672614457,-0.2957562619031686,-2.9906436134528915
1687096204.247808,-0.7406017780303955,0.29697251319885254,0.6027573943138123,0.025330722332000732,0.10068681836128235,0.010661303997039795,0.2438565492630005,-0.11622246354818344,0.04466370493173599,-2.253940680627195,-0.3015205591890185,-2.9831929987521337
1687096204.251904,-0.7331008315086365,0.30858147144317627,0.6060866117477417,-0.0399552583694458,-0.060610830783843994,0.01778435707092285,-0.049834344536066055,0.16886791586875916,0.30704230070114136,-2.2616330849127713,-0.31370136703008394,-2.988314764027378
1687096204.340328,-0.7338823080062866,0.31848323345184326,0.5999879837036133,0.061091721057891846,-0.006700336933135986,0.002703845500946045,0.09638673067092896,-0.1086307018995285,0.1338735669851303,-2.2561492839100845,-0.3241289801104993,-2.9939643280811903
1687096204.357761,-0.7292828559875488,0.3252510726451874,0.6019620299339294,-0.04185056686401367,-0.08292621374130249,0.05907928943634033,-0.0504227951169014,0.029131105169653893,0.19806364178657532,-2.2608440928259377,-0.33127720963372803,-2.997434910796428
1687096204.3976312,-0.7260842323303223,0.3289598524570465,0.6038104295730591,0.02250152826309204,0.014546006917953491,-0.023152470588684082,0.13274621963500977,-0.17813660204410553,-0.04034954309463501,-2.2645098027236426,-0.33520192746205796,-3.000218643258642
1687096204.524181,-0.7237727642059326,0.3294937312602997,0.6062895059585571,-0.03402447700500488,-0.03281697630882263,0.0023226141929626465,0.17084886133670807,-0.0003908331273123622,-0.05141917243599892,-2.2680939781707257,-0.3357673013913366,-2.9937560317613037
1687096204.541158,-0.7213735580444336,0.33406853675842285,0.6066453456878662,0.01664632558822632,0.01876053214073181,-0.029115378856658936,0.10744374990463257,-0.19580283761024475,0.03301858901977539,-2.2700179825685916,-0.3406168263091933,-2.9846904222576858
1687096204.613169,-0.718109130859375,0.33609384298324585,0.609393835067749,-0.04035961627960205,-0.009204685688018799,-0.016894817352294922,0.058041736483573914,0.014271252788603306,0.0002950425259768963,-2.2744822723197906,-0.3427663837083158,-2.9868464063132514
1687096204.61763,-0.7204327583312988,0.33968111872673035,0.6046438217163086,-0.010203957557678223,0.012354552745819092,-0.021025359630584717,0.18915937840938568,0.06837821751832962,-0.014725429937243462,-2.2690330605227595,-0.3465778298994226,-2.978653075986076
1687096204.700687,-0.7241346836090088,0.3426952362060547,0.5984892845153809,-0.013933062553405762,0.006364881992340088,-0.015923738479614258,0.0799165666103363,0.07682938873767853,-0.034632936120033264,-2.2614816669107047,-0.34978437786637384,-2.9734070080964776
1687096204.706681,-0.7270830869674683,0.34435784816741943,0.5939428806304932,0.016542255878448486,0.012987762689590454,0.004644334316253662,0.13331390917301178,0.0014970286283642054,-0.03393441066145897,-2.255748241807421,-0.3515547236552989,-2.964634114109207
1687096204.790734,-0.7286409735679626,0.3464938998222351,0.590783417224884,-0.008648574352264404,-0.017407506704330444,0.01682192087173462,0.05215881019830704,0.1024000495672226,-0.021869869902729988,-2.2520891013858244,-0.35383087703673183,-2.9628369968592296
1687096204.8078241,-0.7301392555236816,0.3473026156425476,0.5884539484977722,0.00853574275970459,-0.004605352878570557,0.0011000633239746094,0.05968990921974182,0.04279168322682381,-0.02236785739660263,-2.249153323970145,-0.3546931220408221,-2.958275103459821
1687096204.846856,-0.734204888343811,0.34685301780700684,0.5836412310600281,0.017621338367462158,0.0070747435092926025,0.0121690034866333,0.2782686650753021,0.033315252512693405,-0.20704607665538788,-2.242437925347537,-0.3542137390303656,-2.9517455382107998
1687096204.9400148,-0.7345830202102661,0.3461604714393616,0.5835759043693542,0.006937146186828613,-0.045333415269851685,0.024227499961853027,0.03906697779893875,0.012130338698625565,-0.024645373225212097,-2.242132646000477,-0.3534754405246157,-2.9397495353251597
1687096204.9575171,-0.7337298393249512,0.34590503573417664,0.5847995281219482,0.025264203548431396,0.028911948204040527,0.0008481740951538086,0.039861295372247696,-0.07946860790252686,-0.04339342564344406,-2.2437193568300215,-0.3532032082901799,-2.9395839436766185
1687096204.999395,-0.7333709597587585,0.3465392291545868,0.5848742723464966,0.0005065798759460449,0.014102309942245483,0.022212088108062744,0.1298896223306656,-0.04016812518239021,-0.07075873762369156,-2.2440201300864886,-0.35387920221435704,-2.9319554191611354
1687096205.0600262,-0.7323580980300903,0.3473653495311737,0.5856526494026184,-0.005450129508972168,-0.01878255605697632,0.011606931686401367,-0.02561161480844021,0.03284546732902527,0.032640621066093445,-2.245342586071107,-0.35476003979154197,-2.9309313730587254
1687096205.151204,-0.7321457266807556,0.34862831234931946,0.5851680040359497,0.012998819351196289,0.02934730052947998,-0.007256448268890381,0.14827106893062592,-0.07552862167358398,-0.09479688107967377,-2.2450802426243026,-0.3561071967708949,-2.927190274284603
1687096205.157969,-0.7311800122261047,0.34929952025413513,0.5859748125076294,-0.010412514209747314,-0.021937310695648193,0.0015956759452819824,0.10178064554929733,-0.015639135614037514,-0.017627675086259842,-2.2463963115052215,-0.3568234319516543,-2.9205723794089127
1687096205.2413101,-0.7329633831977844,0.35327479243278503,0.5813447833061218,-0.004203975200653076,0.015530228614807129,-0.0013123154640197754,0.2689654231071472,0.03369981423020363,-0.128525972366333,-2.2413421861749314,-0.36106930121043324,-2.910563674478143
1687096205.258543,-0.7344089150428772,0.35446640849113464,0.578790009021759,-0.011089861392974854,-0.030262798070907593,0.006232321262359619,0.03393922373652458,0.015435267239809036,0.009642871096730232,-2.238240897231591,-0.36234335725206357,-2.9008156138417953
1687096205.2978358,-0.7341002225875854,0.35518214106559753,0.578742504119873,0.0013731122016906738,0.01894816756248474,-0.006598770618438721,0.018656302243471146,-0.011744741350412369,-0.020191743969917297,-2.238405403073887,-0.3631088936997553,-2.9021368392014106
1687096205.390213,-0.7343050241470337,0.3543280065059662,0.5790063738822937,-0.011727869510650635,0.006832391023635864,-0.0062064528465271,0.04084016755223274,-0.01626172848045826,-0.02222094126045704,-2.2384914097512474,-0.36219535137531683,-2.8980934004105157
1687096205.408283,-0.7338146567344666,0.35550540685653687,0.5789062976837158,-0.003108680248260498,0.009362876415252686,-0.003146231174468994,-0.0024626199156045914,0.010918865911662579,0.03599802404642105,-2.2387321750098352,-0.36345474457408045,-2.8983164143059685
