Timestamp,gravityX,gravityY,gravityZ,accelerationX,accelerationY,accelerationZ,rotationRateX,rotationRateY,rotationRateZ,attitudeRoll,attitudePitch,attitudeYaw
1687087904.085157,-0.881158173084259,0.33365920186042786,0.33500969409942627,-0.006949007511138916,-0.012171745300292969,0.014095902442932129,-0.08698741346597672,-0.02467324025928974,0.007929098792374134,-1.934111498199985,-0.3401825583732069,1.0294725414948582
1687087904.090699,-0.881222665309906,0.3325454592704773,0.33594587445259094,0.0003024935722351074,0.015782147645950317,-0.006600409746170044,-0.0005042399279773235,-0.04202708974480629,-0.01730208843946457,-1.9350150803180797,-0.3390013768994972,1.02818918313541
1687087904.1157908,-0.8805451989173889,0.33205801248550415,0.3381969928741455,-0.003594636917114258,0.026309877634048462,0.007155030965805054,-0.01121014729142189,-0.04533233866095543,0.0030032936483621597,-1.9375009100729765,-0.338484564624056,1.0288691391692606
1687087904.1560202,-0.8796989321708679,0.3324829339981079,0.3399772346019745,-0.002060532569885254,0.03197315335273743,-0.0077172815799713135,0.025833304971456528,-0.06925008445978165,0.008806299418210983,-1.939584768586843,-0.33893508037737013,1.0288734309037495
1687087904.231724,-0.8784178495407104,0.3334394693374634,0.34234505891799927,-0.006103634834289551,0.02302113175392151,-0.017531365156173706,-0.0050169662572443485,-0.044097963720560074,0.02320609986782074,-1.9424173096927766,-0.3399494958916186,1.0284636368557127
1687087904.322338,-0.8775730729103088,0.335304319858551,0.34268948435783386,-0.0013329386711120605,0.009345918893814087,-0.013557583093643188,0.0033563319593667984,-0.027919631451368332,0.03954048827290535,-1.9430835535630293,-0.34192822480081403,1.0273820278867247
1687087904.334605,-0.8773476481437683,0.3375196158885956,0.34108850359916687,-0.004762828350067139,0.0027818679809570312,-0.012902617454528809,0.007127687335014343,-0.013634011149406433,0.02991446852684021,-1.9415863832824454,-0.3442806418893204,1.0293602888993667
1687087904.3576941,-0.8774224519729614,0.33916541934013367,0.33925861120224,-0.008350074291229248,-0.01314610242843628,0.0015462636947631836,-0.007990332320332527,0.0121697299182415,0.019572438672184944,-1.939744545849984,-0.34602958039426346,1.0298407297175833
1687087904.4395251,-0.8777992129325867,0.3396942615509033,0.3377510607242584,0.0004495978355407715,-0.004718095064163208,-0.006696611642837524,0.06380060315132141,0.003415440209209919,-4.8844143748283386e-05,-1.9381051108668141,-0.34659180251214966,1.0301902229205044
1687087904.4830241,-0.8784167766571045,0.3400835394859314,0.33574798703193665,-0.0011759400367736816,-0.003184795379638672,0.011831730604171753,0.013430749997496605,0.038329798728227615,0.007779628969728947,-1.9358813012360283,-0.3470057233142114,1.0314858640873368
1687087904.524034,-0.8787731528282166,0.340736448764801,0.33414992690086365,0.006550431251525879,0.0023421645164489746,0.021867990493774414,-0.005444190930575132,0.019103748723864555,0.02437462843954563,-1.934158208400722,-0.34770009515439304,1.0307718210404815
1687087904.622867,-0.878271758556366,0.34270939230918884,0.3334496021270752,0.011801600456237793,0.009951740503311157,0.012665390968322754,-0.0059507773257792,0.019674571231007576,0.051294706761837006,-1.9336511366099274,-0.3497994194723404,1.0319313525825715
1687087904.635201,-0.8772192001342773,0.3449876010417938,0.33387094736099243,0.002783834934234619,-0.0043198466300964355,0.01381567120552063,-0.019850080832839012,0.019194936379790306,0.0466332845389843,-1.9344688251131827,-0.3522255751913057,1.0291389846084105
1687087904.6909142,-0.8759140372276306,0.3467787802219391,0.33543795347213745,0.0037065744400024414,-0.007606476545333862,0.004802316427230835,0.03523831069469452,-0.0027851443737745285,0.034634411334991455,-1.936525209949084,-0.35413459207343545,1.0272782757943317
1687087904.736685,-0.875389814376831,0.3476990759372711,0.33585357666015625,-0.003455221652984619,-0.025692909955978394,0.01578506827354431,-0.04984696954488754,0.029535401612520218,0.02072141505777836,-1.937139121376852,-0.3551159312960099,1.02581945412994
1687087904.7708411,-0.8750943541526794,0.34789544343948364,0.33641940355300903,0.006594836711883545,-0.006525903940200806,0.012197941541671753,-0.003408523742109537,-0.016212590038776398,-0.00033879606053233147,-1.9378155112826285,-0.35532539751143694,1.025275870152781
1687087904.829948,-0.8743458986282349,0.34725478291511536,0.33901748061180115,0.003176093101501465,0.007161051034927368,0.008836954832077026,-0.011745283380150795,-0.02345186099410057,0.0034329723566770554,-1.9406878914018404,-0.3546421351996284,1.0244262462733158
1687087904.9285731,-0.8730312585830688,0.3473547101020813,0.3422873318195343,-0.0032502412796020508,0.003429502248764038,0.0013557374477386475,-0.013729285448789597,-0.03675206005573273,0.010914590209722519,-1.9444458277590617,-0.3547486942668303,1.022102067425646
1687087904.940651,-0.8721945881843567,0.347539484500885,0.34422749280929565,-0.0016914606094360352,-0.0026603639125823975,-0.0024918317794799805,-0.027328450232744217,-0.019000226631760597,0.013224417343735695,-1.9466979139785303,-0.3549457428903431,1.0213073614229695
1687087905.004432,-0.8717971444129944,0.34789976477622986,0.3448697030544281,-0.0047591328620910645,-0.0005944967269897461,-0.01865231990814209,-0.03901040926575661,-0.01841699331998825,0.006133905611932278,-1.9474907016071972,-0.35533000198211245,1.0211145642026749
1687087905.054846,-0.8720710873603821,0.34783387184143066,0.34424352645874023,-0.00550764799118042,-0.0011388957500457764,-0.020772546529769897,-0.001492645824328065,0.024407807737588882,-0.0019634575583040714,-1.946762190313556,-0.3552597129194104,1.0202899063645674
1687087905.08357,-0.8730639815330505,0.3472771644592285,0.3422829508781433,-0.005979478359222412,-0.011873722076416016,-0.022642016410827637,-0.044645972549915314,0.021604564040899277,-0.013749321922659874,-1.944428778705529,-0.3546659939093411,1.0196348670758846
1687087905.136266,-0.8743540048599243,0.3462876081466675,0.33998456597328186,0.0002544522285461426,-0.008229166269302368,-0.013202577829360962,0.004330569412559271,0.030651694163680077,-0.025307951495051384,-1.9416459087042175,-0.35361095642216317,1.0200264916927977
1687087905.220722,-0.8761306405067444,0.3444489538669586,0.3372677266597748,-0.012418925762176514,-0.015881508588790894,-0.0040617287158966064,-0.11679457128047943,0.09356072545051575,0.00032098032534122467,-1.9382628460635205,-0.3516517424506209,1.0181115151317854
1687087905.253761,-0.8784788250923157,0.34210991859436035,0.3335197865962982,-0.0019684433937072754,-0.0017168521881103516,-0.009575963020324707,-0.19774338603019714,0.14821922779083252,0.014162293635308743,-1.9336427578594932,-0.349161396236595,1.0104457822313535
1687087905.306773,-0.8813489079475403,0.3385162055492401,0.32959118485450745,-0.01199197769165039,-0.006881743669509888,0.015501350164413452,-0.16208994388580322,0.17572255432605743,-0.01337891910225153,-1.9286568559911064,-0.3453395711584583,0.9985755063206595
1687087905.3876219,-0.8837261199951172,0.3351697325706482,0.32663270831108093,0.014021158218383789,-0.010798424482345581,0.004940599203109741,-0.15923354029655457,0.06953667104244232,-0.028989169746637344,-1.9248318836991203,-0.3417853617996844,0.9931789322471909
1687087905.393883,-0.8851739168167114,0.33132171630859375,0.3266386091709137,0.008831262588500977,0.005958527326583862,0.01256418228149414,-0.011961851269006729,0.05534053221344948,-0.07048803567886353,-1.924305750908882,-0.3377040839309494,0.9882858395494893
1687087905.5187411,-0.8859102725982666,0.328825443983078,0.32716435194015503,0.021408498287200928,0.02076861262321472,0.0031120479106903076,-0.050210703164339066,0.019331395626068115,-0.027488326653838158,-1.9245580956429922,-0.3350595908985754,0.9883111419975569
1687087905.523943,-0.8861797451972961,0.3283078372478485,0.3269541263580322,-0.0007829666137695312,0.033859461545944214,0.010936230421066284,0.0625586211681366,0.0250100027769804,-0.024182697758078575,-1.9242504974394377,-0.33451155507222763,0.9893729131999356
1687087905.540081,-0.8859471082687378,0.32883280515670776,0.32705649733543396,-0.00165635347366333,0.006799429655075073,0.010223567485809326,-0.024350130930542946,0.02329748123884201,0.007776920683681965,-1.924437450636027,-0.3350673863949521,0.9906610461128493
1687087905.5588732,-0.8854555487632751,0.3299979567527771,0.3272145688533783,0.011005043983459473,0.006580382585525513,0.002970188856124878,0.05046844854950905,0.023822125047445297,0.015494273975491524,-1.9247748817993213,-0.33630141490121973,0.9898223527598665
1687087905.6183028,-0.8848973512649536,0.33151668310165405,0.3271898925304413,0.020670175552368164,0.01308777928352356,0.018360495567321777,-0.026089120656251907,0.01337150763720274,0.053242653608322144,-1.924955436661437,-0.33791072316576387,0.9904713206855286
1687087905.679636,-0.8826023936271667,0.3360322117805481,0.32877758145332336,0.029529571533203125,0.08950480818748474,0.024798810482025146,-0.17194075882434845,0.026986973360180855,0.24169640243053436,-1.927381559010492,-0.34270096153475504,0.9835553479383916
1687087905.7380319,-0.8752716779708862,0.34745025634765625,0.33641862869262695,0.03382587432861328,0.19550323486328125,0.06932759284973145,-0.7392395734786987,0.012102299369871616,0.6394498944282532,-1.937746887400772,-0.3548505662931578,0.9514203715005741
1687087905.8161511,-0.8606535792350769,0.36816322803497314,0.35175397992134094,-0.01349174976348877,0.25053489208221436,0.1650458574295044,-0.8082423806190491,-0.13678917288780212,0.928301990032196,-1.958784986017698,-0.37703270113969445,0.8940973409110344
1687087905.865247,-0.8350047469139099,0.39857354760169983,0.3793494999408722,0.031156539916992188,0.2092602550983429,0.1962270736694336,-0.5073424577713013,-0.5830795764923096,1.0469855070114136,-1.9972271764682665,-0.4099609979646308,0.8405741387438
1687087905.893517,-0.7964409589767456,0.4353504478931427,0.4197043776512146,-0.026770710945129395,0.2117748260498047,0.28631967306137085,-0.6398023366928101,-0.8129552006721497,1.2739663124084473,-2.0557902365712186,-0.45042750810583776,0.7849025241692442
1687087905.941451,-0.7444457411766052,0.47744444012641907,0.46674057841300964,-0.030273258686065674,0.30954280495643616,0.33701595664024353,-0.0364292711019516,-1.1878693103790283,1.3993892669677734,-2.1308065959081666,-0.4977439486694586,0.7262094789042967
1687087905.999662,-0.6674858927726746,0.5385717749595642,0.5142011046409607,-0.08420771360397339,0.4059624671936035,0.43291175365448,0.30252066254615784,-1.8576388359069824,1.7444076538085938,-2.227197856295229,-0.5687411485856765,0.686823088635445
1687087906.1070728,-0.5540007948875427,0.6046884655952454,0.5722190737724304,-0.2718963623046875,0.37013447284698486,0.36717289686203003,0.22759534418582916,-2.2783732414245605,2.140709161758423,-2.372369559314656,-0.6493746670681575,0.6177945204363064
1687087906.1196551,-0.41374608874320984,0.6700199246406555,0.6163493990898132,-0.44469794631004333,0.28627872467041016,0.28025662899017334,0.48140472173690796,-2.3648030757904053,2.2973368167877197,-2.5503995756121856,-0.7342356668660962,0.5219379386665665
1687087906.151798,-0.25616997480392456,0.720119833946228,0.6448284387588501,-0.5856420993804932,0.13206815719604492,0.23592382669448853,0.2245435267686844,-2.333646059036255,2.426506996154785,-2.7634433147248,-0.8039750142233745,0.38491550409284403
1687087906.193698,-0.09013787657022476,0.7555503249168396,0.6488595008850098,-0.5931506752967834,0.1255226731300354,0.1603291630744934,0.5770853161811829,-2.3706483840942383,2.4308440685272217,-3.003558655332933,-0.8564937929038469,0.2199629824283044
1687087906.23207,0.07839612662792206,0.7690931558609009,0.6343100666999817,-0.589275598526001,0.02131199836730957,0.17231500148773193,0.1323416829109192,-2.2907555103302,2.4455766677856445,3.0186234985181946,-0.8774210706798284,0.031326713973742155
1687087906.2968168,0.23969918489456177,0.7489853501319885,0.6177091598510742,-0.6080158352851868,0.0007703304290771484,0.1390654444694519,-0.15421923995018005,-2.1377010345458984,2.3587775230407715,2.771434262548062,-0.8465294120015593,-0.14785122762627675
1687087906.357352,0.3876491189002991,0.7077574729919434,0.5905988216400146,-0.5997768640518188,0.0050109028816223145,0.10207372903823853,-0.19409815967082977,-2.166999101638794,2.1659679412841797,2.560755060105589,-0.786318776619618,-0.28862396652498506
1687087906.486927,0.5207415819168091,0.6555315256118774,0.5469059348106384,-0.5470172762870789,-0.00015145540237426758,0.13227766752243042,-0.14722955226898193,-2.187716484069824,1.9742815494537354,2.3806961759068623,-0.7148862917379544,-0.3917781305888726
1687087906.492276,0.6378028988838196,0.5944230556488037,0.4897630512714386,-0.4876413941383362,-0.05665779113769531,0.16506755352020264,-0.28950682282447815,-2.2775731086730957,1.7959080934524536,2.2256496061239774,-0.636548000688771,-0.46164188281517904
1687087906.49679,0.7393893599510193,0.5258002877235413,0.4205203950405121,-0.4296359419822693,-0.047498345375061035,0.15740615129470825,-0.5565592646598816,-2.3157598972320557,1.6760728359222412,2.0879134179436316,-0.5536556968987565,-0.5006718592239964
1687087906.517387,0.8241668343544006,0.44440165162086487,0.35107776522636414,-0.43998122215270996,-0.0864611566066742,0.27073293924331665,-1.3350402116775513,-2.39782452583313,1.568808913230896,1.9734959172005984,-0.4605062226155042,-0.4943028834997648
1687087906.551384,0.8920206427574158,0.36059895157814026,0.2725202441215515,-0.4351268410682678,-0.03575468063354492,0.13081514835357666,-1.3974989652633667,-2.4857428073883057,1.3112903833389282,1.8672994435061763,-0.3689099780812788,-0.45112954215664475
1687087906.6045918,0.9388405680656433,0.2885003685951233,0.188004270195961,-0.46366673707962036,-0.08285775780677795,0.1855764240026474,-1.73573899269104,-2.512575149536133,0.8964601159095764,1.7684337464954851,-0.2926602456692585,-0.3747672117798634
1687087906.703057,0.9659820795059204,0.24618269503116608,0.07919870316982269,-0.40870076417922974,-0.002393081784248352,0.0047397613525390625,-0.9407143592834473,-2.7584216594696045,0.47145944833755493,1.6526011134031124,-0.24873975747981253,-0.3112901660915705
1687087906.749652,0.9713539481163025,0.2317483127117157,-0.05257634446024895,-0.38881921768188477,0.06433321535587311,-0.2592219114303589,0.16450372338294983,-2.702755928039551,0.17412859201431274,1.516722229570641,-0.23387453631108557,-0.2966860735181976
1687087906.822551,0.9599173665046692,0.22441314160823822,-0.16791985929012299,-0.3223137855529785,-0.0483572781085968,-0.30314964056015015,-0.38589656352996826,-2.070563554763794,0.19759204983711243,1.3976170468834739,-0.22634077787560924,-0.2899878915092396
1687087906.8736792,0.9448471665382385,0.22038620710372925,-0.24226705729961395,-0.2414935827255249,-0.06822562217712402,-0.2234008014202118,-0.5501795411109924,-1.4702552556991577,0.19397668540477753,1.3197950781700882,-0.22221038757163084,-0.2614411686007931
1687087906.90408,0.926258385181427,0.2232964187860489,-0.3036179840564728,-0.17950868606567383,0.01867741346359253,-0.25206148624420166,-0.03432915359735489,-1.463826298713684,-0.047088854014873505,1.2540432883801158,-0.2251949678449042,-0.2416139720267246
1687087906.94434,0.9039002060890198,0.2267206460237503,-0.36271485686302185,-0.15354937314987183,-0.06998240947723389,-0.1998615860939026,-0.3302600383758545,-1.1081831455230713,0.04243150353431702,1.1891891042013238,-0.22870933057088005,-0.23211156171794736
1687087907.027412,0.8871405720710754,0.231764018535614,-0.39908257126808167,-0.11899799108505249,0.002565160393714905,-0.282848060131073,0.04599050059914589,-0.6228245496749878,-0.14839059114456177,1.148064912712409,-0.23389069286413242,-0.22583644457992003
1687087907.113456,0.8784568905830383,0.23539382219314575,-0.41581621766090393,-0.09833616018295288,-0.06278643012046814,-0.23176687955856323,-0.2616865634918213,-0.1668955236673355,5.102436989545822e-05,1.128696373193562,-0.23762375091911922,-0.22652913698912533
1687087907.126971,0.8783771395683289,0.2393529713153839,-0.4137193560600281,-0.04413348436355591,0.056057125329971313,-0.19104760885238647,-0.21292196214199066,0.06438004225492477,0.01349816843867302,1.1306132175152352,-0.24169940272696758,-0.2164633929808548
1687087907.155201,0.8794018030166626,0.24104997515678406,-0.4105449616909027,0.0014879107475280762,0.027138441801071167,-0.022438526153564453,0.0951690748333931,-0.014041101559996605,0.03787516802549362,1.1340221650891733,-0.2434475822182753,-0.21105617631769133
1687087907.2080178,0.8785361647605896,0.23812167346477509,-0.41409188508987427,0.01509469747543335,0.02275778353214264,0.023787200450897217,0.22607333958148956,-0.06324257701635361,-0.05792144313454628,1.1303359751031692,-0.240431442225308,-0.21659143371649317
1687087907.261873,0.8772941827774048,0.2381269335746765,-0.4167137145996094,0.016275644302368164,-0.058256372809410095,0.0434989333152771,-0.054009489715099335,-0.05409744009375572,-0.028636367991566658,1.1273489397180554,-0.24043685271687193,-0.2195392864183831
1687087907.3247108,0.8751404881477356,0.2410963922739029,-0.4195253551006317,-0.0031160712242126465,0.019966185092926025,-0.03004443645477295,0.35537204146385193,-0.10091853141784668,-0.17663075029850006,1.123779919022584,-0.24349541771168373,-0.22660572278951144
1687087907.448565,0.8719281554222107,0.2407180815935135,-0.42637526988983154,-0.10227501392364502,-0.008509889245033264,-0.27424731850624084,0.6490997672080994,0.20197008550167084,-0.32489973306655884,1.115985155399451,-0.2431056208433053,-0.25598840835945325
1687087907.454592,0.8791204690933228,0.24373070895671844,-0.4095636010169983,-0.20497208833694458,-0.08702300488948822,-0.41969063878059387,0.6694396138191223,0.8958950638771057,-0.4422913193702698,1.1348163111908118,-0.2462107250617455,-0.29662359775644515
1687087907.45992,0.8967853784561157,0.25232943892478943,-0.363463431596756,-0.23759055137634277,-0.0761057436466217,-0.4021463990211487,0.4363407790660858,1.486370325088501,-0.4412505626678467,1.1857328750978489,-0.2550868479156624,-0.33113665932493047
1687087907.501933,0.9179545640945435,0.26844292879104614,-0.29205775260925293,-0.2746288776397705,-0.11596190929412842,-0.24715745449066162,0.21453285217285156,1.7801265716552734,-0.48843589425086975,1.2627620527968524,-0.2717762673843927,-0.3552926882189112
1687087907.530709,0.9333090782165527,0.2926892936229706,-0.20800691843032837,-0.26305168867111206,-0.17092427611351013,-0.141877219080925,-0.04812134802341461,1.8794573545455933,-0.6051526069641113,1.3515098319466965,-0.2970381040358556,-0.3661264316892075
1687087907.5644999,0.938529908657074,0.3255365788936615,-0.11483567208051682,-0.2485886812210083,-0.1900995969772339,-0.029985666275024414,-0.35269102454185486,2.0029029846191406,-0.7390199899673462,1.4490445409664805,-0.33157915311760455,-0.3654643564113194
1687087907.612029,0.931511402130127,0.3636103570461273,-0.008587416261434555,-0.286446213722229,-0.22776144742965698,0.004436851479113102,-0.8343594074249268,2.0869550704956055,-0.8023658394813538,1.5615777888513687,-0.3721406154928982,-0.3353458598717767
1687087907.702534,0.9096451997756958,0.40104570984840393,0.10820170491933823,-0.31473565101623535,-0.2639150321483612,0.01736271381378174,-1.0028502941131592,2.1294291019439697,-0.9572548270225525,1.6891893900229231,-0.4126580904856178,-0.279943099081535
1687087907.767587,0.8689152002334595,0.44463080167770386,0.217461958527565,-0.352328896522522,-0.18681830167770386,-0.05964049696922302,-0.32313936948776245,2.114633321762085,-1.2817915678024292,1.8160275133300305,-0.4607620517962789,-0.2291219689076219
1687087907.773116,0.8073672652244568,0.5035269260406494,0.3076016306877136,-0.3428744077682495,-0.18437409400939941,-0.012176364660263062,0.05029268190264702,2.044857978820801,-1.5692929029464722,1.9348111374227681,-0.5276761115525571,-0.2002053611806576
1687087907.814991,0.7269527316093445,0.5760492086410522,0.37377333641052246,-0.33750277757644653,-0.11518818140029907,0.0174160897731781,0.3942408263683319,1.8539315462112427,-1.8702305555343628,2.045711276203167,-0.6138871464085318,-0.1743023972405665
1687087907.879216,0.6272482872009277,0.6490828394889832,0.43040719628334045,-0.36896294355392456,-0.11189740896224976,0.03757956624031067,0.2215648889541626,2.0162556171417236,-2.093149423599243,2.1721889093953077,-0.706378190350591,-0.1250445191899284
1687087907.938198,0.5051486492156982,0.7140523195266724,0.48471981287002563,-0.41385549306869507,-0.09832996129989624,0.03200352191925049,0.1394498348236084,2.179257392883301,-2.226196050643921,2.335559468538467,-0.7952695593669586,-0.04169306841338586
1687087908.022614,0.36287203431129456,0.7656846642494202,0.5310841798782349,-0.44832128286361694,-0.09049868583679199,0.08219677209854126,0.15561388432979584,2.3407163619995117,-2.4002459049224854,2.5421857363694595,-0.872105111242276,0.08652219397326012
1687087908.036371,0.19987179338932037,0.8112368583679199,0.5494956374168396,-0.41213682293891907,0.020870566368103027,0.12768906354904175,0.33244970440864563,2.209528923034668,-2.6310930252075195,2.792732929601492,-0.9462642860329274,0.25836048231012804
1687087908.072542,0.03009498491883278,0.8227999806404114,0.5675330758094788,-0.4492844045162201,-0.01763969659805298,0.10092365741729736,-0.1816403567790985,2.3385839462280273,-2.657724142074585,3.0886145551618847,-0.9663203032727076,0.48133255875987685
1687087908.126978,-0.15110425651073456,0.8155073523521423,0.5586726665496826,-0.544437050819397,0.11144882440567017,0.16738611459732056,-0.2622501850128174,2.4315922260284424,-2.707601547241211,-2.8774427058765832,-0.9536052450182522,0.7218268355317239
1687087908.175078,-0.32579126954078674,0.7771394848823547,0.5384368300437927,-0.374053031206131,0.218176007270813,0.22363293170928955,0.11235126107931137,2.3784780502319336,-2.7847931385040283,-2.5974545124530466,-0.8901076420562025,0.9215730265092124
1687087908.239447,-0.4893611967563629,0.7228092551231384,0.48792651295661926,-0.3718906044960022,0.2656245231628418,0.3007085919380188,-0.09849093854427338,2.2407851219177246,-2.645551919937134,-2.3547264802146546,-0.8078589230665792,1.0877269440496888
1687087908.3384209,-0.6270028352737427,0.6454487442970276,0.4361918270587921,-0.31846219301223755,0.3558177351951599,0.37188297510147095,-0.36349719762802124,2.1620090007781982,-2.4349324703216553,-2.1786154561151463,-0.701610662667394,1.18185009550846
1687087908.344137,-0.7383356690406799,0.5570427179336548,0.38021522760391235,-0.3478153347969055,0.3688758611679077,0.4565460681915283,-0.9804748296737671,2.0591561794281006,-2.0330145359039307,-2.046342207449582,-0.5908206046824234,1.2241522857692817
1687087908.372038,-0.8238471746444702,0.4630008637905121,0.32696402072906494,-0.20908105373382568,0.38900405168533325,0.4265606105327606,-0.42450493574142456,1.7706615924835205,-2.0391271114349365,-1.948605497858933,-0.48137781995185536,1.2221863728640565
1687087908.459542,-0.8886299133300781,0.3716970384120941,0.2686595916748047,-0.033748507499694824,0.541434645652771,0.46267879009246826,-0.18511851131916046,1.0686510801315308,-1.9787266254425049,-1.8643894938191599,-0.3808363607782366,1.2534310622523896
1687087908.50283,-0.9276329278945923,0.2935136556625366,0.23096808791160583,0.0014705061912536621,0.7244154214859009,0.32925817370414734,0.9911733269691467,0.4193159341812134,-1.5244197845458984,-1.8148208967155415,-0.29790031238848175,1.2864332464802513
1687087908.6055279,-0.9452518224716187,0.24805136024951935,0.21205970644950867,0.2239537239074707,0.48388224840164185,0.16725826263427734,0.9717143774032593,-0.1868901550769806,-0.927732527256012,-1.791484403483512,-0.2506682351666726,1.3758072636820278
1687087908.669164,-0.9526202082633972,0.22086071968078613,0.2091289758682251,0.19775283336639404,0.12908434867858887,0.14130425453186035,0.17448318004608154,0.019957398995757103,-0.4391013979911804,-1.7868985419135868,-0.22269689075606972,1.4036209967251365
1687087908.674998,-0.9554881453514099,0.20731575787067413,0.20990987122058868,0.0016919374465942383,0.05209890007972717,0.09352624416351318,0.08835266530513763,-0.06791248172521591,-0.2657712697982788,-1.7870495936736444,-0.2088302967604509,1.3971975722624375
1687087908.7158751,-0.9564757347106934,0.1995524764060974,0.21291445195674896,0.031671226024627686,0.11711317300796509,0.03546798229217529,0.11108919233083725,-0.13886772096157074,-0.09586068242788315,-1.7898281832339917,-0.20090118400181659,1.4142496865475944
1687087908.720218,-0.9560086131095886,0.19862602651119232,0.21585886180400848,-0.0550997257232666,0.025647670030593872,-0.005333393812179565,0.17693574726581573,-0.024164095520973206,-0.05016623064875603,-1.7928642385296802,-0.19995581037522597,1.4150393578109597
1687087908.7651381,-0.9558366537094116,0.19898632168769836,0.2162875533103943,-0.013355672359466553,-0.013134285807609558,-0.006860867142677307,-0.17204739153385162,0.08495675027370453,0.051711536943912506,-1.7933295817350354,-0.20032345408941188,1.4138792581822333
1687087908.843762,-0.9560515284538269,0.20035487413406372,0.2140635848045349,0.00927436351776123,0.03550022840499878,-0.0005474090576171875,0.043392110615968704,0.01694035716354847,0.0372123084962368,-1.7910671544654841,-0.2017201192640174,1.414079475504928
1687087908.939077,-0.9563605785369873,0.20119395852088928,0.21188519895076752,0.010758161544799805,0.002221018075942993,0.026273757219314575,0.053125325590372086,0.003453789511695504,0.017707958817481995,-1.7888281015399248,-0.20257664439498832,1.4165176725670303
1687087908.944127,-0.9554224610328674,0.20450635254383087,0.21294283866882324,0.014870882034301758,0.03525499999523163,0.002450093626976013,0.15038636326789856,-0.019256848841905594,0.016647201031446457,-1.79009029929538,-0.20595937118405874,1.4205490469668598
1687087909.0009289,-0.9543928503990173,0.20829467475414276,0.2138861119747162,-0.01611173152923584,-0.041271984577178955,0.019008636474609375,-8.585769683122635e-05,0.004777700174599886,0.09384810924530029,-1.7912606282427477,-0.20983106934368942,1.4165529461469535
1687087909.054667,-0.9532629251480103,0.21366065740585327,0.21363189816474915,0.011856794357299805,-0.02133888006210327,-0.0005278587341308594,-0.14919991791248322,0.05891459807753563,0.14910098910331726,-1.7912596495252084,-0.21532062154127793,1.415652745866493
1687087909.0966449,-0.9523235559463501,0.21824772655963898,0.21318459510803223,0.02588629722595215,0.029127776622772217,0.018840432167053223,0.03881685435771942,0.0240186657756567,0.08930573612451553,-1.7910228760876195,-0.22001855662749664,1.4036594571213017
1687087909.144655,-0.9515650868415833,0.2219439446926117,0.21275398135185242,-0.011767804622650146,-0.0497942715883255,-0.007798090577125549,-0.37788495421409607,0.08577646315097809,0.14927586913108826,-1.7907618450752432,-0.22380768381320587,1.399874519351705
1687087909.245998,-0.9511562585830688,0.22238212823867798,0.21412131190299988,0.008239388465881348,0.04016059637069702,-0.03040561079978943,0.029581651091575623,-0.04505062848329544,-0.04121419042348862,-1.792221992246892,-0.2242571083947469,1.3844680743915188
1687087909.2604961,-0.9512076377868652,0.21968239545822144,0.21666410565376282,-0.0026496052742004395,-0.026811331510543823,-0.0051010847091674805,-0.07202763855457306,-0.027110032737255096,-0.013316800817847252,-1.794753262092728,-0.2214889054140534,1.3853825879999597
1687087909.310632,-0.9514737129211426,0.21809454262256622,0.21709947288036346,-0.024890244007110596,-0.03447030484676361,0.012300953269004822,-0.15097038447856903,-0.0011002691462635994,-0.018374988809227943,-1.7951276867716308,-0.21986158284967788,1.3818348086068508
1687087909.361257,-0.9516080617904663,0.21562692523002625,0.2189682573080063,0.018762052059173584,0.04043084383010864,-0.012547463178634644,0.06818939000368118,-0.056630104780197144,-0.03462411090731621,-1.7969629170884425,-0.2173338200335624,1.3794831700647352
1687087909.449542,-0.9514204859733582,0.21543557941913605,0.21996858716011047,0.01039588451385498,0.0063814520835876465,0.0067157745361328125,0.003465094603598118,0.002921157516539097,0.030862510204315186,-1.798004295593833,-0.21713785502114677,1.3811232129088127
1687087909.530614,-0.9498746395111084,0.2223558872938156,0.21976251900196075,0.0414276123046875,0.07079599797725677,0.004739865660667419,-0.08697760850191116,-0.007428898476064205,0.20730195939540863,-1.79815551585774,-0.22423018232202468,1.379444024691827
1687087909.543669,-0.9447004795074463,0.24003180861473083,0.22343994677066803,0.11640775203704834,0.21313893795013428,0.07216835021972656,-0.5307270884513855,0.024047959595918655,0.7154434323310852,-1.80304763330206,-0.2423986241131311,1.3597540887256352
1687087909.547298,-0.9312759041786194,0.2784242331981659,0.23495693504810333,-0.02749466896057129,0.3589964210987091,0.21247635781764984,-1.1243488788604736,-0.10041284561157227,1.3152799606323242,-1.8179345063994778,-0.28215307680152235,1.3076581640564824
1687087909.589972,-0.9045745730400085,0.33306941390037537,0.26610007882118225,-0.02410566806793213,0.41906675696372986,0.2797524631023407,-0.924711287021637,-0.5139220952987671,1.6184988021850586,-1.8568973608779527,-0.33955699175216403,1.2315403282218713
1687087909.6052918,-0.8606510758399963,0.4018927216529846,0.3126680552959442,-0.0069023966789245605,0.46312791109085083,0.3142542541027069,-0.24290238320827484,-1.0829861164093018,1.8527899980545044,-1.9192635753499998,-0.4135829234291892,1.1694188126865848
1687087909.6572042,-0.7928704023361206,0.484218031167984,0.36998558044433594,-0.1080847978591919,0.5147291421890259,0.35570695996284485,-0.0631156861782074,-1.6146551370620728,2.2519428730010986,-2.0074021394100954,-0.5054692223103242,1.124868432838401
1687087909.706068,-0.6896737813949585,0.5753768086433411,0.4396485388278961,-0.3136218190193176,0.4900679588317871,0.390154629945755,-0.004405824467539787,-2.0171728134155273,2.68503475189209,-2.138314879875814,-0.6130647611095287,1.048077016667134
1687087909.813003,-0.5498297214508057,0.6648717522621155,0.5056014060974121,-0.5462853312492371,0.3613733649253845,0.31043845415115356,0.13390326499938965,-2.3063035011291504,2.956085681915283,-2.3143135484504533,-0.7273220891937923,0.9421936397079705
1687087909.850018,-0.3826860189437866,0.7372822165489197,0.5567458271980286,-0.6820721626281738,0.19457191228866577,0.2418684959411621,0.1627853512763977,-2.2352454662323,3.0185842514038086,-2.539398893162042,-0.829038653228494,0.7860020817265496
1687087909.911817,-0.2017221450805664,0.7909824252128601,0.5776280760765076,-0.7235249280929565,0.1269555687904358,0.23795390129089355,0.22298482060432434,-2.2936227321624756,3.0666394233703613,-2.805608447830815,-0.9124130657455956,0.5866561156162413
1687087909.955618,-0.012692530639469624,0.8148030638694763,0.5795981884002686,-0.7295254468917847,0.09825211763381958,0.2066258192062378,0.46251794695854187,-2.355409860610962,2.9447126388549805,-3.119697309200101,-0.952389426631361,0.34216914139427645
1687087909.996451,0.17358332872390747,0.8134467601776123,0.5551328659057617,-0.738997757434845,0.005995750427246094,0.2048460841178894,0.1923258751630783,-2.326068878173828,2.9244070053100586,2.838536601258293,-0.9500537409651328,0.08710462179021046
1687087910.098246,0.34704843163490295,0.7772497534751892,0.5248235464096069,-0.7205225825309753,-0.02361828088760376,0.1690848469734192,0.007138073444366455,-2.209075927734375,2.662046194076538,2.5573376864157717,-0.8902828490625774,-0.12395546159864117
1687087910.158747,0.49752122163772583,0.7239968776702881,0.47780877351760864,-0.7058799266815186,-0.09766930341720581,0.10925781726837158,-0.024662787094712257,-2.072115182876587,2.449375867843628,2.335986184554293,-0.8095790855737431,-0.27398851917506484
1687087910.172017,0.6239044070243835,0.6621835231781006,0.41503670811653137,-0.5401796102523804,-0.04528623819351196,0.14023032784461975,0.2189880609512329,-2.197450876235962,2.1578426361083984,2.157800073487665,-0.7237289692907231,-0.37888782154952244
1687087910.224481,0.7335540652275085,0.5877817869186401,0.3411906063556671,-0.523409903049469,-0.11669719219207764,0.12314948439598083,-0.5924476385116577,-2.3152287006378174,2.030268669128418,2.0061525761344168,-0.6283142755579142,-0.4358733618743028
1687087910.23617,0.8205723166465759,0.4993833899497986,0.2779874801635742,-0.4874730706214905,-0.08629757165908813,0.04258430004119873,-1.1380363702774048,-2.114157199859619,1.8152546882629395,1.8974342542546965,-0.5228869293177283,-0.4299766188820601
1687087910.2582622,0.8835081458091736,0.4155561625957489,0.21616214513778687,-0.41509395837783813,-0.08782798051834106,-0.02008688449859619,-0.9926645755767822,-2.1013782024383545,1.4102768898010254,1.8107460686036994,-0.4285541873161607,-0.39241790909506613
1687087910.348721,0.9255216717720032,0.35107940435409546,0.14195914566516876,-0.4220581650733948,-0.15344765782356262,-0.01958383619785309,-1.034523367881775,-1.9745712280273438,1.0686975717544556,1.722993014401382,-0.3587236362341783,-0.3558931252888274
1687087910.401764,0.9502465128898621,0.3033688962459564,0.07070114463567734,-0.3697412610054016,-0.15952438116073608,-0.07256293296813965,-0.8934252262115479,-1.7914159297943115,0.7007703185081482,1.6450624368740567,-0.30822619235347937,-0.30685364607733034
1687087910.487207,0.9605790376663208,0.27796050906181335,-0.005051329731941223,-0.2796862721443176,-0.07439306378364563,-0.11207526922225952,-0.3433648347854614,-1.7858611345291138,0.3736599385738373,1.5655377449571355,-0.28167028135868066,-0.27656416300039927
1687087910.493503,0.9607452154159546,0.2656747102737427,-0.07990819960832596,-0.20088821649551392,-0.10220739245414734,-0.11923443526029587,-0.3564436435699463,-1.5783393383026123,0.18322104215621948,1.487814181499637,-0.26890372473750773,-0.2568600031083942
1687087910.544691,0.9548490047454834,0.2604326605796814,-0.14296120405197144,-0.16897577047348022,-0.03469422459602356,-0.1510147899389267,-0.24296879768371582,-1.3513078689575195,0.11983206123113632,1.4221789869675872,-0.26347031158432516,-0.23684650500990237
1687087910.647495,0.9441604018211365,0.2576175928115845,-0.205412358045578,-0.11936193704605103,0.016887962818145752,-0.19047707319259644,0.2050360143184662,-1.2469568252563477,-0.017548365518450737,1.3565737365435917,-0.2605557649440026,-0.2404671060302715
1687087910.662602,0.9309669137001038,0.25749626755714417,-0.25883620977401733,-0.11367577314376831,-0.016956746578216553,-0.162459135055542,0.01017514243721962,-0.98007732629776,-0.00457499735057354,1.2996158680494296,-0.26043019152603397,-0.24305620445580192
1687087910.6948671,0.9181360006332397,0.2585062086582184,-0.3003343343734741,-0.1083979606628418,-0.007972180843353271,-0.15671229362487793,0.05842309817671776,-0.777297854423523,-0.052131377160549164,1.2546543847799965,-0.26147551834613586,-0.24774822197672317
1687087910.7435741,0.907661497592926,0.2601329982280731,-0.3293646574020386,-0.07605773210525513,-0.026566773653030396,-0.17852428555488586,-0.21436476707458496,-0.4921553432941437,0.0421670526266098,1.2227008834319966,-0.2631599296256014,-0.24383441240429563
1687087910.7962441,0.9021472930908203,0.2630089521408081,-0.3419889807701111,-0.06833088397979736,-0.05637446045875549,-0.10521572828292847,-0.06365471333265305,-0.2864869236946106,-0.04900606721639633,1.2084505861583994,-0.2661396309586457,-0.23271081093861695
1687087910.8539948,0.8961901068687439,0.26695308089256287,-0.35437148809432983,-0.04171335697174072,-0.03849855065345764,-0.12420523166656494,-0.12697280943393707,-0.22500282526016235,-0.03607404604554176,1.1942444525072693,-0.2702299940116759,-0.23357700034381465
1687087910.975405,0.8945475220680237,0.2706235349178314,-0.3557349145412445,-0.010102570056915283,0.0014406144618988037,-0.061303168535232544,-0.0784909725189209,-0.01347682997584343,-0.006957350764423609,1.192299999574951,-0.27404066504925945,-0.22187006488515726
1687087910.989963,0.893958330154419,0.2720395624637604,-0.3561359941959381,-0.0054544806480407715,-0.009084910154342651,-0.03807497024536133,-0.11158804595470428,0.024615373462438583,-0.011334744282066822,1.191686446028819,-0.27551190210038473,-0.22236670139037462
1687087911.016605,0.8939440846443176,0.27395403385162354,-0.35470104217529297,0.02028602361679077,-0.018216818571090698,0.036936670541763306,0.12392626702785492,-0.046829357743263245,-0.08662627637386322,1.193067046437209,-0.2775019614433407,-0.21560014682184933
1687087911.043932,0.8905922174453735,0.2744229733943939,-0.3626808524131775,-0.007932424545288086,-0.02460610866546631,0.00962287187576294,0.10868450999259949,0.01269431971013546,-0.08846317231655121,1.1840679637399376,-0.27798957882573705,-0.23272441460699128
1687087911.093266,0.8915039300918579,0.2770695388317108,-0.35840359330177307,0.02036118507385254,0.02395579218864441,0.04973340034484863,0.019449014216661453,-0.02694784663617611,-0.023453524336218834,1.188548645073564,-0.28074288930497415,-0.22567986399288756
1687087911.142949,0.8896523714065552,0.2771960198879242,-0.3628784120082855,-0.018177330493927002,0.05343133211135864,-0.11151745915412903,0.2096939980983734,-0.014245259575545788,-0.0812498927116394,1.1835086164775468,-0.2808745334562067,-0.23555830366044053
1687087911.255729,0.8889725804328918,0.276376873254776,-0.3651620149612427,-0.07084232568740845,0.037725239992141724,-0.21508410573005676,0.5576676726341248,0.20324882864952087,-0.21281841397285461,1.1810412988450592,-0.2800220700505066,-0.2565017643391059
1687087911.262093,0.8945217728614807,0.27902543544769287,-0.3492495119571686,-0.16519767045974731,-0.08578822016716003,-0.2972196638584137,0.4188346266746521,0.7543548345565796,-0.2772412896156311,1.1985657326424397,-0.2827790963546481,-0.2829826291474949
1687087911.323036,0.9047219753265381,0.2876795530319214,-0.31419500708580017,-0.1873607039451599,-0.10469621419906616,-0.30956918001174927,0.3119889497756958,1.077857494354248,-0.3749118745326996,1.2365436131236658,-0.2918030873495096,-0.309325978058002
1687087911.348275,0.9165437817573547,0.3034211993217468,-0.26054316759109497,-0.17988020181655884,-0.136886864900589,-0.2033393681049347,-0.016042932868003845,1.3249603509902954,-0.4501343369483948,1.293835231920566,-0.3082810716746893,-0.3206751610939865
1687087911.388701,0.9252780675888062,0.32587307691574097,-0.19408035278320312,-0.1867833137512207,-0.13936492800712585,-0.1478692889213562,-0.30163195729255676,1.5296608209609985,-0.49023473262786865,1.3640401950791063,-0.331935053586914,-0.3251655722592075
1687087911.516504,0.9296332001686096,0.3527993857860565,-0.10636913776397705,-0.21427083015441895,-0.18299970030784607,-0.08709722012281418,-0.7770315408706665,1.7393975257873535,-0.5101368427276611,1.456871228985429,-0.36056119318982494,-0.2949458025815358
1687087911.56268,0.9239984750747681,0.382342129945755,-0.006412759888917208,-0.21879839897155762,-0.20370754599571228,-0.06748569011688232,-0.8960709571838379,1.878252387046814,-0.6618241667747498,1.563856210315256,-0.39232967320252937,-0.24821277937380448
1687087911.5752149,0.9037530422210693,0.4176642894744873,0.09373556822538376,-0.2506924271583557,-0.15196317434310913,-0.1116953045129776,-0.2518763840198517,1.8932735919952393,-0.9493566751480103,1.6741449131335575,-0.4308731424264011,-0.21311672844272375
1687087911.585515,0.8678449392318726,0.4597611725330353,0.1883193850517273,-0.33140718936920166,-0.23083367943763733,-0.01708546280860901,-0.5195503234863281,1.9820290803909302,-1.0564208030700684,1.7844800653804636,-0.47772624023973326,-0.1826153738741932
1687087911.608885,0.8166880011558533,0.506293535232544,0.2769243121147156,-0.3196178674697876,-0.1360849142074585,-0.10338643193244934,-0.10926027595996857,1.8705408573150635,-1.3564872741699219,1.8977118408015825,-0.5308812969580154,-0.1453537172769602
1687087911.655694,0.7459268569946289,0.5655040144920349,0.3518489897251129,-0.386491060256958,-0.17637455463409424,-0.040493667125701904,-0.06559658795595169,2.0300257205963135,-1.623909831047058,2.011543556671156,-0.6010442155660729,-0.11181343847347973
1687087911.723567,0.6527562141418457,0.6293417811393738,0.42170801758766174,-0.39683592319488525,-0.1227959394454956,-0.006089389324188232,0.24789807200431824,2.1628835201263428,-1.8812007904052734,2.1443841722006787,-0.6807059278159537,-0.06390123120984159
1687087911.8177161,0.5350130200386047,0.6932945847511292,0.48280787467956543,-0.40441304445266724,-0.0677759051322937,0.02324962615966797,0.1637324094772339,2.353841543197632,-2.080064296722412,2.3049483426859037,-0.7660506994150729,0.007281826478518374
1687087911.877939,0.39734387397766113,0.7442522048950195,0.5368485450744629,-0.42761731147766113,-0.04980951547622681,0.05766427516937256,-0.04044393450021744,2.5136587619781494,-2.153964042663574,2.5044308990735296,-0.8394144742522787,0.11577625506518804
1687087911.892593,0.23934172093868256,0.7870323657989502,0.5685902833938599,-0.41259002685546875,0.055237412452697754,0.11639159917831421,0.3481491208076477,2.4567646980285645,-2.357382297515869,2.7431669040188944,-0.9059836403084947,0.26405449336734405
1687087911.923139,0.07428807765245438,0.8063706159591675,0.5867262482643127,-0.4131552278995514,0.04378807544708252,0.1897018551826477,-0.24884459376335144,2.656369209289551,-2.3181910514831543,3.0156482609778474,-0.937989342072497,0.44845495852386547
1687087911.972085,-0.10106374323368073,0.8110509514808655,0.5761784911155701,-0.3768719732761383,0.18922346830368042,0.24706333875656128,0.5355762243270874,2.3867504596710205,-2.5075318813323975,-2.967955479511893,-0.9459464811239453,0.6588873463806357
1687087912.031886,-0.26193946599960327,0.7966490983963013,0.5447365641593933,-0.37065941095352173,0.066098153591156,0.27435505390167236,0.4889945089817047,2.0793864727020264,-2.5472917556762695,-2.693377800781356,-0.9217310060402906,0.8642076585525834
1687087912.121773,-0.41718819737434387,0.776180624961853,0.4727550745010376,-0.18889081478118896,0.2457614541053772,0.2829056978225708,1.2413400411605835,1.5234017372131348,-2.8032562732696533,-2.4185522095756022,-0.8885853968367429,1.0981906823740042
1687087912.181622,-0.5519461631774902,0.725245475769043,0.4115511178970337,-0.23903888463974,0.21381086111068726,0.37694674730300903,-0.08727759122848511,1.6949824094772339,-2.4391696453094482,-2.2114988327237857,-0.8113908910092632,1.2632984431824927
1687087912.195642,-0.660905122756958,0.6505283117294312,0.3741885721683502,-0.23849362134933472,0.3063808083534241,0.38241830468177795,-0.541782021522522,1.6374385356903076,-2.016202926635742,-2.085973789660866,-0.7082798853064919,1.3228278681782635
1687087912.233103,-0.7462834119796753,0.5753121376037598,0.3347780108451843,-0.1446617841720581,0.3693593144416809,0.3619685769081116,-0.48601916432380676,1.2708810567855835,-1.8026243448257446,-1.9924801134503016,-0.6129857316757765,1.3565707132002
1687087912.279078,-0.8094156384468079,0.4971800446510315,0.31250298023223877,-0.09353834390640259,0.20867621898651123,0.3177459239959717,-1.1040997505187988,1.0935367345809937,-1.5595661401748657,-1.9392494765065127,-0.5203456144790019,1.3454926886795433
1687087912.327837,-0.8612865209579468,0.41845932602882385,0.2882310748100281,-0.04783207178115845,0.29723894596099854,0.22302976250648499,-0.3730149567127228,0.9246143698692322,-1.6078510284423828,-1.8937330213883994,-0.43174832960117,1.3328721640632404
1687087912.4619598,-0.9005405902862549,0.3470705449581146,0.2618558406829834,0.037289977073669434,0.43157023191452026,0.25204479694366455,0.49378857016563416,0.29141852259635925,-1.5532878637313843,-1.8537696540239874,-0.35444565391146093,1.3550839518042512
1687087912.4774761,-0.9233317375183105,0.294547975063324,0.24637258052825928,0.05094122886657715,0.47890475392341614,0.07355830073356628,0.9918786883354187,-0.10408491641283035,-1.1355929374694824,-1.8315511788980474,-0.29898247892758345,1.4189620537444712
1687087912.509468,-0.9349568486213684,0.2621310353279114,0.2390451729297638,0.1501975655555725,0.22128263115882874,0.0991809219121933,0.3161963224411011,-0.00536889024078846,-0.5825721025466919,-1.8211090788408713,-0.2652297998389007,1.4715982937231828
1687087912.527011,-0.9382002949714661,0.24871020019054413,0.24067199230194092,0.10583353042602539,0.3577045798301697,0.03918921947479248,0.007420953828841448,-0.008020706474781036,-0.12241896986961365,-1.8219068291652276,-0.25134839172931556,1.469871250526574
1687087912.5691319,-0.9379730224609375,0.2485216110944748,0.24175092577934265,-0.0256500244140625,0.03680253028869629,0.0378357470035553,-0.22646945714950562,0.01785275712609291,0.06617647409439087,-1.8230440795888145,-0.25115367567284486,1.4681886194463751
1687087912.615303,-0.9378402829170227,0.24711823463439941,0.24369654059410095,0.01518714427947998,0.0458810031414032,-0.05865335464477539,0.0772072821855545,-0.08799926936626434,-0.08598966896533966,-1.8250226328201593,-0.24970511611203725,1.4701923938294676
1687087912.663923,-0.9386248588562012,0.24391485750675201,0.24390347301959991,-0.019794940948486328,-0.03801274299621582,0.01502278447151184,0.0143954548984766,0.007409755606204271,-0.08975695818662643,-1.825025683825608,-0.24640059193482736,1.4683215786122392
1687087912.772118,-0.9393702745437622,0.2412053346633911,0.24372771382331848,0.010857820510864258,0.04436290264129639,0.040711164474487305,0.017248764634132385,0.021074434742331505,-0.007610579952597618,-1.8246572179012692,-0.24360766013262433,1.4700627829819093
1687087912.77817,-0.9397048354148865,0.24135670065879822,0.2422836720943451,-0.005638003349304199,0.043036580085754395,0.008158683776855469,0.16044127941131592,-0.003624413162469864,-0.0049540321342647076,-1.8231302923167714,-0.24376364671924114,1.473751289757641
1687087912.8348122,-0.9388247728347778,0.2446417212486267,0.2424011081457138,0.011349856853485107,-0.01579037308692932,0.010543733835220337,-0.0017363252118229866,0.025820348411798477,0.0413421168923378,-1.8234741657184126,-0.24715017542567064,1.480010889618651
1687087912.8990068,-0.938690185546875,0.2465783655643463,0.24095550179481506,0.01705944538116455,0.011707186698913574,-0.012623190879821777,0.23864150047302246,-0.05970808118581772,-0.06198813393712044,-1.8220646055970566,-0.24914800332749212,1.4865545506652362
1687087912.948328,-0.9385477900505066,0.24634194374084473,0.24175018072128296,-0.026600897312164307,-0.04042460024356842,0.01658092439174652,-0.12384386360645294,0.053310293704271317,0.048271238803863525,-1.8228953170989743,-0.24890406837566945,1.4902910890792909
1687087913.026871,-0.938637375831604,0.24710604548454285,0.24062015116214752,0.015282511711120605,0.04177328944206238,-0.05939164757728577,0.11609651148319244,-0.0378195084631443,-0.021585628390312195,-1.8217429421761244,-0.2496925389735223,1.4907125867459607
1687087913.082398,-0.9386376142501831,0.2469850778579712,0.2407437115907669,-0.019736289978027344,-0.06909814476966858,0.01966261863708496,-0.2538091540336609,0.08450384438037872,0.08481267094612122,-1.821866384588262,-0.24956770704687997,1.4825986287596744
1687087913.087933,-0.9390320777893066,0.24763385951519012,0.23852892220020294,0.01618063449859619,0.027634650468826294,-0.041599154472351074,0.012784719467163086,-0.027408571913838387,-0.013301178812980652,-1.8195509198453332,-0.25023729077167134,1.4807634941296066
1687087913.132763,-0.9392657279968262,0.24592067301273346,0.23937971889972687,-0.027637779712677002,-0.08347561955451965,0.0414581298828125,-0.3737766742706299,0.1063944473862648,0.07285457104444504,-1.8203422944206302,-0.24846942185084722,1.4679569785649582
1687087913.185478,-0.9396073818206787,0.24397197365760803,0.24003161489963531,0.020982742309570312,0.06840592622756958,-0.08016541600227356,-0.4968615770339966,0.08612805604934692,0.07614794373512268,-1.8209066870997055,-0.24645948493070302,1.4551346828014944
1687087913.2414,-0.9400908350944519,0.24047425389289856,0.24166305363178253,-0.0036040544509887695,0.008793294429779053,-0.034998178482055664,-0.4507047235965729,0.09500916302204132,0.04154464974999428,-1.8224118727971537,-0.24285440698077992,1.423809265128184
1687087913.349694,-0.9405685067176819,0.23821395635604858,0.2420433759689331,-0.019575536251068115,-0.05498635768890381,0.08043578267097473,-0.5100843906402588,0.15653873980045319,0.09937568008899689,-1.822668688681752,-0.24052644456441716,1.3978717978245834
1687087913.35598,-0.9405585527420044,0.23922577500343323,0.24108153581619263,0.05965358018875122,0.10870516300201416,0.004600048065185547,-0.040858641266822815,0.006789026316255331,0.11672573536634445,-1.821711884208828,-0.24156840169427476,1.3856158076751077
1687087913.3998652,-0.9361542463302612,0.2531023323535919,0.24403691291809082,0.10398584604263306,0.2880048155784607,0.018200501799583435,-0.507735550403595,0.10645649582147598,0.693533182144165,-1.8258014540866954,-0.2558856670895604,1.3712271581352684
1687087913.466806,-0.9214158058166504,0.2982237637042999,0.249109148979187,0.07713180780410767,0.5205323696136475,0.3627834618091583,-1.2444334030151367,0.047706469893455505,1.678914189338684,-1.8348387868980351,-0.30283118480142934,1.3096333059490106
1687087913.492985,-0.8829120993614197,0.3705008625984192,0.2884354591369629,0.010078966617584229,0.6663185954093933,0.5201427936553955,-1.4088878631591797,-0.8889430165290833,2.2416980266571045,-1.886552849632633,-0.3795482054834072,1.2090701717880685
1687087913.534394,-0.8094629645347595,0.4539676308631897,0.3724013566970825,-0.06117284297943115,0.682918906211853,0.49608299136161804,-0.89591383934021,-1.9408881664276123,2.5790627002716064,-2.001984412601238,-0.47121322423384215,1.1022733438807317
1687087913.637298,-0.6928592324256897,0.5480713248252869,0.4685761034488678,-0.36671096086502075,0.6563506722450256,0.4006253480911255,-0.14292359352111816,-2.4134984016418457,2.927443742752075,-2.1654339733327213,-0.5800566374464726,0.9974523194527604
1687087913.642875,-0.5348232388496399,0.644300103187561,0.5466633439064026,-0.6683015823364258,0.5273000597953796,0.31849443912506104,-0.022411083802580833,-2.665127992630005,3.3091163635253906,-2.367142080046982,-0.7001077874817895,0.8736477595475305
1687087913.6950312,-0.34190624952316284,0.7211575508117676,0.6025207042694092,-0.8557407259941101,0.4118226170539856,0.2549315094947815,0.36048170924186707,-2.7047502994537354,3.4183175563812256,-2.625443508128716,-0.8054717936650281,0.6930730385786427
1687087913.750959,-0.12814480066299438,0.7719100117683411,0.6226824522018433,-0.9354690313339233,0.19227749109268188,0.22231853008270264,0.268324077129364,-2.6593270301818848,3.4875779151916504,-2.938631458443284,-0.8818401371823469,0.45447016188799905
1687087913.778002,0.08341046422719955,0.7880977392196655,0.6098722219467163,-0.9574338793754578,0.022525310516357422,0.13587027788162231,0.5713576078414917,-2.4182534217834473,3.2819082736968994,3.0056688493596333,-0.9077124917144332,0.18405491903578505
1687087913.82375,0.2790224850177765,0.7670990824699402,0.5776718258857727,-0.8967288732528687,-0.08141511678695679,0.20997130870819092,0.07642361521720886,-2.401191473007202,3.095555543899536,2.69162747162588,-0.8743069440745788,-0.06639926422418861
1687087913.9174361,0.45473143458366394,0.7244465947151184,0.5180696845054626,-0.8348126411437988,-0.05443328619003296,0.17582356929779053,0.6817396879196167,-2.3882691860198975,2.708390712738037,2.421211878302877,-0.8102312688173493,-0.2654563359898969
1687087913.974747,0.6018181443214417,0.6686941385269165,0.4366490840911865,-0.7253381609916687,-0.12342149019241333,0.2507895827293396,0.39203035831451416,-2.234450578689575,2.620070219039917,2.198464863414121,-0.7324511046223964,-0.42117496407220223
1687087913.990581,0.7303292155265808,0.5854178071022034,0.3520016372203827,-0.6185739040374756,-0.07992464303970337,0.23782673478126526,-0.13219335675239563,-2.453948736190796,2.517354726791382,2.0199215765578895,-0.6253953038154605,-0.5149859191735396
1687087914.026695,0.8325905799865723,0.48421651124954224,0.26893648505210876,-0.6137949824333191,-0.1479586958885193,0.19860777258872986,-0.9059444665908813,-2.42570161819458,2.2395739555358887,1.8832288226007992,-0.5054674678514233,-0.5383108628163726
1687087914.095807,0.9047808647155762,0.3809344172477722,0.190421000123024,-0.5873371958732605,-0.18392828106880188,0.06957338750362396,-1.4397746324539185,-2.349510669708252,1.8638795614242554,1.7782299149104444,-0.39080669758238046,-0.5030429031028941
1687087914.1499329,0.9492106437683105,0.29539787769317627,0.10834712535142899,-0.5026469230651855,-0.16885676980018616,-0.012995108962059021,-1.3118726015090942,-2.270569086074829,1.3157973289489746,1.6844488846078982,-0.29987196901663044,-0.441627469222794
1687087914.256818,0.9698112607002258,0.24355128407478333,0.012188692577183247,-0.43457889556884766,-0.1378842294216156,-0.13900470733642578,-0.6334764957427979,-2.2402048110961914,0.7169661521911621,1.5833637729071257,-0.24602571381007668,-0.39501965504476094
1687087914.2725968,0.9707074165344238,0.2210666686296463,-0.09410935640335083,-0.34920167922973633,-0.07922099530696869,-0.2636789083480835,0.2762853503227234,-2.069427490234375,0.24855828285217285,1.4741491240240974,-0.22290807012717953,-0.39149836919084435
1687087914.283516,0.9595139622688293,0.21152335405349731,-0.1859859675168991,-0.2829698920249939,-0.1357940435409546,-0.258380651473999,0.10260866582393646,-1.7674161195755005,0.14962996542453766,1.3793370491410262,-0.21313331598242394,-0.39473822937617753
1687087914.3251061,0.943030059337616,0.2053995430469513,-0.26173484325408936,-0.2197026014328003,-0.03703413903713226,-0.3351127803325653,0.30157700181007385,-1.2556228637695312,0.009922696277499199,1.3000640628430349,-0.20687194259088473,-0.408554704967589
1687087914.3773599,0.9302997589111328,0.20295828580856323,-0.30553215742111206,-0.16049408912658691,-0.184342622756958,-0.2056831419467926,-0.29437071084976196,-0.6984498500823975,0.12419246137142181,1.2534712589761383,-0.2043781435261394,-0.4040867482438112
1687087914.4735441,0.9212898015975952,0.20642440021038055,-0.32956597208976746,-0.12314856052398682,-0.05099846422672272,-0.1510860025882721,-0.1442144811153412,-0.5442186594009399,-0.05837258696556091,1.2272585089188797,-0.20791923702744253,-0.3874762344836726
1687087914.576108,0.9107383489608765,0.21266014873981476,-0.35402143001556396,-0.07074213027954102,-0.07018890976905823,-0.13779997825622559,-0.0779290422797203,-0.5358393788337708,-0.12202468514442444,1.2000524891636275,-0.21429658386927655,-0.38574107172389954
1687087914.5918689,0.9013779163360596,0.21880942583084106,-0.3736845552921295,-0.09177720546722412,0.03947603702545166,-0.19510215520858765,0.08531559258699417,0.024564720690250397,-0.025147560983896255,1.1777927539253552,-0.2205941584581858,-0.3913214554015102
1687087914.602699,0.9080954194068909,0.22157327830791473,-0.3553416430950165,-0.0629265308380127,-0.06376694142818451,-0.2295430600643158,-0.6876663565635681,0.15747979283332825,0.1196623146533966,1.1978086354279254,-0.22342756290071014,-0.37278102725510004
1687087914.634835,0.9076334238052368,0.22056132555007935,-0.3571470081806183,-0.002344965934753418,0.09560072422027588,-0.12405428290367126,0.4618171155452728,-0.1016087681055069,-0.11508139967918396,1.1959123424836884,-0.222389928430568,-0.3751820486971713
1687087914.6764212,0.9065076112747192,0.22132711112499237,-0.3595249652862549,-0.005064249038696289,-0.10375818610191345,0.05764496326446533,0.1418263167142868,0.104917511343956,-0.13171756267547607,1.1932205572299015,-0.2231751218971145,-0.3903259160544582
1687087914.7353458,0.9075161814689636,0.22496303915977478,-0.35469117760658264,-0.01525866985321045,-0.03608979284763336,0.0391850471496582,-0.01751651242375374,0.12517467141151428,-0.08125776797533035,1.1982137033250588,-0.22690510290916113,-0.3954751815418862
1687087914.844654,0.9091354608535767,0.22817383706569672,-0.3484383523464203,-0.040208637714385986,0.0030883103609085083,-0.10448843240737915,0.20216938853263855,0.18492238223552704,-0.1442330777645111,1.2048007758563406,-0.23020162833131882,-0.4006408243141282
1687087914.8616838,0.9108757972717285,0.23181560635566711,-0.34141865372657776,-0.09887945652008057,-0.0009654611349105835,-0.2995268702507019,0.643887460231781,0.4352825880050659,-0.3287052810192108,1.2121794563686525,-0.2339437210209207,-0.42641466298467784
1687087914.898704,0.9193293452262878,0.24052532017230988,-0.31141749024391174,-0.20869719982147217,-0.14238083362579346,-0.2953178882598877,0.05465094372630119,1.0834747552871704,-0.3049152195453644,1.2441839282945746,-0.24290702175944148,-0.45263037029487496
1687087914.9389791,0.9344196915626526,0.257516473531723,-0.24605847895145416,-0.17134308815002441,-0.1505219042301178,-0.1633807271718979,-0.5482610464096069,1.3644012212753296,-0.26062604784965515,1.3133139150321893,-0.26045111308835095,-0.4363680504574561
1687087914.973599,0.942844808101654,0.28004059195518494,-0.18061253428459167,-0.1868329644203186,-0.1004142165184021,-0.24852579832077026,0.040202442556619644,1.3247076272964478,-0.5790528059005737,1.381527950937337,-0.28383639970840363,-0.4282141789419723
1687087915.0216122,0.944237470626831,0.3116229474544525,-0.10633246600627899,-0.2805870771408081,-0.3042072355747223,-0.11388254165649414,-0.6942172050476074,1.7279748916625977,-0.6528902053833008,1.4586567710853378,-0.3169005511211949,-0.4208586371357504
1687087915.126771,0.9378024935722351,0.3471687138080597,0.0004968378925696015,-0.3034335970878601,-0.28740009665489197,-0.12384903430938721,-1.3588579893112183,2.032686233520508,-0.7377327680587769,1.5713261161942793,-0.3545503423155673,-0.36850243667124494
1687087915.1761851,0.9164857864379883,0.3782599866390228,0.13028129935264587,-0.3343477249145508,-0.2754768133163452,-0.03752325475215912,-1.5179126262664795,2.2623047828674316,-0.8408472537994385,1.7120033565322097,-0.38791590095661765,-0.2827198102636699
1687087915.190198,0.8752017617225647,0.4157925844192505,0.24726083874702454,-0.3524510860443115,-0.14595630764961243,-0.10715486109256744,-0.4286775290966034,2.0101823806762695,-1.267354130744934,1.846139057764863,-0.4288141311104413,-0.21843619745441753
1687087915.223652,0.815377950668335,0.4689542055130005,0.33947062492370605,-0.422510027885437,-0.27745652198791504,-0.054940223693847656,-0.24422769248485565,2.0336427688598633,-1.5671066045761108,1.9653050476560554,-0.4881063538056344,-0.17240093338249632
1687087915.277907,0.7295460104942322,0.5416016578674316,0.4176478385925293,-0.47544151544570923,-0.21625393629074097,-0.09971597790718079,0.19475781917572021,2.166923761367798,-2.0267820358276367,2.0907319531033908,-0.5723412538742797,-0.13074702171384037
1687087915.339468,0.6143540740013123,0.6179243326187134,0.4906504452228546,-0.5804644227027893,-0.2012222409248352,-0.02222120761871338,0.15270283818244934,2.478760242462158,-2.3195040225982666,2.2447101402393126,-0.6660999798541153,-0.0627244007892729
1687087915.480622,0.46331995725631714,0.6932570934295654,0.5520225763320923,-0.5351430773735046,-0.0970962643623352,-0.01939946413040161,0.251817911863327,2.66471529006958,-2.677508592605591,2.443335490179186,-0.7659987049805717,0.039911255155972325
1687087915.4975638,0.2784964144229889,0.7508982419967651,0.5988246202468872,-0.688408613204956,-0.06518369913101196,0.07892465591430664,0.287770539522171,3.011911153793335,-3.0371134281158447,2.7062760060954436,-0.8494211095307214,0.20646611310977797
1687087915.5085979,0.06570173799991608,0.7873799204826355,0.6129564642906189,-0.6156132221221924,0.055851101875305176,0.204548180103302,0.22271910309791565,3.057074785232544,-3.188713550567627,3.034812094766851,-0.9065472439206774,0.43511594463518033
1687087915.530151,-0.15563206374645233,0.7919256687164307,0.5904509425163269,-0.6134108901023865,0.1934106945991516,0.36567986011505127,0.675137460231781,2.799119472503662,-3.3491361141204834,-2.883872642201821,-0.9139562606307118,0.7045610124906491
1687087915.574944,-0.3565889894962311,0.7682068347930908,0.531697690486908,-0.4570401608943939,0.27453309297561646,0.4075568914413452,0.684996485710144,2.166598081588745,-3.3941431045532227,-2.5508297212468514,-0.8760355232640266,0.9742234408179409
1687087915.621654,-0.5363417267799377,0.7129054665565491,0.4517778158187866,-0.4346359968185425,0.49601781368255615,0.48402833938598633,1.075320839881897,1.8503673076629639,-3.4336440563201904,-2.270821860164401,-0.7936327399194446,1.2112276249006324
1687087915.724411,-0.6791292428970337,0.6291212439537048,0.3781397044658661,-0.28348660469055176,0.5180039405822754,0.5817142724990845,0.3388392925262451,1.3581463098526,-2.9382848739624023,-2.078845865196804,-0.6804221798502017,1.3747133376154892
1687087915.786639,-0.7728762030601501,0.5365540981292725,0.3387794494628906,-0.10720473527908325,0.5692044496536255,0.5778768062591553,-0.5583383440971375,0.8971548080444336,-2.123845100402832,-1.983908206952863,-0.5663483081343014,1.4430361375060998
1687087915.792307,-0.8297598361968994,0.44928258657455444,0.3311244547367096,-0.04238659143447876,0.46122458577156067,0.4601961076259613,-0.6952462196350098,0.357680082321167,-1.7237069606781006,-1.9504926114322458,-0.46596213798914454,1.4458311439365767
1687087915.848073,-0.8643844127655029,0.3705936372280121,0.33985212445259094,0.040638864040374756,0.473415732383728,0.23038384318351746,-0.016533486545085907,-0.3904954493045807,-1.6644904613494873,-1.945403070458515,-0.37964809555145346,1.463144407585474
1687087915.9023151,-0.8817287087440491,0.30927690863609314,0.35623282194137573,0.0861966609954834,0.6624943017959595,0.024412721395492554,2.0350308418273926,-0.8977456092834473,-1.7965952157974243,-1.9547602987938988,-0.3144325827329596,1.5355688452773772
1687087915.95367,-0.8855370283126831,0.2940516471862793,0.35966333746910095,0.1627587080001831,0.7545475959777832,-0.040220707654953,3.168519973754883,-0.8886202573776245,-0.816378653049469,-1.9565955564284907,-0.2984631473005861,1.7060798134248736
1687087916.043302,-0.8784573674201965,0.31976914405822754,0.35504940152168274,-0.008597016334533691,0.09272170066833496,-0.06792494654655457,0.09403659403324127,-0.07239101827144623,0.28732767701148987,-1.954895575094032,-0.32548584404522246,1.7874424858446705
1687087916.0597072,-0.8718493580818176,0.3330795168876648,0.3590777516365051,0.015175104141235352,0.01604163646697998,0.05145987868309021,0.04515177011489868,0.03567468374967575,0.38525068759918213,-1.9614827672137736,-0.33956771396418667,1.7651651498736405
1687087916.110174,-0.8701537847518921,0.35319244861602783,0.34363800287246704,0.03389596939086914,0.06076321005821228,0.08098340034484863,2.093397855758667,-0.15619227290153503,-0.37608933448791504,-1.9469126431177055,-0.36098129090933834,1.8127102191688864
1687087916.139574,-0.8796651363372803,0.37403160333633423,0.29374995827674866,0.022228240966796875,0.002936720848083496,0.07874736189842224,4.588949203491211,-0.41706085205078125,-1.103743314743042,-1.8930872550027291,-0.38335236247603965,1.9991946348052798
1687087916.1813169,-0.8964617252349854,0.38372093439102173,0.221618190407753,0.0064165592193603516,-0.06563618779182434,0.1764834225177765,5.356459140777588,-0.7051587104797363,-1.3439944982528687,-1.8131514688496138,-0.39382231281316815,2.2847121767137537
1687087916.229416,-0.9122997522354126,0.37686437368392944,0.16025663912296295,0.010413885116577148,-0.12169170379638672,0.23689889907836914,4.524697303771973,-0.8071844577789307,-1.0330452919006348,-1.7446845069538894,-0.3864087433963684,2.5664833636193363
1687087916.3228478,-0.9212623834609985,0.36698436737060547,0.12883226573467255,0.016935110092163086,-0.10052019357681274,0.17879998683929443,2.886925458908081,-0.7824947237968445,-0.5842142105102539,-1.7097384556943582,-0.3757651171794714,2.7719167581786346
1687087916.383034,-0.9228131771087646,0.3652811050415039,0.12241388857364655,0.021446168422698975,-0.07548627257347107,0.05498456209897995,2.7597482204437256,-1.0122945308685303,-0.21259233355522156,-1.702679298172283,-0.37393477027080113,2.9047932151548927
1687087916.388197,-0.9238355755805969,0.3655732274055481,0.11350739747285843,-0.059684932231903076,-0.013552993535995483,-0.30419671535491943,2.456266164779663,-0.738483726978302,-0.41158705949783325,-1.6930489863474496,-0.37424859483095174,3.051275064960189
1687087916.4838672,-0.9271131157875061,0.36015963554382324,0.1036638468503952,-0.036891281604766846,-0.09987524151802063,-0.07415354251861572,0.7906884551048279,-0.2237044721841812,-0.21049995720386505,-1.6821474064875621,-0.3684389923172181,-3.1369132270526223
1687087916.520751,-0.9295666813850403,0.35347846150398254,0.10468393564224243,0.003678619861602783,-0.15520575642585754,0.022238507866859436,-0.4748069941997528,0.12474038451910019,-0.10164697468280792,-1.6829396870470583,-0.3612870100884985,-3.137772854200427
1687087916.547141,-0.9310876131057739,0.34955716133117676,0.10433264821767807,0.04075270891189575,-0.06325656175613403,0.0663977786898613,-0.3083033561706543,0.10251065343618393,-0.009281580336391926,-1.6823854366745712,-0.35709840910608337,3.1273604542336253
1687087916.625941,-0.933052659034729,0.3436148464679718,0.10649652779102325,-0.003165602684020996,-0.0438711941242218,0.08957876265048981,-0.14409731328487396,-0.031501851975917816,-0.19879399240016937,-1.6844422733691158,-0.3507634117465901,3.1139609327371645
1687087916.687039,-0.9365552067756653,0.331447571516037,0.11404619365930557,-0.04125833511352539,-0.024135619401931763,0.04571305960416794,-0.14598298072814941,-0.1661411076784134,-0.27292025089263916,-1.6919717191052068,-0.3378374709649839,3.1084078812656046
1687087916.7408152,-0.9396047592163086,0.3200356960296631,0.12132486701011658,-0.03169327974319458,0.05365198850631714,-0.026216991245746613,0.11208531260490417,-0.06554711610078812,-0.18433670699596405,-1.6992091049209768,-0.3257671767495119,3.1065759996855156
1687087916.755849,-0.9424187541007996,0.3120028078556061,0.12041998654603958,0.003988027572631836,0.04456454515457153,-0.059140920639038086,0.20638176798820496,-0.06143370270729065,-0.20108015835285187,-1.6978852269978044,-0.3173003399121389,3.1185592658722205
1687087916.782471,-0.9446514844894409,0.3050170838832855,0.12082269042730331,0.024927973747253418,0.02039182186126709,-0.013507828116416931,0.16862305998802185,-0.07787307351827621,-0.12619200348854065,-1.6980075242789388,-0.30995637100941914,3.1292617983435354
1687087916.8324761,-0.9454854130744934,0.3022218942642212,0.12132128328084946,0.007405757904052734,0.020501434803009033,0.02331661432981491,0.12588778138160706,-0.08730535954236984,-0.05635945498943329,-1.698415354367523,-0.307022672923672,3.1375872910448663
