Timestamp,gravityX,gravityY,gravityZ,accelerationX,accelerationY,accelerationZ,rotationRateX,rotationRateY,rotationRateZ,attitudeRoll,attitudePitch,attitudeYaw
1687087978.237059,-0.9549171328544617,0.2308821976184845,0.18661810457706451,0.002539992332458496,-0.0004592388868331909,0.002895832061767578,-0.06146447733044624,-0.012432819232344627,-0.0005102148279547691,-1.7637924494703987,-0.23298428167303717,0.9077354080668046
1687087978.339806,-0.9549334049224854,0.22991186380386353,0.1877296268939972,0.005485951900482178,-0.007408201694488525,-0.008362770080566406,-0.04856673628091812,-0.012388450093567371,-0.04019715264439583,-1.7649101593594296,-0.2319871134192627,0.9057981632365832
1687087978.3457952,-0.9551798701286316,0.2279745638370514,0.1888354867696762,-0.002492189407348633,0.005988463759422302,-0.004356831312179565,-0.05109487473964691,0.014620796777307987,-0.026527103036642075,-1.7659757619388845,-0.22999696742430822,0.9032269359065331
1687087978.350854,-0.9555622339248657,0.22617961466312408,0.18905869126319885,0.014110386371612549,0.018601879477500916,-0.0032982826232910156,-0.013264136388897896,-0.026331694796681404,-0.02275582030415535,-1.7661244338012407,-0.22815386086499906,0.9021256880341197
1687087978.3892078,-0.9555609226226807,0.22557403147220612,0.1897878795862198,-0.0006768107414245605,-0.002002239227294922,0.009354382753372192,-0.06407613307237625,0.002005296293646097,0.008708339184522629,-1.7668589423176657,-0.22753222103241197,0.9007015706663901
1687087978.418771,-0.9551335573196411,0.22600145637989044,0.19142253696918488,0.00046771764755249023,-0.0021855980157852173,-0.007935792207717896,-0.11052853614091873,-0.01709606684744358,0.014095825143158436,-1.7685903331882216,-0.2279709675022572,0.8953711196623604
1687087978.512583,-0.9548132419586182,0.2256486862897873,0.19342674314975739,0.004114627838134766,0.006483227014541626,0.00641748309135437,-0.08881428837776184,0.012180009856820107,0.016443267464637756,-1.7706720984124298,-0.2276088481141232,0.8900421177733211
1687087978.60303,-0.9551109671592712,0.22550669312477112,0.19211797416210175,0.004793822765350342,0.004778921604156494,0.005513772368431091,-0.032611310482025146,0.029237236827611923,0.0018678770866245031,-1.7692947940796775,-0.2274631019490029,0.8865007759028327
1687087978.608983,-0.9548678994178772,0.22617630660533905,0.19253988564014435,0.0032687783241271973,0.008748024702072144,-0.001286238431930542,-0.045420899987220764,0.018309326842427254,0.01684853434562683,-1.7697686266772685,-0.2281504720662484,0.8839954448645152
1687087978.706071,-0.9547691345214844,0.22590534389019012,0.19334575533866882,-0.001041412353515625,-0.006148248910903931,-0.006013721227645874,0.011358118616044521,-0.021628553047776222,-0.026547875255346298,-1.7705996115812856,-0.22787230870847675,0.882966628132929
1687087978.726548,-0.9549714922904968,0.22559182345867157,0.19270986318588257,-0.004683971405029297,0.005426183342933655,0.012871593236923218,0.05797499418258667,0.025008508935570717,-0.010730805806815624,-1.7699186519554955,-0.22755047914586174,0.8854187046557589
1687087978.7605128,-0.9552819132804871,0.22595004737377167,0.19074268639087677,0.006490528583526611,-0.0041940659284591675,-0.008964896202087402,0.054871294647455215,0.01449046190828085,0.002111156703904271,-1.7678761219899102,-0.22791819470397956,0.8883145048211389
1687087978.794684,-0.9551206827163696,0.22614166140556335,0.19132158160209656,0.00039374828338623047,-0.002310514450073242,-0.01367880403995514,0.054475124925374985,-0.002837076084688306,-0.015609117224812508,-1.7684913176906674,-0.2281148974543725,0.8910851996497985
1687087978.8459802,-0.9552504420280457,0.22637832164764404,0.1903924196958542,0.0012557506561279297,-0.007063716650009155,0.00017443299293518066,0.02479690872132778,0.016860356554389,0.0041862474754452705,-1.7675297921342252,-0.22835786049659645,0.8931868338814447
1687087978.941659,-0.9555392861366272,0.22622454166412354,0.18912042677402496,0.005267977714538574,-0.0025917738676071167,-0.003375440835952759,0.052215270698070526,-0.011094153858721256,-0.024702303111553192,-1.7661911794876495,-0.22819998211967674,0.8955251105923655
1687087978.948417,-0.9555515646934509,0.2260684072971344,0.18924522399902344,-0.01226741075515747,0.007650434970855713,0.002008303999900818,0.024895180016756058,0.009044511243700981,0.002929146634414792,-1.766314413230489,-0.2280397004283926,0.8980806865396083
1687087978.9905338,-0.9555974006652832,0.22634734213352203,0.18867987394332886,0.0018774867057800293,0.007096841931343079,-0.007497087121009827,0.040492888540029526,-0.016393151134252548,-0.0069886427372694016,-1.7657359010965965,-0.2283260496251613,0.8995883886838048
1687087979.05423,-0.9556041359901428,0.22657251358032227,0.1883753389120102,0.0053174495697021484,-0.0028329193592071533,0.0036411136388778687,0.0591827929019928,-0.010421492159366608,-0.0065972465090453625,-1.7654278313084106,-0.22855723265851385,0.902336894779039
1687087979.134009,-0.955583930015564,0.226859450340271,0.18813224136829376,-0.000333249568939209,0.005257248878479004,0.0013054609298706055,0.029446253553032875,0.006285208743065596,0.0024451841600239277,-1.7651869388014756,-0.22885184372610642,0.9051667800899811
1687087979.147503,-0.9557531476020813,0.22658024728298187,0.1876077502965927,-0.005504488945007324,-0.001299545168876648,-0.006913334131240845,0.02100435458123684,0.02206380106508732,-0.00962637085467577,-1.764625035887094,-0.22856517948755192,0.9059615134727196
1687087979.2179198,-0.9558262825012207,0.2257937490940094,0.1881830096244812,0.0022895336151123047,0.003286421298980713,-0.0003168731927871704,0.05815150588750839,-0.015262373723089695,-0.020613329485058784,-1.7651900225373693,-0.22775774694939083,0.9081457988835734
1687087979.2507,-0.9561530351638794,0.2256225049495697,0.1867225021123886,-0.009071886539459229,0.005242928862571716,-0.0008553564548492432,0.08601099252700806,0.025435468181967735,-0.013368289917707443,-1.763654304377853,-0.22758196691215374,0.9118725193061296
1687087979.285462,-0.9562329649925232,0.2255476862192154,0.1864035278558731,-0.002934277057647705,-0.004737764596939087,-0.0077386051416397095,0.06874790787696838,-0.0058956630527973175,-0.026464737951755524,-1.7633172404741784,-0.2275051669961165,0.9161732966867322
1687087979.338485,-0.9563878774642944,0.2246866673231125,0.1866486668586731,0.007550835609436035,-0.0050974637269973755,-0.010653868317604065,0.03305686265230179,-0.010315924882888794,-0.023165635764598846,-1.7635337516547942,-0.22662146944403483,0.91877902123672
1687087979.405764,-0.956803560256958,0.22395527362823486,0.18539288640022278,-0.004881381988525391,-0.006395474076271057,0.001389726996421814,0.005055428482592106,0.010043462738394737,-0.014316640794277191,-1.7621873904017276,-0.22587094291020668,0.9199447296701614
1687087979.493427,-0.9572373032569885,0.22327135503292084,0.1839735507965088,0.0031359195709228516,-0.0006761550903320312,-1.3709068298339844e-05,0.020173607394099236,0.014049230143427849,-0.007941344752907753,-1.7606732487626182,-0.22516926889723596,0.9205708116550693
1687087979.556433,-0.9572736024856567,0.22284451127052307,0.18430231511592865,0.002607583999633789,-0.003880903124809265,-0.0005561113357543945,-0.037061505019664764,0.006215380970388651,-0.0012432499788701534,-1.760997395767768,-0.22473138962849706,0.9197516241371494
1687087979.561966,-0.9573183059692383,0.2225058525800705,0.18447811901569366,0.002316772937774658,-0.001695975661277771,0.004135578870773315,-0.06583360582590103,-0.01406038273125887,-0.0019777053967118263,-1.761165806754756,-0.22438400241107537,0.9172492210017752
1687087979.576981,-0.9573222398757935,0.22206436097621918,0.18498896062374115,-0.012114107608795166,-0.002063170075416565,0.011788234114646912,-0.08719572424888611,0.041631054133176804,0.017581237480044365,-1.761679496902503,-0.2239311838288767,0.9136066284595483
1687087979.6311111,-0.9574101567268372,0.22191296517848969,0.18471544981002808,0.005445122718811035,0.0020707398653030396,0.00023612380027770996,-0.09770674258470535,0.006884367670863867,0.01199558936059475,-1.761386982398403,-0.22377592125133663,0.9079600432137241
1687087979.720393,-0.9571219682693481,0.22187085449695587,0.18625345826148987,-0.0002294778823852539,-0.0006642192602157593,0.005869731307029724,-0.06427022814750671,-0.022044753655791283,0.009426282718777657,-1.7629917350552933,-0.2237327234085079,0.9040032918754827
1687087979.7969131,-0.956871509552002,0.222421795129776,0.18688292801380157,-0.007483839988708496,-0.007349178194999695,0.0020818710327148438,-0.10313069820404053,0.03345957025885582,0.03200405091047287,-1.7636745618273866,-0.22429778107293222,0.8997015963553954
1687087979.83468,-0.9566729664802551,0.22265176475048065,0.18762432038784027,0.0013507604598999023,-0.006205826997756958,-0.011522740125656128,-0.08162609487771988,-0.010464156046509743,0.007601086050271988,-1.7644599732126842,-0.22453366703357625,0.8940448353810386
1687087979.8637462,-0.9565618634223938,0.2221354842185974,0.1887984573841095,0.001331329345703125,-0.0010356605052947998,-0.004426732659339905,-0.07081931084394455,0.006467529572546482,0.007692454382777214,-1.7656636232050256,-0.2240041309999526,0.8901562114538093
1687087979.927281,-0.9567176103591919,0.22212204337120056,0.18802422285079956,0.00192946195602417,0.023132488131523132,0.002176433801651001,-0.1051337718963623,0.03092179074883461,0.03977490961551666,-1.7648536421123573,-0.2239903493928516,0.8854851180255185
1687087979.980897,-0.9565463066101074,0.22305913269519806,0.18778552114963531,0.002628028392791748,0.014153987169265747,0.009174808859825134,-0.04221882298588753,0.009311784990131855,0.0331696942448616,-1.7646472588809028,-0.22495155138729375,0.8814434113158346
1687087980.040206,-0.9560773372650146,0.22376477718353271,0.18932725489139557,-0.005714356899261475,0.0034995973110198975,0.0018346011638641357,-0.022589992731809616,-0.0037163984961807728,0.015041292645037174,-1.7662921695546938,-0.22567548596796153,0.8802599062351055
1687087980.046238,-0.9559127688407898,0.22440971434116364,0.18939462304115295,0.006633341312408447,0.0037854164838790894,-0.0026578158140182495,-0.035805560648441315,0.006371708586812019,0.007752597332000732,-1.7663927957990186,-0.226337263047792,0.8788661109514836
1687087980.165176,-0.9558610320091248,0.22451774775981903,0.1895296573638916,0.002613961696624756,0.0032655000686645508,-0.00015291571617126465,-0.05826506018638611,0.0051724873483181,0.01927822455763817,-1.766539045721771,-0.22644811372716553,0.8759853802943938
1687087980.1784801,-0.955733060836792,0.22475482523441315,0.1898927539587021,-0.007752478122711182,-0.007500201463699341,0.006167292594909668,-0.020378079265356064,-0.02446300908923149,0.0051450300961732864,-1.766930097512724,-0.22669141850607372,0.8750029682171472
1687087980.215143,-0.9557167887687683,0.22478903830051422,0.18993431329727173,0.0032022595405578613,6.447732448577881e-05,-0.0036094188690185547,-0.03773017227649689,0.01838219165802002,0.0065244585275650024,-1.7669751886758802,-0.22672653246227154,0.872584907678116
1687087980.231534,-0.955781877040863,0.22450995445251465,0.18993651866912842,0.0003072023391723633,-0.0014264881610870361,0.004872187972068787,0.045394379645586014,-0.014803404919803143,-0.009981947019696236,-1.7669643828043755,-0.22644013113205091,0.8731671436422482
1687087980.282001,-0.9557960629463196,0.22425362467765808,0.1901685893535614,-0.0017539262771606445,-0.004786446690559387,0.007768422365188599,0.03486024588346481,-0.006707394495606422,-0.012423865497112274,-1.7671951100035252,-0.2261770824190418,0.8755682695687815
1687087980.342493,-0.955718994140625,0.22452697157859802,0.1902332305908203,0.005584776401519775,0.004965260624885559,-7.829070091247559e-05,0.07025648653507233,0.00047083618119359016,-0.00922734010964632,-1.7672756041733004,-0.22645758192727589,0.8776216690826154
1687087980.4258518,-0.9555304050445557,0.22482402622699738,0.19082798063755035,-0.00633770227432251,-0.004487141966819763,0.004743680357933044,0.00325230835005641,0.01566890999674797,0.01018228754401207,-1.767912025586958,-0.2267624354451613,0.8790658258072883
1687087980.4716249,-0.9553632140159607,0.2256302684545517,0.19071361422538757,0.0035353899002075195,0.010850444436073303,-0.0010012388229370117,0.07804735004901886,0.0047903768718242645,0.010858243331313133,-1.767830511831129,-0.22758994000446323,0.8812870427980607
1687087980.528889,-0.9550225734710693,0.22722937166690826,0.1905210167169571,0.020879745483398438,0.015995696187019348,0.001419171690940857,0.028718627989292145,0.008171632885932922,0.06962847709655762,-1.7677050420753828,-0.22923168430183022,0.8835549691292609
1687087980.541647,-0.9531175494194031,0.23641854524612427,0.1888727843761444,0.029457449913024902,0.08523671329021454,-0.008132576942443848,0.04598688334226608,0.06320974230766296,0.2959761321544647,-1.7664250741909036,-0.23867824063847273,0.8847416351460763
1687087980.5815291,-0.949420690536499,0.2545728385448456,0.18382790684700012,0.027805209159851074,0.21202564239501953,0.009744882583618164,-0.4848451018333435,0.26732543110847473,0.6487030982971191,-1.7620509050910091,-0.2574059658426424,0.8685203508897548
1687087980.7199988,-0.939404308795929,0.29377320408821106,0.17668254673480988,-0.005816519260406494,0.48369258642196655,0.05178713798522949,0.18092083930969238,0.10903560370206833,1.123091459274292,-1.756703879924113,-0.29817185061647566,0.8458925180892454
1687087980.768608,-0.9153870940208435,0.3634467124938965,0.1731254756450653,-0.026537716388702393,0.5842460989952087,0.12332223355770111,-0.3643224537372589,-0.010437631979584694,1.8168346881866455,-1.7577166722957522,-0.37196494727868407,0.8375706337638514
1687087980.774211,-0.870589017868042,0.45128053426742554,0.19601082801818848,-0.02549844980239868,0.6329784393310547,0.16519510746002197,-0.8464142084121704,-0.3634764850139618,2.446027994155884,-1.7922510318341982,-0.46819977166562055,0.7724292260124739
1687087980.79914,-0.7953157424926758,0.5619997382164001,0.22721953690052032,-0.23852801322937012,0.6289333701133728,0.12332043051719666,0.0968584269285202,-0.6988851428031921,3.0089869499206543,-1.8490802430713749,-0.5968015004330174,0.7167987856012393
1687087980.8427901,-0.6878622174263,0.6782151460647583,0.2585906386375427,-0.42367929220199585,0.4333721995353699,0.18772870302200317,-0.055579159408807755,-0.8884543180465698,3.255159378051758,-1.9303853985448771,-0.745331092811657,0.6509920173812821
1687087980.890326,-0.5507208108901978,0.7858685851097107,0.2812767028808594,-0.5541831254959106,0.29887855052948,0.1505163311958313,0.499030739068985,-1.086256980895996,3.454926013946533,-2.0430012159813757,-0.9040994521446144,0.5656036948710194
1687087980.958037,-0.3899596929550171,0.8747431635856628,0.2876724898815155,-0.6461730003356934,0.16792023181915283,0.15147531032562256,0.6009677648544312,-1.1814286708831787,3.424344301223755,-2.206377559202062,-1.0649055900720585,0.43849670881563185
1687087981.0619779,-0.21858446300029755,0.9394474625587463,0.26392999291419983,-0.6864447593688965,0.02467900514602661,0.10048031806945801,0.9007023572921753,-1.0662754774093628,3.3975296020507812,-2.449896830950608,-1.2210144563020022,0.23371007594768306
1687087981.075635,-0.04434215649962425,0.9667689204216003,0.2517763078212738,-0.6619871854782104,-0.04126244783401489,0.14383816719055176,0.10843203961849213,-0.9897727966308594,3.3342599868774414,-2.9672631263682003,-1.3122744321237545,-0.2552380632228355
1687087981.0927339,0.12649857997894287,0.9636887907981873,0.23516307771205902,-0.6198610067367554,-0.03664124011993408,0.09544895589351654,0.48789799213409424,-1.1298524141311646,3.14707350730896,2.648072315382626,-1.3004886801035538,-0.8915337163429679
1687087981.141453,0.28377798199653625,0.9374227523803711,0.20176242291927338,-0.5751751661300659,-0.03713923692703247,0.10081920027732849,0.3843974769115448,-1.0507936477661133,2.966806173324585,2.1888580209569666,-1.2151531913191038,-1.3140965097758066
1687087981.189508,0.4263639450073242,0.888593316078186,0.16916149854660034,-0.5237913131713867,-0.047086477279663086,0.12537884712219238,0.26929089426994324,-0.998512327671051,2.834851026535034,1.94850109432819,-1.0942692873224051,-1.5217706427976059
1687087981.25071,0.5540958642959595,0.8209789395332336,0.13773447275161743,-0.4821813106536865,-0.08971697092056274,0.08904145658016205,-0.009643729776144028,-1.0997980833053589,2.771831750869751,1.8144335075088347,-0.963123507806205,-1.6162359570022564
1687087981.363323,0.6687230467796326,0.7361683249473572,0.10423724353313446,-0.4034338593482971,-0.0877310037612915,0.04832004755735397,-0.07472643256187439,-1.2738453149795532,2.7420787811279297,1.7254270413989838,-0.827391286845161,-1.6557472091394094
1687087981.3768601,0.7705934047698975,0.6349438428878784,0.05506209656596184,-0.4262484312057495,-0.06273937225341797,0.041144371032714844,-0.008599823340773582,-1.5597654581069946,2.8924150466918945,1.6421292359006623,-0.687935814489657,-1.6722246437604613
1687087981.394598,0.8593498468399048,0.5112963318824768,-0.009687718003988266,-0.4715019464492798,-0.03528320789337158,0.04997074604034424,-0.28973492980003357,-1.752689242362976,3.1664822101593018,1.5595234927630306,-0.5366925363466397,-1.672590842409095
1687087981.441618,0.9277401566505432,0.36313799023628235,-0.0861915573477745,-0.5239925980567932,0.08565345406532288,0.07755493372678757,-0.2305465042591095,-1.9972927570343018,3.491453170776367,1.4781574015107728,-0.3716335915565238,-1.643118388657079
1687087981.4943209,0.9641878008842468,0.18815693259239197,-0.18691857159137726,-0.5310825109481812,0.21014317870140076,0.07324051856994629,0.4062240421772003,-2.190861940383911,3.81501841545105,1.3793103960941175,-0.18928522978441828,-1.6220592395887665
1687087981.605757,0.9546521306037903,-0.01052769087255001,-0.29753735661506653,-0.43498361110687256,0.28971773386001587,0.15700379014015198,0.9309536218643188,-2.32539963722229,4.055968761444092,1.2686669163139013,0.010527885461432098,-1.6068835436362354
1687087981.692503,0.8893517255783081,-0.22735565900802612,-0.39668983221054077,-0.39412784576416016,0.3146054148674011,0.15624180436134338,1.7415131330490112,-2.2259910106658936,4.316442966461182,1.1512372159419155,0.2293613607056355,-1.5934484337710395
1687087981.705872,0.7709161639213562,-0.45450401306152344,-0.44622212648391724,-0.30088454484939575,0.2353878617286682,0.09241652488708496,2.077045202255249,-1.774233102798462,4.501641273498535,1.0460955259092797,0.471815325084039,-1.5812271239792839
1687087981.71168,0.6083014011383057,-0.6497814059257507,-0.45579975843429565,-0.3466743230819702,0.05244565010070801,0.17366468906402588,1.3621183633804321,-1.4353535175323486,4.487537860870361,0.9277438960335899,0.7072968309003138,-1.5138300458319367
1687087981.732564,0.42239975929260254,-0.8026108145713806,-0.42118170857429504,-0.3549560010433197,-0.08426034450531006,0.06119629740715027,2.426151752471924,-1.3792370557785034,4.005848407745361,0.786842055753063,0.9316592942106554,-1.4176024952739081
1687087981.822582,0.23877505958080292,-0.9144477844238281,-0.3267592191696167,-0.3124293088912964,-0.19004428386688232,0.10100540518760681,3.074953079223633,-1.4368621110916138,3.1733856201171875,0.6310584068461337,1.1541412471007158,-1.3190761837310927
1687087981.908585,0.09361530095338821,-0.9781312346458435,-0.18572938442230225,-0.2631557583808899,-0.3553495407104492,0.12397699058055878,3.314075469970703,-1.5375728607177734,2.102947473526001,0.46687550635980746,1.3612781799653997,-1.2264282405394267
1687087981.9221702,0.011842142790555954,-0.9982554912567139,-0.05784032866358757,-0.20794811844825745,-0.5562182664871216,0.161676287651062,1.4295554161071777,-0.8025839924812317,0.7145956158638,0.2019476410180675,1.5117197470396222,-1.0315159189689826
1687087981.9689941,0.019181663170456886,-0.9986428618431091,-0.048418741673231125,-0.13134902715682983,-0.6240224838256836,-0.41135919094085693,0.4560149908065796,-0.47869741916656494,-0.7666645646095276,0.37719335815750243,1.5186919383304658,-1.232133640286227
1687087982.0232658,0.03298341855406761,-0.9994540810585022,-0.0018024046439677477,0.09805905818939209,0.1365392804145813,0.041414082050323486,0.9501941800117493,-0.24882793426513672,0.147640198469162,1.5162048429469377,1.5377515365116268,-2.3933945163311634
1687087982.069649,0.02259204350411892,-0.999610424041748,0.01638675294816494,0.01575327105820179,0.03563642501831055,-0.04780471324920654,0.3515781760215759,0.0811811313033104,0.1746356338262558,2.1983226988594144,1.5428811785751742,-3.080634631707549
1687087982.137364,0.019425202161073685,-0.9990954995155334,0.03782528266310692,-0.06334003806114197,-0.09222829341888428,-0.0004870854318141937,0.29852715134620667,-0.0205784160643816,-0.04876704886555672,2.6671633155358507,1.5282607278468303,2.735789141327665
1687087982.235852,0.023574043065309525,-0.9986849427223206,0.04552076384425163,-0.02888411656022072,0.05370837450027466,-0.018146518617868423,0.1836584061384201,-0.05978424847126007,-0.10185747593641281,2.6637478813643938,1.5195059622438407,2.737526754224563
1687087982.241116,0.026995953172445297,-0.9980547428131104,0.056192804127931595,-0.006060929968953133,0.005913197994232178,0.014760490506887436,0.1850859820842743,-0.09323883056640625,-0.04164300486445427,2.693734174090231,1.5084118916972846,2.7029991129060185
1687087982.246079,0.030172506347298622,-0.9977402091026306,0.06002993509173393,0.002633867785334587,-0.012040436267852783,-0.02035713568329811,0.09772373735904694,-0.07908220589160919,-0.09904205054044724,2.6758477611961236,1.5035558293485662,2.716685035856007
1687087982.2909431,0.03401193767786026,-0.9972573518753052,0.06573258340358734,0.01432788372039795,0.0039865970611572266,-0.022001028060913086,0.09555725753307343,-0.04874373972415924,-0.05918777734041214,2.664099365876332,1.4967164220349138,2.725610447668289
1687087982.344322,0.035376228392124176,-0.9972776174545288,0.06469502300024033,0.012795742601156235,-0.02191770076751709,-0.014920957386493683,0.022924546152353287,-0.006032123696058989,-0.02934570237994194,2.6411978247202947,1.4969910486727032,2.746255705312792
1687087982.407938,0.0353926420211792,-0.9982589483261108,0.04718099161982536,-0.007911596447229385,-0.025865018367767334,0.0657491683959961,-0.816535234451294,0.39952388405799866,0.014697722159326077,2.4979979724316226,1.511778333413768,2.8974403630617864
1687087982.4540958,0.03729426488280296,-0.9992833137512207,-0.006452349945902824,-0.07821837067604065,-0.10493403673171997,0.04496544599533081,-1.3651502132415771,0.7060462832450867,-0.1705096960067749,1.3994803837741907,1.532933500142728,-2.2536852179438513
1687087982.5576348,0.0564446821808815,-0.992497444152832,-0.10845626890659332,-0.07533508539199829,-0.18860900402069092,0.12287575006484985,-2.8310956954956055,0.6665921211242676,-0.7482299208641052,0.47986341769448676,1.4482242198113024,-1.3007003555501304
1687087982.563192,0.13707953691482544,-0.9564330577850342,-0.25776904821395874,-0.3168739080429077,-0.38484489917755127,0.031175971031188965,-2.9650049209594727,1.144838809967041,-2.117832899093628,0.48875661856542174,1.274529404189193,-1.266016178640192
1687087982.6076841,0.2797926068305969,-0.8856525421142578,-0.37058791518211365,-0.3982161581516266,-0.42143040895462036,0.028317958116531372,-2.457017183303833,1.4603958129882812,-3.125419855117798,0.6466912415762909,1.0878974686900855,-1.360928902520285
1687087982.6886349,0.45660218596458435,-0.7772070169448853,-0.4329705238342285,-0.4284193217754364,-0.3365623950958252,0.001863926649093628,-1.8461453914642334,1.4032044410705566,-3.862786293029785,0.8119571149985907,0.8902149183048654,-1.4742040303635358
1687087982.746965,0.6317980885505676,-0.6298192739486694,-0.4518392086029053,-0.4114307761192322,-0.310488224029541,0.021648138761520386,-1.6072527170181274,1.4545819759368896,-4.208802223205566,0.9499655446012301,0.6813205292712844,-1.5669762411750972
1687087982.807003,0.779698371887207,-0.44031980633735657,-0.44518399238586426,-0.4538775682449341,-0.10972899198532104,0.08721274137496948,-1.6924947500228882,1.5226939916610718,-4.281059741973877,1.0519963564557238,0.4559548293333597,-1.620369874140075
1687087982.830476,0.8845676779747009,-0.23025499284267426,-0.4056139588356018,-0.5339207649230957,0.052306950092315674,0.14374250173568726,-1.5129187107086182,1.5847481489181519,-4.132635593414307,1.1408592739238683,0.23233970094742917,-1.6488551963915619
1687087982.861418,0.9402609467506409,-0.01833559013903141,-0.33996039628982544,-0.5401756167411804,-0.004903584718704224,0.2917882800102234,-1.932268500328064,1.8254696130752563,-3.648742914199829,1.2238607592609594,0.01833661746607194,-1.6402164800535097
1687087982.906764,0.9551748037338257,0.1713472604751587,-0.24141454696655273,-0.563726007938385,0.07604344189167023,0.14256800711154938,-2.0944364070892334,1.903517246246338,-3.140286684036255,1.3232368988845593,-0.17219699723012466,-1.597649061620679
1687087982.9745522,0.934646725654602,0.33475548028945923,-0.1198926568031311,-0.48410046100616455,-0.08188685774803162,0.18408624827861786,-2.3088581562042236,2.007798194885254,-2.8230605125427246,1.4432171379083796,-0.3413457150264265,-1.5031332213625785
1687087983.097713,0.8858275413513184,0.4638681709766388,0.01166010182350874,-0.4242948889732361,-0.017045050859451294,0.12247979640960693,-1.7294483184814453,2.0522773265838623,-2.6526365280151367,1.5839585143985537,-0.48235657073646393,-1.4089229281556175
1687087983.110491,0.810522735118866,0.5641887784004211,0.15730197727680206,-0.4177767038345337,-0.12513244152069092,0.09600906074047089,-2.290961265563965,2.3042726516723633,-2.4638638496398926,1.762488075090519,-0.5994504278759237,-1.273503913717351
1687087983.134201,0.7068676352500916,0.6353089809417725,0.31099873781204224,-0.4501081109046936,-0.05784028768539429,0.10021016001701355,-1.5526114702224731,2.6625137329101562,-2.500070095062256,1.9852759265217945,-0.6884085806976513,-1.1143474219665126
1687087983.152275,0.569949209690094,0.6859639286994934,0.4523395597934723,-0.44215691089630127,-0.09503692388534546,0.095084547996521,-1.5442383289337158,2.8047800064086914,-2.662752151489258,2.2416526522136158,-0.7559276307189613,-0.9343024843241613
1687087983.193163,0.39573580026626587,0.7260199189186096,0.5623945593833923,-0.45785436034202576,-0.056693315505981445,0.149091899394989,-0.8259903192520142,2.9713988304138184,-2.9272685050964355,2.528413066172392,-0.8125163674143838,-0.7339820326172826
1687087983.244699,0.197837233543396,0.7512636184692383,0.6296533346176147,-0.4061806797981262,0.04584026336669922,0.14666801691055298,-0.5937062501907349,3.017864942550659,-2.97409725189209,2.8371595484974144,-0.8499745576677594,-0.5175853609396114
1687087983.30619,-0.016842927783727646,0.7412935495376587,0.6709690093994141,-0.5603054761886597,0.09798538684844971,0.23734056949615479,-0.7707148194313049,3.250722885131836,-2.968047857284546,-3.1164955293937764,-0.8349956269783355,-0.28702530804974774
1687087983.405799,-0.22990645468235016,0.7032924890518188,0.6726974844932556,-0.330930233001709,0.24357622861862183,0.21659964323043823,-0.31328341364860535,3.0599067211151123,-2.905183792114258,-2.812270223021223,-0.7800183939232496,-0.08628177554925019
1687087983.452272,-0.42565202713012695,0.66007000207901,0.6189728379249573,-0.3674539625644684,0.39713507890701294,0.2619166970252991,0.5343040823936462,2.730137348175049,-2.907607316970825,-2.539186624347764,-0.720911980782125,0.09989428747865724
1687087983.456726,-0.5825595259666443,0.5980821251869202,0.5503833889961243,-0.22052568197250366,0.39750802516937256,0.3876810073852539,-0.482299268245697,2.306541919708252,-2.3434503078460693,-2.327801605452097,-0.641105904648563,0.23675372135908265
1687087983.4878259,-0.7027851939201355,0.5118967294692993,0.4940183758735657,-0.2771340608596802,0.35698437690734863,0.3215026259422302,-0.31894031167030334,2.2795238494873047,-2.154397964477539,-2.1834951719326283,-0.5373912815169625,0.2915715778078742
1687087983.5277681,-0.80295729637146,0.429662823677063,0.41309723258018494,-0.21916794776916504,0.377160906791687,0.3723641037940979,-0.14726412296295166,2.0568432807922363,-2.0023884773254395,-2.0459526142891833,-0.4441193586260572,0.349263673731512
1687087983.5743551,-0.8749279975891113,0.3506981432437897,0.3339335322380066,-0.0831102728843689,0.4501594007015228,0.37578311562538147,0.2930876910686493,1.7220097780227661,-1.7696468830108643,-1.9354015532747164,-0.358316489022798,0.38616061084933434
1687087983.641351,-0.9215140342712402,0.2862098813056946,0.26247987151145935,0.020970821380615234,0.6621391177177429,0.4799211323261261,0.36737701296806335,0.9599701762199402,-1.298494815826416,-1.8482832793407677,-0.29026890580040715,0.4468237555223662
1687087983.7384439,-0.9411254525184631,0.24850358068943024,0.22919180989265442,0.07090139389038086,0.5570231676101685,0.2547711730003357,1.070752739906311,0.28508585691452026,-0.732012927532196,-1.809675898431442,-0.25113506270511454,0.4783881943782769
1687087983.800391,-0.9470159411430359,0.23586790263652802,0.21800650656223297,0.23546820878982544,-0.02091735601425171,0.19224119186401367,-0.2557036578655243,-0.011604415252804756,-0.08270104229450226,-1.7970581151737657,-0.23811157334061134,0.5117449000681796
1687087983.815532,-0.9478271007537842,0.23164181411266327,0.21901066601276398,0.1145753264427185,0.06944459676742554,0.08048880100250244,0.6412509679794312,-0.24571140110492706,-0.23173797130584717,-1.7978769653088624,-0.2337650659911818,0.5277984063038562
1687087983.843721,-0.9469727873802185,0.22679868340492249,0.22760610282421112,-0.05844390392303467,-0.10019651055335999,0.02388918399810791,0.204845130443573,-0.17802584171295166,-0.13103795051574707,-1.8066734149559882,-0.22878944183810765,0.5391352516649307
1687087983.8870049,-0.946768045425415,0.22520337998867035,0.23002885282039642,0.005804538726806641,0.06343184411525726,-0.07048310339450836,0.48548340797424316,-0.16334664821624756,-0.13948094844818115,-1.8091402883033145,-0.22715176694069675,0.5689456751521019
1687087983.947223,-0.9464024901390076,0.22432316839694977,0.23238137364387512,-0.030144572257995605,-0.10495370626449585,0.021051734685897827,-0.10067301988601685,0.023955602198839188,0.020780116319656372,-1.811574665240102,-0.22624844252198248,0.5705447506421134
1687087984.031091,-0.9466432332992554,0.2248292714357376,0.23090705275535583,0.024234294891357422,0.041985899209976196,-0.014369726181030273,0.20206500589847565,-0.002705569379031658,-0.033831462264060974,-1.8100463275569292,-0.2267678173361486,0.5809657843166052
1687087984.099958,-0.946661651134491,0.2258078157901764,0.22987458109855652,-0.024438083171844482,-0.02488011121749878,0.04713332653045654,0.19591054320335388,0.01676006056368351,0.012793516740202904,-1.8090121992052097,-0.2277721975754782,0.5821008130011113
1687087984.114315,-0.9464345574378967,0.22786761820316315,0.22877447307109833,0.022621750831604004,0.008048519492149353,-0.01313731074333191,0.229563370347023,-0.030226994305849075,-0.008836743421852589,-1.8079692952171764,-0.22988713023044097,0.5969013176651825
1687087984.140738,-0.9456461668014526,0.2294161319732666,0.23048050701618195,-0.03242677450180054,-0.0468142032623291,0.011615395545959473,-0.12398505955934525,0.0663236752152443,0.08048830181360245,-1.809863330942634,-0.23147776556297037,0.5943123785591414
1687087984.1895208,-0.9457396268844604,0.23116306960582733,0.2283412516117096,-0.0035246610641479492,0.0032576769590377808,-0.023370176553726196,0.018611133098602295,0.009750621393322945,0.007287720218300819,-1.8077043111033566,-0.23327295725777603,0.5959767518693547
1687087984.247981,-0.9462968111038208,0.22938823699951172,0.22782179713249207,0.008888661861419678,0.005673348903656006,-0.021706268191337585,0.09218095242977142,0.05532263219356537,-0.015863783657550812,-1.8070511785667915,-0.23144911121969855,0.5950232947209112
1687087984.347655,-0.9472793936729431,0.22919180989265442,0.223903089761734,-0.020234525203704834,-0.03859429061412811,0.03897523880004883,-0.3826284408569336,0.054530076682567596,0.06923718005418777,-1.8029008596035045,-0.23124731157993472,0.589061875734781
1687087984.3720021,-0.9473689198493958,0.2278604507446289,0.22488044202327728,0.029568254947662354,0.07874961197376251,-0.028133779764175415,0.3254067003726959,-0.07373937219381332,-0.06743467599153519,-1.8038565466308574,-0.22987976161448206,0.5870472705476468
1687087984.4389029,-0.9466901421546936,0.2295885682106018,0.22597847878932953,0.01614844799041748,-0.03423033654689789,0.0005685985088348389,-0.2677221894264221,0.11927173286676407,0.12483951449394226,-1.8051152852910082,-0.23165493949640348,0.589915220174654
1687087984.444164,-0.9473322629928589,0.23307392001152039,0.219630166888237,-0.02561354637145996,0.010135844349861145,-0.0005903840065002441,-0.033030759543180466,0.07654216885566711,0.06733755767345428,-1.7986122112895815,-0.23523747230810288,0.5823829369122899
1687087984.483562,-0.9460492134094238,0.2357550710439682,0.22228291630744934,0.03926551342010498,0.04277878999710083,-0.00742417573928833,-0.14926835894584656,0.016634253785014153,0.10063227266073227,-1.8015695713814808,-0.23799546380384917,0.5721071350230436
1687087984.548861,-0.9457845687866211,0.23944367468357086,0.21944954991340637,-0.030869364738464355,-0.011187463998794556,-0.031903982162475586,-0.09871155023574829,0.08875260502099991,0.09856375306844711,-1.7987910200415178,-0.24179281136045064,0.5651697984667502
1687087984.649648,-0.9449647665023804,0.24486446380615234,0.2169847935438156,0.04964029788970947,0.041878655552864075,-0.0067951977252960205,-0.03121197782456875,0.0863085687160492,0.17366242408752441,-1.7965057723558358,-0.24737989502286378,0.5623503214352576
1687087984.6641998,-0.9422832131385803,0.25888383388519287,0.21232342720031738,0.09613770246505737,0.18348371982574463,0.055071473121643066,-0.13717596232891083,0.09427513927221298,0.5377596616744995,-1.792423584342789,-0.26186645279096016,0.5513186268737609
1687087984.722183,-0.931150496006012,0.29540902376174927,0.21375688910484314,-0.007463276386260986,0.38444632291793823,0.15626859664916992,-0.5158233046531677,0.034269921481609344,1.1472610235214233,-1.7964488071435871,-0.2998836164281942,0.5292775977292111
1687087984.738663,-0.9071776270866394,0.35064753890037537,0.2325398474931717,0.013287365436553955,0.42146235704421997,0.3137704133987427,-1.0217207670211792,-0.2535286843776703,1.6298154592514038,-1.8217268259896566,-0.3582624682129256,0.46535243815049165
1687087984.784778,-0.8656463623046875,0.41923314332962036,0.27367785573005676,-0.012603580951690674,0.5252095460891724,0.3934057950973511,-0.475274920463562,-0.9485106468200684,1.8970311880111694,-1.8770069286246103,-0.4326004982743526,0.39684828410185463
1687087984.841059,-0.7982292175292969,0.5046645402908325,0.32885199785232544,-0.12125015258789062,0.518879771232605,0.4035544693470001,0.025377903133630753,-1.6001991033554077,2.2645301818847656,-1.9615848031348453,-0.5289933441093913,0.3557641011320324
1687087984.930259,-0.6976816058158875,0.5876685976982117,0.40973833203315735,-0.329845130443573,0.3634268045425415,0.3546963334083557,-0.6196873784065247,-1.9053913354873657,2.6133947372436523,-2.101814520752603,-0.6281743665655918,0.264813244074885
1687087984.993334,-0.5673822164535522,0.666872501373291,0.4830716550350189,-0.5122228264808655,0.31402337551116943,0.26965951919555664,0.12955597043037415,-2.222386121749878,2.7097585201263428,-2.276105084824054,-0.7300038258384254,0.15202438930481574
1687087985.04913,-0.41227221488952637,0.7400644421577454,0.531352698802948,-0.5682269930839539,0.2070179581642151,0.22357559204101562,0.36744314432144165,-2.4286153316497803,2.745438814163208,-2.4817256693711593,-0.8331662027849283,0.026236614222895662
1687087985.0970678,-0.23699204623699188,0.8043692111968994,0.5448157787322998,-0.6532514095306396,0.15740728378295898,0.21118062734603882,1.023592472076416,-2.4759252071380615,2.8491649627685547,-2.7312868323137067,-0.9346129555500048,-0.13684581603650445
1687087985.109895,-0.04886843264102936,0.8454092741012573,0.5318787097930908,-0.7254387736320496,0.053882718086242676,0.2584349513053894,0.37222424149513245,-2.5340325832366943,2.943789482116699,-3.0499709875493117,-1.007330994693507,-0.36967821856356936
1687087985.150381,0.13980868458747864,0.8581530451774597,0.49399006366729736,-0.719368040561676,0.04974466562271118,0.19994890689849854,1.454561710357666,-2.5057084560394287,2.780318260192871,2.8657864225705776,-1.0316611865549579,-0.6519395615508781
1687087985.265842,0.3136143684387207,0.8642396926879883,0.39336398243904114,-0.7146458625793457,-0.09869122505187988,0.17496460676193237,1.473224401473999,-2.3773605823516846,2.7794816493988037,2.468523090709915,-1.0436370690813053,-0.9706113627508088
1687087985.280849,0.46951162815093994,0.832274317741394,0.2947506308555603,-0.6610400080680847,-0.1188497543334961,0.15317094326019287,1.140512228012085,-2.3316407203674316,2.658679962158203,2.1313931787467273,-0.9831976637192422,-1.229109819207886
1687087985.306529,0.6068370342254639,0.7732744812965393,0.18383409082889557,-0.6095989942550659,-0.11693316698074341,0.09851442277431488,1.176430344581604,-2.297111749649048,2.7753982543945312,1.8649464855375169,-0.8839892680146523,-1.4147823720969972
1687087985.3410048,0.7242743372917175,0.6860024929046631,0.06947550922632217,-0.5759285092353821,-0.09167283773422241,0.07517766207456589,0.9533344507217407,-2.2488582134246826,2.8886563777923584,1.6664280218918155,-0.7559805988921134,-1.5306116541645802
1687087985.3816118,0.8211305141448975,0.5693210363388062,-0.040225982666015625,-0.5329987406730652,-0.0333714485168457,0.07710635662078857,0.5497874617576599,-2.2151222229003906,3.1576032638549805,1.5218469214356536,-0.6056797807989992,-1.5824804007146542
1687087985.43688,0.8940072059631348,0.4225355386734009,-0.14904619753360748,-0.5860085487365723,0.10622724890708923,0.09518252313137054,0.5111692547798157,-2.245056629180908,3.5749685764312744,1.405598667070718,-0.4362410283691042,-1.5886216118277392
1687087985.5449681,0.9338346719741821,0.24271290004253387,-0.26276031136512756,-0.605084240436554,0.19858644902706146,0.10432818531990051,0.6631815433502197,-2.280599355697632,3.95396089553833,1.2965104841679926,-0.24516140113082152,-1.5732909442204825
1687087985.610269,0.9262005090713501,0.0404922291636467,-0.3748503625392914,-0.5187299847602844,0.24698331952095032,0.14560222625732422,1.0766679048538208,-2.2637224197387695,4.077777862548828,1.1862290278073573,-0.04050330377978888,-1.548440875705277
1687087985.624776,0.8660251498222351,-0.17540210485458374,-0.4682247042655945,-0.47755181789398193,0.24319687485694885,0.1774836778640747,1.4088901281356812,-2.1419990062713623,4.256651878356934,1.0751526080471088,0.176314188394494,-1.5170647320972386
1687087985.636447,0.7574849128723145,-0.3887324333190918,-0.5245029926300049,-0.36702799797058105,0.13584861159324646,0.11935162544250488,1.5874608755111694,-1.6883978843688965,4.304662227630615,0.9651710282200227,0.39925541322943103,-1.471240901476011
1687087985.7153091,0.614513635635376,-0.5669988393783569,-0.548530101776123,-0.39358168840408325,-0.05601745843887329,0.06577253341674805,0.9470186829566956,-1.3326647281646729,4.249234199523926,0.842070870977105,0.6028578493272377,-1.3712537071739497
1687087985.744271,0.4510968029499054,-0.69975745677948,-0.5539414882659912,-0.30996832251548767,-0.09421831369400024,0.07483065128326416,0.9872493147850037,-1.391121745109558,3.7276787757873535,0.6834239985039283,0.7750578878688392,-1.22623597831781
1687087985.8403401,0.284829318523407,-0.7975316643714905,-0.5318038463592529,-0.28305932879447937,-0.12506037950515747,0.02194666862487793,1.826108694076538,-1.607424020767212,2.916454553604126,0.4917132875805358,0.9231925685121997,-1.070963292961642
1687087985.857923,0.14847134053707123,-0.8906824588775635,-0.4296985864639282,-0.2469821274280548,-0.2980228662490845,-0.027149617671966553,3.6610007286071777,-1.6047405004501343,1.6783912181854248,0.33268208404662714,1.0988440739185865,-0.9785130254946077
1687087985.8875341,0.09039250761270523,-0.9577510952949524,-0.273023396730423,-0.257171094417572,-0.6556673049926758,-0.005892068147659302,3.427739143371582,-0.27169468998908997,-0.2777598798274994,0.3197209290346123,1.2790779750142498,-1.0346068038938097
1687087985.962481,0.10713617503643036,-0.961152195930481,-0.25437772274017334,-0.10350463539361954,-0.4569689631462097,-0.24058690667152405,0.13312967121601105,-0.19911646842956543,-0.8097761273384094,0.39862181806724284,1.291146580452203,-1.1334623804507955
1687087986.0238008,0.12824630737304688,-0.9654260873794556,-0.22694769501686096,0.07110974192619324,0.20959734916687012,0.1276891827583313,0.8241169452667236,-0.14675723016262054,0.026130694895982742,0.5143561955902122,1.3070730615807646,-1.2618384242277507
1687087986.115145,0.11778506636619568,-0.9718486070632935,-0.20405127108097076,0.06763972342014313,0.08792221546173096,-0.004383891820907593,0.24022340774536133,-0.040671274065971375,0.2557014226913452,0.5235105905326969,1.33295403635499,-1.275404742822942
1687087986.130177,0.10732121020555496,-0.9752591848373413,-0.193264901638031,-0.023413188755512238,-0.13425296545028687,-0.030993565917015076,0.2781379520893097,0.041029926389455795,0.09203627705574036,0.5069079916371213,1.3478905694568442,-1.2561099560437972
1687087986.150395,0.10826131701469421,-0.9780440926551819,-0.17807011306285858,-0.01007106900215149,-0.06637412309646606,0.008697450160980225,0.31761792302131653,0.0012309558223932981,-0.05199182406067848,0.5462593249202963,1.3608595791799174,-1.2967024166603864
1687087986.21976,0.10963480919599533,-0.9796977043151855,-0.1678466498851776,0.013534098863601685,0.0369182825088501,0.01913440227508545,0.16943563520908356,-0.01445772685110569,-0.0069762589409947395,0.5786105595941916,1.36894793984824,-1.329334644305159
1687087986.2600121,0.10960972309112549,-0.9817744493484497,-0.15525580942630768,-0.015569843351840973,0.019250214099884033,-0.023241624236106873,0.30845770239830017,-0.03003854863345623,-0.0224015973508358,0.614737715228547,1.3795834771122326,-1.3680609138783488
1687087986.330318,0.1113448515534401,-0.9829788208007812,-0.1461326777935028,-0.0018478035926818848,-0.004127383232116699,0.0077048540115356445,0.07238120585680008,-0.011259429156780243,-0.04556415230035782,0.6511012370181369,1.386028032309579,-1.4058385647397085
1687087986.427542,0.11271083354949951,-0.9825587272644043,-0.1478995680809021,0.001333288848400116,-0.015518486499786377,-0.009647473692893982,0.1473991572856903,0.024140851572155952,-0.091121606528759,0.6511855871188342,1.3837550864462729,-1.405391928488114
1687087986.443392,0.1150301992893219,-0.9831299781799316,-0.14220814406871796,0.019643865525722504,0.004706084728240967,-0.007953688502311707,0.0027042292058467865,-0.00047730247024446726,-0.03585673123598099,0.6801358742496375,1.386852594040631,-1.4346763618460932
1687087986.468566,0.11696422100067139,-0.9823591113090515,-0.14590926468372345,-0.014043755829334259,-0.024827539920806885,0.026173487305641174,-0.15490080416202545,0.14060701429843903,-0.018885094672441483,0.6757297802531192,1.3826846754247866,-1.4279488382863073
1687087986.5124788,0.1206403523683548,-0.9788739085197449,-0.16508091986179352,-0.06844007968902588,-0.07625597715377808,-0.001957118511199951,-0.8669620156288147,0.41589924693107605,-0.020423157140612602,0.6310963641627724,1.3648792909416625,-1.3683390092257612
1687087986.5479631,0.12856395542621613,-0.9687075018882751,-0.2123134285211563,0.014151453971862793,-0.011196613311767578,0.03688305616378784,-0.8694882988929749,0.19843335449695587,-0.21888938546180725,0.544481991646124,1.3199693229838798,-1.2648170768943885
1687087986.622913,0.14501453936100006,-0.9498555660247803,-0.27702879905700684,-0.06463128328323364,-0.12909328937530518,0.08559197187423706,-2.3346989154815674,0.37129512429237366,-0.5133243203163147,0.48224192970283974,1.2527736517759571,-1.1847497695938598
1687087986.739202,0.20158806443214417,-0.8941206336021423,-0.39988771080970764,-0.25067561864852905,-0.32458335161209106,0.0027929842472076416,-2.719978094100952,0.9264770746231079,-1.4391759634017944,0.46693152838025276,1.1064637258467083,-1.1363565780399518
1687087986.745342,0.30863720178604126,-0.8063749670982361,-0.5044822692871094,-0.31927263736724854,-0.34598392248153687,-0.0087929368019104,-2.7636914253234863,1.4866853952407837,-2.357874631881714,0.5490435699339482,0.9379967035427424,-1.1616258085076714
1687087986.764577,0.45569005608558655,-0.6752079725265503,-0.5800350904464722,-0.3782975673675537,-0.36359506845474243,0.07530480623245239,-3.162564516067505,2.0107667446136475,-2.9093868732452393,0.6659140297583113,0.7412465951892095,-1.1996022726566848
1687087986.793863,0.6132040619850159,-0.5100833773612976,-0.6031545996665955,-0.5122215747833252,-0.19885510206222534,-0.06238800287246704,-2.688962459564209,2.4700567722320557,-3.0852749347686768,0.793659899812372,0.5352817336248403,-1.2244943945022666
1687087986.85255,0.7603152394294739,-0.3259047865867615,-0.5618779063224792,-0.5616154074668884,-0.13179785013198853,-0.005123496055603027,-2.3175032138824463,3.0580897331237793,-3.1249611377716064,0.9343682421073534,0.33196859517598915,-1.23281766554983
1687087986.906857,0.8796918988227844,-0.13796105980873108,-0.4550918936729431,-0.6198349595069885,-0.07247291505336761,0.16869965195655823,-2.5008461475372314,3.53656268119812,-2.880533456802368,1.093380238299634,0.1384024951544745,-1.2074545001717523
1687087986.954722,0.9551855325698853,0.03715341538190842,-0.2936665415763855,-0.6561134457588196,-0.0294172465801239,0.16868174076080322,-2.344460964202881,3.7415101528167725,-2.606250286102295,1.2725237875406508,-0.037161968535806805,-1.139653159191289
1687087987.030973,0.97804856300354,0.18191364407539368,-0.10162791609764099,-0.6859496831893921,-0.01454007625579834,0.14058345556259155,-1.6747314929962158,3.737959861755371,-2.539231300354004,1.4672590282099873,-0.18293221725503064,-1.0694008121126868
1687087987.131441,0.9463943243026733,0.306863933801651,0.10085766017436981,-0.6761306524276733,-0.07274836301803589,0.06550873816013336,-1.466813087463379,3.8891539573669434,-2.599947929382324,1.6769660441915577,-0.31189624151249923,-0.9879563783417682
1687087987.147581,0.8562212586402893,0.41825559735298157,0.3032281696796417,-0.6725053787231445,-0.05079343914985657,0.03449442982673645,-0.6354518532752991,4.117042064666748,-2.819222927093506,1.911160773271948,-0.43152402436458764,-0.897552611035992
1687087987.150919,0.7049839496612549,0.5180349349975586,0.48439377546310425,-0.6842625737190247,-0.02474886178970337,0.1742669939994812,-0.7237311601638794,4.478926181793213,-2.7589621543884277,2.1728113304393752,-0.5445519941909167,-0.798770607112434
1687087987.200423,0.4992683231830597,0.5759473443031311,0.6473141312599182,-0.6039436459541321,0.01819932460784912,0.14586806297302246,-0.6683017611503601,4.846543312072754,-2.5402989387512207,2.4846032414345482,-0.6137624959076102,-0.6572248605612891
1687087987.245673,0.2488914132118225,0.6070095896720886,0.7547129988670349,-0.5818077325820923,0.052276670932769775,0.3215959072113037,-0.33127331733703613,4.951969623565674,-2.5656886100769043,2.8230409077518703,-0.6522922182194533,-0.5024194017875961
1687087987.317719,-0.02109675668179989,0.6317941546440125,0.7748486995697021,-0.5357269644737244,0.211864173412323,0.2717360854148865,0.8149075508117676,4.724608898162842,-2.7884907722473145,-3.114372440674959,-0.6838656513129117,-0.3344302352691464
1687087987.421314,-0.2857438325881958,0.6373216509819031,0.7156611084938049,-0.5082013607025146,0.2213360071182251,0.4174410104751587,0.3185408413410187,4.575997829437256,-2.712022304534912,-2.761713559736171,-0.6910175567635249,-0.148799489529452
1687087987.425029,-0.505603551864624,0.5844116806983948,0.6346869468688965,-0.4584008455276489,0.3093259930610657,0.6024344563484192,-0.3916378617286682,3.7183079719543457,-2.1572585105895996,-2.468916849320109,-0.6241548683536283,-0.019577391608047227
1687087987.4768329,-0.6510912775993347,0.5166581273078918,0.5560077428817749,-0.34240853786468506,0.36232447624206543,0.48287153244018555,0.02858530730009079,2.490288019180298,-2.064335346221924,-2.2775865568932194,-0.542943131735352,0.054771952777154256
1687087987.489544,-0.7649174928665161,0.45248910784721375,0.45842650532722473,-0.31668657064437866,0.31159481406211853,0.4003380537033081,0.8402153849601746,2.3079051971435547,-2.165703058242798,-2.110711994347466,-0.4695545594937822,0.15508344193834053
1687087987.530164,-0.8552119135856628,0.3773637115955353,0.3552584648132324,-0.24755579233169556,0.23976266384124756,0.4989893138408661,0.6982815265655518,2.025803804397583,-2.24334979057312,-1.9645110953944072,-0.38694787920008517,0.24145834201215072
1687087987.578368,-0.9191194772720337,0.29190438985824585,0.26459529995918274,-0.1437312364578247,0.45563891530036926,0.48284098505973816,1.7663123607635498,1.129286289215088,-2.2829699516296387,-1.8510962828810007,-0.29621732646401805,0.3425760563960763
1687087987.648709,-0.9534022808074951,0.21611355245113373,0.2105206549167633,0.13472247123718262,0.7930874824523926,0.4460039436817169,1.5567193031311035,-0.3142889738082886,-2.062411069869995,-1.7881190039214674,-0.2178321890275452,0.47169953645590956
1687087987.753259,-0.9563735127449036,0.20783475041389465,0.20531553030014038,-0.06485146284103394,0.7722067832946777,0.14641466736793518,0.6648396849632263,0.08724860846996307,0.19727225601673126,-1.7822678742876248,-0.20936085146068018,0.515813170342052
1687087987.758915,-0.9554548859596252,0.22018998861312866,0.19652500748634338,0.12653660774230957,-0.17214007675647736,0.12363481521606445,0.1734617054462433,-0.06897056102752686,-0.038559552282094955,-1.7736544927559426,-0.22200923800356584,0.5410416892771728
1687087987.787626,-0.9549791216850281,0.2137903869152069,0.20569024980068207,-0.07128119468688965,-0.21383614838123322,-0.016038864850997925,0.27403607964515686,-0.15888334810733795,-0.2685718536376953,-1.7829425153985052,-0.21545342489141803,0.5457125627897189
1687087987.8381119,-0.9558802247047424,0.20573924481868744,0.2096763700246811,0.006509006023406982,0.21734119951725006,-0.07303404808044434,0.13653217256069183,-0.1372625231742859,-0.09630680829286575,-1.786730579439551,-0.20721904915970787,0.5641210048617166
1687087987.893712,-0.9551143050193787,0.20950347185134888,0.20943905413150787,-0.03852260112762451,0.01483123004436493,0.01797783374786377,0.07330372184515,0.09012844413518906,0.10178115963935852,-1.7866613567321459,-0.21106713067101882,0.563199004420808
1687087987.958168,-0.9546140432357788,0.2128039449453354,0.2083895355463028,0.020684778690338135,-0.03320801258087158,-0.009735465049743652,0.14157167077064514,-0.047586970031261444,-0.02854176238179207,-1.7857218252639449,-0.21444373980253592,0.5738942652767197
1687087988.0188022,-0.9549205303192139,0.21203669905662537,0.20776624977588654,0.004740715026855469,0.025863051414489746,0.04418681561946869,0.40208131074905396,-0.05236201733350754,-0.06830792874097824,-1.7850318180679259,-0.21365857787081916,0.579914016550799
1687087988.077527,-0.9543441534042358,0.21402119100093842,0.20837895572185516,0.011473238468170166,0.0448899120092392,-0.004170671105384827,0.3035261332988739,-0.048685312271118164,0.0320928692817688,-1.7857701713580592,-0.2156896952380162,0.5992215387071524
1687087988.1218162,-0.953555703163147,0.22068564593791962,0.20500943064689636,0.023548007011413574,0.018190652132034302,0.006614655256271362,0.07474641501903534,0.05414396896958351,0.1550392210483551,-1.782567425886891,-0.2225173854333183,0.6108629056161654
1687087988.160161,-0.9514409899711609,0.22950075566768646,0.20515677332878113,-0.06424498558044434,-0.020928338170051575,0.02459469437599182,0.18604940176010132,-0.03149055689573288,0.1561945676803589,-1.7831721107502665,-0.23156471713783927,0.6083330468966691
1687087988.20686,-0.9493446946144104,0.23819492757320404,0.20495791733264923,0.04187411069869995,-0.006627559661865234,0.027494430541992188,-0.18450230360031128,-0.06331666558980942,0.210813507437706,-1.783426927153338,-0.24050686493596177,0.6140307579977095
1687087988.322194,-0.9466915130615234,0.24359741806983948,0.21079669892787933,-0.06330287456512451,-0.024130254983901978,0.021899700164794922,-0.048172906041145325,-0.050140783190727234,0.12122546881437302,-1.7898888141045164,-0.24607328052526312,0.6011662025268247
1687087988.397983,-0.9449531435966492,0.24471354484558105,0.21720607578754425,-0.064583420753479,-0.13509441912174225,-0.05383038520812988,-0.17697663605213165,-0.05592580512166023,-0.04628467187285423,-1.7967308816289942,-0.24722424669873824,0.5903188072235535
1687087988.414017,-0.9468015432357788,0.23705412447452545,0.21765075623989105,0.0012450814247131348,-0.021600037813186646,-0.1281275749206543,0.3628923296928406,-0.02145310491323471,-0.25587812066078186,-1.7967507517104917,-0.23933242336747498,0.6047369267756245
1687087988.417673,-0.9486222863197327,0.23191311955451965,0.21524831652641296,0.10172909498214722,0.15233367681503296,-0.015343070030212402,0.01953093335032463,0.09185145050287247,0.06954987347126007,-1.7939244237778598,-0.23404396623175963,0.6067640427903159
1687087988.445881,-0.9447503089904785,0.2507467269897461,0.2111225724220276,0.08091986179351807,0.2916727066040039,0.09966838359832764,0.13932396471500397,0.01360368262976408,0.6316438913345337,-1.7906532321572841,-0.2534515469172643,0.607911408611908
1687087988.4753509,-0.930997908115387,0.2961709499359131,0.21336613595485687,0.050352394580841064,0.39737147092819214,0.2660495936870575,-0.5458531975746155,-0.11634840071201324,1.331065058708191,-1.7960858086233518,-0.3006812350181861,0.5914108158666137
1687087988.532954,-0.901003360748291,0.36215877532958984,0.23881644010543823,-0.017392337322235107,0.5149010419845581,0.42211776971817017,-0.47015878558158875,-0.6702269315719604,1.7969894409179688,-1.8298944723265256,-0.37058284590272983,0.5403670019306629
1687087988.61127,-0.8471218347549438,0.4436156749725342,0.29255712032318115,-0.05369603633880615,0.5144073963165283,0.4435267746448517,-0.3161502778530121,-1.380083441734314,2.153995990753174,-1.9033264157903664,-0.45962903770497127,0.4895501708668301
1687087988.6767778,-0.7624583840370178,0.5312222242355347,0.36940521001815796,-0.22457164525985718,0.4432803988456726,0.38117465376853943,-0.6587292551994324,-1.7910184860229492,2.5464227199554443,-2.021960959954869,-0.560042490538514,0.41178658422851033
1687087988.7771568,-0.6468578577041626,0.6126015186309814,0.45419618487358093,-0.4588091969490051,0.3046347498893738,0.2421690821647644,-0.319843053817749,-2.122774600982666,2.625972032546997,-2.1829689110985817,-0.659347867635638,0.3030176716684097
1687087988.793289,-0.5045832395553589,0.6842514276504517,0.5264929533004761,-0.564508318901062,0.14063847064971924,0.15740561485290527,-0.15820954740047455,-2.3316190242767334,2.6765635013580322,-2.3774406125916236,-0.7535767096404289,0.17679942371987648
1687087988.805723,-0.3480615019798279,0.7414504289627075,0.5736760497093201,-0.6003332138061523,0.051167309284210205,0.06966489553451538,0.3753699064254761,-2.3250999450683594,2.4877254962921143,-2.5962456386159256,-0.8352293124539205,0.0342854621178784
1687087988.843612,-0.18668676912784576,0.7909126877784729,0.5827566981315613,-0.6005141735076904,0.02083975076675415,0.09184962511062622,0.7205342650413513,-2.2593843936920166,2.4533233642578125,-2.8315712200827803,-0.9122990863860364,-0.12248305857284501
1687087988.9479032,-0.023954428732395172,0.8227605819702148,0.567882776260376,-0.5605486631393433,-0.06040102243423462,0.09781217575073242,0.5393527150154114,-2.249896287918091,2.360609769821167,-3.099435650880924,-0.9662508958318695,-0.3149085697202615
1687087988.963923,0.13424988090991974,0.8369377851486206,0.5305769443511963,-0.5526458621025085,-0.0696800947189331,0.032884180545806885,1.191743016242981,-2.2593040466308594,2.2717065811157227,2.8937678280387793,-0.991663857271507,-0.5280222192446028
1687087989.006892,0.28902173042297363,0.8487605452537537,0.4428000748157501,-0.5141193270683289,-0.08318132162094116,0.12414014339447021,1.5795284509658813,-2.3957579135894775,2.390373706817627,2.5633120131651177,-1.013636877919257,-0.7823576644730452
1687087989.079669,0.4404280185699463,0.8323078751564026,0.3365802466869354,-0.5089095234870911,-0.07010102272033691,0.12769874930381775,1.302037239074707,-2.4336814880371094,2.547701120376587,2.22333104380318,-0.9832582364153756,-1.040084146788149
1687087989.146565,0.5807109475135803,0.7815402150154114,0.22796723246574402,-0.4746319651603699,-0.015061020851135254,0.12838634848594666,1.15763258934021,-2.3377275466918945,2.734896183013916,1.944877505334759,-0.897130897978413,-1.2359244668925091
1687087989.161962,0.7061664462089539,0.7002213597297668,0.10497070848941803,-0.45656323432922363,0.039066851139068604,0.12311756610870361,1.4228384494781494,-2.2936768531799316,2.9829070568084717,1.718364428445675,-0.775707524875202,-1.3839353524420002
1687087989.233221,0.8096528649330139,0.5862348079681396,-0.02811920829117298,-0.45589321851730347,0.13704687356948853,0.15189838409423828,1.4254311323165894,-2.1298859119415283,3.1900854110717773,1.5360803260506728,-0.6264034296636786,-1.493962624127508
1687087989.262584,0.8867639899253845,0.4373714327812195,-0.14951765537261963,-0.45086634159088135,0.15151086449623108,0.16260959208011627,1.328709363937378,-2.0045900344848633,3.5120809078216553,1.4037570228997531,-0.45267363398907434,-1.5479862596376317
1687087989.300885,0.9308624267578125,0.25749775767326355,-0.25921016931533813,-0.45370495319366455,0.14295384287834167,0.16764211654663086,1.1244210004806519,-1.8144381046295166,3.78371262550354,1.2992140176028242,-0.2604317375104079,-1.5702792907127467
1687087989.359102,0.9348205924034119,0.059428781270980835,-0.35011208057403564,-0.4126192331314087,0.16324269771575928,0.15939238667488098,1.2199982404708862,-1.6812061071395874,3.9045286178588867,1.2124436467624702,-0.059463817082775726,-1.5637438027925137
1687087989.423695,0.8948991298675537,-0.14572985470294952,-0.42180347442626953,-0.42039668560028076,0.19376450777053833,0.15515607595443726,1.0144156217575073,-1.5847138166427612,4.056020259857178,1.130336887846214,0.14625066249966995,-1.539981293855905
1687087989.516068,0.8091042637825012,-0.34307944774627686,-0.4771234095096588,-0.41991370916366577,0.18853843212127686,0.17939388751983643,0.929995596408844,-1.5995221138000488,4.195984363555908,1.0379897005790732,0.35019337950512386,-1.4821775752744537
1687087989.529671,0.6782384514808655,-0.530585765838623,-0.5084007382392883,-0.42520201206207275,0.19605213403701782,0.16404032707214355,1.5124632120132446,-1.454769492149353,4.1855363845825195,0.9275576894926036,0.5592915113618641,-1.407699973652348
1687087989.5866032,0.5151024460792542,-0.701259434223175,-0.4928536117076874,-0.3872338533401489,0.007808506488800049,0.09940570592880249,2.1522185802459717,-1.433419942855835,3.964764356613159,0.8074677832608761,0.7771625594397295,-1.3302994313058927
1687087989.6224508,0.34119394421577454,-0.8305261731147766,-0.44024190306663513,-0.3614576458930969,-0.12018781900405884,0.12874889373779297,2.2315382957458496,-1.5120761394500732,3.2275044918060303,0.6593192355235001,0.9800517081316369,-1.2347183368139554
1687087989.663031,0.19746829569339752,-0.9198271632194519,-0.339004784822464,-0.2606855034828186,-0.4040100574493408,0.038162410259246826,3.5257773399353027,-1.6967166662216187,1.7512973546981812,0.5274480891126608,1.1676397125994187,-1.1795911425473782
1687087989.7574558,0.1368594765663147,-0.9601771235466003,-0.24357593059539795,-0.2639347016811371,-0.8049747347831726,0.3553617000579834,-0.24528969824314117,-0.24104627966880798,-0.4973348379135132,0.5119153497004952,1.2876355505366552,-1.2327949180864126
1687087989.763248,0.16432148218154907,-0.9569306373596191,-0.23933692276477814,0.022003531455993652,0.10603964328765869,-0.15330231189727783,1.6358271837234497,-0.12968264520168304,-0.5696240067481995,0.6016553698827974,1.2762386114851922,-1.3390305078819769
1687087989.84581,0.1716836392879486,-0.9603740572929382,-0.21955938637256622,0.1814352124929428,0.08850216865539551,0.07016047835350037,-0.011124873533844948,0.05296190083026886,0.21029897034168243,0.6636351828212007,1.288341281870127,-1.412207770605172
1687087989.861247,0.15891776978969574,-0.9642164707183838,-0.21220596134662628,0.003969743847846985,-0.02176046371459961,-0.0012340247631072998,0.26823464035987854,0.07325268536806107,0.26571017503738403,0.6427868508212354,1.3024719231832078,-1.3877792386397436
1687087989.908921,0.15203863382339478,-0.9661546349525452,-0.20839688181877136,-0.04705820977687836,0.004317045211791992,0.05709065496921539,-0.08746252208948135,0.06728944182395935,0.09551241248846054,0.6302925587159449,1.309882354815521,-1.372617132276422
1687087989.993888,0.15142852067947388,-0.9658584594726562,-0.21020564436912537,-0.003860846161842346,0.014717340469360352,0.02359059453010559,0.04778100177645683,0.07675841450691223,-0.01209871657192707,0.6242750630821791,1.3087366995127656,-1.3610510611978301
1687087990.026253,0.15067151188850403,-0.9669968485832214,-0.20546238124370575,0.020806699991226196,-0.010862410068511963,0.01748928427696228,-0.0828416720032692,0.12307947129011154,0.003190180752426386,0.6327459672403558,1.3131674953849635,-1.3645861581076426
1687087990.135427,0.15127575397491455,-0.9660176634788513,-0.2095831334590912,0.00193767249584198,0.00808638334274292,-0.007854670286178589,-0.213811993598938,0.13189437985420227,-0.007731752935796976,0.6252032811340893,1.3093519492730996,-1.3512107564337112
1687087990.162796,0.1549127995967865,-0.9627368450164795,-0.2216746062040329,-0.01050366461277008,-0.04087942838668823,0.012079805135726929,-0.3010157346725464,0.2443806529045105,-0.10200809687376022,0.6099400857984822,1.2969464394760013,-1.32685172660372
1687087990.1747432,0.16700629889965057,-0.9530721306800842,-0.25251179933547974,-0.07093700766563416,-0.16094142198562622,0.012719869613647461,-1.6484079360961914,0.49330905079841614,-0.1492292732000351,0.5843337732659579,1.2632266340720602,-1.2736854283959773
1687087990.208067,0.20719753205776215,-0.910963773727417,-0.3566705882549286,-0.2288956195116043,-0.2927561402320862,0.06739446520805359,-2.92783260345459,0.7881527543067932,-1.317976474761963,0.5262728920685117,1.1456145713464332,-1.1812082459372308
1687087990.274674,0.31184300780296326,-0.8235336542129517,-0.4738631248474121,-0.3758537173271179,-0.35821372270584106,-0.038694918155670166,-3.104942560195923,1.5887993574142456,-2.233736276626587,0.582039095234228,0.9676123935235486,-1.1760221910865691
1687087990.328038,0.4568230211734772,-0.7000476717948914,-0.5488587021827698,-0.41611266136169434,-0.2174326777458191,-0.0335693359375,-2.6762828826904297,1.9502214193344116,-2.8935656547546387,0.6941366889101722,0.7754642906594872,-1.2063418103385632
1687087990.429679,0.6113656163215637,-0.5505126118659973,-0.5684784650802612,-0.512137770652771,-0.1419006586074829,0.04731452465057373,-1.9546011686325073,2.0818979740142822,-3.3632636070251465,0.8217319709406841,0.5829781540456517,-1.2501627461912714
1687087990.447184,0.7537328004837036,-0.3672733008861542,-0.5449743866920471,-0.5801641941070557,-0.16071128845214844,0.11687374114990234,-2.4754366874694824,2.3138012886047363,-3.553107738494873,0.9447780600254445,0.3760757318508451,-1.2764294156310696
1687087990.496423,0.8636717200279236,-0.16551662981510162,-0.47610414028167725,-0.5175720453262329,-0.07203222811222076,0.17703184485435486,-2.2251219749450684,2.5182507038116455,-3.4582085609436035,1.0669893844443445,0.1662818425360357,-1.2727072203296494
1687087990.5085568,0.9286969900131226,0.03086940199136734,-0.3695520758628845,-0.5683303475379944,-0.00320524163544178,0.19476261734962463,-1.8046504259109497,2.555750608444214,-3.3343820571899414,1.1920797321717216,-0.030874306024545953,-1.2533262300704355
1687087990.5379949,0.9484028220176697,0.20946718752384186,-0.2380237728357315,-0.5447622537612915,-0.027628257870674133,0.16134823858737946,-1.158260703086853,2.652313470840454,-3.3754539489746094,1.3249018448271679,-0.21103002671233542,-1.2356862935514743
1687087990.606118,0.919865608215332,0.3790854811668396,-0.10070255398750305,-0.6043140888214111,-0.018291562795639038,0.10689748823642731,-0.6354108452796936,2.6564981937408447,-3.5330872535705566,1.4617552655875437,-0.3888078214941476,-1.2209876432557436
1687087990.650741,0.8413597941398621,0.5388439297676086,0.04195994511246681,-0.6030481457710266,-0.07171154022216797,0.18364107608795166,-1.1139551401138306,2.910972833633423,-3.627066135406494,1.6206266248564833,-0.5690641775043922,-1.1801381409013807
1687087990.7310119,0.7106602787971497,0.6777142286300659,0.18885232508182526,-0.5778936147689819,0.02199268341064453,0.13783812522888184,-0.6478309631347656,3.031597137451172,-3.7610104084014893,1.8305353011134313,-0.7446496731226144,-1.0830078957427756
1687087990.794302,0.5304086208343506,0.7914013266563416,0.30389150977134705,-0.5091837644577026,0.06396037340164185,0.23007437586784363,-0.718043327331543,3.1343295574188232,-3.915581464767456,2.091079933736181,-0.9130979622701454,-0.9402823431756545
1687087990.84694,0.30832573771476746,0.8605601787567139,0.4054274559020996,-0.5761784315109253,0.1738331913948059,0.21960291266441345,-0.5625396370887756,3.293003559112549,-3.9763410091400146,2.4914082291507413,-1.0363684528842931,-0.6538279111993921
1687087990.861909,0.0597883015871048,0.8917708396911621,0.4485197365283966,-0.4526562988758087,0.20634311437606812,0.29687196016311646,-0.13251851499080658,3.120584011077881,-4.136588096618652,3.0090725125659143,-1.1012438275444978,-0.2507103392007036
1687087990.919239,-0.19025863707065582,0.8795439004898071,0.43612295389175415,-0.4661438465118408,0.2734861373901367,0.2866244614124298,0.28153207898139954,2.7700417041778564,-4.151169776916504,-2.7302318837022104,-1.0749028024370149,0.19696950602886615
1687087991.023627,-0.42188552021980286,0.8237091898918152,0.37883418798446655,-0.4065597951412201,0.3247891664505005,0.39828047156333923,0.5734301209449768,2.3785324096679688,-4.219898700714111,-2.302480423305385,-0.9679219236360663,0.5432496978786832
1687087991.0474,-0.6185624599456787,0.728468656539917,0.2944710850715637,-0.3913402557373047,0.5310679078102112,0.3196491599082947,1.1812822818756104,1.5591880083084106,-4.053837299346924,-2.015106836741652,-0.8160839865678994,0.7863721982082791
1687087991.103314,-0.76075679063797,0.6128716468811035,0.21362848579883575,-0.20663505792617798,0.5441259741783142,0.4381810426712036,1.3605725765228271,0.6281485557556152,-3.500020742416382,-1.8445564381667503,-0.6596896340816881,0.95606871609453
1687087991.10728,-0.8512821793556213,0.4951416850090027,0.17364664375782013,-0.04787236452102661,0.6399595737457275,0.31287968158721924,1.462699294090271,-0.3954317569732666,-3.0651559829711914,-1.7720182326743368,-0.5179978963958518,1.078043989145843
1687087991.152542,-0.9110222458839417,0.38122543692588806,0.1571786105632782,-0.05411118268966675,0.6146546006202698,0.26231586933135986,3.512070894241333,-1.2313803434371948,-2.8664469718933105,-1.7416443185985668,-0.39112148766879223,1.2420438180686042
1687087991.197674,-0.9411771893501282,0.2931193709373474,0.16812551021575928,0.031005859375,0.5009937882423401,0.16541624069213867,4.012015342712402,-2.1294095516204834,-2.312459707260132,-1.7475650698499854,-0.29748790817337006,1.4724239730750603
1687087991.262568,-0.9423643350601196,0.24318629503250122,0.2298031449317932,-0.07599180936813354,-0.15560086071491241,-0.55043625831604,2.3903465270996094,-1.2939643859863281,-0.2895897328853607,-1.809986036934238,-0.24564941497220455,1.624004080419336
1687087991.365749,-0.9478909373283386,0.2461167275905609,0.20230938494205475,0.1715695858001709,0.28768154978752136,-0.12908264994621277,2.3969082832336426,-0.04553516209125519,-1.1378597021102905,-1.781072398304104,-0.24867169194389724,1.7508308780473747
1687087991.383189,-0.9528008699417114,0.2394029200077057,0.18669861555099487,-0.05209702253341675,-0.05139939486980438,0.04082499444484711,2.589118480682373,-0.3021077811717987,-0.14725105464458466,-1.7642918911521466,-0.24175084655691267,1.8718793584039581
1687087991.407882,-0.9508116245269775,0.26537013053894043,0.15979956090450287,0.09783005714416504,-0.08453819155693054,0.17978455126285553,3.3342535495758057,-0.2952880561351776,0.07298313081264496,-1.7373066751254223,-0.2685877860291134,2.03456433121859
1687087991.450268,-0.946374237537384,0.29335176944732666,0.1353531777858734,0.08146029710769653,-0.16719213128089905,0.21100594103336334,1.8011277914047241,-0.25281792879104614,0.21140486001968384,-1.7128558163610237,-0.29773099470260067,2.1724564522379546
1687087991.503732,-0.9424136877059937,0.30693474411964417,0.13284386694431305,0.05966222286224365,-0.11943474411964417,0.1377859264612198,0.11151561141014099,-0.21526485681533813,0.07700654864311218,-1.71083497622101,-0.3119706370791481,2.2167154287107986
1687087991.6055322,-0.9412788152694702,0.3060510456562042,0.14257057011127472,0.001978576183319092,-0.0531671941280365,-0.0008013546466827393,-0.11071665585041046,-0.1334616094827652,0.0030448611360043287,-1.7211184975393234,-0.3110422419833564,2.210948458585486
1687087991.610623,-0.9408593773841858,0.30707043409347534,0.1431475132703781,-0.13673144578933716,0.05538684129714966,-0.07315564155578613,0.3046283423900604,0.049780648201704025,-0.07123789191246033,-1.721783892392384,-0.31211321880356574,2.2134295102384063
1687087991.656275,-0.9443321228027344,0.30150145292282104,0.1316559612751007,-0.08002066612243652,0.03753355145454407,-0.061297908425331116,0.8716685175895691,0.00445652287453413,-0.35091450810432434,-1.7093204450469883,-0.3062670042885645,2.24634172776334
1687087991.742809,-0.9495773315429688,0.29019975662231445,0.11868751049041748,-0.0126875638961792,-0.023613423109054565,-0.03384876251220703,0.797674834728241,-0.035351820290088654,-0.28830379247665405,-1.6951413095673789,-0.2944355583925732,2.295125876205709
1687087991.7777991,-0.9520974159240723,0.28457993268966675,0.11191380023956299,0.008661746978759766,-0.00023239850997924805,0.013864293694496155,0.7017316818237305,-0.08981868624687195,-0.16171672940254211,-1.6878038975210794,-0.2885682208695658,2.3339192291413706
1687087991.824111,-0.9537289142608643,0.2817882001399994,0.1048642173409462,0.027917146682739258,0.01320996880531311,0.049325719475746155,0.7478963732719421,-0.04128934070467949,-0.11463712155818939,-1.6803082352434633,-0.28565733907225793,2.372169599862605
1687087991.940329,-0.9547890424728394,0.28125306963920593,0.09630271047353745,0.007721960544586182,-0.012210100889205933,0.04038535803556442,0.6842327117919922,-0.025352291762828827,-0.06768666207790375,-1.6713191765773001,-0.2850996321285987,2.4103181274023986
1687087991.946918,-0.9558467268943787,0.2804061472415924,0.0879175215959549,-0.021997451782226562,-0.02067101001739502,0.00409281998872757,0.6413264274597168,-0.011144647374749184,-0.09270083904266357,-1.6625169323251865,-0.28421721959922985,2.444935617530249
1687087992.0081701,-0.9571109414100647,0.27866819500923157,0.07926329970359802,-0.016964316368103027,-0.03783872723579407,-0.016519300639629364,0.5607090592384338,0.014224092476069927,-0.06745385378599167,-1.6534229396895794,-0.2824070889450549,2.477316315458992
1687087992.013012,-0.9577848315238953,0.2781435251235962,0.07269210368394852,-0.0007721185684204102,-0.05304586887359619,-0.004622817039489746,0.3459433317184448,-0.011343266814947128,-0.03138457238674164,-1.6465471688982356,-0.28186083020441205,2.5016525631051603
1687087992.046153,-0.9587621092796326,0.27560168504714966,0.06941819190979004,-0.01935678720474243,-0.03320053219795227,0.03951419144868851,0.13885003328323364,0.007522939704358578,-0.08998297154903412,-1.6430741793874382,-0.2792155846807399,2.5142114528736386
1687087992.095839,-0.9604004621505737,0.27009615302085876,0.06840328872203827,0.0062226057052612305,-0.004318565130233765,0.011659391224384308,0.11797425895929337,-0.0443904846906662,-0.14461413025856018,-1.6418999755062893,-0.27349290121812364,2.5209641086367744
1687087992.145084,-0.9617578387260437,0.26449882984161377,0.07114914804697037,0.0396997332572937,0.018765360116958618,-0.03600835055112839,0.2895275354385376,-0.0994306206703186,-0.09048761427402496,-1.6446400470128903,-0.26768420160759776,2.5304132317923753
1687087992.230011,-0.9621099233627319,0.2633156478404999,0.07077552378177643,0.0022559165954589844,0.041600704193115234,-0.029058218002319336,0.6988811492919922,-0.10100912302732468,-0.04522977024316788,-1.6442268842611256,-0.26645752821280105,2.555857572823895
