Timestamp,gravityX,gravityY,gravityZ,accelerationX,accelerationY,accelerationZ,rotationRateX,rotationRateY,rotationRateZ,attitudeRoll,attitudePitch,attitudeYaw
1687106287.85189,-0.729811429977417,0.6416211128234863,0.2360023558139801,0.007567346096038818,0.00785374641418457,0.0014853030443191528,-0.012050104327499866,-0.012127517722547054,-0.008943780325353146,-1.883557269514908,-0.6966099455402269,-2.5053740285601886
1687106287.8722758,-0.7299190759658813,0.6413168907165527,0.23649604618549347,-0.00016808509826660156,0.00860053300857544,0.0010068416595458984,-0.009202439337968826,-0.012938876636326313,-0.0034335670061409473,-1.8841262909648273,-0.6962133792480224,-2.505520531556359
1687106287.875299,-0.7295684814453125,0.6415743231773376,0.2368796020746231,0.006179928779602051,0.005138814449310303,0.004468560218811035,-0.023484334349632263,-0.026258625090122223,0.0074523924849927425,-1.8847428599771623,-0.6965488875573348,-2.5047961207203038
1687106287.88943,-0.728904128074646,0.6418614387512207,0.2381439357995987,0.0044016242027282715,0.007827222347259521,-0.002136319875717163,-0.012574374675750732,-0.036099374294281006,0.005114225670695305,-1.8865786121679482,-0.6969232542538331,-2.5057910401062444
1687106287.891551,-0.7287803292274475,0.6417752504348755,0.23875363171100616,0.0074974894523620605,0.00576174259185791,-6.046891212463379e-05,-0.0007423758506774902,-0.014354879036545753,-0.009268086403608322,-1.8873844749758935,-0.6968108815327847,-2.5055116784012466
1687106287.934793,-0.7289086580276489,0.6413167715072632,0.2395928055047989,0.0061151981353759766,0.0033364295959472656,-0.0001062154769897461,-0.006902320776134729,-0.014212559908628464,-0.0094369538128376,-1.8883717654394028,-0.6962131955061001,-2.5065020262230524
1687106287.945599,-0.7289075255393982,0.6407635807991028,0.24107198417186737,0.0012311339378356934,-0.0014661550521850586,-0.001448124647140503,-0.007627020590007305,-0.030613798648118973,-0.0005243523046374321,-1.890202562922749,-0.6954924084009646,-2.5082752974503064
1687106288.025826,-0.7288635969161987,0.6405709981918335,0.24171540141105652,-0.0025968551635742188,0.003365039825439453,-0.0036630630493164062,-0.0061074732802808285,-0.01642090640962124,-0.015141288749873638,-1.891016008114704,-0.6952416020078256,-2.5079584097073093
1687106288.028778,-0.728985071182251,0.6397609710693359,0.24348878860473633,0.0018731951713562012,0.002130568027496338,0.008983075618743896,-0.05451681837439537,-0.011423485353589058,-0.0070431712083518505,-1.893156345586059,-0.694187228294244,-2.510878243017533
1687106288.118645,-0.729028582572937,0.6393119692802429,0.24453453719615936,0.0065097808837890625,0.009888291358947754,-0.0004092603921890259,0.01076386496424675,-0.03377688676118851,-0.0010749162174761295,-1.8944283532114787,-0.6936031595739942,-2.511712309639481
1687106288.243633,-0.7284475564956665,0.6392987966537476,0.2462949901819229,-0.004599928855895996,-0.002412259578704834,0.003491312265396118,-0.021820176392793655,-0.02489258162677288,-0.0009739822708070278,-1.896839200443116,-0.6935859959478959,-2.5129087170838313
1687106288.2612019,-0.728197455406189,0.6393091082572937,0.24700592458248138,-0.0021185874938964844,0.006991982460021973,-0.007458329200744629,0.0005112276412546635,-0.0027617132291197777,0.0006648160051554441,-1.897819200980634,-0.6935994442160114,-2.5134859886752645
1687106288.363978,-0.7275823354721069,0.6396385431289673,0.2479640692472458,-0.004290163516998291,0.001138925552368164,0.0013644695281982422,-0.036701444536447525,-0.015630267560482025,0.02890188992023468,-1.8992567076398563,-0.6940279681452591,-2.514208837769597
1687106288.369282,-0.7264474630355835,0.6403517723083496,0.2494460493326187,-0.0020681023597717285,0.011579811573028564,-0.0015366077423095703,-0.008788211271166801,-0.014691716060042381,0.018924469128251076,-1.9015596484915263,-0.694956190515356,-2.516547782317758
1687106288.385375,-0.7252907156944275,0.6412342190742493,0.25054317712783813,-0.0033621788024902344,0.007172584533691406,0.00585019588470459,-0.01250571757555008,-0.01757831498980522,0.036770645529031754,-1.903401486438076,-0.6961056354060471,-2.518232995476473
1687106288.446916,-0.7237821221351624,0.6427434086799622,0.25103795528411865,0.0005155801773071289,0.0027337074279785156,-4.6253204345703125e-05,-0.004384301602840424,-0.01654602214694023,0.04005514457821846,-1.904654905244001,-0.6980740039807671,-2.519112040573277
1687106288.4504828,-0.7223604321479797,0.6441366076469421,0.2515617609024048,0.0021456480026245117,-0.0014975666999816895,0.003259897232055664,-0.011769620701670647,-0.004654528573155403,0.039488133043050766,-1.9059109686118656,-0.6998939699567758,-2.520318262930018
1687106288.476707,-0.7212637066841125,0.6452451348304749,0.2518676519393921,0.007091403007507324,-0.004620194435119629,0.001397639513015747,0.009379020892083645,-0.01258824486285448,0.033096812665462494,-1.906761204860249,-0.7013440824941781,-2.5214245935493156
1687106288.50526,-0.7201405167579651,0.6463631987571716,0.2522139549255371,-0.007917225360870361,-0.014145910739898682,0.00463712215423584,0.010744210332632065,-0.006542176939547062,0.027976442128419876,-1.9076749536650164,-0.7028084590050085,-2.521800552225042
1687106288.5661259,-0.7197226881980896,0.6468415260314941,0.25217998027801514,-0.00453561544418335,-0.011374175548553467,0.009294480085372925,-0.008583148010075092,-0.006909427233040333,0.008869681507349014,-1.9078140162470387,-0.7034355155151807,-2.521542002683969
1687106288.663367,-0.7198164463043213,0.6468899250030518,0.2517888844013214,0.0030654072761535645,0.0033479928970336914,0.0019036531448364258,0.023636944591999054,0.0009520114399492741,0.003572277957573533,-1.9072893537662232,-0.7034989872371191,-2.520965261735385
1687106288.750473,-0.7197495102882385,0.6470105051994324,0.25166940689086914,-0.0005414485931396484,-0.008018434047698975,0.009362548589706421,-0.008258349262177944,0.0002062197308987379,0.017400430515408516,-1.907170418793516,-0.7036571436284296,-2.5206732056102017
1687106288.756343,-0.719310462474823,0.6473311185836792,0.25209999084472656,0.003063023090362549,-0.0020981431007385254,0.004186481237411499,0.004091793671250343,0.003303742501884699,0.006150106433779001,-1.9078938002429877,-0.7040776753696971,-2.5216068392661795
1687106288.843285,-0.718768298625946,0.6476930379867554,0.2527164816856384,0.00578618049621582,-0.0032077431678771973,0.008849620819091797,-0.009094741195440292,-0.013799024745821953,0.01797429844737053,-1.9088927797705102,-0.7045526562911291,-2.5221894169580787
1687106288.861271,-0.7182194590568542,0.6482573747634888,0.25282979011535645,-0.002132594585418701,0.00462031364440918,0.008888840675354004,0.026776226237416267,-0.001328613143414259,-0.0015000011771917343,-1.909272248357776,-0.7052935602059317,-2.521633679121881
1687106288.960815,-0.7181216478347778,0.6483480334281921,0.2528758645057678,-0.0033140182495117188,-0.007906138896942139,-0.006583750247955322,0.0033956440165638924,-0.004259634763002396,0.0016836747527122498,-1.9093720133706469,-0.705412660391015,-2.521576067772389
1687106288.9666018,-0.7181971073150635,0.6482759118080139,0.2528456151485443,-0.0022617578506469727,-0.005316495895385742,0.0003432929515838623,0.018389560282230377,-0.005488257855176926,-0.006702930200845003,-1.9093016013968755,-0.7053178674027373,-2.520759314575641
1687106289.086313,-0.718572735786438,0.64787757396698,0.2527996897697449,-0.001977682113647461,-0.009480476379394531,0.0046617984771728516,0.010429318994283676,0.009112363681197166,-0.017522288486361504,-1.9090809847350425,-0.7047948276012513,-2.520162787362709
1687106289.1028461,-0.7189408540725708,0.6474320888519287,0.2528936266899109,0.0028154850006103516,-0.005876481533050537,0.0033623874187469482,0.008163447491824627,0.0017693357076495886,-0.0011995742097496986,-1.9090369571379608,-0.7042101396528716,-2.5201924034750265
1687106289.10645,-0.7191925048828125,0.6475114822387695,0.2519731819629669,0.0014344453811645508,0.004389584064483643,0.0016430318355560303,0.04971887916326523,-0.011074824258685112,-0.019848626106977463,-1.907787986130205,-0.7043143627884139,-2.517118139540607
1687106289.199328,-0.7194759845733643,0.647516667842865,0.2511495053768158,-0.0005862116813659668,5.0902366638183594e-05,0.0017647743225097656,-0.011526580899953842,0.024613026529550552,0.008802060037851334,-1.9066448907173559,-0.7043211716403092,-2.516037283507276
1687106289.264485,-0.7189114689826965,0.6490940451622009,0.24868163466453552,0.004251003265380859,0.044783830642700195,0.09100933372974396,0.13720270991325378,-0.02889946661889553,0.018377188593149185,-1.9038265571495658,-0.7063929149480394,-2.512563533847437
1687106289.270094,-0.7115297317504883,0.6548211574554443,0.25482237339019775,0.10488611459732056,0.1402226686477661,0.3332817554473877,-0.017863892018795013,-0.49853503704071045,0.35189905762672424,-1.9146982427313313,-0.7139459695671825,-2.51315073715638
1687106289.275068,-0.6730796694755554,0.6783300042152405,0.2946717441082001,0.07704102993011475,0.20170509815216064,0.5969601273536682,0.09636101126670837,-1.8709195852279663,1.0468789339065552,-1.9834554031475922,-0.7454874174317154,-2.5290950156335974
1687106289.317786,-0.5914672017097473,0.723121166229248,0.3567383885383606,-0.13208931684494019,0.13288158178329468,0.40244725346565247,0.7903305292129517,-2.9272820949554443,1.161756157875061,-2.1135225212137465,-0.8083103821032517,-2.5394787365827045
1687106289.379386,-0.4818580150604248,0.7879658341407776,0.38330501317977905,-0.2773582935333252,0.1754893660545349,0.46580082178115845,3.115190029144287,-4.222549915313721,1.0921684503555298,-2.2427707699382653,-0.9074982484590305,-2.477632942833508
1687106289.438648,-0.36003097891807556,0.8863471746444702,0.29114553332328796,-0.5074310302734375,-0.03325915336608887,0.3923260569572449,5.3544511795043945,-4.820878505706787,1.0451202392578125,-2.2508003204507396,-1.0893954973984943,-2.2141001212733875
1687106289.5318232,-0.24460478127002716,0.9599587917327881,0.1365550309419632,-0.5777065753936768,-0.1616343855857849,0.5293078422546387,4.790903091430664,-4.908023834228516,1.5303175449371338,-2.0799651838673987,-1.286855098413598,-1.76350830434036
1687106289.537754,-0.1486276239156723,0.9877609610557556,-0.047304585576057434,-0.44957786798477173,-0.36059439182281494,0.5796836614608765,4.328283786773682,-4.6832275390625,1.9128589630126953,-1.2626581469642193,-1.4141817305259317,-0.6902117630551396
1687106289.58988,-0.06522595882415771,0.9844722747802734,-0.16297107934951782,-0.7843985557556152,-0.26718729734420776,0.43715620040893555,1.611456274986267,-4.039794445037842,2.195439338684082,-0.3807048782983692,-1.3943418591097232,0.4350312232297973
1687106289.6811981,-0.0027402667328715324,0.9771010875701904,-0.2127569019794464,-0.5745149254798889,-0.4094896912574768,0.01877187192440033,1.097794532775879,-3.0591063499450684,1.6080492734909058,-0.012879089311163064,-1.3563815688125442,0.9903202224713081
1687106289.687238,0.043199557811021805,0.9722087979316711,-0.23009434342384338,-0.5248889327049255,-0.6340437531471252,-0.3990103304386139,-0.8144866824150085,-0.8446837663650513,1.0120078325271606,0.18558670464579827,-1.3344877328483322,1.297884659064328
1687106289.738841,0.06829237192869186,0.9829285144805908,-0.1708429902791977,-0.1029755249619484,-0.4041476249694824,-0.5976507663726807,-1.1722646951675415,0.02577166073024273,0.22192172706127167,0.3802801874153714,-1.3857541548658854,1.5090767220241244
1687106289.831213,0.06993332505226135,0.9883525371551514,-0.13516105711460114,0.023847289383411407,-0.026270687580108643,-0.3818373680114746,-0.2726075351238251,0.16900451481342316,-0.1863933950662613,0.47747632813697466,-1.4180212038708462,1.60269857078806
1687106289.8372002,0.059547122567892075,0.9895697832107544,-0.13116911053657532,0.1133045181632042,0.06757408380508423,-0.10056619346141815,0.06641774624586105,-0.1566861867904663,-0.1870923787355423,0.42615226477982826,-1.426239260171797,1.5502726222137697
1687106289.888675,0.05529669299721718,0.990679144859314,-0.12448576092720032,0.09880191087722778,0.052014708518981934,0.020725853741168976,-0.48077353835105896,0.049054134637117386,0.04460269212722778,0.41802096168323155,-1.4341554868357054,1.5453628099197771
1687106289.982528,0.06767167150974274,0.9926149845123291,-0.10067689418792725,0.31648367643356323,0.06625330448150635,-0.0639808177947998,-0.22855477035045624,0.43677955865859985,0.4818213880062103,0.591800793672112,-1.4491893727653689,1.7083627454987607
1687106289.988212,0.10326329618692398,0.9895764589309692,-0.10037435591220856,0.5879751443862915,-0.005689859390258789,-0.2498760223388672,0.14501312375068665,0.47057873010635376,0.7784535884857178,0.7995838648936617,-1.426285286120655,1.8967470925875944
1687106290.037591,0.13799314200878143,0.9862791895866394,-0.09061606228351593,0.6134870648384094,-0.14907526969909668,-0.16811203956604004,-0.48557063937187195,0.6341888904571533,0.42707544565200806,0.9897459046741605,-1.4049512858046227,2.05813601776466
1687106290.13186,0.14651748538017273,0.986530601978302,-0.07272997498512268,0.45507556200027466,-0.059162676334381104,-0.13819241523742676,0.20143873989582062,0.5811100006103516,-0.17636503279209137,1.1100399940643515,-1.4064812186524434,2.1530462620835293
1687106290.1377292,0.1184566393494606,0.9914286732673645,-0.05510734021663666,0.14559677243232727,-0.045063555240631104,0.0028458870947360992,-0.9553214311599731,0.39143916964530945,-1.1823333501815796,1.1353651253243717,-1.4397727810053567,2.152385815814923
1687106290.187918,0.038188643753528595,0.998390793800354,-0.04191688448190689,-0.21143683791160583,0.020148396492004395,-0.0019064508378505707,0.6798118352890015,0.8002672791481018,-2.050767660140991,0.7388900835154585,-1.5140572708732818,1.7150093273183153
1687106290.282701,-0.07932648807764053,0.9968143701553345,-0.008243982680141926,-0.8007698655128479,-0.24541079998016357,0.216327965259552,-2.387866973876953,0.08767305314540863,-2.31856632232666,-1.4672433474179307,-1.4909547255587072,-0.4918782058642209
1687106290.288279,-0.1579533815383911,0.9871155619621277,0.025558844208717346,-1.0269677639007568,0.4335843324661255,-0.019348623231053352,1.110172986984253,1.026869773864746,-0.7204824090003967,-1.7312184266487893,-1.410096539533571,-0.8344889769005642
1687106290.336416,-0.1572633534669876,0.9874700903892517,0.013059009797871113,-0.21746186912059784,-0.2679268717765808,0.045641422271728516,-0.4119880795478821,0.15765170753002167,0.4275055229663849,-1.653645360480969,-1.4123274541732647,-0.7577739856132796
1687106290.430756,-0.14477840065956116,0.9894604086875916,-0.002712549874559045,-0.028042569756507874,0.024303019046783447,-0.0884893536567688,1.0759581327438354,-0.20233798027038574,0.15269353985786438,-1.5520626440227394,-1.4254817064022627,-0.662410926139907
1687106290.436223,-0.136131152510643,0.9904916286468506,-0.019854597747325897,-0.12754060328006744,-0.2801494002342224,0.05055522918701172,-0.3047176003456116,0.028373194858431816,0.29881253838539124,-1.425968450565468,-1.4327855973937875,-0.5260174706712668
1687106290.521034,-0.11393870413303375,0.9929997324943542,-0.031129295006394386,-0.1636185646057129,0.04845815896987915,-0.03619253635406494,0.9819905161857605,-0.7575322985649109,0.6747945547103882,-1.3040941960531158,-1.4524035163432452,-0.38859650439756344
1687106290.612534,-0.07182073593139648,0.9936743974685669,-0.08632921427488327,-0.47964707016944885,-0.025717973709106445,0.15532934665679932,1.1564043760299683,-1.1297167539596558,1.1454776525497437,-0.6939154603145958,-1.4582592031067645,0.27659031124704425
1687106290.618283,-0.017252149060368538,0.9890518188476562,-0.14655569195747375,-0.6112419962882996,0.0010908246040344238,0.12880964577198029,1.445939302444458,-1.2421824932098389,1.2723573446273804,-0.11717807788556407,-1.4226869068099617,0.9145824973182566
1687106290.700726,0.02836516499519348,0.9746278524398804,-0.22202637791633606,-0.6356038451194763,0.0668758749961853,0.2720751166343689,1.1527783870697021,-1.2945173978805542,1.0598351955413818,0.1270675028105235,-1.3450523819902487,1.2283863535458592
1687106290.7066,0.048262499272823334,0.9635884761810303,-0.2629978060722351,-0.48765450716018677,-0.025615572929382324,0.21506991982460022,0.7685641646385193,-0.8683551549911499,0.21660278737545013,0.18148985043556234,-1.3001131693630146,1.3392051923197696
1687106290.790923,0.027438806369900703,0.9623897075653076,-0.2702828645706177,-0.08726844191551208,-0.16066259145736694,0.1315194070339203,-0.4705790579319,-0.37790122628211975,-0.782404363155365,0.10117223499956146,-1.2956656177681265,1.2912861464338086
1687106290.8094292,-0.04415791481733322,0.9674282073974609,-0.249263733625412,0.4726095199584961,-0.08281540870666504,-0.1434517800807953,-0.5646349191665649,0.07176291197538376,-1.905038595199585,-0.17533430214688245,-1.3148659842667625,1.0099912345087552
1687106290.8767781,-0.13781453669071198,0.9689272046089172,-0.20539481937885284,1.0347262620925903,-0.008264422416687012,-0.362583190202713,-0.8505988717079163,-0.009837998077273369,-1.7069804668426514,-0.5909785053946408,-1.320856194642334,0.5758030393380819
1687106290.880523,-0.19486941397190094,0.9666067957878113,-0.16642329096794128,0.7605738639831543,0.27678585052490234,-0.278721421957016,-0.8755567073822021,0.06156822293996811,-0.7154826521873474,-0.8639703586348868,-1.311641087685751,0.29030861649159506
1687106290.938343,-0.20744775235652924,0.9660908579826355,-0.15373219549655914,0.3964890241622925,0.3672524690628052,-0.3333284258842468,0.43782469630241394,-0.15705952048301697,0.15106302499771118,-0.9330383937921205,-1.3096353407345265,0.2243767667871583
1687106291.032858,-0.1914341002702713,0.9679471254348755,-0.16257694363594055,-0.02157852053642273,0.11599147319793701,-0.2256067544221878,-0.2250267118215561,0.2277543693780899,0.431199312210083,-0.8667331741616169,-1.3169239648661428,0.2932518168951457
1687106291.038441,-0.16057400405406952,0.9721813201904297,-0.1705271601676941,-0.24280725419521332,0.026399612426757812,-0.5902303457260132,0.2764888107776642,1.4109116792678833,0.4922001361846924,-0.7553464414125465,-1.3343702790469443,0.365799999892029
1687106291.0879831,-0.12707623839378357,0.9801619648933411,-0.15209846198558807,-0.2768695652484894,-0.3270096778869629,-0.4281018376350403,-1.9815163612365723,2.6820781230926514,0.26270392537117004,-0.6960077706854387,-1.371277116138737,0.3256593452821447
1687106291.180634,-0.09709661453962326,0.9947094917297363,-0.03354316204786301,-0.32027697563171387,-0.3320661783218384,-0.45931583642959595,-3.5298616886138916,3.7592339515686035,0.37434861063957214,-1.238170215011508,-1.467886934618541,-0.3857938264449525
1687106291.186729,-0.08989475667476654,0.9882060289382935,0.12396526336669922,-0.3091377317905426,-0.4519513249397278,-0.29663383960723877,-3.5227997303009033,4.352004051208496,0.16326749324798584,-2.514179051338788,-1.4170614016421563,-1.8758175059088127
1687106291.239758,-0.1266811043024063,0.9538744688034058,0.2721671760082245,-0.13618196547031403,-0.35434162616729736,-0.24608996510505676,-2.6988584995269775,4.472139358520508,0.16359062492847443,-2.7059623425768082,-1.265887941220753,-2.301178176087482
1687106291.33354,-0.20929014682769775,0.9238327741622925,0.3205161988735199,-0.33608949184417725,-0.341755747795105,0.026148170232772827,-1.5680745840072632,4.857863426208496,-0.72257000207901,-2.563126527008973,-1.1779751368514477,-2.393436677667659
1687106291.338815,-0.3345402777194977,0.8770646452903748,0.34473130106925964,-0.45111939311027527,-0.5066578388214111,0.18180355429649353,-2.7115397453308105,5.210386753082275,-0.9028933644294739,-2.3711962560887163,-1.0697170692775388,-2.4594182244839584
1687106291.387208,-0.47128987312316895,0.7960280776023865,0.3797689974308014,-0.850411057472229,-0.39510369300842285,0.6336280703544617,-4.051764965057373,5.20057487487793,-0.9485982060432434,-2.2490685212483212,-0.9207042428447383,-2.633623941984167
1687106291.483063,-0.5680643320083618,0.7077839374542236,0.41993361711502075,-0.6681569218635559,0.031610965728759766,0.6528049111366272,-3.3559610843658447,2.5042412281036377,0.26160669326782227,-2.2073728244642354,-0.7863562578099557,-2.85459612593406
1687106291.488406,-0.6031777262687683,0.6844638586044312,0.4094945192337036,-0.2077963948249817,0.025237560272216797,-0.2691747546195984,2.131721258163452,1.1203787326812744,-0.5718627572059631,-2.167217187323627,-0.753868044756403,-2.9022937168097385
1687106291.53825,-0.6448237895965576,0.6942480802536011,0.3197208046913147,0.26161468029022217,-0.1227608323097229,0.5926783084869385,0.5182405710220337,0.9529486298561096,-0.829538881778717,-2.031099668183874,-0.7673746943241588,-2.7590484381783735
1687106291.6341062,-0.6797759532928467,0.6661915183067322,0.3067454695701599,0.098507821559906,0.14951252937316895,0.438646137714386,-1.0744597911834717,0.9852437376976013,-0.17418748140335083,-1.9946850763565775,-0.729090387116634,-2.7892733197643227
1687106291.6398048,-0.6958612203598022,0.6583563685417175,0.28695574402809143,0.1168971061706543,0.4200736880302429,0.08383262157440186,1.1178178787231445,0.07500828802585602,-0.24648459255695343,-1.9619250405950999,-0.7186330228518614,-2.777879534107053
1687106291.687101,-0.698634922504425,0.666029691696167,0.2613683044910431,0.12759006023406982,0.19300949573516846,0.3152000904083252,0.5226985812187195,-0.18389511108398438,0.030567675828933716,-1.9287889966895624,-0.7288733610541908,-2.7217654109510647
1687106291.78059,-0.6914567351341248,0.6760346293449402,0.25468483567237854,0.0816546082496643,0.11481291055679321,0.11721751093864441,0.27736279368400574,-0.23431503772735596,0.20056208968162537,-1.9237073023373508,-0.7423679129712284,-2.6994637249207956
1687106291.786782,-0.6823233366012573,0.6856604814529419,0.2535828649997711,-0.0263710618019104,0.01146763563156128,0.02360820770263672,0.20999819040298462,-0.18658331036567688,0.1809588223695755,-1.9266234099459647,-0.7555107030444661,-2.689176275794319
1687106291.838437,-0.6752569675445557,0.6936194896697998,0.25083762407302856,-0.02785271406173706,-0.055176734924316406,-0.019270330667495728,0.2018095701932907,-0.10988039523363113,0.12887145578861237,-1.9264685356134779,-0.7665016621455816,-2.6785945618042164
1687106291.932857,-0.6704621911048889,0.6978951096534729,0.25183823704719543,-0.02793252468109131,-0.10548806190490723,-0.0005108118057250977,0.0241723470389843,-0.10786496102809906,0.0729069709777832,-1.930109468793492,-0.7724543330391266,-2.6763080699778166
1687106291.9384742,-0.6694361567497253,0.69976806640625,0.24935859441757202,-0.010052919387817383,-0.07583630084991455,-0.027801036834716797,0.1258161962032318,-0.057075392454862595,-0.0413895808160305,-1.927365047008823,-0.7750727603507418,-2.6675412410718433
1687106291.987139,-0.6698215007781982,0.6977542638778687,0.25392451882362366,-0.031182467937469482,-0.06337028741836548,0.03731974959373474,-0.1155773475766182,-0.07746593654155731,0.03199511021375656,-1.9331503905475769,-0.7722576506408139,-2.672366718917278
1687106292.082025,-0.6642360687255859,0.6986300349235535,0.2659059166908264,0.05756199359893799,0.13965708017349243,0.2198880910873413,-0.44240501523017883,-0.39083877205848694,0.2745949923992157,-1.9515771350739952,-0.7734809976245466,-2.686335447490671
1687106292.087755,-0.633783221244812,0.7057734131813049,0.3165476322174072,0.1454562544822693,0.29807162284851074,0.5406757593154907,-0.6536613702774048,-1.2451634407043457,0.7857248783111572,-2.034009650956394,-0.783514264884558,-2.7499667698694226
1687106292.137533,-0.561457097530365,0.7306916117668152,0.3884011209011078,0.06484454870223999,0.37967509031295776,0.6733511090278625,-0.10411888360977173,-2.7842228412628174,1.2730498313903809,-2.1759797519046167,-0.8193344725950015,-2.8087893219105617
1687106292.232862,-0.4308103621006012,0.7774665355682373,0.45820027589797974,-0.27307742834091187,0.2913961410522461,0.6694239377975464,1.2624163627624512,-4.261571884155273,1.5860737562179565,-2.3869941728247612,-0.8906274318854672,-2.850907766920033
1687106292.238492,-0.25415632128715515,0.855326771736145,0.45146501064300537,-0.65671706199646,0.03906714916229248,0.5069699883460999,3.0651731491088867,-5.291916847229004,1.5531728267669678,-2.6288545438562574,-1.026181193745694,-2.8532553195407853
1687106292.288159,-0.0780983716249466,0.9484443068504333,0.30717068910598755,-0.8476980924606323,-0.1821327805519104,0.4673042297363281,5.203678131103516,-5.699010372161865,1.538314700126648,-2.892617317302297,-1.2482908012071225,-2.839534796532805
1687106292.3825932,0.05700689181685448,0.9973557591438293,0.04506758227944374,-0.9308014512062073,-0.3292195200920105,0.7180243730545044,5.173115253448486,-5.760885715484619,1.8344186544418335,2.239756939201694,-1.4980587023487197,2.578642737588312
1687106292.388031,0.1321944147348404,0.9729706645011902,-0.18934741616249084,-0.8867719769477844,-0.5299776792526245,0.7583781480789185,2.8742849826812744,-5.807340145111084,2.112868070602417,0.6094886327421646,-1.337764125511116,1.2265322658122517
1687106292.437282,0.14356069266796112,0.9355757236480713,-0.32262688875198364,-1.0085203647613525,-0.6153396964073181,0.37751272320747375,1.2965917587280273,-5.085342884063721,1.5156810283660889,0.41866675298025013,-1.2098859145681218,1.3109592330428435
1687106292.532449,0.10867700725793839,0.9172705411911011,-0.3831499516963959,-0.7844429612159729,-0.9593697190284729,-0.0180341899394989,-0.635299026966095,-3.3430564403533936,0.5653870105743408,0.2763817383753598,-1.1611720546143556,1.4078444999427744
1687106292.538056,0.0769132524728775,0.9407933950424194,-0.33013930916786194,-0.38521701097488403,-0.447080135345459,-1.146697998046875,-1.1055164337158203,-1.0090155601501465,-0.3461172580718994,0.22888932993282599,-1.2249632752617332,1.4680719045448045
1687106292.58783,0.05243098363280296,0.9546265602111816,-0.2931533753871918,0.1023542582988739,0.1327146291732788,-0.8368973731994629,-0.5994395017623901,-0.10541310161352158,-0.34711402654647827,0.17698047709375977,-1.268403268405542,1.4298453812287824
1687106292.682222,0.041245054453611374,0.9608116149902344,-0.27411627769470215,-0.1177067756652832,0.25845712423324585,-0.23839601874351501,-0.16124475002288818,0.17022518813610077,-0.19869400560855865,0.14934522395414648,-1.289915498652057,1.3976066657700588
1687106292.6878881,0.03919282183051109,0.9604787230491638,-0.2755800485610962,0.03331702575087547,0.07899564504623413,0.02020886540412903,-0.0038413899019360542,0.13739502429962158,-0.022840332239866257,0.14127199423779688,-1.2887168907364015,1.383791040253903
1687106292.737071,0.043803632259368896,0.9647929072380066,-0.2593373656272888,0.14877763390541077,-0.12984728813171387,0.03785589337348938,-0.5435047149658203,0.27869337797164917,0.10992499440908432,0.16732668120481922,-1.3046548340325772,1.3990881049263246
1687106292.8317509,0.0603504553437233,0.9685380458831787,-0.24143670499324799,0.29786497354507446,-0.04416078329086304,-0.11859452724456787,0.002177939750254154,0.5207609534263611,0.40242573618888855,0.24494467061196096,-1.3192876038366301,1.4577769608844884
1687106292.837298,0.09457245469093323,0.9657144546508789,-0.2417673021554947,0.47665563225746155,-0.07327383756637573,-0.20476596057415009,-0.33987244963645935,0.9373791813850403,0.6070939898490906,0.37287242712581214,-1.308181477263025,1.5529997476543798
1687106292.8872042,0.1321781873703003,0.9712557196617126,-0.19796724617481232,0.711373507976532,-0.2098270058631897,-0.28430211544036865,-0.7276673913002014,0.8607063293457031,0.49765878915786743,0.5887017856680197,-1.3304504578681997,1.7305198605683334
1687106292.9828382,0.15300436317920685,0.9704433083534241,-0.1866263598203659,0.5116075277328491,-0.08532679080963135,-0.08314915001392365,-0.11532706022262573,0.9379943013191223,-0.16920475661754608,0.6867239568554271,-1.3270610335016213,1.7799154070553775
1687106292.988708,0.1248418316245079,0.9835445284843445,-0.13059242069721222,0.20897474884986877,-0.2615293264389038,-0.00911712646484375,-1.101828694343567,0.8430598378181458,-1.2062221765518188,0.762888978028417,-1.389132885588026,1.8140027112764383
1687106293.037002,0.047902919352054596,0.9834418892860413,-0.17477774620056152,-0.22252443432807922,0.1839926838874817,-0.016750633716583252,1.6456509828567505,0.8773486018180847,-2.4148643016815186,0.2675098116005293,-1.3885655012970863,1.2620490444692791
1687106293.13259,-0.08948095887899399,0.9920176863670349,-0.08884820342063904,-0.6731532216072083,-0.5802288055419922,0.3105125427246094,-4.253485202789307,0.5695992112159729,-2.557070255279541,-0.7889463989632817,-1.444361046551785,0.1870762755772358
1687106293.1380758,-0.1788511574268341,0.980825662612915,-0.07741335779428482,-1.2197998762130737,0.8507475852966309,0.23952263593673706,1.8401919603347778,0.3471984267234802,-1.5451372861862183,-1.1623066562222537,-1.37465403451121,-0.30049073380369923
1687106293.187241,-0.18681517243385315,0.9789132475852966,-0.08263619244098663,-0.3527660667896271,-0.3151713013648987,0.18007874488830566,-1.2377558946609497,0.2419554591178894,0.8629374504089355,-1.1543290221329245,-1.3650718053423738,-0.28046477914520407
1687106293.311681,-0.16071107983589172,0.9831027388572693,-0.08764012157917023,-0.0834600180387497,0.12439537048339844,-0.19040560722351074,1.4655733108520508,-0.40257468819618225,0.3107849657535553,-1.0715477616847875,-1.3867037002193099,-0.18851222613826343
1687106293.3174849,-0.14004118740558624,0.9839444160461426,-0.11064043641090393,-0.10683061182498932,-0.3378875255584717,0.03073008358478546,-0.34206098318099976,-0.06763242930173874,0.5379586815834045,-0.9021480422751945,-1.3913599354601751,6.295360762941925e-05
1687106293.3978539,-0.11218926310539246,0.9874483942985535,-0.1111709326505661,-0.08272641152143478,0.11640280485153198,0.032282955944538116,0.2684227228164673,-0.6310051679611206,0.7370561361312866,-0.7899572557593122,-1.41219002372777,0.12441783668271403
1687106293.402842,-0.06167604774236679,0.9909166693687439,-0.11949833482503891,-0.42337024211883545,0.10545766353607178,0.08972836285829544,0.7511907815933228,-0.7067482471466064,1.3841410875320435,-0.476464047697616,-1.4359101493472863,0.48231387534873676
1687106293.491158,0.0026037527713924646,0.9827850461006165,-0.18473418056964874,-0.361368328332901,0.09932243824005127,0.10198567807674408,1.370053768157959,-1.2481929063796997,1.6333012580871582,0.014093657865303335,-1.3849761855606952,1.0208657958594292
1687106293.509204,0.07081868499517441,0.9684938788414001,-0.2387557178735733,-0.7315241694450378,0.10631990432739258,0.22030776739120483,1.0701223611831665,-1.1758676767349243,1.542724609375,0.28834899945327275,-1.3191100552243733,1.3714081574517991
1687106293.6143289,0.118193119764328,0.947956919670105,-0.2956483066082001,-0.4719833433628082,-0.012379646301269531,0.2504516839981079,0.7658202052116394,-1.1316773891448975,1.1833035945892334,0.38031332480674485,-1.2467565642073837,1.526212615967978
1687106293.619781,0.13770216703414917,0.9356610178947449,-0.32492536306381226,-0.3080664873123169,-0.12686896324157715,0.1850784718990326,0.04334428161382675,-0.5824178457260132,0.1529432088136673,0.40085068974883914,-1.2101275895975643,1.596916087182871
1687106293.701299,0.1088172048330307,0.9448252320289612,-0.3089725375175476,0.16213320195674896,-0.26272690296173096,-0.07283297181129456,-0.3313094675540924,-0.21343474090099335,-1.1168475151062012,0.3386249792891385,-1.2370607062447252,1.5517196105008357
1687106293.7068272,0.041288916021585464,0.9549961686134338,-0.29373010993003845,0.8748793601989746,-0.20243287086486816,-0.2615678310394287,-1.0373945236206055,-0.36765286326408386,-1.588752031326294,0.1396525121598102,-1.2696468203123648,1.34362170382714
1687106293.791041,-0.029036641120910645,0.9675440192222595,-0.2510284185409546,0.9000389575958252,0.07727086544036865,-0.49822402000427246,-0.15001170337200165,-0.5040621161460876,-0.7818453311920166,-0.11515895801701884,-1.3153240082680058,1.113076735258803
1687106293.8092918,-0.05198395997285843,0.9700692892074585,-0.2371983528137207,0.5373966693878174,0.07454729080200195,-0.30541956424713135,-0.6692073345184326,-0.36957454681396484,0.05178103968501091,-0.21574721266803448,-1.3255159483537347,1.0263575893537564
1687106293.845244,-0.03740397468209267,0.9711562991142273,-0.2354908585548401,0.07249930500984192,0.29098939895629883,-0.4391002953052521,0.6560850143432617,0.21449588239192963,0.4976296126842499,-0.1575182454454523,-1.3300333172168128,1.0943819027196822
1687106293.941121,-0.014463449828326702,0.966606616973877,-0.2558560073375702,-0.25398433208465576,-0.1193777322769165,-0.396426796913147,-0.08687422424554825,1.1843360662460327,0.18272188305854797,-0.05646954953841017,-1.3116403519856141,1.1664967618047914
1687106293.958022,0.010587813332676888,0.9705736041069031,-0.24057114124298096,-0.4147014915943146,-0.2009509801864624,-0.4588613510131836,-0.45339521765708923,2.5461676120758057,-0.2760530114173889,0.04398276991976933,-1.327601624791128,1.1703479624528963
1687106293.99713,0.015966545790433884,0.988090455532074,-0.15304212272167206,-0.3785000443458557,-0.5443345904350281,-0.39981433749198914,-3.4856433868408203,3.5273654460906982,-0.5204603672027588,0.10395173559086054,-1.4163082950425707,1.078303269618497
1687106294.090334,0.00386546878144145,0.9992421269416809,0.0387265644967556,-0.40825381875038147,-0.4048972725868225,-0.35284411907196045,-3.3630218505859375,4.526517868041992,-0.5407243967056274,3.0421077654964948,-1.5318609688081308,-2.4727182787748063
1687106294.107781,-0.05198502540588379,0.968997597694397,0.24153916537761688,-0.2746598422527313,-0.4394718408584595,-0.07923147082328796,-5.23523473739624,4.979545593261719,-0.23607146739959717,-2.9296023935144135,-1.321140807719021,-2.3999591076386855
1687106294.14544,-0.13772207498550415,0.8937632441520691,0.4268721342086792,-0.31680673360824585,-0.08710741996765137,-0.06700891256332397,-2.8316810131073,5.328243732452393,0.2586425840854645,-2.829505165996375,-1.1056663216023948,-2.564778544714074
1687106294.2411032,-0.2673843502998352,0.8470234274864197,0.45940908789634705,-0.52485191822052,-0.36362510919570923,0.11448907852172852,-2.368154287338257,5.594922065734863,-0.4496796131134033,-2.6145001597161,-1.0103603195293571,-2.6348658112808128
1687106294.257889,-0.4220152199268341,0.7728133797645569,0.47398585081100464,-0.7925844192504883,-0.3819442391395569,0.40562230348587036,-2.604785442352295,5.575682163238525,-0.678294837474823,-2.4141324449473496,-0.8832623024540872,-2.743572448982432
1687106294.295696,-0.5550909638404846,0.7082703709602356,0.4361500144004822,-0.6946038603782654,-0.0019716620445251465,0.6221994757652283,-1.5814634561538696,3.3451905250549316,-0.3179403841495514,-2.2367734782514743,-0.7870450677443572,-2.8230893010393414
1687106294.451221,-0.5969396829605103,0.6768160462379456,0.4307926297187805,-0.3955528140068054,-0.20716607570648193,0.1825036108493805,-0.6490426063537598,1.4048844575881958,-0.019939040765166283,-2.1959174361961913,-0.7434288905305441,-2.910666021560993
1687106294.4567242,-0.6333119869232178,0.6800474524497986,0.36939316987991333,0.20446377992630005,0.23435062170028687,0.14891758561134338,1.5183310508728027,1.0070563554763794,-0.9164238572120667,-2.098825042319605,-0.7478273693039459,-2.842353138843828
1687106294.512505,-0.6822782754898071,0.6582160592079163,0.3181942403316498,0.22332453727722168,0.009386301040649414,0.6461458206176758,-0.700684130191803,1.360877275466919,-0.5311785936355591,-2.007179977536526,-0.7184466833486463,-2.795954110094828
1687106294.517301,-0.7041015028953552,0.6387534737586975,0.31021666526794434,0.05897533893585205,0.3967229127883911,0.39383894205093384,0.1726149320602417,0.3386329710483551,-0.16465657949447632,-1.985793321128594,-0.6928770841812687,-2.8270564116040613
1687106294.521076,-0.7070727944374084,0.6470516324043274,0.28525784611701965,0.13874393701553345,0.28588587045669556,0.295583039522171,0.7958804965019226,-0.2914063036441803,-0.004518694709986448,-1.95426032511887,-0.7037110936255028,-2.7752798967614325
1687106294.632566,-0.6990453004837036,0.6589961647987366,0.27759572863578796,0.13382935523986816,0.11486846208572388,0.2378307580947876,0.29757729172706604,-0.31061017513275146,0.22646616399288177,-1.9488061854117573,-0.7194833126475056,-2.7453599718626625
1687106294.7820048,-0.686509907245636,0.6704407334327698,0.2814486622810364,-0.040937602519989014,0.02238452434539795,0.028503090143203735,0.3078835904598236,-0.33191728591918945,0.24358749389648438,-1.9598681163087852,-0.7348026217202008,-2.7401355923833384
1687106294.787108,-0.6760596632957458,0.6829695701599121,0.2765781283378601,-0.0371055006980896,-0.08267378807067871,-0.08010604977607727,0.5853673815727234,-0.21670520305633545,0.10221955925226212,-1.9591255367788825,-0.7518203819030723,-2.7159849335169484
1687106294.8374329,-0.670205295085907,0.6897739768028259,0.2739277780056,-0.03494906425476074,-0.14878904819488525,0.07430815696716309,-0.0040421392768621445,-0.16511914134025574,0.11972779780626297,-1.9587991714221444,-0.7611768555262378,-2.701796763312043
1687106294.8520808,-0.6660472750663757,0.6931644082069397,0.2755066454410553,-0.06420785188674927,-0.09999436140060425,-0.10663768649101257,0.26723337173461914,-0.12216965109109879,-0.0349881649017334,-1.96300942514184,-0.7658701161258393,-2.697632708155444
1687106294.85518,-0.6665371656417847,0.6932087540626526,0.2742069959640503,-0.02773761749267578,-0.09431666135787964,0.007943153381347656,-0.09081926941871643,-0.06567612290382385,-0.03648115694522858,-1.9610832759069268,-0.7659316081628846,-2.6875756051620736
1687106294.897626,-0.6676025390625,0.6913776397705078,0.276231586933136,-0.0145263671875,-0.002306044101715088,-0.052659839391708374,0.05769328773021698,-0.06465863436460495,-0.036012060940265656,-1.9631137670212107,-0.7633940726148023,-2.6888740981529162
1687106295.0229712,-0.6660040020942688,0.691996157169342,0.2785312235355377,0.021869540214538574,0.020604372024536133,0.026949644088745117,-0.05147692561149597,-0.1447453796863556,0.10588178038597107,-1.9669039200756375,-0.7642505294998931,-2.6858045549149425
1687106295.0409942,-0.654440701007843,0.696747362613678,0.29368382692337036,0.06516158580780029,0.1666405200958252,0.2928028106689453,-0.4865879416465759,-0.4408421814441681,0.39890730381011963,-1.992614812868787,-0.7708529857131912,-2.706935121147758
1687106295.1427898,-0.6155001521110535,0.7077844738960266,0.3466987609863281,0.11215859651565552,0.2507266402244568,0.4788624942302704,-0.6522123217582703,-1.5208534002304077,0.9623382687568665,-2.083777900836246,-0.7863570668162224,-2.772374642566665
1687106295.1613212,-0.5296522378921509,0.7374780178070068,0.41904017329216003,-0.0960497260093689,0.29216980934143066,0.5120205879211426,0.400723397731781,-2.955014705657959,1.320428729057312,-2.240124320407971,-0.8293284943936995,-2.8315362158876556
1687106295.2275681,-0.39485183358192444,0.7952694892883301,0.4600414037704468,-0.3502500653266907,0.2039368748664856,0.45800352096557617,1.5515689849853516,-3.9609272480010986,1.6174232959747314,-2.4323018170857242,-0.9194519236901278,-2.8564877592682567
1687106295.242486,-0.23322272300720215,0.8708156943321228,0.4327661693096161,-0.6085893511772156,0.05844426155090332,0.3693271279335022,3.3571858406066895,-4.855970859527588,1.2503821849822998,-2.647302417744148,-1.0568591028007586,-2.8476306512513285
1687106295.318085,-0.08115730434656143,0.9554024934768677,0.2839359641075134,-0.6792491674423218,-0.15591824054718018,0.3202815353870392,4.433046817779541,-4.471137523651123,1.6609480381011963,-2.863186365143289,-1.2710196733346941,-2.821563234337104
1687106295.3223119,0.04815695062279701,0.9957432746887207,0.07858804613351822,-0.5252992510795593,-0.22074943780899048,0.6390479803085327,3.7756783962249756,-5.061342716217041,1.7271891832351685,2.5918311885648215,-1.4784954423296743,2.862731351939321
1687106295.410491,0.12504075467586517,0.9859814643859863,-0.11047612875699997,-0.6690165400505066,-0.5502364635467529,0.4119287133216858,2.6461479663848877,-4.652684211730957,1.6856324672698975,0.8471606633058807,-1.403157336517654,1.3516570999132813
1687106295.415407,0.1578083336353302,0.9593786001205444,-0.233856663107872,-0.6661853790283203,-0.49319225549697876,0.4883274435997009,1.245712161064148,-4.728165626525879,1.1055527925491333,0.5936177055707057,-1.2847912998673803,1.332324528313389
1687106295.500495,0.137019544839859,0.9475639462471008,-0.2887003719806671,-0.6449235081672668,-0.6843347549438477,0.21370339393615723,-0.42349937558174133,-4.371527671813965,0.603541374206543,0.44312852933083235,-1.2455247272231065,1.4155473145964814
1687106295.506221,0.10463874042034149,0.9660629630088806,-0.23616251349449158,-0.9062439203262329,-0.6224352717399597,-0.6083962917327881,-1.8096113204956055,-1.9992951154708862,-0.030469154939055443,0.41708385087870337,-1.3095273424830227,1.5545451918329642
1687106295.591018,0.05619185417890549,0.9886513352394104,-0.1393221765756607,-0.13472875952720642,-0.3771402835845947,-1.088293194770813,-2.3018252849578857,-0.31997987627983093,-0.8635082244873047,0.38336784474662183,-1.4199970250079283,1.5809661243973898
1687106295.608505,0.020217888057231903,0.9953317046165466,-0.09437186270952225,0.12899789214134216,0.46768099069595337,-0.8277168273925781,0.12762443721294403,0.1143297553062439,-0.6933287978172302,0.21104618727851346,-1.4741326582897845,1.4135219642785442
1687106295.6453528,0.005839584395289421,0.9971510767936707,-0.07520300149917603,0.2029159963130951,0.1801101565361023,-0.3000717759132385,-0.3417208194732666,0.27132633328437805,0.06452509015798569,0.07749544402341149,-1.4952939742204554,1.2698044429736344
1687106295.739142,0.019909821450710297,0.994739830493927,-0.10048016905784607,0.27022087574005127,0.25625187158584595,-0.0905447006225586,0.6251413822174072,0.2095908224582672,0.45314672589302063,0.19561297354072918,-1.468182358473248,1.379487329620697
1687106295.754916,0.057122036814689636,0.9925203323364258,-0.10788945853710175,0.43761375546455383,-0.09908789396286011,-0.1499994397163391,0.02076946757733822,0.5398610830307007,0.9853866696357727,0.4869288218608915,-1.4484116651774415,1.6496487556682933
1687106295.7975302,0.1122388020157814,0.985698938369751,-0.12569773197174072,0.5806781649589539,-0.10361891984939575,-0.36555910110473633,0.6275331377983093,0.6148345470428467,1.0289720296859741,0.7288931751245556,-1.4014726510163344,1.8703903132834516
1687106295.889017,0.15867534279823303,0.9747584462165833,-0.15706095099449158,0.6542825102806091,-0.11423903703689575,-0.15000702440738678,1.120377540588379,0.8045448064804077,0.6174291372299194,0.7905112267052677,-1.3456364289266853,1.890635434749013
1687106295.906055,0.17572709918022156,0.9706047773361206,-0.16445675492286682,0.36196213960647583,-0.11666208505630493,-0.015368089079856873,-0.8484406471252441,0.5647409558296204,-0.2865713834762573,0.8185162089741482,-1.3277309384851643,1.8921650028472579
1687106295.943939,0.1371542513370514,0.9800103306770325,-0.1441127061843872,-0.0023885518312454224,-0.10047852993011475,-0.017081215977668762,1.0396864414215088,1.0706037282943726,-1.5290697813034058,0.7606635301436006,-1.3705133113361965,1.7885463876635674
1687106296.039815,0.04020252823829651,0.9904492497444153,-0.13188491761684418,-0.40566569566726685,-0.2520003914833069,0.20532537996768951,-1.5821343660354614,-0.036291979253292084,-2.422790765762329,0.2958824248409895,-1.4324780255184215,1.2859235958714963
1687106296.05657,-0.06150532513856888,0.9932674765586853,-0.09816660732030869,-1.5016201734542847,0.43968528509140015,0.4635534882545471,0.3470817506313324,1.5704673528671265,-1.8048423528671265,-0.5597061023305091,-1.4546919864249732,0.36913861456908376
1687106296.0962238,-0.10613793879747391,0.9874507784843445,-0.1169421449303627,-0.5623342394828796,0.05696737766265869,0.13343679904937744,0.32950305938720703,0.3692164421081543,0.007582088001072407,-0.7370040221089107,-1.4122053484979222,0.15356059288469637
1687106296.19045,-0.08729363977909088,0.9872512221336365,-0.13309620320796967,-0.21782103180885315,-0.07973486185073853,0.050378262996673584,0.5338518023490906,-0.34005481004714966,0.506057620048523,-0.5804898084853142,-1.4109466195360003,0.31384641962503607
1687106296.2071362,-0.05959659442305565,0.9822909235954285,-0.1776304394006729,-0.2682689130306244,-0.09049111604690552,0.010073602199554443,1.0134530067443848,-0.6489433646202087,0.7626600861549377,-0.323707304677784,-1.3823204330612782,0.6015508847848937
1687106296.2443628,-0.01964263617992401,0.9793645143508911,-0.20114420354366302,-0.31531822681427,-0.16747504472732544,0.06532563269138336,0.26439979672431946,-0.7224428057670593,1.1406275033950806,-0.09734583778100822,-1.3672928786970464,0.860774857806417
1687106296.3411798,0.03479745239019394,0.9736586809158325,-0.225338876247406,-0.5685955882072449,0.0035445094108581543,0.12615670263767242,0.8102115988731384,-1.0691221952438354,1.4126601219177246,0.1532125526479581,-1.3407624928696305,1.1690737957315482
1687106296.35853,0.08758652955293655,0.9574140310287476,-0.2751120924949646,-0.6967478394508362,0.025953710079193115,0.1744956076145172,0.9572464823722839,-1.0216387510299683,1.2772654294967651,0.3082206395846155,-1.2779082586103967,1.3819668229137638
1687106296.394438,0.11939873546361923,0.9457643628120422,-0.30211469531059265,-0.5110917687416077,-0.12417036294937134,0.2708646357059479,0.1585501730442047,-0.7790517210960388,0.5640948414802551,0.3763702188449698,-1.2399395727716975,1.5005664798577918
1687106296.489259,0.11720812320709229,0.9427793622016907,-0.3121364414691925,-0.2383933663368225,0.061004638671875,0.15280407667160034,0.022831447422504425,-0.5975704789161682,-0.31126993894577026,0.3592114588458141,-1.2308704033988493,1.5213662040777722
1687106296.505873,0.07251357287168503,0.9486998319625854,-0.30775049328804016,0.16396722197532654,0.004181027412414551,-0.004932671785354614,-0.26593461632728577,0.13561731576919556,-1.3498210906982422,0.23140374262129773,-1.249098134910906,1.3942795937463928
1687106296.547752,-0.008414765819907188,0.9680227637290955,-0.25072064995765686,0.6482006311416626,-0.15338671207427979,-0.1809810996055603,-1.849623203277588,0.15213674306869507,-1.8473435640335083,-0.033549722724937524,-1.317225396687669,1.1112263402155762
1687106296.6404529,-0.08089505136013031,0.9726136922836304,-0.2178950011730194,0.8755881786346436,0.3252376914024353,-0.5366522073745728,0.5938233733177185,0.18438409268856049,-1.1961137056350708,-0.35548512830340373,-1.3362233763913254,0.7755972810343533
1687106296.658556,-0.1171211525797844,0.9750159382820129,-0.18874940276145935,0.7187448143959045,-0.05767291784286499,-0.3453388214111328,-2.044975996017456,0.21096095442771912,-0.2608812749385834,-0.555365037052806,-1.3467927384810212,0.5586133838614802
1687106296.7278352,-0.10204645246267319,0.9858200550079346,-0.13321080803871155,0.11045414209365845,0.3263136148452759,-0.7495254874229431,0.06296437978744507,1.267299771308899,0.4584603011608124,-0.6536957228119926,-1.4021928171949882,0.42115402679174885
1687106296.82041,-0.06952814012765884,0.9881539344787598,-0.13681137561798096,-0.1553863286972046,-0.06312054395675659,-0.6101064085960388,-1.0028066635131836,2.0847668647766113,0.4624452292919159,-0.470189534975461,-1.4167215337491184,0.5269557597790734
1687106296.84045,-0.025479571893811226,0.9988759160041809,-0.03996424376964569,-0.31851449608802795,-0.2740989923477173,-0.5650315284729004,-2.9474220275878906,3.424546003341675,0.7436108589172363,-0.5675797358929318,-1.52337760476946,0.2858674437497724
1687106296.907583,-0.0003577730676624924,0.9960671663284302,0.08859853446483612,-0.32993391156196594,-0.5337413549423218,-0.1845306158065796,-2.3236255645751953,4.138422012329102,0.3601498007774353,-3.1375545380177683,-1.4820788063147612,-2.471938965417344
1687106296.911601,-0.018302183598279953,0.9741724729537964,0.22506177425384521,-0.32613441348075867,-0.40074729919433594,-0.18288660049438477,-3.0728132724761963,4.6737236976623535,0.3549692928791046,-3.060450493412431,-1.3430266895328913,-2.6153874479397348
1687106297.002208,-0.08115480095148087,0.9342294335365295,0.34731703996658325,-0.32680416107177734,-0.5082041025161743,0.03827252984046936,-2.837151527404785,4.962557792663574,-0.051009852439165115,-2.9120490189771213,-1.2060925007284045,-2.716073450640356
1687106297.021025,-0.20244543254375458,0.8791087865829468,0.43148964643478394,-0.5062184929847717,-0.5103955268859863,0.12580710649490356,-2.8446438312530518,5.272314548492432,-0.7078306674957275,-2.7029052912110454,-1.07398913767678,-2.7752602767238095
1687106297.086687,-0.36602693796157837,0.8034119606018066,0.4696308374404907,-0.7826546430587769,-0.29527920484542847,0.4306986331939697,-2.377143144607544,5.377116680145264,-1.5968598127365112,-2.479543933022719,-0.9330036026831258,-2.827890105790938
1687106297.100243,-0.5377722978591919,0.7210010886192322,0.4369870722293854,-0.9123313426971436,-0.054482221603393555,0.3417603075504303,-1.3829838037490845,4.210981845855713,-1.215938925743103,-2.2531656261036224,-0.8052459483412275,-2.850191385761799
1687106297.146302,-0.6023985147476196,0.6781530976295471,0.4209800064563751,-0.3213990330696106,0.02454453706741333,0.47121661901474,-1.2931172847747803,0.9096091389656067,0.05394323915243149,-2.180743129786115,-0.7452466290100136,-2.9123670066006877
1687106297.2394938,-0.6228320002555847,0.671955406665802,0.40069395303726196,0.16802865266799927,0.3617052435874939,0.09515544772148132,1.1628987789154053,0.5539696216583252,-0.6565267443656921,-2.142476764191059,-0.7368459747781813,-2.9015577441621043
1687106297.256475,-0.6687499284744263,0.6634143590927124,0.33564093708992004,0.38429558277130127,0.21334034204483032,0.4731053411960602,0.5582077503204346,1.0989528894424438,-0.8475974202156067,-2.0359572239572445,-0.7253726869021978,-2.805497290174464
1687106297.3592649,-0.7000889182090759,0.641730785369873,0.3131408989429474,0.15983611345291138,0.40401512384414673,0.5844268798828125,-0.8386792540550232,0.5893486738204956,-0.05503928288817406,-1.9913921247424409,-0.696752897966695,-2.8174751009004204
1687106297.379009,-0.699854850769043,0.6492174863815308,0.29785844683647156,0.02685070037841797,0.4521006941795349,0.021904587745666504,1.255265712738037,-0.11989312618970871,0.0945538729429245,-1.9731753464308524,-0.7065551982158823,-2.8036176488540767
1687106297.4464998,-0.6918331384658813,0.669456958770752,0.2705441415309906,0.09468048810958862,0.058478713035583496,0.24624040722846985,0.48426535725593567,-0.21546226739883423,0.3178974390029907,-1.9435669561052924,-0.733477549680275,-2.7455903759003695
1687106297.450158,-0.6771328449249268,0.6837124228477478,0.27208060026168823,-0.041342318058013916,-0.0804259181022644,0.019041746854782104,-0.0354299396276474,-0.07169321924448013,0.35053661465644836,-1.952864433054929,-0.7528378551592361,-2.7501648971809285
1687106297.544407,-0.6665538549423218,0.693498969078064,0.27343136072158813,-0.05973386764526367,-0.11451965570449829,0.00031110644340515137,0.23436696827411652,-0.1591411530971527,0.200936958193779,-1.96007884113408,-0.7663343358893857,-2.753054476644722
1687106297.550045,-0.6577143669128418,0.7033432126045227,0.269666463136673,-0.026581287384033203,-0.14172828197479248,0.0110493004322052,0.19402003288269043,-0.22080306708812714,0.14504116773605347,-1.9598981933291417,-0.7800897027187735,-2.737816193715098
1687106297.5998812,-0.6519049406051636,0.7072391510009766,0.2735551595687866,-0.02564626932144165,-0.1319524645805359,0.06740236282348633,-0.02985040657222271,-0.2516234815120697,0.054332882165908813,-1.9681049186121617,-0.7855853550832528,-2.7341439024935403
1687106297.6907349,-0.6461277604103088,0.7057871222496033,0.290487140417099,-0.03413945436477661,-0.11348694562911987,0.08493992686271667,-0.234235018491745,-0.29961246252059937,0.0341968759894371,-1.993302227283324,-0.7835336357406743,-2.7499455198006966
1687106297.7092218,-0.6391758918762207,0.7043869495391846,0.3086956739425659,-0.009307324886322021,-0.005504012107849121,0.11468982696533203,0.06384125351905823,-0.6022928953170776,-0.005594389513134956,-2.02071833104224,-0.7815590962459108,-2.7570297261858445
1687106297.7456279,-0.6249898076057434,0.7106157541275024,0.3231296241283417,-0.026911377906799316,0.06314206123352051,0.18837547302246094,0.7263484001159668,-1.148545503616333,0.04302294924855232,-2.0479637204496615,-0.7903729542404849,-2.7355369134326986
1687106297.839971,-0.5951440930366516,0.7340298295021057,0.327114075422287,-0.08426874876022339,0.14463216066360474,0.26127997040748596,1.9814696311950684,-2.124635934829712,0.10682456195354462,-2.073361911852233,-0.8242370335819986,-2.6580041025186336
1687106297.857257,-0.5582255125045776,0.7720023393630981,0.30396735668182373,-0.1464710831642151,-0.13024836778640747,0.22503948211669922,2.9588818550109863,-2.9205117225646973,-0.2941170036792755,-2.0694258072817338,-0.881985377620039,-2.482977169205494
1687106297.897223,-0.5245199203491211,0.8114263415336609,0.25780928134918213,-0.16450583934783936,-0.06499713659286499,0.23367616534233093,3.864406108856201,-3.422349214553833,-0.26508063077926636,-2.0276327328012895,-0.9465884381629927,-2.2240462484152164
1687106297.988086,-0.4924698770046234,0.8519039154052734,0.17813751101493835,-0.11930066347122192,-0.1960049867630005,0.28608059883117676,3.725781202316284,-3.250441312789917,0.09138835221529007,-1.917876082975666,-1.0196100952412004,-1.8933097112227038
1687106298.004142,-0.45413830876350403,0.88575679063797,0.09588012099266052,-0.1363767385482788,-0.14849799871444702,0.10542905330657959,3.126307725906372,-2.3574845790863037,0.6945978403091431,-1.77886611765548,-1.088121965403055,-1.5690565446063764
1687106298.047027,-0.408546507358551,0.9120944738388062,0.03425132483243942,0.0030442476272583008,-0.1795201301574707,0.05218970775604248,1.9900544881820679,-1.890038013458252,1.005658507347107,-1.6544377640090049,-1.1483641087350904,-1.3113390603499184
1687106298.138332,-0.35913750529289246,0.9332807660102844,0.0026568800676614046,-0.04485413432121277,-0.1135329008102417,-0.003770828014239669,0.559148907661438,-1.610317587852478,1.065185308456421,-1.578194138589684,-1.2034419899801363,-1.1313649822489587
1687106298.1550841,-0.3062566816806793,0.9519070982933044,0.008898957632482052,-0.06900259852409363,0.036343395709991455,-0.2968475818634033,0.5372825860977173,-1.0400006771087646,1.1350549459457397,-1.5998453393136594,-1.2594013023057096,-1.0855729558309646
1687106298.1952028,-0.2521674633026123,0.9676827192306519,-0.0011918622767552733,-0.08709633350372314,0.008025169372558594,-0.21319425106048584,0.0425570011138916,-0.6960369944572449,1.030415654182434,-1.5660698905802841,-1.3158732637970836,-1.0044576827450267
1687106298.2591991,-0.20771105587482452,0.9774646759033203,0.0376666858792305,-0.093604177236557,-0.1962757706642151,-0.29126787185668945,-1.1509186029434204,-0.17973099648952484,0.7824181318283081,-1.7501885938402848,-1.3580972369838202,-1.1733472144774038
1687106298.2742891,-0.18100795149803162,0.9794730544090271,0.08870459347963333,-0.0692971795797348,-0.14068222045898438,-0.2673240900039673,-0.8976809978485107,0.14880645275115967,0.2704212963581085,-2.026459635698283,-1.3678305961760095,-1.453581773303254
1687106298.314968,-0.1856551170349121,0.9745256304740906,0.12582454085350037,-0.07198946177959442,-0.30320000648498535,-0.2365271896123886,-0.7336629033088684,0.5674868226051331,-0.3820781707763672,-2.1664209668353416,-1.3445962267283051,-1.6143752357925587
1687106298.376447,-0.2300797551870346,0.9620543718338013,0.14667750895023346,-0.10451488196849823,-0.4289429783821106,-0.1675058752298355,-0.44896677136421204,0.8873475193977356,-1.2894909381866455,-2.138339088269283,-1.294434012030698,-1.6227787503206326
1687106298.4380941,-0.32172060012817383,0.9347635507583618,0.15070782601833344,-0.1776232123374939,-0.4443766474723816,-0.08997796475887299,-0.5145873427391052,1.0922704935073853,-2.1786611080169678,-2.0088813393464098,-1.2075930067388387,-1.540337986463155
1687106298.497195,-0.43775802850723267,0.8779622912406921,0.19377799332141876,-0.3112805485725403,-0.3230307698249817,0.07518863677978516,-2.4377403259277344,1.1841224431991577,-2.3181099891662598,-1.987529633549275,-1.0715889274989188,-1.5778166588137021
1687106298.5918078,-0.5438637137413025,0.7937413454055786,0.27237197756767273,-0.35748809576034546,-0.02291327714920044,0.12002286314964294,-2.505683422088623,1.6173601150512695,-1.9808974266052246,-2.0350911457684417,-0.9169354537653838,-1.7234682169901716
1687106298.61067,-0.6398231983184814,0.7101523876190186,0.29378455877304077,-0.20946556329727173,0.11855226755142212,0.08335158228874207,-1.0367238521575928,1.6001206636428833,-1.9322212934494019,-2.001245859694895,-0.7897146626804304,-1.783556825449243
1687106298.645949,-0.7271214723587036,0.6390807628631592,0.25073912739753723,-0.09337413311004639,0.1026948094367981,0.13275998830795288,0.43115630745887756,1.2283146381378174,-2.0210964679718018,-1.9028651032415629,-0.6933025139290966,-1.747918373456632
1687106298.7441912,-0.7994685769081116,0.5699372887611389,0.18979203701019287,-0.0400087833404541,0.13005948066711426,0.17524383962154388,1.320136547088623,0.5832330584526062,-2.0073740482330322,-1.8038793434215588,-0.6064295664555241,-1.6578433414130005
1687106298.749376,-0.8506815433502197,0.5057104825973511,0.14351744949817657,-0.021418988704681396,0.1616935133934021,0.26570793986320496,1.4182037115097046,-0.18006326258182526,-1.70343017578125,-1.7379312710476789,-0.5302052886853581,-1.5536206354652498
1687106298.832934,-0.8808425068855286,0.45332276821136475,0.13643518090248108,0.03970193862915039,0.11135914921760559,0.28174710273742676,1.078163981437683,-0.7799997925758362,-1.1568753719329834,-1.7244668520038093,-0.47048963981295155,-1.4757289575775911
1687106298.923387,-0.8955557942390442,0.41781267523765564,0.15300963819026947,0.10898071527481079,0.3145022988319397,0.24507687985897064,2.061903715133667,-1.4432258605957031,-1.030195713043213,-1.7400167644977407,-0.4310364410730159,-1.3798990573958294
1687106298.942045,-0.9028170704841614,0.39323922991752625,0.174022376537323,0.06167656183242798,0.36274218559265137,0.16135047376155853,2.867356300354004,-1.5720096826553345,-0.859754741191864,-1.761215799722933,-0.4041520013078069,-1.2400855263004915
1687106299.010082,-0.8999170660972595,0.399204820394516,0.1754545420408249,0.03825348615646362,0.5357621908187866,-0.11855460703372955,1.3114100694656372,-0.8825623393058777,0.10467443615198135,-1.7633482541339944,-0.41064939778847986,-1.0703160456680558
1687106299.0254521,-0.8922659158706665,0.4111063480377197,0.1866900771856308,-0.21240931749343872,-0.15677279233932495,-0.707075834274292,-1.5549520254135132,0.7532110810279846,0.6996128559112549,-1.7770523002949394,-0.4236673749052851,-1.1159029797605493
1687106299.0958982,-0.8800218105316162,0.43625596165657043,0.18772786855697632,0.05612379312515259,0.24904665350914001,-0.07694914937019348,-0.21667711436748505,0.11303380876779556,0.7323755025863647,-1.7809679201961903,-0.45143357896845987,-1.1710986177528209
1687106299.0994492,-0.8679489493370056,0.46654656529426575,0.1702895611524582,-0.16676461696624756,0.19786685705184937,0.04037320613861084,1.8936434984207153,-0.24178308248519897,0.4304405152797699,-1.7645331413948713,-0.4853823283225777,-1.1345086077684419
