Timestamp,gravityX,gravityY,gravityZ,accelerationX,accelerationY,accelerationZ,rotationRateX,rotationRateY,rotationRateZ,attitudeRoll,attitudePitch,attitudeYaw
1687102356.758985,-0.8038486242294312,0.5896920561790466,0.07804420590400696,0.025467216968536377,0.3681480288505554,-0.30767393112182617,-1.2046250104904175,1.1137354373931885,-0.7583763003349304,-1.6675811804913052,-0.6306774895044238,1.2533039207146897
1687102356.762572,-0.825028657913208,0.5614418983459473,0.06411352008581161,-0.011351227760314941,0.041524410247802734,-0.09899532794952393,-1.4823938608169556,1.034770131111145,-0.39291107654571533,-1.6483511180710662,-0.5961271933561305,1.18657557212921
1687102356.76586,-0.8346554636955261,0.5469622611999512,0.06467179954051971,-0.025543391704559326,0.15269899368286133,-0.025029659271240234,-1.3430767059326172,0.9090820550918579,-0.10614778846502304,-1.6481250526188673,-0.5787313139733028,1.1014820499689577
1687102356.815861,-0.8364301919937134,0.5440775156021118,0.06606118381023407,-0.03316807746887207,0.009007811546325684,0.08643495291471481,-1.3725430965423584,0.7342626452445984,0.16254237294197083,-1.649612636504776,-0.575289258541833,1.0192603885581737
1687102356.911192,-0.8340369462966919,0.5464977622032166,0.07564543187618256,-0.06710118055343628,-0.06793636083602905,0.13129401206970215,-1.3496583700180054,0.6052502393722534,0.07542837411165237,-1.661246791887494,-0.5781765053089486,0.9413583681964468
1687102357.031254,-0.8375546336174011,0.538619875907898,0.09160082042217255,-0.047546565532684326,-0.055526673793792725,0.13711297512054443,-1.2092831134796143,0.48011043667793274,-0.18114309012889862,-1.6797303576813962,-0.5687982202246613,0.859418664093538
1687102357.036051,-0.8450825214385986,0.5261187553405762,0.09504911303520203,0.046559691429138184,0.09839296340942383,0.057446956634521484,-0.16313354671001434,0.23250506818294525,-0.22348353266716003,-1.6827987920328114,-0.5540301391902404,0.8213005108968243
1687102357.040823,-0.8488783836364746,0.5213201642036438,0.08735404908657074,0.06479036808013916,0.07091927528381348,0.047228336334228516,0.47512128949165344,-0.05337632820010185,-0.03150583803653717,-1.6733406333410257,-0.548397232607997,0.8324126213426661
1687102357.083235,-0.848465621471405,0.5230247378349304,0.08093969523906708,-0.01339656114578247,-0.002455770969390869,0.016594298183918,0.061641987413167953,-0.009441148489713669,-0.015923306345939636,-1.6659038957451768,-0.5503959497317363,0.852815630707412
1687102357.178537,-0.8498357534408569,0.5210405588150024,0.07934790104627609,0.007443785667419434,0.05952596664428711,0.009412296116352081,0.051045700907707214,0.07382386177778244,-0.05489194393157959,-1.663894933916939,-0.548069598532708,0.8523079342740119
1687102357.1842818,-0.850666880607605,0.5207796096801758,0.07179394364356995,0.03365039825439453,0.054019033908843994,-0.00570833683013916,0.3044762909412384,0.03220302239060402,0.0025097623001784086,-1.6549940430732373,-0.5477638959192169,0.8642571831005365
1687102357.2699509,-0.8502774834632874,0.5224118232727051,0.06414126604795456,0.013622879981994629,0.005267679691314697,0.015036344528198242,0.17011989653110504,0.022656016051769257,-0.01326074544340372,-1.6460894116814337,-0.5496769628384166,0.878462505010963
1687102357.3318639,-0.8500410318374634,0.523325502872467,0.059670135378837585,0.01016688346862793,-0.01653534173965454,-0.0059593915939331055,0.15922068059444427,0.06976829469203949,-0.038764018565416336,-1.64087813673517,-0.5507488798667022,0.8853734815927088
1687102357.337426,-0.8527376055717468,0.5199494361877441,0.0499124601483345,-0.0038450956344604492,-0.022421300411224365,-0.0010692998766899109,0.13019788265228271,0.1565752476453781,-0.13232633471488953,-1.6292616470884953,-0.5467917578391331,0.8970329218587858
1687102357.383853,-0.8564262390136719,0.514404296875,0.043841373175382614,0.002712428569793701,-0.057968199253082275,0.01571344956755638,-0.0005525657907128334,0.10053786635398865,-0.126975417137146,-1.621942747339956,-0.5403128551443188,0.8986730255538429
1687102357.478972,-0.860043466091156,0.508760929107666,0.03856715187430382,-0.012728691101074219,-0.02472156286239624,-0.016121741384267807,0.07453829795122147,0.08026993274688721,-0.1473684310913086,-1.6156095632281418,-0.533744929619828,0.9035118291185487
1687102357.4844918,-0.8651775121688843,0.5003212094306946,0.033860284835100174,-0.012568950653076172,-0.031449079513549805,-0.004426240921020508,-0.13790978491306305,0.15397584438323975,-0.19408291578292847,-1.609913171743251,-0.5239696830781436,0.9035719568906413
1687102357.630413,-0.8695847988128662,0.4926176071166992,0.03391442820429802,0.004915118217468262,-0.004351556301116943,-0.0024356842041015625,-0.20232930779457092,0.04796003922820091,-0.09057164192199707,-1.6097772845758638,-0.5150950864327614,0.8909886507813763
1687102357.69187,-0.8713930249214172,0.48934975266456604,0.034793637692928314,0.013330578804016113,0.03459131717681885,-0.012348178774118423,0.14235861599445343,-0.055475376546382904,-0.032975438982248306,-1.6107038808216405,-0.5113439641935249,0.890560527371206
1687102357.6968179,-0.8727384805679321,0.4871448278427124,0.031896065920591354,-0.01053166389465332,-0.005592644214630127,0.004312872886657715,0.027179569005966187,0.07011104375123978,-0.08518171310424805,-1.6073271742869217,-0.5088174379310393,0.8963804129929542
1687102357.701477,-0.8741447329521179,0.4848216772079468,0.028616948053240776,0.005553483963012695,0.022655189037322998,0.003975629806518555,0.027266334742307663,0.03735053911805153,-0.05905402451753616,-1.6035217217051325,-0.5061592694178306,0.8965752435989929
1687102357.841247,-0.8756183385848999,0.48244813084602356,0.023156391456723213,-0.002433300018310547,0.03499269485473633,0.007238864898681641,0.2362440526485443,0.042929861694574356,-0.055286359041929245,-1.5972359229241062,-0.5034474871173658,0.9060863601829857
1687102357.8570518,-0.8762239813804626,0.48147496581077576,0.020327270030975342,0.006778359413146973,0.014832466840744019,0.04539203643798828,-0.0339236781001091,0.0005638154689222574,-0.006201526150107384,-1.593990880111345,-0.5023368126590062,0.9103611080109266
1687102357.9253511,-0.8753522634506226,0.4830275774002075,0.021033108234405518,0.00935518741607666,0.03419956564903259,0.022484777495265007,0.07361135631799698,-0.06728377938270569,0.04218050092458725,-1.5948198693541986,-0.5041091308634762,0.9131238281462234
1687102357.9301162,-0.8741159439086914,0.4850640594959259,0.02517971396446228,-0.009428858757019043,0.017865687608718872,0.02369403839111328,0.04829145967960358,-0.06387355178594589,0.02418365515768528,-1.599594284254772,-0.5064364292189103,0.9137124065158806
1687102357.93383,-0.8734055161476135,0.48635706305503845,0.024894533678889275,-0.009086549282073975,0.009263813495635986,-0.00029754266142845154,0.045046184211969376,-0.0034731640480458736,0.0067724622786045074,-1.5992914473654865,-0.5079156137258791,0.9177479576030313
1687102358.142602,-0.8729696869850159,0.48707345128059387,0.02614167332649231,0.00308150053024292,-0.0028814971446990967,-0.0043981075286865234,0.04760585352778435,-0.028641048818826675,0.010449778288602829,-1.6007330622882727,-0.508735690172661,0.9170108361424396
1687102358.1487942,-0.8731694221496582,0.48677757382392883,0.02495017647743225,-0.01412898302078247,-0.016486436128616333,-0.003389718011021614,0.014086778275668621,-0.007707270793616772,-0.008698927238583565,-1.5993628207284907,-0.508396953191893,0.9216513225159936
1687102358.15413,-0.8731470704078674,0.4867585599422455,0.02608145959675312,0.004616856575012207,-0.00636601448059082,-0.009556412696838379,0.06926444172859192,-0.02675824612379074,-0.019576210528612137,-1.600658085686182,-0.5083751746059266,0.9208467718781163
1687102358.289884,-0.8741937875747681,0.4849936068058014,0.02380376309156418,0.004778504371643066,-0.0055165886878967285,-0.006454702466726303,0.018720518797636032,0.013889155350625515,-0.020605100318789482,-1.5980189901834798,-0.5063558614789082,0.9259742266764565
1687102358.305872,-0.8739748001098633,0.4853481948375702,0.02460561878979206,0.01989459991455078,-0.00616106390953064,-0.015587802976369858,0.03879090026021004,-0.01837051287293434,0.005923979450017214,-1.5989425853579549,-0.5067613732291903,0.925205538680449
1687102358.309146,-0.8751756548881531,0.4833381175994873,0.02125190943479538,-0.0026165246963500977,0.021041154861450195,0.005160806700587273,-0.009820099920034409,0.04718223586678505,-0.07606826722621918,-1.5950745770649881,-0.5044638276747473,0.9311937357895661
1687102358.344946,-0.8764410018920898,0.48111167550086975,0.01956295594573021,0.019110798835754395,0.022291123867034912,0.01434183120727539,0.008918168023228645,0.012566469609737396,-0.006100015714764595,-1.5931135258018985,-0.5019223479123601,0.9281747976949165
1687102358.415326,-0.8742976784706116,0.4850166440010071,0.01903107576072216,0.03747528791427612,0.07914659380912781,0.06988167762756348,0.3581060469150543,-0.2867063581943512,0.16787771880626678,-1.592560162043124,-0.506382201662535,0.9406685281527463
1687102358.420232,-0.8675462007522583,0.4965265393257141,0.02871853858232498,0.013023674488067627,0.07056638598442078,0.1912977695465088,0.538347065448761,-0.7543708086013794,0.4495465159416199,-1.6038874230398257,-0.5195925804027387,0.9618448015982245
1687102358.424165,-0.8414224982261658,0.5365655422210693,0.06407368183135986,0.03314930200576782,0.28719544410705566,0.47942888736724854,2.2495639324188232,-2.5710325241088867,1.2886677980422974,-1.646798883909108,-0.5663618491402262,1.0274901487538377
1687102358.46673,-0.7776570916175842,0.6213206052780151,0.09596698731184006,-0.30409926176071167,0.2123889923095703,0.7829694747924805,5.232604503631592,-4.955987930297852,2.195624589920044,-1.693580823679827,-0.6704269738290122,1.2575355243936024
1687102358.526853,-0.6429342031478882,0.7486533522605896,0.16172073781490326,-0.9215646982192993,0.35094064474105835,1.168402910232544,2.5588388442993164,-6.236837863922119,3.4219510555267334,-1.8172195720650013,-0.8460285039922323,1.52699584719578
1687102358.5893269,-0.4430215358734131,0.8654305338859558,0.23401251435279846,-1.0198843479156494,0.24560761451721191,0.7456015348434448,2.6907968521118164,-6.207345008850098,3.5421698093414307,-2.056763668642028,-1.046009049878855,1.5968444880797386
1687102358.710064,-0.18983884155750275,0.9565007090568542,0.22151216864585876,-0.9491536021232605,0.24575459957122803,0.3789515793323517,1.95502507686615,-6.093177318572998,4.0187811851501465,-2.4330411789353654,-1.2747613813137069,1.539994838995488
1687102358.7161899,0.056781306862831116,0.9836525321006775,0.17089025676250458,-0.8828465342521667,-0.64608234167099,0.015907764434814453,0.7926418781280518,-4.84602689743042,3.5971322059631348,2.820801495327435,-1.38973153088216,0.7525130763427779
1687102358.79967,0.22960855066776276,0.9629440307617188,0.14148664474487305,-1.0619451999664307,-0.956428587436676,-0.5049053430557251,-1.1083698272705078,-2.277862787246704,2.3527333736419678,2.123048373590906,-1.297713578588935,0.23048262161573368
1687102358.816777,0.31606820225715637,0.9291134476661682,0.1919611245393753,-0.5141884684562683,-0.6772518754005432,-0.8438625335693359,-0.34458765387535095,-0.5666280388832092,0.8603454828262329,2.1165960457981523,-1.192008203092788,0.29540233251824194
1687102358.887213,0.3399899899959564,0.9228553175926208,0.1809556484222412,-0.03373098373413086,-0.2617377042770386,-0.6229876279830933,-0.20660224556922913,0.4095531702041626,0.2167547196149826,2.0599006289192188,-1.1754294798173326,0.23473406073967473
1687102358.9017138,0.3423287868499756,0.9234941005706787,0.17311780154705048,0.24904072284698486,0.15193021297454834,-0.46182942390441895,1.1506831645965576,0.026588013395667076,0.08843716979026794,2.03899851351692,-1.177091351458637,0.20418148206523404
1687102358.977769,0.34496399760246277,0.9299885034561157,0.12696853280067444,0.481741726398468,-0.004466712474822998,-0.3833467960357666,0.7441026568412781,-0.117431640625,0.02185915783047676,1.9234715566259244,-1.194381615678009,0.07539924419813473
1687102358.982554,0.35766348242759705,0.9315645694732666,0.06530079990625381,0.7390007972717285,0.2251126766204834,-0.23526859283447266,1.3396837711334229,0.6361446976661682,0.5846985578536987,1.7513833854610015,-1.198692638246262,-0.1053980671499598
1687102359.036922,0.3670738637447357,0.9298823475837708,0.023984963074326515,1.0143194198608398,-0.1028408408164978,-0.2080519199371338,0.8178831934928894,-0.9075024127960205,-0.28433847427368164,1.6360445481969978,-1.194092961882057,-0.2212282896415899
1687102359.1275558,0.3451490104198456,0.9363654255867004,-0.0639667958021164,-0.004939228296279907,0.3103996515274048,-0.0008984208106994629,2.4175610542297363,1.2090682983398438,-1.1521310806274414,1.3875445714691341,-1.2121288483833375,-0.49445981119200355
1687102359.1337318,0.25799113512039185,0.9621060490608215,-0.08827470242977142,-0.15513178706169128,-0.5797361135482788,0.09556829929351807,-0.10416300594806671,-0.14898695051670074,-2.4510302543640137,1.241121334484181,-1.2946235436171587,-0.6990977924368151
1687102359.186945,0.12443245202302933,0.9838263392448425,-0.12884929776191711,-1.3935670852661133,0.052001237869262695,0.3132516145706177,1.4110199213027954,2.6339192390441895,-2.8178443908691406,0.7679614723005785,-1.390699296592328,-1.2339954711350662
1687102359.2784472,-0.005479684565216303,0.9972031712532043,-0.07453571259975433,-0.7198317646980286,-0.3489336371421814,0.18305611610412598,-1.1751409769058228,1.5302221775054932,-2.4670004844665527,-0.0733855437326879,-1.4959885128485233,-2.1645458529208486
1687102359.284709,-0.08195169270038605,0.9897430539131165,-0.117015540599823,-0.4656405746936798,0.11027824878692627,0.31533384323120117,0.08681365847587585,0.9107523560523987,-0.9506120681762695,-0.6109600091320194,-1.427446856266935,-2.803133076972666
1687102359.3387542,-0.09219667315483093,0.9905840158462524,-0.10120701789855957,0.02516470104455948,0.10588186979293823,0.07654865086078644,0.47343266010284424,-0.12328185141086578,0.10586138069629669,-0.7388435569745814,-1.4334586568945549,-2.9329341226130268
1687102359.43081,-0.07201024144887924,0.992063045501709,-0.1030777171254158,-0.0681876465678215,-0.3424203395843506,0.09685201942920685,-0.7646424174308777,-0.37669268250465393,0.6215395927429199,-0.6097866905969549,-1.444721363959495,-2.7902874041472163
1687102359.4365869,-0.04626389592885971,0.9952586889266968,-0.08555468171834946,-0.13583463430404663,0.05210447311401367,0.07749783992767334,-0.010772020556032658,-0.8800759315490723,0.6909920573234558,-0.4957155719355099,-1.473379083163794,-2.649416266290043
1687102359.486198,0.019197890534996986,0.9976896047592163,-0.06516576558351517,-0.4311395585536957,-0.08503109216690063,0.056559689342975616,-0.6808578968048096,-1.8581619262695312,2.256967306137085,0.2864961279255172,-1.5028071086754433,-1.799829202603859
1687102359.576422,0.1544659286737442,0.9874790906906128,-0.03201539069414139,-1.067491054534912,0.06194394826889038,0.3494439125061035,-0.9216247200965881,-2.2166671752929688,3.217536211013794,1.3664249907088375,-1.4123847910112388,-0.5996075703566229
1687102359.582103,0.30884096026420593,0.9509705305099487,-0.016500199213624,-1.1632570028305054,0.190280020236969,0.4089714288711548,-1.0269230604171753,-1.9887404441833496,3.112717390060425,1.5174208741962227,-1.2563590094094654,-0.3402776721043373
1687102359.636703,0.4165937602519989,0.9082425236701965,0.03930797055363655,-0.6060775518417358,-0.08265054225921631,0.2663712501525879,-1.54228937625885,1.440508484840393,1.3803166151046753,1.6648734372128378,-1.1390647237596316,-0.1765452205973213
1687102359.7290602,0.443910151720047,0.8877129554748535,0.12210417538881302,0.8458845615386963,-0.20524829626083374,-0.294131875038147,-1.4882347583770752,0.18643733859062195,-0.09589896351099014,1.839223015021826,-1.092353548913899,-0.015921748622465315
1687102359.7347832,0.4182380437850952,0.8904843330383301,0.17920556664466858,0.9919638633728027,-0.09783589839935303,-0.48811984062194824,-0.7822138071060181,0.6835991740226746,-0.6112618446350098,1.975608710885586,-1.0984084724870395,0.10604029613273844
1687102359.819988,0.3810907304286957,0.8956350684165955,0.2293628305196762,0.8260165452957153,-0.165715754032135,-0.5661702156066895,-0.6756284236907959,0.3514837920665741,-0.638112485408783,2.1125815044283445,-1.109856998269791,0.22681649100732362
1687102359.911206,0.366360068321228,0.8987810611724854,0.24077486991882324,0.43126237392425537,0.1624370813369751,-0.4081181585788727,-0.09202447533607483,-0.050351668149232864,-0.11661762744188309,2.1522221809556292,-1.1169810617546132,0.2684688135630585
1687102359.916501,0.3527492582798004,0.9010722041130066,0.2522636353969574,0.007998853921890259,-0.08275848627090454,-0.5624902248382568,0.027409613132476807,0.7119505405426025,-0.33173730969429016,2.1916084790650086,-1.1222356477292157,0.29909294365484823
1687102359.998169,0.30478325486183167,0.9130725264549255,0.2709352672100067,-0.2052198052406311,-0.2450883984565735,-0.6451572179794312,-0.2748883068561554,1.7775440216064453,-1.060024619102478,2.2974695136753884,-1.150756111355075,0.34746256175696366
1687102360.004342,0.19526252150535583,0.9209817051887512,0.3371424078941345,-0.5079305171966553,-0.459525465965271,-0.49897730350494385,-0.9542184472084045,3.646129846572876,-1.8658685684204102,2.616630676996303,-1.17059280431088,0.5498538919288813
1687102360.092114,0.026139361783862114,0.9236947894096375,0.38223588466644287,-0.383988618850708,-0.3134196996688843,-0.4978671669960022,-0.4675499498844147,4.145441055297852,-2.162536144256592,3.073313534550534,-1.1776147379304005,0.8256655893029007
1687102360.109824,-0.18869668245315552,0.8998552560806274,0.3932605981826782,-0.5279629230499268,-0.3924242854118347,-0.24145114421844482,-0.7304182052612305,5.277678489685059,-2.826411485671997,-2.694214058208878,-1.119437561854041,1.130403611661127
1687102360.175211,-0.40531501173973083,0.8442217707633972,0.3507269322872162,-0.45776796340942383,0.22825753688812256,0.05709460377693176,-1.08716881275177,5.737645626068115,-2.4095847606658936,-2.2841171143062677,-1.0051116163436546,1.2857339219731663
1687102360.179432,-0.5909624695777893,0.7664961814880371,0.25148865580558777,-0.6250714063644409,0.17600852251052856,0.13780853152275085,-1.0971648693084717,6.18979024887085,-2.4048261642456055,-1.9731392677662651,-0.8733677401301927,1.3065103225961467
1687102360.2351851,-0.7336380481719971,0.6744779348373413,0.08279318362474442,-1.066593885421753,0.05652487277984619,0.7626197338104248,-0.944459080696106,5.938892841339111,-2.4066314697265625,-1.6831737724886828,-0.7402573480740015,1.2857554744868824
1687102360.3294291,-0.8005884289741516,0.5935657024383545,-0.08208384364843369,-0.8900852799415588,0.1574108600616455,0.9211643934249878,-1.3740694522857666,3.8792624473571777,-1.8415639400482178,-1.4686239616423262,-0.635482281986771,1.2155491811049441
1687102360.335207,-0.8217477202415466,0.5532335042953491,-0.13661284744739532,0.14866751432418823,0.2044873833656311,0.6880500316619873,-1.08403742313385,0.9588945508003235,-0.420808345079422,-1.406056295438843,-0.5862408857425419,1.1146404779559655
1687102360.387178,-0.8247873187065125,0.5495119690895081,-0.13327568769454956,0.041736900806427,0.02019023895263672,0.43477392196655273,0.07912153750658035,0.13283391296863556,-0.11974133551120758,-1.4105931347304472,-0.5817799809014383,1.0812289297442632
1687102360.4790921,-0.8275150656700134,0.5431063175201416,-0.14231756329536438,0.0005651116371154785,0.0708158016204834,0.43281418085098267,0.0041467417031526566,-0.10230503976345062,-0.13284215331077576,-1.4004806231403928,-0.5741322003338873,1.0972636469570785
1687102360.4847589,-0.8330444097518921,0.5368994474411011,-0.13332606852054596,-0.01824331283569336,0.10381710529327393,0.31752997636795044,-0.20161227881908417,-0.3217063844203949,-0.10781854391098022,-1.4120954547097588,-0.5667575832889156,1.0896304444021117
1687102360.570483,-0.834250807762146,0.5410057306289673,-0.10648009926080704,0.0402599573135376,0.25531989336013794,0.3399698734283447,0.5243914723396301,-1.2151052951812744,0.47127771377563477,-1.4438471349464141,-0.571632517508934,1.0945521758053478
1687102360.66103,-0.8120655417442322,0.5820302367210388,-0.04230983555316925,0.011269211769104004,0.2986307740211487,0.48724067211151123,0.9756456017494202,-3.1079602241516113,1.640425443649292,-1.5187418912410957,-0.6212231512831348,1.1405365089479855
1687102360.666792,-0.7471558451652527,0.6606943011283875,0.07239533960819244,-0.5354673862457275,0.2765767574310303,0.49347662925720215,2.7502737045288086,-5.130709648132324,2.0434985160827637,-1.6673893513724767,-0.7217433406605378,1.2472329256020136
1687102360.749154,-0.6334042549133301,0.7631551623344421,0.1280355602502823,-0.8788943290710449,-0.027483224868774414,0.4137580394744873,3.1835334300994873,-4.7910284996032715,2.8251938819885254,-1.7702475555954573,-0.8681816504376402,1.4437141717856985
1687102360.7678242,-0.4536210596561432,0.8771549463272095,0.15756601095199585,-0.8271559476852417,0.6012080311775208,0.5371663570404053,1.8271416425704956,-5.484052658081055,4.020684719085693,-1.905109842786434,-1.0699051120750178,1.5994628383261091
1687102360.8396292,-0.22440584003925323,0.9595357775688171,0.17009690403938293,-0.9458670616149902,-0.11369538307189941,0.29698967933654785,1.5194194316864014,-5.181239128112793,3.9720046520233154,-2.2193900842307905,-1.2853490243937833,1.547732722210658
1687102360.853777,0.016425319015979767,0.9947152137756348,0.10135023295879364,-0.765982985496521,0.25256872177124023,0.24647367000579834,2.3453285694122314,-5.076588153839111,4.140934467315674,2.980924648277605,-1.4679423621006713,0.7270965654233202
1687102360.9260259,0.23829293251037598,0.9711933732032776,9.55099403654458e-06,-0.9170345067977905,-0.4630298614501953,0.06686949729919434,0.11182691901922226,-3.1438677310943604,3.8540704250335693,1.5708364076898582,-1.3301886324115875,-0.4930214055195262
1687102361.017466,0.39258965849876404,0.919705331325531,0.003906333819031715,-0.7835962772369385,-0.8337526321411133,-0.6802980899810791,-1.2914637327194214,-1.2635488510131836,2.3496310710906982,1.5807461686465625,-1.1673292801113164,-0.36089098773030026
1687102361.034494,0.4632660448551178,0.8851040601730347,0.04444704204797745,-0.39946919679641724,-0.8676784038543701,-0.7126295566558838,-0.4099934995174408,0.28531256318092346,0.753716230392456,1.666446354003731,-1.086717511625116,-0.24491932044862952
1687102361.107379,0.4659465253353119,0.8829843997955322,0.05685344338417053,-0.2035413384437561,-0.2521555423736572,-0.3757927417755127,0.0067613269202411175,0.37006378173828125,-0.3303777575492859,1.6922132417471032,-1.082182597134517,-0.23508391623773664
1687102361.123069,0.44869399070739746,0.8908435106277466,0.07121387124061584,0.1536160111427307,0.19480407238006592,0.017866849899291992,-0.46135982871055603,-0.0034512195270508528,-0.2234513759613037,1.7281971125570819,-1.0991985504936077,-0.2100714611050112
1687102361.199578,0.44797977805137634,0.8919188976287842,0.06160194054245949,0.47252175211906433,0.02379155158996582,-0.19420099258422852,0.462392657995224,-0.656673789024353,0.0033319471403956413,1.7074498311418336,-1.1015710501208487,-0.20741259621867306
1687102361.214686,0.4509088695049286,0.8914770483970642,0.04415644332766533,0.572360634803772,-0.2285589575767517,-0.314054012298584,-0.14179804921150208,-0.41951340436935425,0.04718484729528427,1.668412717890774,-1.1005948536362997,-0.22454237954201325
1687102361.2850242,0.459552526473999,0.8877453207969666,0.026820557191967964,0.7406425476074219,-0.025776445865631104,-0.32691526412963867,0.8470423221588135,0.24127815663814545,0.04795707389712334,1.6290925324237575,-1.0924238338260404,-0.25962600499115146
1687102361.299423,0.44133228063583374,0.8973346948623657,-0.003978359047323465,0.8086979985237122,-0.2816274166107178,-0.23164796829223633,0.14675848186016083,0.047808557748794556,-0.9857789278030396,1.5617821407200887,-1.113693015592137,-0.34255425177989307
1687102361.3744612,0.3684913218021393,0.9295541048049927,0.011961624957621098,0.117470383644104,-0.09750765562057495,0.005891083739697933,0.3520778715610504,0.8376849889755249,-2.1028554439544678,1.6032460088743545,-1.1932014998735532,-0.32360151334648596
1687102361.3788261,0.2518357038497925,0.9676936268806458,-0.012151690199971199,-0.6200610399246216,-0.05782735347747803,0.07484996318817139,0.5820072293281555,0.4214222729206085,-3.205608367919922,1.5225812750000889,-1.3159165882009833,-0.4497190016167967
1687102361.43663,0.09195298701524734,0.9957159757614136,-0.009708328172564507,-1.351901888847351,0.11332327127456665,0.408252477645874,0.21791425347328186,2.7888243198394775,-3.41530179977417,1.465606766802836,-1.478199272494978,-0.6006162339027623
1687102361.528932,-0.04245084524154663,0.9990513324737549,0.009706168435513973,-0.7969810962677002,-0.11845141649246216,0.2572767734527588,-0.039555199444293976,1.673659324645996,-1.604968786239624,-1.7955772973367221,-1.527234347942627,2.3376513486820416
1687102361.534472,-0.09096208214759827,0.9956958293914795,-0.017764752730727196,-0.05407285690307617,0.07830917835235596,0.07182645797729492,0.1357893943786621,-0.23308877646923065,-0.30637308955192566,-1.3779255665383072,-1.4779821734690388,2.6912879710141304
1687102361.586811,-0.07158110290765762,0.997416079044342,0.006096036173403263,-0.22183027863502502,-0.034266114234924316,0.1202770471572876,-0.10718537122011185,-0.7561244368553162,0.8805343508720398,-1.655753982242734,-1.4988931654039073,2.439832461288958
1687102361.67943,-0.006444029975682497,0.9999570250511169,0.006671902723610401,-0.35227498412132263,-0.15124785900115967,0.035701632499694824,-0.3726758062839508,-1.3533443212509155,1.6913437843322754,-2.3735664872080124,-1.5615248020825483,1.785489983258758
1687102361.685133,0.1056569293141365,0.9941534399986267,0.022263893857598305,-0.6924185156822205,0.054110169410705566,0.05862283706665039,-0.1885545253753662,-2.4215457439422607,2.773128032684326,1.7784768080669642,-1.4626090599277002,-0.257965827889746
1687102361.73567,0.24986088275909424,0.9682430624961853,0.008657926693558693,-1.2204267978668213,0.0806766152381897,0.3428891897201538,0.0034920298494398594,-1.288934588432312,2.772716522216797,1.6054334572722053,-1.318104883876593,-0.3269611399337695
1687102361.82973,0.37580665946006775,0.9265784621238708,0.014889929443597794,-0.8419780731201172,0.10625851154327393,0.3955104351043701,-0.9205441474914551,-0.5296650528907776,2.1404500007629395,1.6103968636880357,-1.1852109891130198,-0.256346072543744
1687102361.836169,0.45011916756629944,0.8903749585151672,0.06800846010446548,-0.10638463497161865,0.08803391456604004,0.18785083293914795,-0.8346445560455322,0.6455613374710083,0.9607473015785217,1.7207520147166613,-1.098168138249563,-0.16250234610004866
1687102361.888272,0.45249366760253906,0.8793027997016907,0.14857953786849976,0.6042535901069641,-0.40721118450164795,-0.16847705841064453,-1.2448214292526245,1.576797604560852,-0.4710376262664795,1.888061650975973,-1.074396366517641,-0.030485084976892424
1687102361.979093,0.42211535573005676,0.8865031599998474,0.18955355882644653,1.3650243282318115,0.08667188882827759,-0.25388479232788086,-1.0456548929214478,-0.7951700687408447,-0.6173286437988281,1.992865176748908,-1.0897324673354183,0.06093830776109936
1687102361.9846702,0.3980170786380768,0.8893448114395142,0.22505183517932892,0.570122480392456,-0.1557173728942871,-0.4452056586742401,0.039671074599027634,-0.30833229422569275,-0.45664116740226746,2.0854107414085563,-1.0959101995151252,0.19668805240261877
1687102362.035847,0.3908729553222656,0.8994659781455994,0.1953943371772766,0.39301660656929016,-0.17816781997680664,-0.39821434020996094,-0.5977931618690491,-0.5617142915725708,-0.5000627040863037,2.0343576993229275,-1.11854590031216,0.1689918954930783
1687102362.1292381,0.3670731484889984,0.9015864729881287,0.22890813648700714,0.02349063754081726,-0.18636125326156616,-0.4764821529388428,0.023935839533805847,0.29486826062202454,-0.5080002546310425,2.1283908629216057,-1.123422928476439,0.2847680074446686
1687102362.135364,0.323947936296463,0.9184362292289734,0.22700831294059753,-0.23782747983932495,-0.08364307880401611,-0.6258578300476074,0.04394736513495445,1.8357703685760498,-1.0416678190231323,2.182029186503019,-1.164109008102202,0.28226314821644793
1687102362.184688,0.2345142811536789,0.9317207336425781,0.27730706334114075,-0.2883474826812744,-0.3506203293800354,-0.5554444789886475,-0.25707000494003296,2.946399450302124,-1.6133408546447754,2.4396093013080824,-1.1991225109175323,0.43503988555249046
1687102362.27917,0.08516832441091537,0.9415860176086426,0.32582491636276245,-0.5084320306777954,-0.42115455865859985,-0.6099895238876343,-0.8690870404243469,4.237701892852783,-2.2161102294921875,2.8859203304411127,-1.2273091619935776,0.7165217321676022
1687102362.2852201,-0.1147129014134407,0.9208240509033203,0.37272515892982483,-0.6149625182151794,-0.25242799520492554,-0.27900585532188416,-1.0266153812408447,5.599071502685547,-2.6030099391937256,-2.843024506206202,-1.1701883113110718,1.0429666004106621
1687102362.342834,-0.3274940252304077,0.8730876445770264,0.3611999452114105,-0.3939415216445923,0.09967535734176636,0.1210690438747406,-1.211082100868225,5.371976375579834,-2.483229398727417,-2.405097238918378,-1.06149969850564,1.226153298320626
1687102362.427538,-0.5192387700080872,0.8067341446876526,0.2820832133293152,-0.8113886713981628,0.29653728008270264,0.10339927673339844,-0.49504974484443665,5.90986967086792,-2.2012219429016113,-2.0684524718564576,-0.938604316725958,1.3001519601788207
1687102362.43336,-0.6682953834533691,0.7305410504341125,0.1403251439332962,-0.6565489768981934,-0.09391385316848755,0.5206547975540161,-1.0054031610488892,5.268922328948975,-2.5786941051483154,-1.7777643231778297,-0.8191139520762712,1.3093803287011632
1687102362.4874868,-0.7675938010215759,0.6406447887420654,-0.019338296726346016,-1.0238490104675293,0.15261387825012207,0.6385549902915955,-0.5355218648910522,4.715562343597412,-2.0993192195892334,-1.5456082561538993,-0.6953376848337878,1.2755567626640223
1687102362.579025,-0.8089290857315063,0.5729131698608398,-0.13192521035671234,-0.3120577335357666,0.0016260743141174316,0.8352483510971069,-1.320142388343811,2.397033929824829,-1.429182767868042,-1.4091333164585131,-0.6100557415306772,1.2081984034884714
1687102362.584806,-0.8243039846420288,0.5436067581176758,-0.15815994143486023,0.23194265365600586,0.0684385895729065,0.549288272857666,-0.6566298007965088,0.5529395341873169,-0.5767247080802917,-1.3812292985532824,-0.5747282627138345,1.13504915883097
1687102362.634138,-0.833200216293335,0.5243107080459595,-0.17571419477462769,0.06833833456039429,0.17753249406814575,0.3637022376060486,0.13963255286216736,0.24764785170555115,-0.3160332441329956,-1.3629511838830255,-0.5519054371403977,1.1260397872267969
1687102362.729008,-0.8389755487442017,0.514640212059021,-0.1768202781677246,-0.04835343360900879,-0.041816115379333496,0.22876101732254028,-0.6797478795051575,0.05592230334877968,-0.23809882998466492,-1.3630788654696098,-0.5405879546947187,1.1100184913700486
1687102362.7349238,-0.8447651267051697,0.5098329186439514,-0.16261062026023865,0.009041368961334229,0.20578908920288086,0.16636407375335693,0.03664449602365494,-0.1559448391199112,-0.1883266568183899,-1.3806302110916244,-0.5349905322759163,1.0825744965135544
1687102362.849437,-0.8481736779212952,0.503913164138794,-0.16331817209720612,0.04583615064620972,0.11452555656433105,0.0800355076789856,0.3957832157611847,-0.4081062376499176,0.15471935272216797,-1.3805717265829942,-0.5281232373036717,1.10585575671533
1687102362.916541,-0.8420145511627197,0.5220760107040405,-0.13582377135753632,0.08876454830169678,0.18661844730377197,0.2276967167854309,0.4658906161785126,-1.3990918397903442,0.8808521032333374,-1.4108658733135473,-0.5492831784884573,1.1258367352682204
1687102362.932982,-0.8167471885681152,0.5729749798774719,-0.06799697875976562,-0.036890387535095215,0.3120652437210083,0.3844640254974365,2.8302128314971924,-3.8664822578430176,1.8473842144012451,-1.4877344757637132,-0.6101312132974904,1.2183213720668877
1687102362.935937,-0.7530627250671387,0.6579451560974121,0.0021695333998650312,-0.587650716304779,0.1929001808166504,0.7442291975021362,4.708405017852783,-5.755614757537842,2.877953290939331,-1.5736772653045223,-0.7180868534036644,1.478036747943656
1687102362.9634929,-0.6208579540252686,0.7818028330802917,0.05761517584323883,-1.150122880935669,0.3847772479057312,0.8842791318893433,3.292799949645996,-5.704195022583008,3.7207529544830322,-1.6633306008306619,-0.8975519880156583,1.7648824293308543
1687102363.056507,-0.43129414319992065,0.8984548449516296,0.08224431425333023,-0.8358873128890991,0.2567574977874756,0.6756595373153687,2.4111361503601074,-5.194494247436523,4.342458248138428,-1.759226009823342,-1.1162375065887584,1.964161247870611
1687102363.178102,-0.19739404320716858,0.9768297076225281,0.08269888907670975,-0.9097380638122559,-0.2734912037849426,0.13106131553649902,1.0072578191757202,-3.8697123527526855,4.567819118499756,-1.9675342474462107,-1.3551099754200981,1.9965902063216554
1687102363.183958,0.023146379739046097,0.9976460933685303,0.06454842537641525,-0.848509669303894,-0.6595418453216553,-0.2838325500488281,0.03138613700866699,-3.048818826675415,3.830843687057495,2.7972864047736135,-1.5021691802480461,0.654367961008054
1687102363.2664719,0.17236976325511932,0.9805875420570374,0.0934690460562706,-0.7294378280639648,-1.0564696788787842,-0.6274809837341309,-1.365787386894226,-1.3030941486358643,2.097137212753296,2.0676769027006183,-1.3734357934259618,0.021963058231955046
1687102363.2844381,0.24056725203990936,0.9598981142044067,0.14395393431186676,-0.313580721616745,-0.6148359775543213,-0.7304561138153076,-0.8484331369400024,-0.2843475341796875,0.5165581703186035,2.110033914732859,-1.286638622742312,0.11087260211770153
1687102363.3567939,0.25266602635383606,0.9531461000442505,0.1663496047258377,-0.004833012819290161,0.017724812030792236,-0.5762771368026733,-0.3614751696586609,0.16858796775341034,0.066960409283638,2.153038249725484,-1.2634710058331842,0.1512058063553987
1687102363.361772,0.26479479670524597,0.947777271270752,0.17776928842067719,0.4314941167831421,0.15802717208862305,-0.34018397331237793,0.3297557234764099,-0.1969713568687439,0.6485234498977661,2.162032393425563,-1.2461928169098042,0.15497963558680897
1687102363.449191,0.3126237392425537,0.9404884576797485,0.1332213580608368,0.6318341493606567,0.12565851211547852,-0.32816779613494873,0.5441516041755676,-0.8093795776367188,0.9870203733444214,1.9736318287101298,-1.224064866417322,-0.010728993254981221
1687102363.467729,0.35959911346435547,0.9301571846008301,0.0741351991891861,0.7841843366622925,0.08412498235702515,-0.29227495193481445,1.9210875034332275,-0.9517272710800171,0.9064591526985168,1.7741085323358372,-1.1948407889406913,-0.1770664450063072
1687102363.598795,0.39608412981033325,0.9180700778961182,-0.01626403070986271,0.8100466728210449,-0.24009162187576294,-0.12166029214859009,0.23928117752075195,-0.8032814264297485,0.3101164400577545,1.5297573211682598,-1.1631842732184412,-0.3893930783813854
1687102363.605015,0.37373778223991394,0.9269458651542664,-0.0330401174724102,0.4172776937484741,-0.04054737091064453,0.006810184568166733,0.964374840259552,0.24692873656749725,-1.1300106048583984,1.482621012977809,-1.1861890340744352,-0.4172362592734918
1687102363.693718,0.2967432141304016,0.9516535401344299,-0.07936547696590424,-0.05905723571777344,0.11012923717498779,0.03328382968902588,0.5318352580070496,-0.16039875149726868,-2.308656692504883,1.3094580085567888,-1.258574884641311,-0.6169932892360566
1687102363.698454,0.16887669265270233,0.979723334312439,-0.10780844837427139,-1.0157091617584229,-0.13095325231552124,0.26677441596984863,1.117400884628296,2.5188674926757812,-2.8656134605407715,1.0026292685410427,-1.3690759838534887,-0.9854680480322403
1687102363.703049,0.011843393556773663,0.9947186708450317,-0.10195175558328629,-0.9541043043136597,-0.21053916215896606,0.21413421630859375,-1.032697081565857,1.2392017841339111,-3.6964468955993652,0.11564829475668088,-1.467976400706239,-1.958381395413679
1687102363.777009,-0.1076398715376854,0.9894912242889404,-0.09654345363378525,-1.0940356254577637,0.04014122486114502,0.5740365982055664,0.2285187989473343,2.7423059940338135,-1.8976644277572632,-0.8396901305703949,-1.4256946093153295,-3.0664422948627292
1687102363.781853,-0.15278230607509613,0.984669029712677,-0.0841679498553276,0.11056111752986908,-0.07901430130004883,0.006607361137866974,-0.09443240612745285,0.23817738890647888,-0.061836227774620056,-1.0672615019320528,-1.3954664893129567,2.9475060302845115
1687102363.835837,-0.13363680243492126,0.9857650995254517,-0.1020202711224556,0.2097170203924179,-0.036836445331573486,-0.07720964401960373,0.3638083338737488,-1.0993716716766357,0.6493852734565735,-0.9187650626759372,-1.4018656251669337,3.1158530809554854
1687102363.9569988,-0.10756736248731613,0.9906859397888184,-0.08348988741636276,-0.3082805275917053,-0.3006988763809204,0.05512362718582153,-0.630729615688324,-0.37446799874305725,0.5458149909973145,-0.9107596120146086,-1.4342051598018695,-3.132865524100336
1687102363.974787,-0.060241371393203735,0.9965628385543823,-0.05686090141534805,-0.2741093337535858,-0.12745290994644165,-0.01657986268401146,-0.4014134407043457,-1.5647761821746826,1.8542567491531372,-0.8142577983899651,-1.4878613649249586,-2.986248748900742
1687102364.046321,0.07905610650777817,0.996828019618988,-0.009153240360319614,-0.801697313785553,-0.06569105386734009,0.2262246012687683,-1.1965020895004272,-3.116581439971924,3.5641913414001465,1.4555279916381942,-1.49112619991185,-0.5951213002749737
1687102364.0510979,0.26602432131767273,0.9638951420783997,-0.011714262887835503,-1.4622983932495117,0.3438899517059326,0.4126083254814148,0.005493874661624432,-2.4547579288482666,3.884641170501709,1.5267901975453286,-1.3012624543709386,-0.3711522627305578
1687102364.139777,0.4228271245956421,0.9060646891593933,0.016239328309893608,-1.1973940134048462,-0.05409032106399536,0.4276845455169678,-1.2205289602279663,1.1132140159606934,2.4532527923583984,1.609184003228591,-1.1338892108866012,-0.24311792443654642
1687102364.158783,0.4929303824901581,0.8655039668083191,0.08900891244411469,0.3179672956466675,-0.14145910739898682,-0.19850611686706543,-0.7125771045684814,0.9664677977561951,0.9611056447029114,1.7494422421779259,-1.046155605720914,-0.15711499972295048
1687102364.225122,0.49017927050590515,0.8591128587722778,0.14713774621486664,1.4437652826309204,-0.3084688186645508,-0.2255070060491562,-0.7374565601348877,-0.020121116191148758,-0.673936665058136,1.8624102717983317,-1.0335337533703501,-0.07742597803135426
1687102364.239773,0.4577648937702179,0.8683373332023621,0.19089683890342712,1.185560703277588,-0.2699028253555298,-0.6502323150634766,-1.0742632150650024,0.7866799831390381,-0.48036861419677734,1.9658879669359641,-1.0518400551753533,0.035394656354476944
1687102364.2855139,0.4463144838809967,0.865447461605072,0.22760388255119324,0.8351183533668518,-0.031249642372131348,-0.45004668831825256,-0.25894251465797424,-0.8627510666847229,-0.057443827390670776,2.0423825512425067,-1.046042864973918,0.12627144255025063
1687102364.375761,0.4516373872756958,0.8691351413726807,0.20156250894069672,-0.027031272649765015,-0.09798651933670044,-0.5632264614105225,0.25836580991744995,-0.4130285084247589,-0.44691288471221924,1.9905630669203978,-1.0534508837475225,0.1146760236763285
1687102364.3809428,0.41656920313835144,0.8864172101020813,0.20182868838310242,-0.3917279839515686,-0.12553757429122925,-0.6979683637619019,0.36851224303245544,1.4348119497299194,-1.139243483543396,2.0219689812234716,-1.0895467134171297,0.11904542482489139
1687102364.435643,0.3191937804222107,0.9151779413223267,0.24609778821468353,-0.4889327883720398,-0.41406428813934326,-0.5955089926719666,-0.7370270490646362,3.1030547618865967,-1.9878803491592407,2.2276012971017067,-1.1559491843086973,0.22277550786085404
1687102364.527495,0.15299586951732635,0.9325575232505798,0.32699939608573914,-0.469020813703537,-0.5402235388755798,-0.4307745695114136,-0.7733832001686096,4.2651143074035645,-2.864164352416992,2.7039711379851155,-1.2014333329789244,0.5342230527931594
1687102364.534648,-0.07016679644584656,0.9247674942016602,0.3740077614784241,-0.5846947431564331,-0.4248131513595581,-0.317764014005661,-0.8071746230125427,4.985415935516357,-3.168612003326416,-2.956140504957179,-1.1804241672218394,0.9582013449328165
1687102364.584824,-0.31868842244148254,0.8825607299804688,0.34572258591651917,-0.45493224263191223,-0.030387938022613525,0.18665635585784912,-0.5107912421226501,5.450436115264893,-3.332374095916748,-2.396860945912511,-1.0812807616482238,1.2730688447485223
1687102364.6805801,-0.5410377383232117,0.8016447424888611,0.2542511522769928,-0.719658613204956,0.16388559341430664,0.22493550181388855,-1.4595507383346558,5.841324806213379,-2.884381055831909,-2.010101858577478,-0.9300414446615644,1.3893046505524924
1687102364.6867309,-0.7134790420532227,0.6857672929763794,0.14377304911613464,-0.8833531737327576,0.0974968671798706,0.6733348369598389,-1.2764993906021118,5.3808112144470215,-2.947169780731201,-1.7696432306754455,-0.7556574230691696,1.3345737290928363
1687102364.737382,-0.814664363861084,0.5789319276809692,-0.034052085131406784,-1.2032339572906494,0.2947099804878235,0.9122866988182068,-0.2919420003890991,4.354766368865967,-2.3586888313293457,-1.52902173033596,-0.6174181663054378,1.3022349741008443
1687102364.82857,-0.8478589057922363,0.515110969543457,-0.12568216025829315,0.26443910598754883,0.24317461252212524,0.7248183488845825,-0.9997438192367554,0.9652070999145508,-0.6339829564094543,-1.4236332239304588,-0.5411370964150338,1.2605146714804258
1687102364.834924,-0.8503863215446472,0.5125584006309509,-0.11885712295770645,0.11660647392272949,0.12005579471588135,0.43477487564086914,0.1018073633313179,-0.06273973733186722,0.05436832085251808,-1.4319275521138382,-0.5381617083625791,1.2207229362607876
1687102364.886283,-0.8517144322395325,0.5068531036376953,-0.132975235581398,-0.08827269077301025,0.06606864929199219,0.21587598323822021,0.25130587816238403,0.20118357241153717,-0.20319968461990356,-1.4159200933620524,-0.5315303329220916,1.2543880251817383
1687102365.0385451,-0.8561489582061768,0.501829981803894,-0.12318887561559677,-0.02055990695953369,-0.03544509410858154,0.16917860507965088,-0.9414920210838318,0.005030948668718338,-0.1824473738670349,-1.4278899649235708,-0.5257131668651778,1.218369015258059
1687102365.0572119,-0.8597447872161865,0.5000988245010376,-0.1036333441734314,0.07181161642074585,0.03331786394119263,0.07531280070543289,-0.31264790892601013,-0.2174578309059143,-0.008538960479199886,-1.4508354393703615,-0.5237129184295153,1.1845125591743537
1687102365.16203,-0.8598394989967346,0.5026715993881226,-0.08942589163780212,0.02020961046218872,0.013029634952545166,-0.030294761061668396,-0.1240406259894371,-0.22681160271167755,0.014326563104987144,-1.4671658944739618,-0.5266864225222887,1.1760651829917994
1687102365.1670752,-0.8619707822799683,0.5012884140014648,-0.07560505717992783,-0.0077495574951171875,0.06877994537353516,0.02152770757675171,-0.22406208515167236,-0.14397335052490234,-0.10946586728096008,-1.4833083712303878,-0.5250871175731634,1.1617519353001988
1687102365.171685,-0.864290177822113,0.49826619029045105,-0.06879999488592148,-0.015821516513824463,0.022073894739151,-0.06019802391529083,-0.016484607011079788,-0.08506059646606445,-0.024236341938376427,-1.4913609431415455,-0.5215978961522276,1.1536071268362071
1687102365.2478209,-0.8641287684440613,0.4989781081676483,-0.0655931681394577,0.010780930519104004,0.05914270877838135,-0.03998256474733353,0.09341184794902802,-0.11717389523983002,0.03910541161894798,-1.495034906484841,-0.5224192026973866,1.1574870950357738
1687102365.2536201,-0.8623294234275818,0.5025907158851624,-0.06156667694449425,0.027826368808746338,0.028582990169525146,-0.05282866582274437,-0.12547974288463593,-0.1075202077627182,0.11174149066209793,-1.499521491689196,-0.5265928504087323,1.1578932474138963
1687102365.339501,-0.8587367534637451,0.5092930197715759,-0.056495148688554764,0.002459406852722168,0.020797371864318848,-0.07202982902526855,0.06424272805452347,-0.026797020807862282,0.08823640644550323,-1.5051023257432046,-0.5343630804953755,1.1548171514233778
1687102365.357431,-0.8569996356964111,0.5118441581726074,-0.05972522869706154,-0.024759888648986816,0.011837482452392578,-0.006421804428100586,-0.036069173365831375,0.024950755760073662,0.052213337272405624,-1.501217744128696,-0.53733008808027,1.1591042709551538
1687102365.489775,-0.854961097240448,0.5152491927146912,-0.05966460332274437,0.00025528669357299805,-0.01833134889602661,-0.01104486733675003,-0.047078415751457214,0.012889031320810318,0.07418718934059143,-1.5011229497264902,-0.5412983556752256,1.156872258680793
1687102365.5086188,-0.8525439500808716,0.5195624828338623,-0.056776050478219986,0.003926575183868408,-0.0037391185760498047,0.027417901903390884,-0.14177967607975006,-0.05718821659684181,0.1482084095478058,-1.5042984810261022,-0.5463387912477281,1.1519449809225852
1687102365.642945,-0.8491218686103821,0.5258878469467163,-0.049334898591041565,-0.010283589363098145,-0.026665985584259033,-0.013440020382404327,-0.011097192764282227,-0.09869486093521118,0.10636246204376221,-1.5127604945074247,-0.5537585904460057,1.144939021262338
1687102365.649139,-0.8466728925704956,0.5300276279449463,-0.047068990767002106,-0.006018579006195068,0.00024574995040893555,0.021037284284830093,-0.13908381760120392,-0.015569028444588184,0.12290900945663452,-1.51526060420756,-0.558633111247207,1.146725019703249
1687102365.654272,-0.8449518084526062,0.5331381559371948,-0.04266256466507912,-0.009097754955291748,0.005588650703430176,-0.023774385452270508,-0.03923024237155914,-0.04099705070257187,0.0457596555352211,-1.5203480480044238,-0.5623055196358889,1.1380924209579204
1687102365.728301,-0.8433024883270264,0.5359007716178894,-0.040636852383613586,0.014750361442565918,0.013644576072692871,0.005800843238830566,-0.09678754210472107,-0.08922982960939407,0.11178431659936905,-1.5226458193057435,-0.5655742673885265,1.138602801688484
1687102365.733082,-0.8399490118026733,0.5416721105575562,-0.032816123217344284,0.00865030288696289,0.005508065223693848,-0.028402328491210938,-0.007602272555232048,-0.16779200732707977,0.1820104420185089,-1.531747005100201,-0.5724250548437883,1.1319102431685666
1687102365.736786,-0.8336257338523865,0.5519181489944458,-0.021322714164853096,0.0164717435836792,-0.0016403794288635254,0.02663254551589489,-0.08681922405958176,-0.3540206849575043,0.3334396481513977,-1.5452236200979985,-0.5846627067069146,1.1311802633270087
1687102365.783265,-0.8231164813041687,0.5678693652153015,-0.001928921788930893,-0.010471105575561523,0.0027025938034057617,0.00494992733001709,0.12537223100662231,-0.5026066303253174,0.40804821252822876,-1.5684528939571014,-0.6039150305890226,1.130288475076896
1687102365.879871,-0.8131785988807678,0.5819395184516907,0.009317321702837944,-0.024757683277130127,-0.03475940227508545,0.011114000342786312,0.8002474904060364,-0.6188109517097473,0.2194836586713791,-1.5822537294291388,-0.6211115993788311,1.156576283371002
1687102365.885445,-0.8117486834526062,0.5839850902557373,-0.005006539169698954,-0.006900370121002197,-0.07328873872756958,0.01002645492553711,2.6040728092193604,-0.9859954118728638,-0.17663326859474182,-1.5646288078475978,-0.6236292542767106,1.2515954214205407
1687102365.93526,-0.8264710903167725,0.5582134127616882,-0.07309788465499878,0.01644301414489746,-0.04182547330856323,0.11486094444990158,5.459725856781006,-1.3886666297912598,-0.6834992170333862,-1.4825800929672237,-0.5922309554694446,1.4987215986259972
1687102366.0273418,-0.8576208353042603,0.4871996343135834,-0.1646902710199356,0.037232160568237305,-0.06610292196273804,0.3625660538673401,6.359462738037109,-1.8523533344268799,-0.9119914174079895,-1.381074333328236,-0.5088801890042618,1.8467544142848087
1687102366.033423,-0.8940719962120056,0.3953944146633148,-0.21047189831733704,0.02659463882446289,-0.10425683856010437,0.3912426233291626,5.159384727478027,-2.000669479370117,-0.6073539853096008,-1.3395975529005213,-0.40649721095950875,2.1601596997758823
1687102366.1472301,-0.9204150438308716,0.34348568320274353,-0.18669117987155914,-0.017588436603546143,-0.37354567646980286,0.2645260691642761,1.3888150453567505,-1.7657958269119263,-0.12854628264904022,-1.3706775506081639,-0.3506259016374635,2.3346562534629736
1687102366.211616,-0.9345752596855164,0.33557024598121643,-0.11815865337848663,-0.03852337598800659,-0.09782323241233826,0.1977635771036148,-0.49388840794563293,-1.3310264348983765,-0.26311150193214417,-1.4450332598618252,-0.3422105016683424,2.338870332108257
1687102366.21647,-0.946560263633728,0.3195732831954956,-0.04354891553521156,-0.0501132607460022,0.017889976501464844,0.009796321392059326,-0.9291783571243286,-1.3116114139556885,-0.4555322825908661,-1.5248212004237374,-0.3252791165360891,2.300198695475869
1687102366.22078,-0.9537533521652222,0.2992922365665436,0.02790132164955139,-0.09551721811294556,0.06614035367965698,-0.1656426191329956,-0.45616498589515686,-1.3202338218688965,-0.37261471152305603,-1.6000422180653882,-0.30395081695720716,2.261631312978472
1687102366.264384,-0.955114483833313,0.284925639629364,0.08107773214578629,-0.28534871339797974,0.07548683881759644,-0.8492969274520874,-6.2706499099731445,1.731724739074707,-0.0043912651017308235,-1.6554812743691285,-0.28892886412841046,2.1708116562855144
1687102366.3266048,-0.9542489647865295,0.28722020983695984,0.08314721286296844,-0.014119565486907959,1.0305898189544678,-0.537218451499939,-0.5921778678894043,0.21861599385738373,-0.3278345465660095,-1.657710482925976,-0.29132349442044275,1.984298360545611
1687102366.388712,-0.956924319267273,0.2834431529045105,0.06289209425449371,0.007873594760894775,0.602939784526825,-0.3995927572250366,2.4618189334869385,-0.2625880241394043,0.017284024506807327,-1.6364251004648949,-0.2873826141501704,2.058746891117097
1687102366.567564,-0.9544233083724976,0.29801732301712036,0.016177408397197723,-0.005110323429107666,0.06703382730484009,0.14495515823364258,3.0686731338500977,0.06237482652068138,0.13193126022815704,-1.5877446353929565,-0.3026149082059016,2.203120024939011
1687102366.628148,-0.952664852142334,0.30197983980178833,-0.03518005087971687,-0.007509589195251465,-0.12189579010009766,0.26828837394714355,1.5562547445297241,0.5267311334609985,0.10978499799966812,-1.5338850555687698,-0.3067687670901077,2.3365715525660153
1687102366.632944,-0.949870228767395,0.30446910858154297,-0.07102976739406586,0.04987621307373047,-0.15490257740020752,0.11123650521039963,-0.4480366110801697,0.5868604183197021,-0.0005449280142784119,-1.4961568485442407,-0.309381034162223,2.3654442240833515
1687102366.637185,-0.9477307796478271,0.3084779679775238,-0.0815315768122673,0.0258864164352417,-0.04016759991645813,0.13325870037078857,-1.664775013923645,0.6150059700012207,-0.03842855244874954,-1.4849794092232709,-0.31359254846561285,2.301927039509206
1687102366.640819,-0.9465799927711487,0.3123381435871124,-0.0801939144730568,0.07362473011016846,0.019036829471588135,0.20917630195617676,-1.4728035926818848,0.35688459873199463,-0.09763079881668091,-1.4862785078824439,-0.31765333048293654,2.215807494342653
1687102366.685391,-0.9477485418319702,0.310208797454834,-0.074452243745327,0.02204364538192749,0.05900803208351135,0.16356337070465088,-0.6569194793701172,0.12317144125699997,-0.1642550379037857,-1.4924003686315965,-0.315412643712794,2.157784897568703
1687102366.743959,-0.9505786895751953,0.3028097152709961,-0.06860116869211197,0.013322949409484863,0.09022602438926697,0.14079028367996216,0.11529137194156647,-0.19271616637706757,-0.1621057689189911,-1.4987534292015385,-0.30763939823557684,2.1453483281848245
1687102366.839901,-0.9531508088111877,0.2966110408306122,-0.05937373265624046,0.008631885051727295,0.04141676425933838,0.13702547550201416,0.3911890685558319,-0.38068535923957825,-0.052450090646743774,-1.5085846463777628,-0.3011420317968485,2.159847893042777
1687102366.859778,-0.9540340900421143,0.2964984178543091,-0.043676044791936874,0.004388153553009033,0.029658079147338867,0.08658355474472046,0.28876110911369324,-0.48716020584106445,0.08476337790489197,-1.5250478875469442,-0.30102411282689223,2.1793294736808395
1687102366.894573,-0.9529882669448853,0.3021236062049866,-0.02311759628355503,-0.020491838455200195,0.02378872036933899,0.04878270626068115,0.10838702321052551,-0.5020818114280701,0.14164696633815765,-1.5465430752377287,-0.3069195890627926,2.1893154506921237
