Timestamp,gravityX,gravityY,gravityZ,accelerationX,accelerationY,accelerationZ,rotationRateX,rotationRateY,rotationRateZ,attitudeRoll,attitudePitch,attitudeYaw
1687095560.469695,-0.05596739053726196,0.5055508017539978,-0.8609796762466431,0.002988819032907486,-0.018185138702392578,-0.024991333484649658,-0.11552663892507553,-0.07560180127620697,0.12911991775035858,-0.06491298333624412,-0.5300202387300544,-0.7923680155115015
1687095571.6697001,-0.860497236251831,0.5021561980247498,0.08592848479747772,0.023018598556518555,-0.004185676574707031,0.007424831390380859,0.07353100180625916,-0.019593609496951103,-0.02450859546661377,-1.670325474360087,-0.5260903377209964,-2.788030543917732
1687095571.683783,-0.861073911190033,0.5013570785522461,0.08480899780988693,-0.00847858190536499,-0.014220356941223145,0.0187370628118515,-0.12588532269001007,0.07297445833683014,-0.019428595900535583,-1.6689718138374499,-0.5251664715700818,-2.7871592010659807
1687095571.729008,-0.8619586825370789,0.4999937415122986,0.0838656947016716,0.022587954998016357,0.03258371353149414,-0.01761198788881302,0.08264119923114777,-0.07134399563074112,0.006800168659538031,-1.6677876876493403,-0.5235915480624739,-2.787873297741339
1687095571.780047,-0.8626329898834229,0.49878519773483276,0.08412819355726242,-0.019721686840057373,-0.005804300308227539,0.02758144587278366,-0.09958821535110474,0.030309289693832397,-0.0227960292249918,-1.6680137882694832,-0.5221966073161294,-2.7878320250178588
1687095571.8532639,-0.8632084131240845,0.49761420488357544,0.08515661209821701,-0.003735065460205078,0.00795525312423706,0.006182558834552765,0.041448112577199936,-0.010622644796967506,-0.05301549285650253,-1.6691294285321547,-0.5208460969457311,-2.790548607699988
1687095571.896284,-0.8645519614219666,0.49517524242401123,0.08574110269546509,-0.0015369653701782227,-0.012112557888031006,-0.0069751739501953125,-0.04807377979159355,0.010751087218523026,-0.03735151141881943,-1.6696471188466617,-0.5180365242214189,-2.7904388241427394
1687095571.968923,-0.8654037714004517,0.49362868070602417,0.08606497943401337,0.0007185935974121094,0.01140671968460083,-0.01598142832517624,0.0872638076543808,-0.013707118108868599,-0.07213348150253296,-1.6699210516720122,-0.5162573022273973,-2.790792275642236
1687095571.982461,-0.8678000569343567,0.48994719982147217,0.08291509747505188,-0.023130178451538086,-0.036486536264419556,-0.013563871383666992,-0.10592195391654968,0.14324478805065155,-0.09868410974740982,-1.6660534732067165,-0.5120291739605509,-2.790214481469512
1687095572.029732,-0.8702877759933472,0.4861110746860504,0.07934164255857468,0.04487890005111694,0.035998791456222534,-0.06164146214723587,-0.2100973129272461,0.14937661588191986,0.003983587026596069,-1.6617121369679837,-0.5076341099030119,-2.7937315219641996
1687095572.0848489,-0.8694521188735962,0.4881804585456848,0.07571621984243393,0.02883017063140869,0.1322418451309204,-0.06901764869689941,-0.7805603742599487,0.4911228120326996,0.2778361141681671,-1.6576621573469972,-0.5100036862336194,-2.8226906034401305
1687095572.147613,-0.8559032678604126,0.5112508535385132,0.07779426127672195,0.04225897789001465,0.41733789443969727,-0.14919018745422363,-1.9843764305114746,0.9468313455581665,1.1434787511825562,-1.6614386820979907,-0.5366395726053863,-2.9013133291259576
1687095572.185083,-0.8042939305305481,0.5823572278022766,0.11820080876350403,0.1948578953742981,0.7193547487258911,0.15361928939819336,-2.762012004852295,-0.0021927279885858297,2.7601206302642822,-1.7167140033692134,-0.6216253613931886,-3.066844904041757
1687095572.273344,-0.6838806867599487,0.6956700086593628,0.21988831460475922,-0.06094670295715332,1.0405361652374268,0.06166687607765198,-1.3018879890441895,-1.8312398195266724,4.2531819343566895,-1.8818867551499214,-0.7693521328321842,3.0459253525980157
1687095572.288104,-0.4748969078063965,0.8241473436355591,0.3086321949958801,-0.46898123621940613,0.9115245342254639,0.2636790871620178,-0.08415550738573074,-1.6708325147628784,5.064149856567383,-2.1470963551101567,-0.9686950710617325,2.815180173775086
1687095572.333274,-0.21579332649707794,0.9271606206893921,0.3062780797481537,-0.33619338274002075,0.7194762229919434,0.10862359404563904,0.8579568862915039,-1.7841507196426392,5.569855690002441,-2.527808370114436,-1.1867618835794935,2.489366275681803
1687095572.379864,0.07206540554761887,0.9571557641029358,0.2804632782936096,-0.6415234804153442,0.8849769234657288,0.16310980916023254,0.8507523536682129,-1.3387130498886108,5.64164924621582,2.8900823668301006,-1.2770150606624122,1.6526206155565442
1687095572.453121,0.3654632270336151,0.9109805226325989,0.19118300080299377,-0.6756287217140198,0.9848629236221313,0.23392675817012787,2.1360816955566406,-1.834932804107666,6.114224910736084,2.052772434006619,-1.1456551428646113,0.8504475287440768
1687095572.482675,0.6426721811294556,0.7642036080360413,0.05445381626486778,-0.9225947260856628,0.9506096243858337,0.43623828887939453,2.016087293624878,-1.798120141029358,6.370975494384766,1.6553247444002803,-0.8698056920941839,0.4919646322222268
1687095572.570384,0.8459762334823608,0.5253547430038452,-0.09125029295682907,-1.193251132965088,0.8814597725868225,0.5523556470870972,2.843822717666626,-1.6270148754119873,6.009902000427246,1.4633478570358993,-0.5531319942080543,0.3424132147400061
1687095572.584897,0.9519021511077881,0.23496799170970917,-0.19665250182151794,-1.0865763425827026,0.6729605197906494,0.5656253099441528,1.3894323110580444,-1.1004962921142578,6.15372371673584,1.3670733030508606,-0.23718563631165795,0.2623740938016032
1687095572.6519809,0.97189861536026,-0.06750436872243881,-0.22551287710666656,-0.9731804728507996,0.5444179177284241,0.5191377401351929,1.3971589803695679,-0.05413763225078583,5.648833274841309,1.3427976178503367,0.06755574488583774,0.2709184454786466
1687095572.690082,0.899756133556366,-0.34934818744659424,-0.2615242302417755,-0.7217164635658264,0.5924970507621765,0.34338757395744324,0.6171046495437622,-1.629395842552185,5.56285285949707,1.2879290782964807,0.35687536522044705,0.29631271561980493
1687095572.754154,0.7645034790039062,-0.5811391472816467,-0.27894747257232666,-0.7366408705711365,0.355232834815979,0.44845736026763916,0.16450154781341553,-0.651531994342804,5.176259994506836,1.220932605030547,0.6201277423480444,0.3539668996398378
1687095572.80153,0.5777261853218079,-0.7522928714752197,-0.3166828751564026,-0.6502968668937683,0.38167208433151245,0.0706348717212677,0.48187023401260376,-0.885373592376709,4.73497200012207,1.0693715562436494,0.8515353884053424,0.4873765080356831
1687095572.867549,0.3867647349834442,-0.867871880531311,-0.3117871880531311,-0.5482332706451416,0.19024443626403809,0.09595164656639099,0.503365159034729,-0.7648037672042847,4.029316425323486,0.892321627011378,1.050902442160099,0.6594592238234995
1687095572.883137,0.23827455937862396,-0.9290016889572144,-0.2831624150276184,-0.7284784317016602,0.1182107925415039,-0.0787912905216217,1.5333642959594727,-0.325782835483551,2.463644027709961,0.6995249272133663,1.1917060329808988,0.8316506869757894
1687095572.983845,0.1267516016960144,-0.962861180305481,-0.23839549720287323,-0.32444441318511963,-0.21975600719451904,0.4051588177680969,-0.10520561039447784,-0.325874924659729,1.816202163696289,0.4886741055384434,1.2974064751701564,1.039478698667288
1687095572.999327,0.03854707255959511,-0.9743950963020325,-0.22151312232017517,-0.29648157954216003,0.0528864860534668,0.10682806372642517,1.4883732795715332,-0.9526970982551575,1.0175765752792358,0.17229181307552888,1.3440148699369678,1.3420561009585268
1687095573.0397859,0.011399881914258003,-0.9866107106208801,-0.16269437968730927,-0.3024459481239319,-0.3693310618400574,0.15662139654159546,0.7642788290977478,-0.8060805797576904,0.9966733455657959,0.06995496524178296,1.4069714395301014,1.4036006680964155
1687095573.089942,-0.004215174820274115,-0.9908708930015564,-0.13474921882152557,-0.05024339258670807,-0.05370008945465088,-0.4551708698272705,-0.17678457498550415,1.1237493753433228,-1.4262944459915161,-0.031271430237948254,1.4355701502552223,1.5055993003666472
1687095573.15273,-0.009213189594447613,-0.9936305284500122,-0.11231047660112381,0.15623167157173157,-0.4046086072921753,-0.11992835998535156,0.5525099635124207,-0.6503489017486572,0.42531728744506836,-0.08184993917346664,1.4578694173394315,1.5429402627079496
1687095573.171654,-0.004950692877173424,-0.9927817583084106,-0.11983241140842438,-0.03261639177799225,0.03236311674118042,0.17430627346038818,-0.12313391268253326,0.019696112722158432,-0.09881401062011719,-0.04128999022698854,1.450572182535622,1.488855682529212
1687095573.2298431,-0.0061743236146867275,-0.9933554530143738,-0.11492080986499786,-0.06969232857227325,0.11109232902526855,-0.1166161298751831,0.26610881090164185,0.06794880330562592,0.1536930799484253,-0.05367516010970806,1.455453967871242,1.5090610789089658
1687095573.281873,-0.00240953266620636,-0.9942461848258972,-0.10709099471569061,0.04730093479156494,-0.08177292346954346,0.035634055733680725,-0.04319460317492485,0.078330397605896,-0.09360775351524353,-0.022496067001177594,1.4634714545648935,1.4799646113095422
1687095573.323937,-0.00432945229113102,-0.9940202832221985,-0.10910922288894653,-0.006214320193976164,0.0013293027877807617,-0.013739340007305145,0.05205569788813591,0.1552194207906723,-0.04898184537887573,-0.03965917721384386,1.4613825391780566,1.5013120443640058
1687095573.385524,0.003076591296121478,-0.9952053427696228,-0.09775761514902115,-0.00010107504203915596,-0.013476729393005371,-0.08606503903865814,0.369148850440979,-0.05761673301458359,-0.15700629353523254,0.03146124411626655,1.4728321703032559,1.4295130028665526
1687095573.419526,0.01414230652153492,-0.9956591129302979,-0.09199441969394684,-0.07038614153862,-0.00043463706970214844,-0.17289817333221436,-0.11318764090538025,0.23597191274166107,-0.4639488160610199,0.15253590606169234,1.477586274800848,1.3145598605967073
1687095573.472301,0.04267618805170059,-0.99250328540802,-0.11452510952949524,-0.12316624820232391,-0.32188880443573,0.22777581214904785,-1.428277611732483,-0.04153890907764435,-0.9686483144760132,0.35669658344275945,1.4482719175843104,1.1098960941534972
1687095573.571861,0.18731467425823212,-0.9520607590675354,-0.2418544888496399,-0.992414116859436,-0.5878256559371948,0.19472002983093262,-3.098620653152466,2.7036890983581543,-3.7736356258392334,0.6589933903759678,1.2599033136366018,0.8673323904670571
1687095573.588068,0.4268052577972412,-0.8377864360809326,-0.3405161499977112,-1.2398544549942017,-0.5938389301300049,-0.056639641523361206,-2.35919451713562,1.6866761445999146,-5.370518684387207,0.8973826480613083,0.9932164121762878,0.7159775730730099
1687095573.638118,0.6659531593322754,-0.6516415476799011,-0.36313849687576294,-1.3224167823791504,-0.23347491025924683,0.3513892590999603,-2.3941433429718018,2.1826882362365723,-5.391623020172119,1.0715753684697071,0.7097465803158661,0.6169718687440502
1687095573.677552,0.8713335990905762,-0.36210355162620544,-0.33114778995513916,-1.2605090141296387,0.09870639443397522,0.29033052921295166,-2.6694226264953613,3.0768537521362305,-6.821194648742676,1.207608163914917,0.37052359003738694,0.623779855323446
1687095573.771164,0.9777707457542419,-0.03085896745324135,-0.20739389955997467,-1.1870908737182617,0.23770716786384583,0.6942102909088135,-1.6592328548431396,3.627911329269409,-6.506336688995361,1.3617851432799861,0.03086386753689569,0.6201124629858121
1687095573.787679,0.953555166721344,0.30029547214508057,-0.02355770207941532,-1.2294952869415283,0.4046148359775543,0.25245481729507446,-1.345039963722229,3.601010322570801,-6.312802791595459,1.546096224534101,-0.3050024092353047,0.6577593362921423
1687095573.824331,0.8081382513046265,0.5639238357543945,0.1700068563222885,-0.8866600394248962,0.4181775450706482,0.4292973279953003,-0.9859867691993713,3.4865424633026123,-5.412602424621582,1.7781414586559707,-0.5991295116664068,0.7380154566064836
1687095573.90308,0.5859854817390442,0.725699782371521,0.36052894592285156,-1.0222342014312744,0.24158543348312378,0.5514736175537109,-1.2205092906951904,4.384543418884277,-5.605618476867676,2.122355354451546,-0.8120509931296568,0.9488517418425311
1687095573.949656,0.3235068619251251,0.8269984722137451,0.45980069041252136,-0.7777153253555298,0.6002017855644226,0.33753201365470886,-0.883927583694458,2.6545119285583496,-4.270718574523926,2.5284676290410166,-0.9737476315231636,1.2590770465692205
1687095573.988083,0.03201397880911827,0.8492937088012695,0.5269493460655212,-0.6552287340164185,0.574748158454895,0.5459725260734558,0.4605204164981842,3.1198410987854004,-4.754497528076172,3.0809138062007526,-1.0146460216892,1.6903777978833536
1687095574.0700788,-0.18432848155498505,0.8548946380615234,0.484951376914978,-0.780255913734436,0.5101717114448547,0.33000510931015015,-0.05659041181206703,2.9985268115997314,-4.359976291656494,-2.7783610378436765,-1.025347749105892,2.092279754489132
1687095574.1107302,-0.4082922041416168,0.800360918045044,0.4389984905719757,-0.053835511207580566,0.6637502908706665,0.20272502303123474,2.1458663940429688,0.40598079562187195,-3.7055397033691406,-2.3924191880539505,-0.9278970189057162,2.426369845140905
1687095574.124926,-0.5863559246063232,0.7421181201934814,0.32472681999206543,-0.45568209886550903,0.5967795848846436,0.5668288469314575,1.5212684869766235,1.104972243309021,-3.932589530944824,-2.076556114320547,-0.8362249481787608,2.768378973511782
1687095574.178681,-0.7213088870048523,0.6499315500259399,0.23937948048114777,-0.4392746686935425,0.6490796208381653,-0.06408655643463135,2.1335275173187256,0.5298937559127808,-3.894939661026001,-1.8912276870126359,-0.707494354529283,3.0186080412638367
1687095574.250953,-0.8278768658638,0.5325431227684021,0.17611847817897797,0.02799588441848755,0.7101478576660156,0.07055509090423584,2.8924498558044434,-0.6947627663612366,-3.2408409118652344,-1.7804066608656957,-0.5616023802257165,-3.1030536480009903
1687095574.282726,-0.8975751399993896,0.41531336307525635,0.14789827167987823,-0.3574603796005249,0.36180153489112854,0.15649940073490143,0.7958920001983643,-0.035856787115335464,-2.8881874084472656,-1.7341042614286792,-0.4282872522541896,-2.9249524908152855
1687095574.368948,-0.9429543614387512,0.3037016987800598,0.1363903284072876,0.3147042989730835,0.6876312494277954,-0.3013378381729126,1.8447200059890747,-0.769498884677887,-1.8821510076522827,-1.7144416009260806,-0.30857545422023125,-2.8668832802499575
1687095574.3853211,-0.9533693194389343,0.25416404008865356,0.16275037825107574,0.04727184772491455,0.6926895976066589,-0.017776712775230408,-1.291171908378601,-1.138970136642456,-0.3431437611579895,-1.7398771706860743,-0.2569832532484486,-2.7806245864984103
1687095574.452326,-0.9586036205291748,0.23918455839157104,0.15449877083301544,0.1721808910369873,0.7204711437225342,-0.2840611934661865,2.2177658081054688,-0.9252579212188721,0.06395142525434494,-1.7305928095385363,-0.24152594885267747,-2.7476549168595885
1687095574.492227,-0.9552477598190308,0.251682311296463,0.15542788803577423,-0.01666080951690674,-0.4176216721534729,0.4378948211669922,0.32502081990242004,0.09889111667871475,0.3805350959300995,-1.732092338054094,-0.2544181369184509,-2.6690246178837724
1687095574.5530381,-0.9508498311042786,0.26449015736579895,0.16102570295333862,-0.11416769027709961,-0.08072865009307861,-0.017287984490394592,0.8407895565032959,-0.21415206789970398,-0.2253740131855011,-1.7385539426850176,-0.26767520413969914,-2.6404062710162823
1687095574.699259,-0.9522275924682617,0.26013869047164917,0.15997011959552765,-0.017239511013031006,-0.08039021492004395,-0.19373776018619537,0.08625590801239014,-0.07874944806098938,-0.12192016839981079,-1.7372378128881352,-0.2631658243736711,-2.6199224973911877
1687095574.705163,-0.9527958631515503,0.261869341135025,0.1536378413438797,0.005423426628112793,0.1535511612892151,-0.08508014678955078,-0.16312457621097565,0.3896951377391815,0.2992338538169861,-1.7306696517634048,-0.2649586301467435,-2.62459398032319
1687095574.709969,-0.9513773322105408,0.2771947681903839,0.13432902097702026,0.13088172674179077,0.2464715540409088,-0.14922167360782623,-1.3462069034576416,0.7942241430282593,0.7040751576423645,-1.7110633831056632,-0.2808732256771439,-2.6527707830417904
1687095574.8715181,-0.9291146397590637,0.3483489751815796,0.12409204244613647,0.127951979637146,1.1180052757263184,-0.13634492456912994,-1.9861501455307007,1.1237218379974365,2.601370096206665,-1.7035700259658884,-0.35580917178762117,-2.774790398118349
1687095574.886899,-0.8656452894210815,0.4866899847984314,0.11743523180484772,-0.05380356311798096,1.6748242378234863,-0.05772757530212402,-1.1737589836120605,0.1577223688364029,4.244970798492432,-1.7056352123024654,-0.5082966827868904,-2.875791319459942
1687095574.959498,-0.7100030779838562,0.6848200559616089,0.16406387090682983,-0.5065191388130188,1.663827896118164,0.1570725291967392,-0.4940662086009979,-1.4657598733901978,6.142673492431641,-1.7978853414646312,-0.754356739339434,-2.982933723438635
1687095574.974514,-0.4011165499687195,0.8846524357795715,0.2376880794763565,-1.3110264539718628,1.5615450143814087,0.4368267059326172,-0.12632432579994202,-2.5565197467803955,7.911478519439697,-2.105731799460146,-1.085748020408866,3.0470417878488387
1687095575.051207,0.019260987639427185,0.9722543954849243,0.2331313043832779,-2.151005506515503,1.3418476581573486,0.7768479585647583,1.5385624170303345,-2.896665573120117,8.43209457397461,3.0591612495239033,-1.3346825933794781,2.02325357414537
1687095575.055784,0.43760058283805847,0.8977373838424683,0.050726518034935,-2.396127223968506,1.1005535125732422,0.8099150657653809,4.421248912811279,-2.4437150955200195,8.192639350891113,1.6862009352830527,-1.1146062371437058,0.7341975902319137
1687095575.141165,0.7534779906272888,0.6382774114608765,-0.15771183371543884,-2.158186912536621,0.6922585368156433,0.8655975461006165,3.560701608657837,-1.0738606452941895,7.875172138214111,1.3644633500653316,-0.692258504208797,0.4490008287396657
1687095575.157504,0.915091335773468,0.292514443397522,-0.27756690979003906,-1.8138644695281982,0.5662503242492676,0.5481510162353516,3.803926467895508,-0.6268714666366577,6.578362464904785,1.2762950485853681,-0.29685523001875563,0.3445951880339329
1687095575.230915,0.9504201412200928,-0.05402536317706108,-0.3062395751476288,-1.4634207487106323,0.37101152539253235,0.6584887504577637,2.1741816997528076,0.4906652867794037,6.210356712341309,1.259085464769343,0.054051680020217985,0.29365875787948126
1687095575.3831701,0.9011875987052917,-0.3456827402114868,-0.26146575808525085,-1.2092015743255615,0.4126841723918915,0.24426910281181335,0.9024227261543274,0.5739453434944153,5.49515962600708,1.2884146902351474,0.3529662783867785,0.30435437487549866
1687095575.3887491,0.7822877764701843,-0.5778579115867615,-0.23260678350925446,-0.8431856632232666,0.16986852884292603,0.32956114411354065,0.8600445985794067,-0.19996215403079987,4.923821926116943,1.2817801174040955,0.6161016004124732,0.35347737393789425
1687095575.472015,0.6161797046661377,-0.7535669803619385,-0.22904066741466522,-0.8704673647880554,0.4579888582229614,0.07959607243537903,1.263131856918335,-0.9055026173591614,4.505483150482178,1.2149124403832618,0.8534714179821471,0.3785751947635766
1687095575.488848,0.44074130058288574,-0.8760417103767395,-0.19569885730743408,-0.7051302790641785,0.14799916744232178,0.20976746082305908,0.750446081161499,-0.41118258237838745,4.00695276260376,1.1529247787076662,1.0675917194434699,0.44185420711277207
1687095575.492334,0.2594870626926422,-0.9446926116943359,-0.2005549669265747,-0.47950348258018494,0.06116300821304321,0.4214869737625122,0.8128100633621216,-0.010291879996657372,3.370694160461426,0.9128058004887967,1.2366560342216881,0.6482541225192145
1687095575.561432,0.11644981056451797,-0.9844026565551758,-0.131874218583107,-0.3021644949913025,-0.03181737661361694,0.137947216629982,0.81598299741745,-0.9901780486106873,2.636113166809082,0.7233638338568887,1.3939458648076657,0.8362693485061834
1687095575.5751638,0.01331621129065752,-0.9964897036552429,-0.08264944702386856,-0.46242809295654297,-0.02472001314163208,0.16260546445846558,2.395211935043335,0.2200377881526947,1.5549918413162231,0.15974396044697808,1.486982471580586,1.3904953886694293
1687095575.713094,-0.05735177919268608,-0.9983536601066589,-0.0007483505760319531,-0.022405847907066345,-0.435712993144989,0.48582518100738525,0.2103888839483261,-0.8764564394950867,1.206992506980896,-1.5577486392868987,1.5134068095224729,3.0719951634467
1687095575.718501,-0.06508844345808029,-0.9958438873291016,0.0637064278125763,-0.04308106750249863,0.007883071899414062,0.2362966537475586,2.897814989089966,1.8770391941070557,-3.6034364700317383,-2.3454645898346516,1.4795935252401704,-2.4368084333153543
1687095575.7743979,-0.060664381831884384,-0.990954577922821,0.11970438808202744,0.36088109016418457,-1.1113710403442383,0.119095578789711,-0.43595194816589355,-1.6445436477661133,3.787471294403076,-2.6725318293089644,1.4361926529356395,-2.1193492256712343
1687095575.789964,-0.05105333402752876,-0.9912272691726685,0.12190932035446167,0.029462207108736038,0.3729870319366455,0.22867655754089355,1.0843275785446167,0.34130385518074036,-3.0536680221557617,-2.7450011534930217,1.438240110257104,-2.0474358202086176
1687095575.792869,-0.03884438797831535,-0.9905372262001038,0.13163277506828308,-0.14543594419956207,-0.20741504430770874,0.13194751739501953,-0.9802575707435608,0.061432961374521255,1.4961919784545898,-2.8546404352235153,1.4331174805837747,-1.9723319420228766
1687095575.9230618,-0.04593580961227417,-0.9901741147041321,0.13207876682281494,0.17145466804504395,0.1658639907836914,-0.05222955346107483,0.7600851058959961,-0.49317023158073425,-0.7021052241325378,-2.806887088237471,1.4304966181574783,-2.000341024993561
1687095575.940448,-0.03532244265079498,-0.9890720248222351,0.1431380957365036,-0.09120339155197144,-0.12811535596847534,0.15482018887996674,-0.21373751759529114,0.6103305220603943,0.1434655636548996,-2.8996546174303233,1.422823695776913,-1.9160617696837943
1687095576.011427,-0.041014090180397034,-0.9882709980010986,0.14709919691085815,0.08837743103504181,0.04143267869949341,-0.07959438860416412,0.21695943176746368,-0.26516294479370117,-0.20348313450813293,-2.869679184722096,1.4174863633766512,-1.938296561916641
1687095576.025254,-0.04040232300758362,-0.9884606003761292,0.14599041640758514,-0.022692710161209106,-0.021060824394226074,0.04869639873504639,-0.050306521356105804,0.154889777302742,0.17196106910705566,-2.871603544838793,1.41873285994544,-1.9351990954099105
1687095576.1328878,-0.03913327306509018,-0.9892871379852295,0.14064042270183563,0.02190614864230156,-0.07881289720535278,-0.0016939491033554077,-0.407624751329422,0.054743845015764236,-0.12625066936016083,-2.870206949045264,1.4242900923344455,-1.9363602951769308
1687095576.1387758,-0.023717664182186127,-0.9969207048416138,0.07474222034215927,-0.1761724352836609,-0.24136042594909668,-0.12195289880037308,-2.4811134338378906,-0.05445118993520737,-0.41172540187835693,-2.834317017074225,1.4922996641854356,-1.9645576108162717
1687095576.225389,0.02638821490108967,-0.9879677891731262,-0.1523919701576233,-0.6362361907958984,-0.2715536952018738,0.6364007592201233,-5.673925876617432,2.176635980606079,-1.6359020471572876,0.1714599184237384,1.4155133209655655,1.3355172234504036
1687095576.242249,0.24184639751911163,-0.9257181286811829,-0.2907857894897461,-1.0165045261383057,-0.5905172228813171,-0.2474679946899414,-2.040444850921631,2.2160348892211914,-4.370407581329346,0.6937732553394811,1.1829298682921892,0.9658687517707804
1687095576.2456222,0.5050008893013,-0.7936186790466309,-0.33932796120643616,-1.6212270259857178,-0.31423038244247437,0.08650511503219604,-2.2218832969665527,3.0379350185394287,-5.690949440002441,0.979155008043162,0.9167338936078147,0.787320475636649
1687095576.275187,0.7497125267982483,-0.585891604423523,-0.30767253041267395,-1.220217227935791,-0.02748119831085205,0.39016157388687134,-1.9525150060653687,3.4598445892333984,-5.8714118003845215,1.1813675249060565,0.6259798079837131,0.7225119545873836
1687095576.336533,0.9334681630134583,-0.29724398255348206,-0.2007068395614624,-1.0130274295806885,0.24071019887924194,0.1532977819442749,-0.6877071857452393,3.630680799484253,-6.598660469055176,1.359008721707352,0.3018048707127774,0.7081986167542035
1687095576.432029,0.9981632232666016,0.057282980531454086,-0.01971387304365635,-0.9111729860305786,0.4791703224182129,0.1400294303894043,-0.5598241090774536,3.293813467025757,-6.943826675415039,1.5510487445715766,-0.0573143537702444,0.6830533615324359
1687095576.5239038,0.9157091975212097,0.374590128660202,0.14546166360378265,-1.137449860572815,0.34177955985069275,0.7217868566513062,0.1644180417060852,4.125105857849121,-6.07809591293335,1.7283314331743551,-0.3839546760428393,0.6983439840330726
1687095576.538655,0.7372618913650513,0.5954993367195129,0.3191014528274536,-1.1358672380447388,0.6052301526069641,0.21463575959205627,-1.0895030498504639,3.779435634613037,-4.737382888793945,1.9792716226805043,-0.6378870408107408,0.7874183136807849
1687095576.614159,0.5041496753692627,0.7203823924064636,0.47632142901420593,-1.0702661275863647,0.3142397999763489,0.3113219141960144,0.04496529698371887,3.9351370334625244,-4.462334156036377,2.327819553821939,-0.8043535063705374,1.004324852550919
1687095576.619478,0.2666451334953308,0.8067668676376343,0.5272831320762634,-0.6730477809906006,0.3184009790420532,0.268432080745697,0.2998972535133362,2.7263925075531006,-4.252346038818359,2.673398390123678,-0.9386596345496344,1.2506759587804404
1687095576.703665,0.03135295957326889,0.8503254652023315,0.5253218412399292,-0.6506767272949219,0.45477384328842163,0.1304396390914917,0.7362458109855652,2.676954746246338,-3.834965467453003,3.081980034435494,-1.0166034332869631,1.5840639308531774
1687095576.721256,-0.18278512358665466,0.863179087638855,0.47064974904060364,-0.21226496994495392,0.5090283751487732,0.08499902486801147,1.9815725088119507,1.099161148071289,-3.415773868560791,-2.771154230808778,-1.041532697217796,1.9660971220571173
1687095576.7866812,-0.3568370044231415,0.8473084568977356,0.39336463809013367,-0.5512593388557434,0.29394209384918213,0.7335731983184814,0.32787632942199707,1.7835878133773804,-3.798323631286621,-2.4048465017061336,-1.010896813839457,2.3304445049940625
1687095576.8012462,-0.5241064429283142,0.794631838798523,0.3063866198062897,0.058255553245544434,0.6917420625686646,0.007745981216430664,2.8821628093719482,-0.75421541929245,-2.805945873260498,-2.099806810670354,-0.9184009084050823,2.6380881903326774
1687095576.876915,-0.6484475135803223,0.7255520224571228,0.23041270673274994,-0.7143912315368652,0.3310275077819824,0.6242473125457764,0.31698065996170044,1.4702479839324951,-3.752941131591797,-1.9122113434262187,-0.8118362494208331,2.8746411232747215
1687095576.97104,-0.7501362562179565,0.6371749043464661,0.17692871391773224,0.07499581575393677,0.6192489862442017,-0.3298218250274658,3.6911461353302,-1.6271378993988037,-2.470161199569702,-1.8024251143192618,-0.6908271453042015,3.0421510852975278
1687095576.989204,-0.8318515419960022,0.5387948155403137,0.13312847912311554,-0.2840389609336853,0.253548264503479,0.4530683755874634,1.7665570974349976,-0.8338329195976257,-2.9110264778137207,-1.729489358731353,-0.5690058635028385,-3.036043562389473
1687095577.054815,-0.8944469690322876,0.42177677154541016,0.1485556811094284,-0.25748467445373535,0.4015111029148102,-0.21320714056491852,1.4254405498504639,-1.3348243236541748,-2.8203797340393066,-1.7353805886434917,-0.43540402304120346,-2.895906010639919
1687095577.068863,-0.9348863363265991,0.3143305480480194,0.16487452387809753,-0.07681703567504883,0.7341923117637634,-0.16556121408939362,2.3492560386657715,-1.0158675909042358,-2.5673794746398926,-1.7453591749942006,-0.31975136689604405,-2.793344054002595
1687095577.181329,-0.9437881112098694,0.2759248912334442,0.18201501667499542,0.24557644128799438,1.013946294784546,-0.47658586502075195,-0.23483705520629883,0.07418662309646606,-0.15342912077903748,-1.7613131287714245,-0.2795518191644205,-2.713770665370541
1687095577.187665,-0.9398600459098816,0.2922568619251251,0.17677420377731323,0.3781992793083191,0.2475074827671051,-0.41095077991485596,1.3714231252670288,-0.8547003865242004,0.8581511974334717,-1.7567099902093568,-0.2965858899810998,-2.638643837192314
1687095577.270752,-0.9373518824577332,0.30499234795570374,0.16837723553180695,-0.1383163332939148,-0.7506254315376282,0.500461220741272,-0.5931826829910278,0.17584800720214844,0.3204764723777771,-1.7485315966386659,-0.3099304028975879,-2.6437090202779365
1687095577.288725,-0.9373952150344849,0.302643746137619,0.1723288595676422,0.0057392120361328125,-0.1592417061328888,0.11194242537021637,-0.5421329736709595,0.11691619455814362,-0.05591736361384392,-1.7526043112804992,-0.3074652774814571,-2.653330359948576
1687095577.3569489,-0.9388772249221802,0.3009576201438904,0.16713488101959229,0.031513333320617676,0.5188817977905273,-0.3417259454727173,-0.4277789294719696,0.3709428608417511,0.42631858587265015,-1.7469665619812809,-0.30569667890675184,-2.689007204587173
1687095577.371798,-0.9268856644630432,0.3419903516769409,0.15467849373817444,0.11452305316925049,0.4857530891895294,-0.20320142805576324,-1.8916844129562378,1.188360571861267,1.68076491355896,-1.736152369954964,-0.34903413406277406,-2.7508883537564626
1687095577.4466028,-0.8905430436134338,0.43175455927848816,0.14325152337551117,-0.1949976682662964,1.238914966583252,-0.05723774433135986,-1.4441603422164917,0.7968665361404419,2.634275436401367,-1.7302886650893337,-0.44643707247697306,-2.8625288434903857
1687095577.450711,-0.8094086050987244,0.5617456436157227,0.17117168009281158,-0.02013552188873291,0.9416571259498596,0.0686202198266983,-1.8314467668533325,0.1541496366262436,3.8199872970581055,-1.779203154081883,-0.5964943196051797,-3.011123135561688
1687095577.5714831,-0.6607620120048523,0.7175629734992981,0.22022061049938202,-0.20114600658416748,1.0914121866226196,0.18232154846191406,-0.5121166110038757,-1.3865116834640503,5.415205001831055,-1.8925014080642135,-0.8002970082335111,3.1392928481019875
1687095577.6334891,-0.393566370010376,0.8743170499801636,0.28403371572494507,-1.115772008895874,1.2762565612792969,0.21383008360862732,-0.23241405189037323,-2.155900478363037,6.5562872886657715,-2.1959328457381377,-1.0640269193320733,2.8790653585805495
1687095577.6384401,-0.052401334047317505,0.9528292417526245,0.2989495098590851,-1.3977177143096924,1.01497483253479,0.23115602135658264,0.9013177752494812,-1.7568514347076416,6.817469120025635,-2.9680705656865265,-1.26242526185303,2.1504980833244614
1687095577.6428099,0.28577569127082825,0.9300532341003418,0.23093976080417633,-1.3754364252090454,0.7829747200012207,0.28515827655792236,1.0312517881393433,-1.1686598062515259,6.456038951873779,2.250466165158828,-1.1945576390877366,1.1184239039666557
1687095577.685857,0.5663312077522278,0.8065792322158813,0.16940852999687195,-1.1896679401397705,0.6785740852355957,0.26409363746643066,1.3420921564102173,-1.0932295322418213,5.83113956451416,1.8614578074250927,-0.9383421975358212,0.7332382366405473
1687095577.748927,0.7703585028648376,0.6361318826675415,0.04340445250272751,-1.2385897636413574,0.627372145652771,0.4688178300857544,2.7968201637268066,-1.410871982574463,5.040534973144531,1.6270800079119068,-0.6894746205838472,0.5053909326119763
1687095577.808579,0.90240478515625,0.4258497953414917,-0.06570921093225479,-1.24420166015625,0.5228807330131531,0.6559039354324341,1.8263312578201294,-0.9757019281387329,4.924322128295898,1.4981089368032798,-0.4399008935541327,0.3739207292248866
1687095577.900176,0.9707844257354736,0.18943330645561218,-0.14728392660617828,-1.2396748065948486,0.4139450788497925,0.4207519292831421,2.132066011428833,-0.8433130979537964,4.73319149017334,1.4202281607688771,-0.1905849670334714,0.2925839362005065
1687095577.9061232,0.9799483418464661,-0.05613308027386665,-0.19118137657642365,-1.0609878301620483,0.27199921011924744,0.503879725933075,1.6725351810455322,-0.8349990844726562,4.511518955230713,1.3781231437739,0.05616260219937042,0.24092201812337607
1687095577.99046,0.9324311017990112,-0.29066038131713867,-0.21468284726142883,-0.964077889919281,0.17449527978897095,0.19884420931339264,2.2568726539611816,-0.9150750041007996,4.424497604370117,1.344500101807877,0.294916932733666,0.18139347198796044
1687095578.1150389,0.8333048224449158,-0.5050604939460754,-0.2247597724199295,-0.9088510870933533,0.19802314043045044,0.4533974528312683,0.7276108264923096,-0.1664661467075348,4.782483100891113,1.307344610407601,0.5294520349207148,0.17806965686646353
1687095578.120459,0.6817715167999268,-0.6998629570007324,-0.21302437782287598,-0.7883083820343018,0.39317673444747925,0.2470361739397049,0.13973265886306763,-0.5589673519134521,4.987387180328369,1.2679505052473674,0.775205657442455,0.21986505911133516
1687095578.2043328,0.48409798741340637,-0.8464210629463196,-0.22185705602169037,-0.7239508628845215,0.13920670747756958,0.21886634826660156,-0.015137242153286934,0.14977017045021057,5.085587978363037,1.1410702250621059,1.0092281444617703,0.371042083292513
1687095578.224597,0.2660561800003052,-0.931169331073761,-0.24927477538585663,-0.5124702453613281,0.06031966209411621,0.17067673802375793,-0.5022554397583008,-0.5182732343673706,4.363722324371338,0.8179509634297994,1.1976071700143223,0.7087249584746421
1687095578.227453,0.07867932319641113,-0.9735462069511414,-0.2145160287618637,-0.5054065585136414,0.009572327136993408,0.03043404221534729,1.5609413385391235,-1.1038522720336914,3.4284780025482178,0.351541141685795,1.3402696399101497,1.1631017709885276
1687095578.3217,-0.055672843009233475,-0.9889535903930664,-0.13737304508686066,-0.43582797050476074,-0.3409871459007263,0.17799192667007446,2.820793867111206,-0.9447099566459656,1.1976959705352783,-0.38503914806743217,1.4220227985530995,1.8596695582429852
1687095578.3389711,-0.0208162609487772,-0.9987569451332092,0.04529275372624397,-0.7777523994445801,-1.1497416496276855,-0.3331955671310425,2.8986451625823975,2.7292792797088623,-1.1924856901168823,-2.71078938452253,1.5209306500115933,-2.065140647767962
1687095578.4099898,-0.1475469172000885,-0.9866206645965576,0.06935091316699982,0.09946653246879578,0.04561114311218262,0.2983858585357666,-0.7670925855636597,-0.39005929231643677,1.4060784578323364,-2.0101786393694825,1.4070327582232416,-2.8288354902859902
1687095578.424182,-0.05017547309398651,-0.9973024129867554,0.053576093167066574,0.2966202199459076,-0.3636900782585144,0.11910761147737503,-0.35709601640701294,-1.1636734008789062,-1.0420305728912354,-2.3889593578183574,1.4973280832048368,-2.432530526621311
1687095578.5331202,-0.09826076775789261,-0.994553804397583,0.03474730625748634,-0.24727444350719452,0.40324532985687256,0.0011718198657035828,0.413128525018692,1.0101412534713745,0.323744535446167,-1.9106954722968106,1.466382020431333,-2.9272777610174847
1687095578.538525,-0.07056485861539841,-0.996149480342865,0.05202392116189003,0.22351901233196259,-0.18527734279632568,-0.07372201234102249,-0.2615271508693695,-0.6377246975898743,-0.12382037192583084,-2.206087217339756,1.4830124774316744,-2.6402363083258105
1687095578.624765,-0.08485746383666992,-0.9954211115837097,0.04400132596492767,-0.0408138632774353,0.03971731662750244,0.020421266555786133,-0.03504708781838417,0.09734488278627396,0.13377971947193146,-2.049159505688024,1.4750633902688797,-2.791769908606754
1687095578.642966,-0.07717802375555038,-0.9959661364555359,0.0457691065967083,-0.01992885023355484,0.0039466023445129395,-0.06736040115356445,0.13976114988327026,-0.10612423717975616,0.06122725456953049,-2.10607720658572,1.4809455950196577,-2.7361808330895747
1687095578.740942,-0.08568499982357025,-0.9950107336044312,0.05110454931855202,0.003043457865715027,0.04801976680755615,-0.0023069381713867188,0.04982311278581619,0.15433935821056366,-0.053459953516721725,-2.1085818948771013,1.4708619360029558,-2.7355790770878596
1687095578.761156,-0.06370241940021515,-0.9973528385162354,0.03505944460630417,-0.15188896656036377,-0.12134522199630737,-0.10366296768188477,-1.306498646736145,-0.05411994829773903,-0.8481727838516235,-2.073918076458708,1.4980182535982887,-2.763130452827109
1687095578.82773,-0.014916043728590012,-0.9932185411453247,-0.11530189961194992,-0.541312575340271,-0.49909108877182007,0.5107638835906982,-4.340750217437744,1.7859225273132324,-1.1526063680648804,-0.12865062220801246,1.4542705002531349,1.594784634905635
1687095578.8424048,0.13206718862056732,-0.9485613703727722,-0.2877318859100342,-0.9615043997764587,-0.12059146165847778,-0.01068425178527832,-2.8834331035614014,2.9718339443206787,-3.298671245574951,0.4303080589203376,1.248660352148587,1.1729814728086292
1687095578.915955,0.3322502076625824,-0.8537047505378723,-0.4009961187839508,-1.0731712579727173,-0.2361541986465454,0.1756543219089508,-2.796647787094116,2.5496044158935547,-3.5549216270446777,0.691915884103252,1.0230584771071387,1.0059641255637561
1687095578.919169,0.5683728456497192,-0.7138403058052063,-0.409126341342926,-1.0736829042434692,-0.046672940254211426,0.3131332993507385,-1.1832265853881836,3.039377212524414,-5.331780910491943,0.9468916250657777,0.7949667568132336,0.8750646965531209
1687095579.044159,0.7903929352760315,-0.4970785081386566,-0.35803917050361633,-1.0245237350463867,0.027962327003479004,0.4245675206184387,-1.5859980583190918,2.0260937213897705,-5.815038681030273,1.1454596816471554,0.5202285827494924,0.748216727869069
1687095579.063211,0.9357113242149353,-0.18767879903316498,-0.2986988425254822,-1.099133014678955,0.10766175389289856,0.638512134552002,-2.289870262145996,2.4334237575531006,-6.6798272132873535,1.2618000413490964,0.18879841391241917,0.7487122014266732
1687095579.1260982,0.9716687202453613,0.154771089553833,-0.17862211167812347,-1.2842144966125488,0.620161771774292,0.7128781080245972,-1.8660801649093628,2.935025215148926,-6.48486852645874,1.388995817856736,-0.15539575331929228,0.7608243167868971
1687095579.14101,0.8773146867752075,0.478914350271225,-0.030984440818428993,-0.8495590090751648,0.2774943709373474,0.5141234993934631,-0.8326923847198486,1.9548593759536743,-6.724173545837402,1.5354936375844424,-0.4994175833546417,0.7979212958395643
1687095579.216048,0.6810066103935242,0.7290692329406738,0.06846918165683746,-0.9046852588653564,0.36567258834838867,0.5501984357833862,-1.0993250608444214,1.4587057828903198,-6.263965606689453,1.6710007318583477,-0.8169610708812455,0.8688595481614209
1687095579.219864,0.4090208411216736,0.8991244435310364,0.15581168234348297,-0.8511900901794434,0.7061154246330261,0.6207996606826782,-0.8814777135848999,2.3795065879821777,-6.303962707519531,1.934762947740678,-1.1177650145766524,1.0609400571839507
1687095579.344255,0.13377173244953156,0.9661070108413696,0.2207769751548767,-0.42814433574676514,0.5855439901351929,0.24594354629516602,-1.1118698120117188,0.4566553831100464,-5.13210916519165,2.5968364009509606,-1.3096978865250841,1.7160942478375996
1687095579.400908,-0.1405828595161438,0.9521580934524536,0.2713506817817688,-0.6476709842681885,0.7728936076164246,0.2221185564994812,-0.5572434663772583,1.7850006818771362,-5.0811357498168945,-2.6635815360028325,-1.26022155824661,2.6926202034530515
1687095579.405836,-0.3596329987049103,0.891268253326416,0.27623337507247925,-0.3988204002380371,0.5194524526596069,0.16186174750328064,-1.154512643814087,1.1543699502944946,-3.8033015727996826,-2.2257798814800243,-1.1001342507462948,3.1013246801950447
1687095579.409696,-0.5586692690849304,0.7818810343742371,0.2766781449317932,-0.6207283735275269,0.7808020114898682,0.205652117729187,0.36588335037231445,1.464369535446167,-4.383052349090576,-2.0306327053771693,-0.8976774161794928,-3.052546979557486
1687095579.4571419,-0.7124832272529602,0.6630194187164307,0.22972412407398224,-0.18567973375320435,0.5035607218742371,0.15682676434516907,0.010786926373839378,0.41712886095046997,-3.9022011756896973,-1.882699664486494,-0.7248450135114822,-2.8783674562658095
1687095579.58115,-0.8227584362030029,0.524565577507019,0.21885934472084045,-0.2128707766532898,0.7734079360961914,0.16355644166469574,-0.14000050723552704,0.756769061088562,-3.15079402923584,-1.8307825623635807,-0.5522047904200111,-2.8707569548925336
1687095579.586551,-0.8919598460197449,0.40524157881736755,0.20046699047088623,-0.10202819108963013,0.9253858327865601,-0.0020874738693237305,0.30820417404174805,-0.2821787893772125,-2.3370203971862793,-1.7918717539944888,-0.4172430672528931,-2.7974482120432214
1687095579.703244,-0.9292511343955994,0.3128483295440674,0.19651545584201813,-0.01438295841217041,0.6848933696746826,-0.016034483909606934,1.4864225387573242,0.4166300892829895,-1.4485703706741333,-1.7792029308744872,-0.31819040486085526,-2.752773025889321
1687095579.708461,-0.9270358681678772,0.3197160065174103,0.19592374563217163,0.2147403359413147,1.192887783050537,-0.2342538833618164,1.3078513145446777,-0.313376247882843,-0.529935359954834,-1.7790757001612998,-0.3254297389968287,-2.7475396452860954
1687095579.8222098,-0.9292768836021423,0.3124721348285675,0.19699151813983917,0.37198013067245483,0.33309662342071533,0.06407105922698975,2.88094162940979,-0.8242853283882141,-0.25514617562294006,-1.7796876272548274,-0.317794365928071,-2.580639777133172
1687095579.842757,-0.9280369877815247,0.3200487792491913,0.19056880474090576,0.12116730213165283,-0.6389878988265991,0.448103129863739,-1.202470302581787,-0.1467660367488861,0.5104564428329468,-1.7733270812183282,-0.32578096613982555,-2.571974669391901
1687095579.877839,-0.9232320189476013,0.3285490870475769,0.19924411177635193,-0.05972397327423096,0.15323185920715332,-0.059183597564697266,1.1522696018218994,-0.45814332365989685,-0.07729912549257278,-1.7833480382846185,-0.33476695930210737,-2.552455671877373
1687095579.880729,-0.9193679690361023,0.3351398706436157,0.20601916313171387,-0.1429947018623352,-0.1222493052482605,0.13396191596984863,0.318711519241333,-0.1459742933511734,-0.009748158976435661,-1.791242376572426,-0.341753676295447,-2.539568289080229
1687095579.88335,-0.9190686345100403,0.3384905159473419,0.20183418691158295,0.008347809314727783,0.1277875304222107,-0.27574777603149414,0.8376121520996094,-0.23033274710178375,-0.010112103074789047,-1.7869720269505411,-0.34531226562757317,-2.482934463172962
1687095579.9350119,-0.9170921444892883,0.3423493206501007,0.20430147647857666,-0.01814955472946167,-0.12295845150947571,0.01980435848236084,-0.5655872821807861,0.05344283580780029,0.28317683935165405,-1.7899881126944626,-0.3494161645137184,-2.4887081221929224
1687095580.028691,-0.9150093793869019,0.3476424813270569,0.2047015279531479,-0.029662370681762695,0.09579315781593323,-0.0750323235988617,0.4922226369380951,-0.07547280192375183,-0.0895686224102974,-1.7908875577407288,-0.35505559086766103,-2.489581552981956
1687095580.151998,-0.9123426079750061,0.3540131449699402,0.20568394660949707,-0.006343483924865723,-0.11962288618087769,0.1310165375471115,-0.1662897914648056,0.09113652259111404,0.14064089953899384,-1.792535191428104,-0.36185866196235816,-2.4901620430008524
1687095580.157886,-0.909787118434906,0.3603827655315399,0.20594026148319244,0.03660303354263306,0.07629320025444031,-0.04842379689216614,0.19340313971042633,-0.18072934448719025,0.1940383017063141,-1.7934057464233721,-0.3686781997990321,-2.4872887178331626
