Timestamp,gravityX,gravityY,gravityZ,accelerationX,accelerationY,accelerationZ,rotationRateX,rotationRateY,rotationRateZ,attitudeRoll,attitudePitch,attitudeYaw
1687106183.253063,-0.746631920337677,0.6163265705108643,0.2503645420074463,-0.002635657787322998,0.007910430431365967,-0.005384773015975952,0.03516065701842308,-0.052946534007787704,-0.008925005793571472,-1.8943385547462042,-0.664069439659641,-2.4710776731730157
1687106183.3381,-0.746248185634613,0.6164696216583252,0.25115469098091125,0.0028400421142578125,0.009842514991760254,-0.008341670036315918,0.016678372398018837,-0.047450676560401917,0.014736448414623737,-1.8954449334577765,-0.6642510776511082,-2.4692774995756435
1687106183.3413482,-0.7449127435684204,0.61783766746521,0.2517565190792084,0.001245260238647461,0.01578342914581299,-0.013704299926757812,0.046150725334882736,-0.048379212617874146,0.03126850724220276,-1.8967120767031493,-0.6659897458594508,-2.4675780069765576
1687106183.399818,-0.7431944012641907,0.6196674108505249,0.2523376941680908,-0.00985729694366455,-0.007469654083251953,-0.011645644903182983,-0.012413199990987778,-0.030572092160582542,0.045031946152448654,-1.8981145576896838,-0.6683189126459659,-2.467032213726555
1687106183.48915,-0.741382360458374,0.6216270327568054,0.2528477907180786,-0.0009424090385437012,0.0002143383026123047,-0.016382426023483276,0.0023888093419373035,-0.031154312193393707,0.04381774738430977,-1.899474926810759,-0.6708180760359603,-2.467777400034013
1687106183.491468,-0.7402376532554626,0.6229766011238098,0.2528798282146454,-0.016689777374267578,-0.013479650020599365,-0.0059621334075927734,0.006537002045661211,-0.01088483352214098,0.02105080336332321,-1.8999860594931486,-0.672542211536998,-2.4674010404320708
1687106183.549247,-0.7399049997329712,0.6233684420585632,0.2528870701789856,0.0018222332000732422,-0.01562631130218506,-0.010699748992919922,-0.025568418204784393,-0.002719688694924116,0.019076358526945114,-1.900132347111318,-0.6730432376893785,-2.468044807797805
1687106183.6096392,-0.7395867705345154,0.6236163973808289,0.2532068192958832,-0.0019444823265075684,-0.0002797842025756836,-0.003252744674682617,0.003089540172368288,-0.008103162050247192,0.01829966902732849,-1.9006510586921266,-0.67336039231305,-2.4687968609251234
1687106183.6989489,-0.7392550110816956,0.6238164901733398,0.2536822557449341,0.003766179084777832,-0.014853596687316895,-0.002095460891723633,-0.0315704345703125,-0.008823014795780182,0.012478131800889969,-1.9013640548951352,-0.6736163488911231,-2.469469184896201
1687106183.702241,-0.7392845749855042,0.623755693435669,0.25374600291252136,-0.009052157402038574,0.008278489112854004,-0.010368436574935913,0.002137885894626379,0.025509338825941086,-0.0014284290373325348,-1.9014289132886446,-0.6735385949293927,-2.470695489725981
1687106183.760607,-0.7398367524147034,0.6236252188682556,0.25245386362075806,-0.00158768892288208,0.002519071102142334,-0.008267521858215332,0.01522535178810358,0.029963158071041107,0.006831897888332605,-1.8996361994275754,-0.673371635369037,-2.4700130133553837
1687106183.849127,-0.740027666091919,0.6241784691810608,0.25052016973495483,-0.0017935633659362793,0.007520079612731934,0.0010514557361602783,0.008457355201244354,0.030887754634022713,0.01640993356704712,-1.897214862579085,-0.6740795861380766,-2.4692853779055723
1687106183.850553,-0.7397710084915161,0.6250289082527161,0.24915365874767303,0.009637951850891113,0.007279932498931885,-0.0004507005214691162,0.018638884648680687,0.028507152572274208,0.018400270491838455,-1.8956621574866699,-0.6751685535502322,-2.4692348799935164
1687106183.9089699,-0.7393945455551147,0.625761091709137,0.24843169748783112,0.008163034915924072,-0.013639688491821289,0.0010799020528793335,-0.023283211514353752,0.022611873224377632,0.024112217128276825,-1.8949390381438378,-0.6761068661775067,-2.47019320356085
1687106183.999175,-0.7390536069869995,0.626614511013031,0.2472931444644928,0.004495561122894287,0.006136894226074219,0.008123666048049927,0.02957148104906082,0.026005806401371956,-0.0026992005296051502,-1.893693523638832,-0.6772014495157395,-2.4698319569289278
1687106184.0009,-0.739563524723053,0.6267396807670593,0.24544461071491241,-0.004729628562927246,-0.009582757949829102,0.01386311650276184,0.010251100175082684,0.030476350337266922,0.001434513833373785,-1.8912361954071042,-0.6773620733278949,-2.4681997714702595
1687106184.061305,-0.7395629286766052,0.6270275712013245,0.24470891058444977,0.0028077363967895508,0.006883382797241211,0.023311585187911987,0.03222697228193283,-0.002724482212215662,0.008686567656695843,-1.8903400831407138,-0.6777316019572149,-2.4676049313820223
1687106184.149631,-0.7389992475509644,0.6276220083236694,0.24488921463489532,0.0046089887619018555,0.007387697696685791,0.02059832215309143,0.03707227483391762,-0.03500561788678169,0.027178093791007996,-1.8907874373438651,-0.6784949212083202,-2.4660969057318227
1687106184.154089,-0.737226665019989,0.6290647387504578,0.24652406573295593,0.0019972920417785645,-0.0038817524909973145,0.012356400489807129,0.030149759724736214,-0.04911445826292038,0.03192180395126343,-1.8935010425770153,-0.6803494511404703,-2.4658107424749924
1687106184.23997,-0.7358019948005676,0.6301839351654053,0.24791809916496277,-0.003959298133850098,-0.0163535475730896,0.001547694206237793,0.017554765567183495,-0.04413360357284546,0.01275867410004139,-1.8957856806742246,-0.6817901146296527,-2.4652818140731605
1687106184.329422,-0.7347536087036133,0.631092369556427,0.24871578812599182,0.006283819675445557,-0.0025371313095092773,-0.007504910230636597,0.04758835211396217,-0.03971046209335327,0.012278461828827858,-1.897191713634306,-0.6829606300112907,-2.4636641048453005
1687106184.331404,-0.734131932258606,0.6319130063056946,0.2484673410654068,-0.005766689777374268,-0.002686440944671631,-0.0032739341259002686,0.01502779871225357,-0.02072489634156227,0.012441557832062244,-1.8971452675785938,-0.6840190384225416,-2.461273584486834
1687106184.421814,-0.7331948280334473,0.6330631375312805,0.24830612540245056,-0.007573485374450684,0.00824826955795288,-0.006576552987098694,0.021893268451094627,-0.021280908957123756,0.019464891403913498,-1.897336095764047,-0.6855038570658821,-2.4601587540629817
1687106184.42367,-0.7323564887046814,0.6342577934265137,0.2477310299873352,0.002696514129638672,-0.00017893314361572266,-0.010228157043457031,0.03519080579280853,-0.018249912187457085,0.03152678906917572,-1.8969793542838795,-0.6870481416297903,-2.458371541413248
1687106184.5388231,-0.7313381433486938,0.635707437992096,0.24702239036560059,-0.0023043155670166016,-0.004421055316925049,-0.00895489752292633,0.03280871361494064,-0.008145559579133987,0.02687249705195427,-1.8965324743566294,-0.6889246210647321,-2.4568927339250006
1687106184.5398211,-0.7308151125907898,0.63651043176651,0.24650251865386963,-0.0009047389030456543,-0.00977104902267456,0.0028412342071533203,-0.007301262114197016,-0.0022560323122888803,0.015220632776618004,-1.8961108690395891,-0.689965322160097,-2.4561434637659665
1687106184.629241,-0.7304688096046448,0.6369093656539917,0.24649779498577118,0.0048067569732666016,-0.007103085517883301,0.00165577232837677,0.019809558987617493,-0.012264138087630272,0.009089304134249687,-1.8962486481577179,-0.6904826649815797,-2.4558842792046898
1687106184.63169,-0.7301217913627625,0.6372078061103821,0.2467547357082367,-0.003322303295135498,-0.006989538669586182,0.007883772253990173,0.011436153203248978,-0.016611961647868156,0.0063909003511071205,-1.8967085004361246,-0.6908698744608412,-2.454857241046617
1687106184.7226748,-0.7297530770301819,0.6373660564422607,0.24743591248989105,9.316205978393555e-05,-0.005179345607757568,0.004654392600059509,-0.02768712118268013,-0.014338208362460136,0.014630011282861233,-1.8976991857279255,-0.6910751954655107,-2.4552250370171036
1687106184.724493,-0.729098379611969,0.6373801231384277,0.24932220578193665,-0.002819836139678955,0.00036078691482543945,-0.010171324014663696,-0.017444230616092682,-0.014988498762249947,0.021665195003151894,-1.9002903417356818,-0.6910934821377356,-2.4577039753643324
1687106184.81037,-0.7296528816223145,0.638251006603241,0.24544236063957214,-0.057761549949645996,0.14458566904067993,-0.036854758858680725,0.3996664583683014,0.1508084535598755,-0.007809384725987911,-1.8952884970958441,-0.6922242096195604,-2.45154193346683
1687106184.8121529,-0.7244173288345337,0.6540189981460571,0.2178950309753418,0.05586880445480347,0.6105071902275085,-0.00048792362213134766,-0.04693000391125679,0.3132043778896332,0.6253123879432678,-1.8629746307032335,-0.7128851165315886,-2.426224577680064
1687106184.903211,-0.6900839805603027,0.6864556074142456,0.22926458716392517,0.10405504703521729,0.8877934217453003,0.1456131637096405,-0.5727323293685913,0.06483181565999985,1.5209376811981201,-1.8915509230556748,-0.7566035618477517,-2.482267843625898
1687106184.905494,-0.61448073387146,0.7495158314704895,0.24625015258789062,0.09981715679168701,1.0914721488952637,0.2771109342575073,0.07112004607915878,-0.46140870451927185,2.5601189136505127,-1.9519448778026456,-0.8473303614356231,-2.5562948417266194
1687106184.959394,-0.4843255877494812,0.8384034633636475,0.2500156760215759,-0.33588001132011414,0.8514308929443359,0.4991297423839569,0.6806609630584717,-1.064560055732727,3.438293218612671,-2.0473308849278036,-0.9943474503480949,-2.6249196399905026
1687106185.053391,-0.3023286759853363,0.9238847494125366,0.23459415137767792,-0.5841764807701111,0.6046339273452759,0.5166569948196411,0.9184991717338562,-1.5566705465316772,4.038779258728027,-2.230704200022475,-1.178110855274237,-2.7593617116796114
1687106185.0594668,-0.077835813164711,0.9739705920219421,0.21289075911045074,-0.8846886157989502,0.39391863346099854,0.6388700008392334,0.9710080027580261,-2.003718614578247,4.459618091583252,-2.791076191428373,-1.3421345046951767,3.0341546752367305
1687106185.108835,0.1628735214471817,0.9784927368164062,0.12658603489398956,-1.036561369895935,0.2885359525680542,0.6561592817306519,2.480602264404297,-2.294255256652832,4.513902187347412,2.231482169691127,-1.363023403007245,1.8593527178166656
1687106185.202273,0.38156527280807495,0.9210183620452881,-0.0783124566078186,-1.1101419925689697,0.20955097675323486,0.6398358941078186,4.875312328338623,-2.040980100631714,4.472517967224121,1.3683674302192446,-1.170686833991595,1.074359989906325
1687106185.204155,0.5565113425254822,0.7518822550773621,-0.3535080552101135,-1.2343069314956665,0.2368413805961609,0.7585831880569458,5.934622287750244,-1.265105128288269,4.645124435424805,1.0048803707396032,-0.8509124028953239,0.7527871551584626
1687106185.291043,0.6847423911094666,0.4653368890285492,-0.560882568359375,-1.1357922554016113,0.1715039312839508,0.7409821152687073,6.026799201965332,-0.32164403796195984,4.766264915466309,0.8845082265248351,-0.48401517568972124,0.6263116155933486
1687106185.380825,0.7587863206863403,0.12312345206737518,-0.6395965814590454,-0.9432957172393799,0.11843851208686829,0.7363830804824829,4.513217926025391,0.5106441378593445,4.703773021697998,0.8704266327546102,-0.12343667094349683,0.5601238639643322
1687106185.38309,0.773814857006073,-0.16473305225372314,-0.6116155385971069,-0.8458974361419678,0.2121269404888153,0.46410882472991943,3.0277798175811768,0.8323338031768799,4.231278896331787,0.9019426344742643,0.1654873593119607,0.5653862829046592
1687106185.472437,0.7449794411659241,-0.38811540603637695,-0.5425604581832886,-0.6933742761611938,-0.3073800206184387,0.3806341886520386,1.7330886125564575,0.8828745484352112,3.7187867164611816,0.9413355609984955,0.3985858337646266,0.5892152855607695
1687106185.474638,0.690517008304596,-0.5363013744354248,-0.4853525161743164,-0.7170215249061584,-0.46266090869903564,0.28047269582748413,0.6734365224838257,0.7250267267227173,2.6481385231018066,0.9581382255320385,0.5660488825689174,0.6372155483683353
1687106185.5913749,0.6451759338378906,-0.6117581129074097,-0.45771172642707825,-0.5432319641113281,-0.6790894865989685,0.11803579330444336,0.19892726838588715,0.4498717486858368,1.4782527685165405,0.9537647955405775,0.6582811866223541,0.6978706125780387
1687106185.5942779,0.6221309304237366,-0.6430896520614624,-0.4465295374393463,-0.31639063358306885,-0.6205057501792908,0.12302792072296143,0.060624632984399796,0.11712981015443802,0.4270350933074951,0.9482619077827997,0.6985260890550604,0.7264054020956207
1687106185.713428,0.6185513138771057,-0.6504917740821838,-0.4407430589199066,-0.1704007387161255,-0.23668450117111206,0.07688197493553162,0.12863674759864807,-0.05973935127258301,-0.06939376890659332,0.9517031656933034,0.7082317749263689,0.7245825240447569
1687106185.719898,0.6207703948020935,-0.6449880003929138,-0.4456842541694641,-0.048199594020843506,-0.039658427238464355,0.0891779363155365,-0.14394575357437134,-0.14179827272891998,-0.16266505420207977,0.9481223719225038,0.7010075494744086,0.7221881648535918
1687106185.776146,0.6230414509773254,-0.6379329562187195,-0.4526154696941376,-0.14013135433197021,-0.0027223825454711914,0.013787925243377686,-0.008914445526897907,-0.20387521386146545,-0.2598504424095154,0.9425309962235718,0.6918111355279756,0.7171068112865936
1687106185.780027,0.6310752034187317,-0.620360255241394,-0.465721994638443,-0.45126569271087646,-0.36888211965560913,0.0972374677658081,-0.2503401041030884,-0.4804149568080902,-0.8453025817871094,0.9350313543067502,0.6692019200749734,0.7022100740115741
1687106185.781921,0.6615073084831238,-0.5641056895256042,-0.4941585659980774,-0.659477949142456,-0.7364160418510437,0.20482134819030762,-0.3135685324668884,-0.6745193600654602,-2.308074474334717,0.9292057684155843,0.5993497348555591,0.6626912188115257
1687106185.8311129,0.7185419201850891,-0.4340294599533081,-0.5434295535087585,-0.8078669905662537,-0.6123113632202148,0.2879669666290283,-2.005173444747925,-0.7395143508911133,-3.618381977081299,0.923278658502868,0.4489607095298464,0.6029550132210166
1687106185.957689,0.7670058012008667,-0.18935634195804596,-0.613062858581543,-0.8322219848632812,-0.3418172597885132,0.33945751190185547,-3.981579542160034,-0.2991871237754822,-4.609166622161865,0.896486244587481,0.1905065814860068,0.5968954972724322
1687106185.9596229,0.7733407616615295,0.14530836045742035,-0.6171138286590576,-0.9244944453239441,-0.10894662141799927,0.4890468120574951,-5.614080429077148,0.24728824198246002,-4.994686126708984,0.8972856573110795,-0.14582463927155842,0.6273908359083517
1687106186.012415,0.7139630317687988,0.5152614712715149,-0.4740907847881317,-0.9516951441764832,-0.07960790395736694,0.4140474796295166,-7.234084129333496,1.5464439392089844,-4.815070152282715,0.9846233466960844,-0.5413127218218099,0.7510963049441559
1687106186.104669,0.5920122265815735,0.7954715490341187,-0.1294076144695282,-0.816713273525238,-0.1532902717590332,0.5403878092765808,-9.056061744689941,2.5971732139587402,-4.425786972045898,1.3555918718456976,-0.9197853237278423,1.1307859986053919
1687106186.107695,0.3883826434612274,0.8685210347175598,0.3079444169998169,-1.0466164350509644,-0.03246164321899414,0.47319862246513367,-6.2084808349609375,4.27448844909668,-4.00676155090332,2.2411863730623702,-1.0522106194659846,1.9724781408315715
1687106186.162149,0.11078968644142151,0.8507206439971924,0.5138092637062073,-0.8881487250328064,-0.08952069282531738,0.567428469657898,-0.9091870188713074,4.545365810394287,-4.511267185211182,2.929219985403157,-1.0173547791205484,2.501759540176012
1687106186.25456,-0.18909160792827606,0.8593773245811462,0.4750944972038269,-0.802104115486145,0.052716732025146484,0.683581531047821,1.4170544147491455,3.8048899173736572,-4.713122844696045,-2.7628043347359252,-1.034050646480138,2.9390940971132213
1687106186.257615,-0.45588892698287964,0.8063187599182129,0.37684860825538635,-0.8642556667327881,0.511979341506958,0.833646297454834,-0.3044838309288025,2.7319116592407227,-3.9003357887268066,-2.2615617830975303,-0.937901688030274,-2.9599342316149557
1687106186.311485,-0.6053725481033325,0.7008122801780701,0.3773402273654938,-0.3812759518623352,0.5651786923408508,0.7098482847213745,-0.44963017106056213,1.3656067848205566,-2.67991042137146,-2.1281859717736094,-0.7765355529929561,-2.898061280096069
1687106186.40502,-0.702644944190979,0.634630024433136,0.3217681050300598,0.059044480323791504,1.0760478973388672,0.6388640403747559,0.9132529497146606,0.2630681097507477,-2.111393690109253,-2.000232189177513,-0.6875297024427994,-2.7682247140467804
1687106186.4079928,-0.7611991763114929,0.5675992965698242,0.31369826197624207,-0.15393131971359253,0.837017834186554,0.45067545771598816,-0.8415804505348206,0.4328414797782898,-1.3822304010391235,-1.961699113131077,-0.603586959048399,-2.7351583324292235
1687106186.525939,-0.7936969995498657,0.5236722826957703,0.30953502655029297,0.17611294984817505,0.9874663949012756,0.2399795949459076,0.2997974753379822,0.14637726545333862,-0.638594925403595,-1.9426449652322515,-0.5511558490336916,-2.7291189152356785
1687106186.5279741,-0.7983112335205078,0.5200787782669067,0.3036721646785736,0.17469990253448486,0.6985794901847839,0.27565813064575195,0.3389669954776764,-0.34338071942329407,0.13851982355117798,-1.9342868764799028,-0.5469432028646528,-2.7024399991086794
1687106186.6141849,-0.7830435037612915,0.5406315326690674,0.30750590562820435,0.02826768159866333,0.3732324242591858,0.14052245020866394,0.6030636429786682,-0.440997838973999,0.46858587861061096,-1.9449990114798912,-0.5711875981284931,-2.6851743061281494
1687106186.61709,-0.7613303661346436,0.5693594217300415,0.3101706802845001,-0.03656703233718872,0.07227259874343872,0.0521949827671051,0.3305213153362274,-0.41220131516456604,0.5644761323928833,-1.9576709822301206,-0.6057264102025948,-2.6680199127072703
1687106186.672641,-0.7415807843208313,0.5928943753242493,0.3139006197452545,-0.10004806518554688,-0.08680635690689087,-0.001019299030303955,0.3562188446521759,-0.29481640458106995,0.44452470541000366,-1.9712141329233153,-0.6346483341142052,-2.662869722089189
1687106186.7363849,-0.7264576554298401,0.6150743961334229,0.30649954080581665,-0.021772146224975586,-0.04787498712539673,-0.07908278703689575,0.5861600041389465,-0.19763709604740143,0.3370075225830078,-1.9700465514519296,-0.6624803157902912,-2.6392660817257045
1687106186.823993,-0.7119607329368591,0.6321344375610352,0.305806428194046,-0.031432151794433594,-0.13236349821090698,0.005198001861572266,0.20137913525104523,-0.22938963770866394,0.2998516857624054,-1.976495210197659,-0.6843047482728056,-2.6298017563592393
1687106186.8271909,-0.702296257019043,0.6443054676055908,0.3027377128601074,-0.05023658275604248,-0.11389482021331787,-0.05173075199127197,0.41026246547698975,-0.17567799985408783,0.1279435008764267,-1.977795708098521,-0.70011478517375,-2.6172509999577285
1687106186.911356,-0.6980154514312744,0.6509625911712646,0.2983652949333191,-0.06818932294845581,-0.12682336568832397,-0.024073362350463867,0.06381243467330933,-0.02694294974207878,0.06470638513565063,-1.9747385971614744,-0.7088518338068667,-2.6064629863235638
1687106186.9143171,-0.6961215138435364,0.6555317640304565,0.2927331328392029,-0.028731942176818848,-0.032057762145996094,-0.06481263041496277,0.4064854085445404,-0.04296489804983139,-0.017158744856715202,-1.9688664013635468,-0.71488661133858,-2.59345718199921
1687106187.0020041,-0.6973453760147095,0.6601038575172424,0.2792346179485321,-0.00014907121658325195,0.0003421306610107422,-0.03175234794616699,0.36449331045150757,0.04707929119467735,0.0011375495232641697,-1.9516691683686862,-0.7209570403815494,-2.5680508848932324
1687106187.004103,-0.695402979850769,0.6655179858207703,0.27110886573791504,0.053481101989746094,0.041741907596588135,0.05307921767234802,0.058991529047489166,0.027941443026065826,0.13471849262714386,-1.9425297031144695,-0.7281876359673788,-2.5572992649468325
1687106187.062025,-0.6858443021774292,0.6759760975837708,0.26957961916923523,0.058158934116363525,0.32612937688827515,0.09251126646995544,0.14606432616710663,-0.14541985094547272,0.4563545882701874,-1.9453077632622222,-0.7422884812643931,-2.558795605829152
1687106187.181577,-0.6577624678611755,0.7017419338226318,0.2736899256706238,0.022890150547027588,0.6244297027587891,0.2659216821193695,-0.20457886159420013,-0.24947018921375275,1.070729374885559,-1.9650979695868898,-0.7778396330420454,-2.574765390916176
1687106187.1900492,-0.5912732481956482,0.7449122071266174,0.30903327465057373,0.1466016173362732,1.1221683025360107,0.3920011818408966,-0.5160521268844604,-0.8356816172599792,2.2229106426239014,-2.0524050727322827,-0.8404032717594887,-2.6563464392143876
1687106187.274458,-0.46049046516418457,0.8176432847976685,0.3455541431903839,-0.14186543226242065,1.230177640914917,0.5643272399902344,0.30337417125701904,-1.7189618349075317,3.349536895751953,-2.2145563164473163,-0.9573055324450612,-2.7791666594163416
1687106187.2776608,-0.26396748423576355,0.894426167011261,0.36100277304649353,-0.5524693131446838,0.8622571229934692,0.5854998826980591,0.7886554002761841,-2.4433746337890625,4.068450927734375,-2.5102284169017874,-1.1071464381754896,-3.0053188529375774
1687106187.362764,-0.01829267106950283,0.9490185976028442,0.3146887719631195,-1.0606410503387451,0.5975512266159058,0.606621503829956,1.9501492977142334,-2.80342173576355,4.518981456756592,-3.0835285863609116,-1.2501077575612103,2.8035925702041773
1687106187.36672,0.245464488863945,0.9520959258079529,0.18237388134002686,-1.333141565322876,0.2591770887374878,0.6584768295288086,3.3490042686462402,-3.0265555381774902,4.798983097076416,2.209786006523106,-1.26001834921746,1.926241586976508
1687106187.45221,0.4728541970252991,0.8757593631744385,-0.09723342955112457,-1.4704433679580688,0.16913193464279175,0.6772657036781311,6.620474815368652,-2.325822591781616,4.756727695465088,1.36799236187546,-1.0670065277359668,1.1629097331715912
1687106187.4630818,0.6406234502792358,0.6394867300987244,-0.4250389635562897,-1.511976718902588,0.13477468490600586,0.8582054972648621,7.805153846740723,-0.5903630256652832,4.9103240966796875,0.9850051540991476,-0.6938304720652995,0.7781499155252167
1687106187.5122519,0.7576808929443359,0.26255714893341064,-0.5974807739257812,-1.175512433052063,0.13499537110328674,0.7692184448242188,7.045762538909912,0.7024217844009399,5.002618312835693,0.9030668225158929,-0.26567138139033386,0.5999537371533897
1687106187.601434,0.8138476610183716,-0.10771644115447998,-0.5710068941116333,-0.8336079120635986,0.15352341532707214,0.6930772066116333,4.595710754394531,1.5089634656906128,4.771854400634766,0.9589879737170018,0.10792584101891675,0.5112824871903254
1687106187.612309,0.7947645783424377,-0.3806714415550232,-0.472692608833313,-0.6928359866142273,0.23017415404319763,0.4728146195411682,2.459852457046509,1.4841371774673462,4.2409186363220215,1.034240155880777,0.39052231079155064,0.49249367277297046
1687106187.662288,0.7345870137214661,-0.566103994846344,-0.374042809009552,-0.6242965459823608,-0.22922968864440918,0.37787264585494995,1.281829595565796,1.3048107624053955,3.4099810123443604,1.0998254447344127,0.6017719265150975,0.5042408158706938
1687106187.752342,0.6633240580558777,-0.6822279095649719,-0.3075157701969147,-0.6705415844917297,-0.518058717250824,0.2607780396938324,0.6020423769950867,1.0129438638687134,2.273967981338501,1.1366919492673662,0.750805486776055,0.5375577974459737
1687106187.7635489,0.6188728213310242,-0.7361019253730774,-0.27413520216941833,-0.5888588428497314,-0.5996217131614685,0.26519349217414856,-0.22711597383022308,0.6833165287971497,1.0263254642486572,1.1538132144889781,0.8272932469886026,0.5733768619545553
1687106187.8133988,0.6017959713935852,-0.7518048286437988,-0.26950159668922424,-0.40050196647644043,-0.34681272506713867,0.1667030155658722,-0.19941237568855286,0.3070243299007416,0.2969432771205902,1.1497493755397379,0.8507949285961072,0.610662966263551
1687106187.936702,0.5996622443199158,-0.7531214356422424,-0.27057892084121704,-0.13545942306518555,-0.12071865797042847,0.17820218205451965,-0.107730932533741,-0.13421966135501862,-0.0807240679860115,1.1469292418537715,0.8527939876351712,0.620226853965448
1687106187.9403338,0.6044490337371826,-0.7437440156936646,-0.2854575514793396,-0.1658962368965149,-0.11733978986740112,0.16883453726768494,-0.22115352749824524,-0.35605743527412415,-0.40066927671432495,1.1295853645212655,0.8386539254414803,0.6259966509873127
1687106188.025676,0.6235594153404236,-0.720990777015686,-0.30223482847213745,-0.2285398244857788,-0.24562287330627441,0.06671532988548279,-0.14438551664352417,-0.5100584626197815,-1.0919297933578491,1.119469197082717,0.8052310643651972,0.6101926607207665
1687106188.0283751,0.6676177978515625,-0.6519927978515625,-0.3594326078891754,-0.4957122802734375,-0.6321867108345032,0.282162070274353,-2.056368827819824,-0.8848382234573364,-2.1819756031036377,1.0769175684292955,0.7102097338386523,0.6201815548335247
1687106188.144916,0.7305505871772766,-0.503559410572052,-0.4612196981906891,-0.6029413938522339,-0.42582279443740845,0.1866377592086792,-2.885064125061035,-0.8325152397155762,-3.345370292663574,1.007656859616653,0.527713757995138,0.6642725273303548
1687106188.1489348,0.7864058017730713,-0.2620778977870941,-0.5593575835227966,-0.7409957647323608,-0.4079506993293762,0.33364957571029663,-4.559267044067383,-0.3695971369743347,-4.034494876861572,0.9525375280753113,0.26517473422048926,0.7218855101687539
1687106188.26367,0.8067176938056946,0.03681936115026474,-0.5897888541221619,-0.6819313764572144,-0.06907638907432556,0.3386291265487671,-4.0711188316345215,0.030261006206274033,-4.492491245269775,0.9395033505585566,-0.03682768502416329,0.7732178690030775
1687106188.2669811,0.7666699290275574,0.3461829721927643,-0.5407164692878723,-0.5838392972946167,-0.18907848000526428,0.4091247320175171,-4.644886016845703,0.2708914577960968,-4.919309139251709,0.956535935419828,-0.353499432557337,0.8133715698365721
1687106188.325491,0.6539427042007446,0.631036102771759,-0.41731542348861694,-0.7882659435272217,-0.07799661159515381,0.30314916372299194,-3.6048383712768555,1.138878583908081,-5.424285888671875,1.0027946205953944,-0.6828881222618645,0.8401186946922353
1687106188.330239,0.47591811418533325,0.8372290134429932,-0.2693500220775604,-0.5601924657821655,0.46338438987731934,0.40957823395729065,-3.1303203105926514,1.0481780767440796,-4.813615798950195,1.0557833331531494,-0.992196243972979,0.8456799471987594
1687106188.333049,0.28188711404800415,0.9526764154434204,-0.11378566175699234,-0.4816552400588989,0.15028983354568481,0.26873862743377686,-2.5068252086639404,1.7762666940689087,-4.47783088684082,1.18714146523021,-1.2619221333456596,0.9027735669365669
1687106188.381689,0.07945971935987473,0.9961450695991516,0.03716275840997696,-0.5185618996620178,0.2320958375930786,0.28498077392578125,-3.035836696624756,2.320816993713379,-3.9595320224761963,2.008265971989879,-1.4829621280344043,1.6378139039677648
1687106188.4443479,-0.12645433843135834,0.976668119430542,0.17357565462589264,-0.49816423654556274,0.19030874967575073,0.321938157081604,-2.168593406677246,2.4579460620880127,-3.701154947280884,-2.5119772884016704,-1.3543560480683978,-2.9831922005202194
1687106188.507081,-0.30950459837913513,0.926133394241333,0.21560071408748627,-0.20412147045135498,0.49461233615875244,0.3983975648880005,-0.9420060515403748,1.4318523406982422,-2.8489017486572266,-2.1792363380937996,-1.184029375698257,-2.7513642776747433
1687106188.566062,-0.42112401127815247,0.8726153373718262,0.2473798394203186,-0.13301414251327515,0.393482506275177,0.4701646566390991,-0.6120820045471191,0.3801681399345398,-1.964915156364441,-2.101920059177436,-1.060531789657611,-2.7195068947683527
1687106188.6850638,-0.5146681666374207,0.8346450924873352,0.19617342948913574,0.13307636976242065,0.7694350481033325,0.1090480387210846,1.3417876958847046,0.5596116185188293,-1.8390305042266846,-1.9349608357510328,-0.9874881013619928,-2.5593177575263826
1687106188.6965399,-0.5783494114875793,0.7915216684341431,0.19749772548675537,-0.07326191663742065,0.36275988817214966,0.30350926518440247,-1.2548424005508423,0.32286784052848816,-1.1761387586593628,-1.8998654791591676,-0.9132948812301551,-2.530626686280723
1687106188.777134,-0.6130684614181519,0.7631716132164001,0.2042446881532669,0.12220853567123413,0.6485103368759155,0.02613234519958496,1.0053037405014038,-0.13665425777435303,-0.5902913212776184,-1.892383228877139,-0.8682071522191981,-2.5272677602311724
1687106188.7806292,-0.630515992641449,0.7543085813522339,0.1829422414302826,0.01535797119140625,0.2253512740135193,0.11472606658935547,-0.21896865963935852,-0.13362091779708862,-0.3214534819126129,-1.8531892220898398,-0.8546003649173892,-2.4710118889955464
1687106188.8653178,-0.6328319311141968,0.7483252286911011,0.19882813096046448,0.021275043487548828,0.2997245192527771,0.04287096858024597,-0.06947110593318939,-0.2425941675901413,-0.03761211037635803,-1.8752181669403931,-0.8455336549261585,-2.48415700529648
1687106188.876667,-0.6315463781356812,0.7491866946220398,0.19966992735862732,0.012436389923095703,0.17442762851715088,-0.07172513008117676,0.2215479463338852,-0.10311191529035568,0.08343159407377243,-1.8770124174233564,-0.8468333112661284,-2.477114635865731
1687106188.955936,-0.6246505379676819,0.7540196776390076,0.2031393051147461,0.015535056591033936,0.04451829195022583,-0.03749002516269684,-0.11062455922365189,-0.10855243355035782,0.15307694673538208,-1.8852133971375835,-0.8541604053618537,-2.478640658672653
1687106189.05013,-0.6185558438301086,0.7586531043052673,0.20453283190727234,0.022578179836273193,0.024092018604278564,-0.07146097719669342,-0.1405079960823059,-0.0043501826003193855,0.2013212889432907,-1.8901406398792624,-0.8612432342540985,-2.4855488644805424
1687106189.0628328,-0.6114000082015991,0.7620464563369751,0.21324874460697174,-0.09277784824371338,-0.015662968158721924,-0.0456920862197876,-0.2782959043979645,0.11283092945814133,0.18067385256290436,-1.9063906536277448,-0.8664677492694625,-2.507914472305569
1687106189.065425,-0.6061065196990967,0.7644126415252686,0.2197897732257843,-0.01857292652130127,0.09572499990463257,-0.03474658727645874,-0.3223198354244232,0.17305618524551392,0.2129715532064438,-1.9186743720434551,-0.8701297895306515,-2.5331141829713246
1687106189.0986218,-0.5894994735717773,0.7718899846076965,0.23806768655776978,0.07280635833740234,0.39844387769699097,0.09497049450874329,-0.940971314907074,-0.037680547684431076,0.7939891815185547,-1.9546148102857481,-0.8818086150220307,-2.587663615551984
1687106189.195921,-0.5423488616943359,0.7908116579055786,0.2836795747280121,0.0031338930130004883,0.9915062189102173,0.3797571361064911,-1.0872048139572144,-0.22071480751037598,1.6759415864944458,-2.052719219043005,-0.912133980369609,-2.703650052448171
1687106189.28836,-0.437296599149704,0.8367806673049927,0.32949861884117126,0.23647570610046387,1.5099292993545532,0.5865778923034668,-0.5910770297050476,-1.284497618675232,3.042008638381958,-2.216527298772288,-0.9913768535671771,-2.863825141050945
1687106189.291867,-0.25251173973083496,0.8958576917648315,0.3656180500984192,-0.49133896827697754,1.199936866760254,0.5821967124938965,0.5563143491744995,-2.077383279800415,4.019627094268799,-2.5371738245250604,-1.1103576819182355,-3.135338021419854
1687106189.376306,-0.009930972941219807,0.9435940384864807,0.3309555649757385,-0.8745600581169128,0.6961153745651245,0.6865767240524292,1.4217650890350342,-2.7348952293395996,4.565016746520996,-3.111594687577424,-1.233322281031981,2.6585304493211828
1687106189.380978,0.24870306253433228,0.9423304200172424,0.22396446764469147,-1.2632142305374146,0.27609914541244507,0.6185189485549927,2.6379623413085938,-2.6605918407440186,4.5874552726745605,2.3039039284534213,-1.229526425151814,1.887491089023534
1687106189.464264,0.4712691009044647,0.8819612860679626,0.007038928102701902,-1.361802577972412,0.0835079550743103,0.628840446472168,4.705015659332275,-2.382913112640381,4.37605619430542,1.5857313284906334,-1.08000738801471,1.248662224431823
1687106189.469382,0.6343090534210205,0.7271779179573059,-0.2624194622039795,-1.297746181488037,-0.08875030279159546,0.7151477336883545,6.022851467132568,-1.4196534156799316,4.217911243438721,1.178527884003405,-0.8142017732104485,0.8683127082365779
1687106189.5830832,0.7447903156280518,0.4566306173801422,-0.48659610748291016,-1.2088102102279663,0.0300331711769104,0.8169336318969727,6.131176948547363,-0.6086480617523193,4.47674560546875,0.9920816206401578,-0.47420422556856096,0.6459646875342772
1687106189.59768,0.81278395652771,0.12525826692581177,-0.5689398050308228,-1.1459139585494995,0.09510922431945801,0.7262121438980103,5.156078815460205,0.483960896730423,4.769167423248291,0.9600777563210071,-0.12558814751216232,0.5487039122220788
1687106189.678031,0.823358952999115,-0.19614702463150024,-0.532546877861023,-0.899027407169342,0.0661727786064148,0.5788573026657104,3.4378395080566406,0.9991569519042969,4.7415337562561035,0.9966753998823887,0.19742706721781256,0.4940334037444944
1687106189.683069,0.7736794352531433,-0.44411686062812805,-0.45186296105384827,-0.7420023083686829,-0.16840124130249023,0.4928174912929535,1.8986971378326416,0.7819647192955017,4.146912097930908,1.042191683182565,0.46018835474807807,0.4906066656327502
1687106189.769527,0.6915553212165833,-0.5984545946121216,-0.4044789671897888,-0.525997519493103,-0.5932719111442566,0.33981212973594666,0.5016419887542725,0.5287346243858337,2.960846185684204,1.0415664016348825,0.6415707134406471,0.5523556608856758
1687106189.782686,0.6281433701515198,-0.6808974742889404,-0.37658244371414185,-0.48469555377960205,-0.7165480256080627,0.15299537777900696,0.19117426872253418,0.3254086673259735,1.5612677335739136,1.0307322607014966,0.748987335036533,0.6037570191019966
1687106189.821013,0.5965075492858887,-0.707605242729187,-0.37877896428108215,-0.29011106491088867,-0.6281794905662537,0.12108844518661499,-0.5055351257324219,0.069446861743927,0.5222752094268799,1.0050422728247121,0.7861033614131577,0.6535100970805092
1687106189.913701,0.5896041393280029,-0.7073862552642822,-0.3898353576660156,-0.08888691663742065,-0.21400034427642822,0.030643343925476074,-0.025988077744841576,-0.08341170847415924,0.01565379649400711,0.9866007476322545,0.7857934897218621,0.6810512724699471
1687106189.919158,0.5880744457244873,-0.704525887966156,-0.3972550332546234,-0.0659797191619873,-0.13576018810272217,0.01174163818359375,0.01075385045260191,-0.36378803849220276,-0.2302824854850769,0.976690693680518,0.7817548550435551,0.677748896077702
1687106190.006616,0.5995445251464844,-0.6839032769203186,-0.4157191812992096,-0.35781484842300415,-0.4262802004814148,0.07340344786643982,-0.4045192003250122,-0.47068583965301514,-0.9743714332580566,0.9645192536305649,0.7530994358463668,0.6642843185806381
1687106190.0207028,0.6398120522499084,-0.6202136278152466,-0.453845351934433,-0.5037646889686584,-0.7583415508270264,0.13905644416809082,-1.0263904333114624,-0.6590465307235718,-2.377713680267334,0.9538282452321062,0.6690149909589899,0.6372460365607162
1687106190.062539,0.7071399688720703,-0.47094836831092834,-0.5274091958999634,-0.6186543107032776,-0.7340074777603149,0.29559773206710815,-2.6632416248321533,-0.7758965492248535,-3.7432706356048584,0.9299666251702172,0.4903655364646425,0.6152473501327592
1687106190.128038,0.76235431432724,-0.22161003947257996,-0.6080335974693298,-0.6252388954162598,-0.402886301279068,0.23265206813812256,-3.7263643741607666,-0.3596859872341156,-4.499289035797119,0.8975367120757747,0.22346524794235068,0.6187224995901357
1687106190.215898,0.7773882150650024,0.08249392360448837,-0.6235881447792053,-0.831007719039917,-0.1095171868801117,0.3633647561073303,-4.499938011169434,0.24569401144981384,-4.635666847229004,0.8947409290340795,-0.08258777474932484,0.6299647185538687
1687106190.229759,0.7393084764480591,0.3995145559310913,-0.5420432686805725,-0.7679035663604736,-0.1148771345615387,0.4299370050430298,-4.68057107925415,1.0654577016830444,-4.490165710449219,0.9381497540054162,-0.4109872474491384,0.6813233035317845
1687106190.2738671,0.6543047428131104,0.6568599343299866,-0.3747268319129944,-0.8060229420661926,-0.17349207401275635,0.5655227303504944,-4.768704414367676,1.4414902925491333,-4.3622965812683105,1.0506847534949837,-0.7166467281774823,0.7620138940104136
1687106190.3670359,0.5109714865684509,0.8499738574028015,-0.12826626002788544,-0.8542486429214478,-0.22778165340423584,0.45372092723846436,-5.082638263702393,1.9724743366241455,-4.18014669418335,1.3248538466314843,-1.0159356282032972,1.0150236904348762
1687106190.3806062,0.3262033462524414,0.93898606300354,0.10907035320997238,-0.7220774292945862,-0.07628476619720459,0.43162477016448975,-3.468104124069214,2.263584852218628,-4.246854782104492,1.8934733647837454,-1.2196705150953693,1.51522284503198
1687106190.4231138,0.10336128622293472,0.9533001780509949,0.28378719091415405,-0.8426801562309265,-0.009223699569702148,0.48388245701789856,-2.8450584411621094,2.8362715244293213,-4.1209397315979,2.7923052814706084,-1.2639808315104142,2.3280132515246676
1687106190.5159721,-0.13626623153686523,0.909830629825592,0.39196842908859253,-0.6897225379943848,0.25417059659957886,0.4323570430278778,-1.611060380935669,2.6885364055633545,-3.9640285968780518,-2.8070165163311973,-1.1428756810956526,2.908976060256085
1687106190.529979,-0.35993704199790955,0.8471808433532715,0.3908061981201172,-0.6835504770278931,0.5655844211578369,0.5409563183784485,-0.2440406233072281,2.278395891189575,-3.5134711265563965,-2.3972894620274934,-1.0106564860484757,-3.061848586835234
1687106190.5740829,-0.5118710994720459,0.7723042964935303,0.37621012330055237,-0.4249423146247864,0.5443918704986572,0.5761061310768127,-0.1633656919002533,1.4014333486557007,-2.793649196624756,-2.2046089275812775,-0.8824605545376868,-2.9192328680024873
1687106190.69728,-0.6178213357925415,0.7115423679351807,0.334669828414917,-0.008246660232543945,1.0468955039978027,0.532197117805481,0.7588353753089905,0.6267572045326233,-2.0799758434295654,-2.067239852494611,-0.7916908555007295,-2.7944627698949382
1687106190.702695,-0.6797726154327393,0.6644415855407715,0.3105260133743286,0.13260775804519653,0.8965781927108765,0.41422057151794434,-0.08687470853328705,0.22253458201885223,-1.0446171760559082,-1.9992978919426634,-0.726746362901658,-2.7252046298359884
1687106190.790443,-0.707269549369812,0.6381917595863342,0.3041066825389862,0.04332917928695679,0.7324288487434387,0.20304957032203674,0.5973106026649475,0.10479159653186798,-0.650872528553009,-1.9768714329257102,-0.6921472141956576,-2.693575197694894
1687106190.794353,-0.717847466468811,0.6329289674758911,0.2899923622608185,0.1932350993156433,0.42104119062423706,0.1928107738494873,0.30510345101356506,-0.2721763551235199,-0.129667267203331,-1.954724642572628,-0.6853305862189043,-2.65336114941999
1687106190.7981582,-0.7156249284744263,0.6390751004219055,0.28189289569854736,0.00015562772750854492,0.30820560455322266,0.017637014389038086,1.0536085367202759,-0.2075188010931015,-0.025601809844374657,-1.9460430245507825,-0.6932951713856484,-2.6171907616172616
1687106190.875989,-0.7115283608436584,0.656063973903656,0.2516089975833893,0.03203928470611572,0.09120452404022217,0.10619425773620605,0.9632933139801025,-0.25093764066696167,0.07856596261262894,-1.9106903759762621,-0.7155915801789555,-2.5461922314205956
1687106190.9654222,-0.7060198783874512,0.6667996048927307,0.23856663703918457,-0.00024837255477905273,-0.054815471172332764,0.08578932285308838,0.41815483570098877,-0.2020229995250702,0.10793989151716232,-1.896654441545149,-0.7299059913631553,-2.5097413938339934
1687106190.98139,-0.6984821557998657,0.6767119765281677,0.2327733337879181,0.012096107006072998,0.016158998012542725,0.08358705043792725,0.431895911693573,-0.33067646622657776,0.14816389977931976,-1.8924772381720305,-0.7432874681040675,-2.48322059005218
1687106191.056384,-0.6902052164077759,0.6861956119537354,0.22967743873596191,-0.015788257122039795,-0.06296586990356445,0.036237314343452454,0.48764461278915405,-0.38616228103637695,0.09820468723773956,-1.8920369845862879,-0.756246047628547,-2.456980771055886
1687106191.060995,-0.681755006313324,0.6951645612716675,0.2279386669397354,-0.017387330532073975,-0.0915117859840393,-0.0003997236490249634,0.41635915637016296,-0.4185754060745239,0.1022823378443718,-1.893453529408483,-0.7686487699654059,-2.428641877823068
1687106191.113068,-0.6732794642448425,0.7021721601486206,0.23162220418453217,-0.011977434158325195,-0.11531925201416016,-0.02922976016998291,0.4134232699871063,-0.5585036873817444,0.06106002628803253,-1.902134657461858,-0.7784436971493673,-2.406957212783474
1687106191.176373,-0.6657413840293884,0.709672749042511,0.23054933547973633,-0.08871418237686157,-0.10916316509246826,-0.147099107503891,0.8767690062522888,-0.59120774269104,-0.11846090853214264,-1.9041752791388835,-0.789033571873699,-2.3650077657029307
1687106191.265321,-0.6691984534263611,0.7112160921096802,0.2152792364358902,-0.032721102237701416,-0.18256014585494995,-0.04676124453544617,1.5791455507278442,-1.0158599615097046,-0.6030895709991455,-1.8820380214531178,-0.7912266255384243,-2.282443653254836
1687106191.280694,-0.6807173490524292,0.7120727300643921,0.17197677493095398,-0.15755462646484375,0.030068814754486084,-0.26455187797546387,2.7212021350860596,-0.7021158337593079,-0.41950905323028564,-1.8182586299230803,-0.7924459940546095,-2.118252738895541
1687106191.355812,-0.7008400559425354,0.7031071782112122,0.12026283890008926,-0.0016134381294250488,-0.45072704553604126,0.18509602546691895,1.1637927293777466,-0.747006893157959,-0.9753460884094238,-1.7407393155553113,-0.7797577643131651,-1.965404719614973
1687106191.360425,-0.7394881248474121,0.6652035713195801,0.1032523512840271,-0.023786842823028564,0.1703370213508606,-0.07229233533143997,2.0346591472625732,-0.2721022069454193,-1.2216672897338867,-1.7095262151988133,-0.7277664652957196,-1.8724070275139253
1687106191.4459128,-0.7864049673080444,0.6165123581886292,0.03846004977822304,0.18215715885162354,0.05583548545837402,0.2247692346572876,2.8489580154418945,-0.8819721341133118,-1.8704453706741333,-1.6196635533694597,-0.664305330206852,-1.6916484149006132
1687106191.5351691,-0.846189558506012,0.5328410267829895,-0.0065721613354980946,0.08611899614334106,0.25329166650772095,0.2651323080062866,3.82322359085083,-1.3545092344284058,-1.9434767961502075,-1.5630297108750963,-0.5619543877488489,-1.493837599968644
1687106191.550232,-0.8857011795043945,0.46014001965522766,-0.06167846545577049,0.06917303800582886,0.39990630745887756,0.06695795059204102,5.011648654937744,-1.551245093345642,-1.2401443719863892,-1.5012705603948044,-0.4781528899337671,-1.2298649361764875
1687106191.626717,-0.9125377535820007,0.400100439786911,-0.0848187804222107,0.02215707302093506,0.0819857120513916,0.19382750988006592,3.7088258266448975,-1.2893922328948975,-0.49644482135772705,-1.478114373515113,-0.4116264521877073,-0.9937442696605691
1687106191.6327891,-0.9216499328613281,0.3762209415435791,-0.09496854245662689,0.05821627378463745,0.3550717830657959,-0.01384192705154419,3.3960304260253906,-1.3709417581558228,0.09030412882566452,-1.4681168330990055,-0.3857141719543398,-0.800063072055663
1687106191.715905,-0.9204155206680298,0.37926581501960754,-0.0948294922709465,-0.017282724380493164,0.08714962005615234,0.058376193046569824,2.264186382293701,-0.911457896232605,0.5473863482475281,-1.4681295701098018,-0.38900268738422483,-0.6496646523643617
1687106191.732852,-0.9124361872673035,0.398903489112854,-0.09130235761404037,0.006262660026550293,0.035758405923843384,0.04837930202484131,1.7976503372192383,-0.8811697959899902,0.7031589150428772,-1.4710639424292997,-0.410320758991251,-0.5369142915245569
1687106191.8044782,-0.8987537026405334,0.4276714622974396,-0.09663671255111694,-0.05858254432678223,-0.06983757019042969,0.028460383415222168,1.4186712503433228,-0.5162684917449951,0.8824295401573181,-1.4636848167354464,-0.44191520179334565,-0.4436535116571928
1687106191.8189101,-0.8789223432540894,0.4668755531311035,-0.09758397191762924,-0.13545125722885132,-0.18438959121704102,0.08197414875030518,0.7271385788917542,-0.45208513736724854,1.0470649003982544,-1.4602223462239683,-0.4857543349582848,-0.378160825513226
1687106191.863964,-0.8550204634666443,0.5102283358573914,-0.09277220815420151,-0.1957910656929016,-0.19560742378234863,0.06158316880464554,0.35925745964050293,-0.3594493567943573,1.0846959352493286,-1.4627162364637023,-0.535450280191535,-0.34304238125706804
1687106191.956542,-0.8280237913131714,0.5541983842849731,-0.08509055525064468,-0.1948642134666443,-0.18969643115997314,0.019370853900909424,0.3222901225090027,-0.4044826328754425,1.0385515689849854,-1.4683923753081716,-0.5873996463947555,-0.31523589168989635
1687106191.9732351,-0.8027194738388062,0.591394305229187,-0.07677114754915237,-0.12921077013015747,-0.2485141158103943,0.042774446308612823,0.36457526683807373,-0.43584826588630676,0.8399178981781006,-1.4754475116760415,-0.6327868008995704,-0.29049352438355147
1687106192.011983,-0.7823202610015869,0.6186286807060242,-0.07261664420366287,-0.14021062850952148,-0.30162739753723145,0.0499572828412056,0.21867381036281586,-0.3062278926372528,0.6005407571792603,-1.4782393902091757,-0.6669961205827646,-0.26300149061520595
1687106192.106245,-0.7680986523628235,0.6373251080513,-0.06197576969861984,-0.09650999307632446,-0.31879788637161255,0.05544489622116089,-0.1872931867837906,-0.23530355095863342,0.3708256185054779,-1.4902834995316236,-0.6910220324972605,-0.26098205116411805
1687106192.122442,-0.7589306831359863,0.6494333744049072,-0.0475432351231575,-0.14174973964691162,-0.230945885181427,0.009686052799224854,-0.36771053075790405,-0.04870859161019325,0.24574322998523712,-1.5082330518689555,-0.7068390847989405,-0.2779121769724292
1687106192.16289,-0.7520526647567749,0.6583791971206665,-0.030872292816638947,-0.08969813585281372,-0.21094584465026855,0.024600867182016373,-0.46871069073677063,-0.09706296771764755,0.1992846131324768,-1.529768656706095,-0.7186634072916789,-0.30565023132629465
