Timestamp,gravityX,gravityY,gravityZ,accelerationX,accelerationY,accelerationZ,rotationRateX,rotationRateY,rotationRateZ,attitudeRoll,attitudePitch,attitudeYaw
1687104045.5985909,-0.8531906604766846,0.32756757736206055,0.4059123992919922,0.009257733821868896,-0.012534528970718384,0.014436572790145874,-0.10662394762039185,0.061493754386901855,0.027090054005384445,-2.0148630765425004,-0.3337279505136256,0.17748991956480714
1687104045.599454,-0.8535472750663757,0.3255690634250641,0.40676945447921753,0.006211698055267334,-0.00046521425247192383,0.003569662570953369,-0.07367511093616486,-0.00985622312873602,-0.019627539440989494,-2.0155195374978265,-0.3316135076024343,0.17283881836458057
1687104045.6574368,-0.8538497686386108,0.3227480351924896,0.40838009119033813,0.004026830196380615,-0.0011994242668151855,-0.00922548770904541,-0.1000281497836113,0.012445886619389057,-0.022022299468517303,-2.016918238464122,-0.3286314690520639,0.16904647825661973
1687104045.746634,-0.8544438481330872,0.32070207595825195,0.4087485373020172,0.0010963082313537598,0.01740226149559021,-0.011593043804168701,-0.016300972551107407,0.005530349910259247,-0.02929587848484516,-2.016998526914944,-0.32647061953404105,0.16671816123187141
1687104045.748359,-0.8553351163864136,0.3191480040550232,0.40810027718544006,-0.00037747621536254883,0.00754275918006897,-0.008289635181427002,-0.05520293861627579,0.04483722150325775,0.0005433317273855209,-2.015975608341496,-0.32483034989247145,0.16497649583625687
1687104045.807637,-0.8563699126243591,0.3186537027359009,0.4063129425048828,-0.0016165375709533691,0.012965679168701172,-0.006105601787567139,-0.052888013422489166,0.0676291435956955,0.006937270052731037,-2.0138036585006365,-0.3243088253985708,0.16287425409885053
1687104045.867733,-0.8575076460838318,0.31837981939315796,0.4041226804256439,-0.0038357973098754883,0.013132840394973755,-0.0028471052646636963,-0.011058274656534195,0.042339496314525604,0.009743820875883102,-2.011201737429291,-0.32401987370672297,0.16081889797039386
1687104045.987987,-0.8581753969192505,0.3183576166629791,0.4027198553085327,-0.0027865171432495117,0.0043354034423828125,0.002950131893157959,-0.061461471021175385,0.04950729012489319,0.023023273795843124,-2.0095628503166583,-0.32399647050575897,0.158424274419273
1687104045.9893699,-0.8587353229522705,0.31908923387527466,0.40094369649887085,0.0018474459648132324,0.01346096396446228,0.0015525221824645996,-0.014908833429217339,0.03360598161816597,0.01834017224609852,-2.0076152406714214,-0.3247683238404272,0.15693066731655322
1687104046.077491,-0.8589261770248413,0.3194466233253479,0.40024927258491516,-0.0026917457580566406,0.004009336233139038,0.013584256172180176,-0.013478608801960945,0.025202695280313492,0.026802588254213333,-2.0068660111739782,-0.3251454591267585,0.1538285635953012
1687104046.080433,-0.8590066432952881,0.32004114985466003,0.3996008336544037,-0.011064529418945312,-0.004306167364120483,0.0081595778465271,-0.027733605355024338,0.032333094626665115,0.027689708396792412,-2.006209759948629,-0.3257729172401443,0.15164485539516145
1687104046.173264,-0.8589234948158264,0.32068130373954773,0.3992661237716675,-0.003564119338989258,-0.007433503866195679,0.004725039005279541,-0.01715046912431717,0.021187499165534973,0.028305964544415474,-2.0059264084948856,-0.32644868025967877,0.14989401889284565
1687104046.174129,-0.8588965535163879,0.32158902287483215,0.39859363436698914,-2.0503997802734375e-05,-0.0053657591342926025,0.00957876443862915,-0.02640490047633648,0.010388009250164032,0.02290678396821022,-2.005294348252623,-0.3274071927515177,0.14920436493371914
1687104046.286222,-0.8586142659187317,0.32235467433929443,0.39858371019363403,-0.002729058265686035,-0.004010409116744995,0.0027681589126586914,-0.008866706863045692,0.01803351752460003,0.03778553009033203,-2.005410383275291,-0.32821589549124824,0.1476691241521735
1687104046.286958,-0.8584094047546387,0.32381680607795715,0.3978384733200073,-0.003757655620574951,-0.0039924681186676025,0.00885385274887085,-0.006103090941905975,0.008130180649459362,0.028578894212841988,-2.004787081901235,-0.32976086932896637,0.14779202899275432
1687104046.382771,-0.8581504821777344,0.324374794960022,0.3979423940181732,-0.000552833080291748,-0.0013919472694396973,0.006415307521820068,-0.01876264065504074,0.0008726941887289286,0.026568852365016937,-2.005001880031814,-0.3303507190102861,0.14551074197026953
1687104046.386039,-0.8576401472091675,0.32506063580513,0.39848315715789795,0.004017770290374756,0.002805083990097046,0.002166748046875,-0.018997319042682648,-0.024799538776278496,0.007955330424010754,-2.0057476627350685,-0.3310758308973443,0.14610677880086603
1687104046.387289,-0.8572973608970642,0.3246803283691406,0.3995291590690613,0.005658745765686035,0.0005913674831390381,-0.005608469247817993,0.012044167146086693,-0.016653355211019516,0.0035670180805027485,-2.0069033118708526,-0.3306737170932244,0.143795827771604
1687104046.4379091,-0.8571398258209229,0.3246272802352905,0.3999107778072357,-0.003013432025909424,-0.012584835290908813,-0.004204660654067993,0.0073366048745810986,0.0024221211206167936,-0.0019678743556141853,-2.007339353649802,-0.33061763813772843,0.14361955118753045
1687104046.4975162,-0.8573043346405029,0.3248712122440338,0.399358868598938,-0.0028486251831054688,-0.011135190725326538,-0.0071013569831848145,0.013128926046192646,0.005836133845150471,-0.015358026139438152,-2.006736965296365,-0.3308755530119992,0.14524330524727555
1687104046.559888,-0.8578887581825256,0.32429730892181396,0.3985702395439148,-0.0023559927940368652,-0.003313302993774414,-0.007624804973602295,0.06377202272415161,-0.0005139607237651944,-0.023499974980950356,-2.005720363330273,-0.3302688099305135,0.14607215215698127
1687104046.620548,-0.8585129976272583,0.32370230555534363,0.39770832657814026,-0.005805671215057373,-0.018083900213241577,0.00606963038444519,-0.012442532926797867,0.02141040563583374,-0.014287834987044334,-2.0046162515289017,-0.32963986828777053,0.14756261016854247
1687104046.73702,-0.8590976595878601,0.323123574256897,0.39691564440727234,-0.0011926889419555664,0.0016140639781951904,-0.0026592612266540527,0.017917076125741005,-0.0032565370202064514,-0.023444071412086487,-2.0035965288026683,-0.32902827024895165,0.14938123911196635
1687104046.738607,-0.8595319986343384,0.3223056197166443,0.39664024114608765,-0.003688037395477295,0.011907786130905151,0.000637352466583252,0.026386676356196404,0.005571415647864342,-0.019226333126425743,-2.0031399982489053,-0.3281640709581596,0.15055305528887644
1687104046.829002,-0.8599681854248047,0.32212647795677185,0.3958399295806885,0.0002726912498474121,0.006929486989974976,-0.005260884761810303,0.037932757288217545,0.0035246165934950113,-0.019093310460448265,-2.002179367165948,-0.327974849491742,0.15213181773550824
1687104046.831231,-0.860159158706665,0.3219853937625885,0.3955397605895996,-0.0020539164543151855,0.00681111216545105,0.0002581179141998291,0.006646207068115473,0.006226659752428532,-0.011716019362211227,-2.001806998554302,-0.32782582133353844,0.1535671657626746
1687104046.978703,-0.8602972626686096,0.32231074571609497,0.394973486661911,-0.0001304149627685547,0.009079724550247192,0.003036588430404663,0.008060025982558727,0.011125650256872177,0.010082419961690903,-2.001202561550701,-0.32816950484225615,0.15441491575722646
1687104046.9833798,-0.8602035641670227,0.3227546513080597,0.3948148190975189,-4.094839096069336e-05,0.010497361421585083,0.0016540586948394775,0.03046504221856594,-0.0013530694413930178,-0.002083943225443363,-2.0010915223378185,-0.328638461238266,0.1543287439523104
1687104047.100371,-0.8599631786346436,0.32332587242126465,0.3948715329170227,0.0017327070236206055,-0.0011974573135375977,-0.0071915388107299805,-0.015356989577412605,0.005944684147834778,0.01810446009039879,-2.0012519595702214,-0.3292420258164409,0.15453545781978684
1687104047.102711,-0.8598136305809021,0.3243721127510071,0.39433905482292175,-0.011234402656555176,-0.0007330775260925293,-0.00018936395645141602,0.005321017932146788,0.024732699617743492,0.023120081052184105,-2.0008063879423506,-0.3303478853596828,0.15417215892541436
1687104047.105142,-0.8599017262458801,0.3251470923423767,0.3935078978538513,-0.005637824535369873,-0.0049259960651397705,0.005631387233734131,-0.0050484794192016125,0.013893261551856995,0.01618167944252491,-1.9999686385086959,-0.33116727293791415,0.15301206000912382
1687104047.2535381,-0.8597345352172852,0.32565993070602417,0.39344897866249084,0.003411412239074707,-0.003592550754547119,0.004332304000854492,0.012264305725693703,-0.01567176729440689,-0.0032682293094694614,-1.9999855403829734,-0.3317096203073259,0.15359034328764348
1687104047.2557878,-0.8596002459526062,0.32548806071281433,0.39388418197631836,-0.003009498119354248,-0.00436672568321228,0.004721015691757202,0.0008510081097483635,0.002328377915546298,0.003906326834112406,-2.0004631705186493,-0.33152785940175006,0.15340110048528868
1687104047.339199,-0.8595685958862305,0.3253641724586487,0.39405515789985657,0.0004532933235168457,-0.004044532775878906,0.006945669651031494,0.0066606407053768635,-0.010847770608961582,-0.004265716299414635,-2.000641497522265,-0.3313968182996639,0.1536373910738123
1687104047.341572,-0.8593306541442871,0.3250722587108612,0.3948149085044861,0.0034956932067871094,-0.0004871487617492676,0.005743443965911865,0.020956650376319885,-0.013836424797773361,-0.0024210778065025806,-2.0014766507334896,-0.33108814953174154,0.15434580178562088
1687104047.346856,-0.8592169284820557,0.32485541701316833,0.39524000883102417,0.0004525184631347656,-0.0009264647960662842,0.0040364861488342285,-0.026900675147771835,-0.0018547556828707457,0.002661610022187233,-2.0019352847455107,-0.330858838234158,0.15462890746071875
1687104047.464583,-0.8590214848518372,0.3245895504951477,0.3958834707736969,0.0025457143783569336,0.008067429065704346,-0.0024814605712890625,0.006030271295458078,-0.021980050951242447,-0.01028419379144907,-2.0026396740573764,-0.33057776034390557,0.15445104773593205
1687104047.4700022,-0.8589749336242676,0.32390567660331726,0.39654430747032166,-0.0007510781288146973,-0.002402782440185547,-0.004012018442153931,-0.00013159122318029404,5.355803295969963e-06,-0.0012694601900875568,-2.003294644945374,-0.3298548087319663,0.15396446113669976
1687104047.471829,-0.8590114712715149,0.3240997791290283,0.3963059186935425,0.004244744777679443,0.0009278655052185059,-0.011021733283996582,-0.000589015893638134,0.01074114441871643,0.005104461219161749,-2.003049663698832,-0.33005997247579516,0.15468018043365145
1687104047.5199819,-0.8590954542160034,0.32452717423439026,0.3957742154598236,0.0017192959785461426,0.0031707584857940674,-0.0065378546714782715,0.007392424158751965,0.01683216542005539,0.005329076200723648,-2.0025020614696176,-0.33051181134298246,0.15539007142913558
1687104047.637103,-0.8593868613243103,0.3250817358493805,0.39468440413475037,-0.002124190330505371,-0.0006797611713409424,-0.00616532564163208,-0.028478330001235008,0.037017010152339935,0.012796824797987938,-2.0013264434023537,-0.33109814435079216,0.15516625440068388
1687104047.639792,-0.8597911596298218,0.3256485164165497,0.39333438873291016,-0.0004992485046386719,0.0025376081466674805,0.001471400260925293,0.029431680217385292,0.010304491966962814,0.006165775004774332,-1.999850416807036,-0.3316975630962966,0.15583782504991237
1687104047.729898,-0.8600265979766846,0.3258659839630127,0.3926388621330261,2.6226043701171875e-05,-0.006606251001358032,0.009765803813934326,-0.03249405696988106,0.023444101214408875,0.004572116769850254,-1.9990778194170884,-0.3319275783084654,0.15562917405492988
1687104047.7326999,-0.860258936882019,0.32533928751945496,0.39256685972213745,0.007780969142913818,0.0025874972343444824,0.006755471229553223,-0.016746945679187775,0.0078058079816401005,-0.0005621463060379028,-1.9989064979884277,-0.3313705116982369,0.1535423754197394
1687104047.819714,-0.8603226542472839,0.3254973292350769,0.3922959864139557,-0.0026532411575317383,0.0030702948570251465,-0.0007404088973999023,-0.023541202768683434,0.018516508862376213,0.013994025997817516,-1.9986179169435394,-0.33153764513005407,0.1536056175933306
1687104047.82193,-0.8604709506034851,0.32547375559806824,0.3919905722141266,0.006360173225402832,0.0031854212284088135,0.0002211928367614746,-0.08766287565231323,0.030842311680316925,0.020404808223247528,-1.998258962687548,-0.33151272820435107,0.15109226926868966
1687104047.909637,-0.8608659505844116,0.3250766098499298,0.3914521634578705,0.005412578582763672,0.02434977889060974,-0.008944988250732422,-0.03303617238998413,0.06121071055531502,0.043960534036159515,-1.997567676747228,-0.33109273076808077,0.14507664518577876
1687104047.916229,-0.86106938123703,0.3271290361881256,0.3892890512943268,0.0009468197822570801,0.01762816309928894,-0.004477769136428833,-0.06666848808526993,0.06244013085961342,0.06581860780715942,-1.995394861997848,-0.33326385313344475,0.14239715640628817
1687104047.969818,-0.8610387444496155,0.32880091667175293,0.3879459500312805,0.00912541151046753,0.01623097062110901,0.005181312561035156,-0.1011262759566307,0.08302439004182816,0.08559834957122803,-1.9941123098368896,-0.3350336169938274,0.13515793256087819
1687104048.0588942,-0.8607437610626221,0.3310466408729553,0.38668838143348694,0.005153179168701172,0.005577594041824341,0.001403510570526123,-0.17784811556339264,0.058553196489810944,0.1065555214881897,-1.9930256431796718,-0.3374125379512421,0.12820646851997344
1687104048.0654511,-0.8595834970474243,0.33169811964035034,0.3887059688568115,0.007853329181671143,0.006574064493179321,0.030819028615951538,-0.3787517547607422,0.028877537697553635,0.1404859721660614,-1.9954804871944969,-0.33810303248884555,0.1152189175482248
1687104048.153291,-0.8568356037139893,0.3281794488430023,0.3976568281650543,0.04070413112640381,0.06328493356704712,0.20776605606079102,-0.959243655204773,0.04396620765328407,0.3342404365539551,-2.0053132114177377,-0.3343756479848848,0.07795970441303546
1687104048.239502,-0.8482648730278015,0.3295360207557678,0.41455087065696716,0.09396207332611084,0.26662495732307434,0.6107938289642334,-1.102695107460022,-0.22602175176143646,0.6591262221336365,-2.0253667910127713,-0.3358121117880739,0.01863354986358785
1687104048.24295,-0.8180323839187622,0.328974187374115,0.47180405259132385,0.04959976673126221,0.29079219698905945,0.9471717476844788,-1.6242249011993408,-1.4518452882766724,0.7655365467071533,-2.0939483315478444,-0.335217082130335,-0.0721837781075013
1687104048.33033,-0.751356840133667,0.3217497169971466,0.5761417746543884,-0.14083969593048096,0.28263580799102783,0.7358999252319336,-1.173056960105896,-2.6880240440368652,0.5348548293113708,-2.2249641574684316,-0.32757688910800586,-0.14418851662290683
1687104048.336783,-0.6516035199165344,0.30771929025650024,0.6933408975601196,-0.4367600679397583,0.2006121575832367,0.5255005359649658,-0.914281964302063,-3.101854085922241,0.5067699551582336,-2.387217327460087,-0.31279507129100226,-0.20433033853354138
1687104048.420383,-0.5239645838737488,0.29634571075439453,0.798524022102356,-0.5976632237434387,0.03634187579154968,0.3377828001976013,-0.2994314134120941,-3.5005369186401367,0.28250429034233093,-2.5608947595539107,-0.30086420869774994,-0.24295070963294935
1687104048.4232922,-0.3650772273540497,0.2894403636455536,0.8848406076431274,-0.7049911022186279,-0.05707934498786926,0.3508007526397705,-0.131861612200737,-3.917038679122925,0.013676932081580162,-2.7502793475455807,-0.2936421216899213,-0.25704252309386466
1687104048.510328,-0.17670482397079468,0.30257946252822876,0.9366004467010498,-0.7730020880699158,0.038774967193603516,0.46362197399139404,0.7248654365539551,-4.337118625640869,0.07268912345170975,-2.9551183738449325,-0.30739782011520617,-0.2531074884904932
1687104048.517612,0.04548179358243942,0.351009339094162,0.935266375541687,-0.9140883684158325,0.005893796682357788,0.5000817179679871,1.2638458013534546,-4.760937690734863,0.43802863359451294,3.093001158498218,-0.35864881490403605,-0.263777308468844
1687104048.570837,0.2803246080875397,0.43056750297546387,0.8579215407371521,-1.0217796564102173,0.0735219419002533,0.509937047958374,2.6327648162841797,-5.011429786682129,1.0088591575622559,2.825780080015935,-0.4451214643144274,-0.31893734749412134
1687104048.659476,0.5106396675109863,0.5276085734367371,0.6788785457611084,-1.0327954292297363,0.002222418785095215,0.4064788818359375,3.526369333267212,-5.155179500579834,1.8079090118408203,2.4966970439148874,-0.5557829904664435,-0.47342316238212323
1687104048.667304,0.7125346660614014,0.5662345290184021,0.4143342673778534,-1.2024180889129639,-0.11103421449661255,0.3671444058418274,4.125616550445557,-5.031320095062256,2.4578752517700195,2.0974969260214267,-0.6019302395476492,-0.7324732623002734
1687104048.721325,0.8523581027984619,0.5057098269462585,0.13320396840572357,-1.1424429416656494,-0.163699209690094,0.36844372749328613,2.9962027072906494,-4.42510461807251,2.951348066329956,1.725819432115369,-0.5302045663100016,-0.9752758523158727
1687104048.8105721,0.922928512096405,0.36334657669067383,-0.12720908224582672,-1.0155189037322998,0.0033832192420959473,0.3380243182182312,2.8385231494903564,-4.158500671386719,3.513890027999878,1.4338273338746208,-0.3718574586714232,-1.1438621598983785
1687104048.8181272,0.9260246753692627,0.16097776591777802,-0.3414154350757599,-0.9518884420394897,-0.04913078248500824,0.27090442180633545,2.547870397567749,-3.5096824169158936,3.718724012374878,1.217569717469578,-0.1616812555536843,-1.234422662796921
1687104048.872271,0.8768465518951416,-0.0361088290810585,-0.4794122874736786,-0.7313999533653259,-0.32972055673599243,0.07128527760505676,1.078906536102295,-2.235527992248535,3.147521495819092,1.0704548707476307,0.03611668003708465,-1.2461567006001528
1687104048.960962,0.8169750571250916,-0.16083410382270813,-0.5537905693054199,-0.5726361870765686,-0.4258815050125122,-0.24886763095855713,-0.1497422307729721,-1.315831184387207,2.3251445293426514,0.9750879202247842,0.16153570104924186,-1.1909515491870937
1687104048.969723,0.7700967788696289,-0.24023506045341492,-0.59096360206604,-0.5156413316726685,-0.2959434390068054,-0.4055880308151245,-0.09505938738584518,-0.6113126873970032,1.7364509105682373,0.9162589728406095,0.24260799049199633,-1.1270888466056457
1687104049.054899,0.7420570254325867,-0.28868377208709717,-0.6049901843070984,-0.4271767735481262,-0.3422975540161133,-0.48236656188964844,-0.06917259842157364,-0.10950004309415817,0.9434623718261719,0.8868027257272291,0.29285178033258424,-1.0808441548940828
1687104049.143583,0.7390706539154053,-0.306836873292923,-0.599687933921814,-0.4152792692184448,-0.3729268014431,-0.4844644069671631,-0.039262644946575165,0.39728114008903503,-0.010523300617933273,0.8891377970811475,0.31186779576065343,-1.0639950561328866
1687104049.151349,0.7652276158332825,-0.28577911853790283,-0.576850950717926,-0.454467236995697,-0.4311549663543701,-0.440589964389801,-0.21372146904468536,0.9413650631904602,-0.8918600678443909,0.9248489799602239,0.28981935412767024,-1.0732145057147087
1687104049.233018,0.8171755075454712,-0.2157997339963913,-0.5344666242599487,-0.5847690105438232,-0.45070409774780273,-0.3611786365509033,-1.4579172134399414,1.7121278047561646,-1.6922839879989624,0.9915852607550335,0.21751078100037305,-1.082816879535643
1687104049.2360249,0.8893399834632874,-0.08206014335155487,-0.44982272386550903,-0.6924712657928467,-0.27525484561920166,-0.4101322889328003,-2.396111488342285,2.973543882369995,-1.9977328777313232,1.1025243645311127,0.08215252161696786,-1.0382439475711105
1687104049.321665,0.9573438763618469,0.05821875482797623,-0.2830250859260559,-0.854392945766449,-0.21848171949386597,-0.2379254698753357,-3.1287612915039062,4.156864643096924,-1.7697571516036987,1.283348230016436,-0.058251693188939094,-0.9460655802350557
1687104049.3242621,0.9856166243553162,0.16166771948337555,-0.04922427982091904,-0.8488218188285828,-0.08352737128734589,-0.11686783283948898,-3.2966766357421875,4.544189929962158,-1.3801554441452026,1.5208951668921227,-0.16238037324601987,-0.8028628328018022
1687104049.381383,0.9566090703010559,0.2049001157283783,0.20715844631195068,-0.7695364952087402,-0.03882336616516113,0.08939585089683533,-3.2863407135009766,4.625951290130615,-0.9541141390800476,1.7840582733163017,-0.2063616623433539,-0.6269833783106822
1687104049.476296,0.8741214275360107,0.1937493532896042,0.44539013504981995,-0.5593938827514648,0.03348463773727417,0.22015228867530823,-1.8842921257019043,4.4229865074157715,-0.37381234765052795,2.042037973987126,-0.19498249391859657,-0.48506507475782284
1687104049.483422,0.7617126107215881,0.14832225441932678,0.6307092905044556,-0.6539245843887329,-0.13426877558231354,0.3909275531768799,-2.2211849689483643,4.067388534545898,0.008620543405413628,2.262387553390586,-0.1488715521984446,-0.3997617274842561
1687104049.567971,0.6378774642944336,0.060434553772211075,0.7677626609802246,-0.43571382761001587,-0.05689436197280884,0.2955610156059265,-2.2366080284118652,3.2454488277435303,0.3943895697593689,2.4483357480507375,-0.06047140140165333,-0.3231307052097201
1687104049.570302,0.5027364492416382,-0.022286444902420044,0.8641522526741028,-0.29762786626815796,-0.053137585520744324,0.08848428726196289,-1.053094506263733,3.0342533588409424,0.5337839126586914,2.6146866235331507,0.022288289903844606,-0.29557015780886464
1687104049.654634,0.34702372550964355,-0.06878085434436798,0.9353305697441101,-0.44974592328071594,-0.06570994108915329,-0.07250732183456421,-0.5224945545196533,3.573594808578491,0.5411245226860046,2.786318329138016,0.06883520486870863,-0.3075230817011989
1687104049.667803,0.15184055268764496,-0.10933719575405121,0.9823387861251831,-0.5558322072029114,0.044228121638298035,-0.15450388193130493,-0.24657055735588074,4.405489444732666,0.9736040234565735,2.988235841128346,0.10955622640109845,-0.3369908999181859
1687104049.7122278,-0.08351847529411316,-0.07077407836914062,0.9939897060394287,-0.6972736716270447,0.05244843661785126,-0.16447627544403076,1.619369626045227,4.90324068069458,0.622002124786377,-3.0577660699788547,0.0708332970178776,-0.37886524876196725
1687104049.803543,-0.33527666330337524,-0.005924919620156288,0.9421010613441467,-0.8733261823654175,0.11163796484470367,0.0926889181137085,0.9242923855781555,5.284998893737793,0.8476904630661011,-2.799687531970456,0.005924954466529954,-0.4002682944741321
1687104049.806964,-0.5514290928840637,0.06906451284885406,0.8313579559326172,-0.8468405604362488,0.07333066314458847,0.4202594757080078,1.2737841606140137,4.758094787597656,1.0219683647155762,-2.555933341002299,-0.06911953825452147,-0.41143314376693113
1687104049.8618479,-0.732795238494873,0.1497345119714737,0.6637699007987976,-0.8093036413192749,0.004181042313575745,0.8962428569793701,0.9723179936408997,4.718469619750977,0.9471850395202637,-2.3068095943330555,-0.1502997491254408,-0.41050264864537683
1687104050.015994,-0.8396381735801697,0.2029857188463211,0.5037903189659119,-0.3457408547401428,0.031892985105514526,1.0493102073669434,0.99686598777771,2.766448736190796,0.3256252110004425,-2.1112223065280102,-0.20440616637380954,-0.38635981104618045
1687104050.0768108,-0.8921648859977722,0.23417331278324127,0.38626956939697266,-0.3843240737915039,-0.05656091868877411,1.1395940780639648,2.2038402557373047,1.7859772443771362,-0.38771751523017883,-1.979387796265834,-0.23636815750687482,-0.31995550922484384
1687104050.085654,-0.9219546318054199,0.2436843067407608,0.3010275363922119,-0.05248677730560303,0.039030686020851135,1.2153756618499756,0.7481306195259094,1.4990804195404053,-0.22522428631782532,-1.886393497844275,-0.24616287938792952,-0.22720823494818904
1687104050.088094,-0.9356089234352112,0.2506203055381775,0.24864722788333893,0.3266611695289612,0.17241454124450684,1.1219886541366577,0.33883604407310486,-0.0039059221744537354,0.05845439061522484,-1.8305518545247197,-0.2533209594952199,-0.20270388325540376
1687104050.099625,-0.9249284863471985,0.2567118704319,0.2803678810596466,0.29080384969711304,0.19255280494689941,0.8592652082443237,-0.16327019035816193,-1.2863965034484863,0.13003236055374146,-1.865116558862367,-0.2596185053517058,-0.1951157213446223
1687104050.130611,-0.8969064950942993,0.25614413619041443,0.36048397421836853,0.003870725631713867,0.12961339950561523,0.6115618944168091,-1.3061012029647827,-1.5615360736846924,0.4131193161010742,-1.952956122485854,-0.25903115546231853,-0.23758838700069515
1687104050.190237,-0.8563697338104248,0.24523086845874786,0.45441439747810364,-0.18714821338653564,0.02724546194076538,0.4491041898727417,-1.6321908235549927,-1.6911393404006958,0.5343583822250366,-2.0586456339413446,-0.2477578277634741,-0.32511892525281677
1687104050.2533169,-0.8092770576477051,0.22745999693870544,0.5416015386581421,-0.2018311619758606,0.1104307621717453,0.3722166419029236,-1.5280358791351318,-1.9209672212600708,0.36221054196357727,-2.160579196095273,-0.22946851500194615,-0.39965499286307166
1687104050.315099,-0.7439984679222107,0.19541430473327637,0.6389678716659546,-0.2722827196121216,0.12340302765369415,0.30460530519485474,-1.090070128440857,-2.2652459144592285,0.08510415256023407,-2.2803941094309073,-0.1966798772252875,-0.46801224089757715
1687104050.374237,-0.6593165397644043,0.15995387732982635,0.7346538305282593,-0.3623049855232239,0.0942729264497757,0.13923221826553345,-1.0027142763137817,-2.491238594055176,-0.022485442459583282,-2.410187095647647,-0.16064392371822211,-0.5069960243481946
1687104050.460764,-0.5629627704620361,0.13652561604976654,0.8151277303695679,-0.49636322259902954,0.08364357054233551,0.0456508994102478,-0.01837349869310856,-2.5711615085601807,-0.178288996219635,-2.5371737981905285,-0.13695333949983077,-0.5216753684025844
1687104050.471311,-0.447302907705307,0.1272994726896286,0.8852767944335938,-0.4650963544845581,-0.17937755584716797,0.07798004150390625,-0.060619913041591644,-2.89526104927063,-0.3356460630893707,-2.673738756128786,-0.12764581891416632,-0.5099746320890166
1687104050.519546,-0.30749988555908203,0.14209166169166565,0.9408789873123169,-0.48635372519493103,-0.0833909809589386,0.22216087579727173,1.3400661945343018,-3.622849702835083,-0.7559484839439392,-2.825713771130479,-0.14257419778512925,-0.4749549822376786
1687104050.639596,-0.10885629057884216,0.17269018292427063,0.9789425730705261,-0.6215208768844604,-0.1818605363368988,0.31613194942474365,-0.26941806077957153,-4.475622177124023,-0.6455036401748657,-3.0308497744482508,-0.17356024061175998,-0.42708445836969894
1687104050.643517,0.10254022479057312,0.15956316888332367,0.981847882270813,-0.745576024055481,0.07728391885757446,0.3590487241744995,0.30691656470298767,-4.422739028930664,-0.40882834792137146,3.0375339224790494,-0.16024813436702195,-0.40089846532853374
1687104050.762258,0.3078230917453766,0.2199825793504715,0.9256632924079895,-0.4152754545211792,0.11383411288261414,0.21314585208892822,2.248654842376709,-4.362339973449707,0.06050160899758339,2.8205533189799072,-0.22179661947516907,-0.4092417245560128
1687104050.7711592,0.503703236579895,0.3160107731819153,0.8040027022361755,-0.6050062775611877,-0.010300785303115845,0.5111827850341797,2.122347116470337,-4.179839611053467,0.7605338096618652,2.581919359825957,-0.3215218297535544,-0.4842645247792744
1687104050.852834,0.6720156073570251,0.3641463816165924,0.6448195576667786,-0.6946902275085449,-0.005763113498687744,0.3973097801208496,2.299079656600952,-4.318694114685059,0.9483312368392944,2.335544848924743,-0.3727160981116218,-0.5899898516069247
1687104050.856844,0.8134677410125732,0.4081718623638153,0.4143253564834595,-0.7477330565452576,0.017365247011184692,0.34870535135269165,4.055336952209473,-4.5792460441589355,1.4255322217941284,2.0418818237184584,-0.4204506287137936,-0.7728934057103415
1687104050.9722838,0.9102725982666016,0.3831506371498108,0.15684182941913605,-0.7916966080665588,-0.13031241297721863,0.5147734880447388,2.167330503463745,-4.081449031829834,1.9126707315444946,1.7414230117328537,-0.39320482872509194,-0.9734584541471216
1687104050.976805,0.9555069208145142,0.2888699173927307,-0.05967210978269577,-0.8049179911613464,0.010400772094726562,0.40763330459594727,1.9772082567214966,-3.764753580093384,2.23410701751709,1.5084265884547357,-0.29304621008918036,-1.0804787084570535
1687104051.0650349,0.952627420425415,0.15993648767471313,-0.25869137048721313,-0.6488860845565796,0.11041879653930664,0.2779172658920288,2.5256197452545166,-3.682220697402954,2.4469661712646484,1.3056350844726619,-0.16062631580016878,-1.1702091481381176
1687104051.075383,0.9013121724128723,-0.011004921980202198,-0.4330300986766815,-0.7749543190002441,0.203464075922966,0.25935447216033936,2.2389819622039795,-3.181208610534668,2.962660551071167,1.1229154841523084,0.01100514423277304,-1.2367787049717163
1687104051.078539,0.8213148713111877,-0.18139596283435822,-0.540867269039154,-0.7677566409111023,0.017562419176101685,-0.12548422813415527,0.7773600220680237,-1.7480533123016357,2.976147174835205,0.9884422097871599,0.18240577619633855,-1.224557445137207
1687104051.1193151,0.7677649855613708,-0.27275192737579346,-0.5797785520553589,-0.6661568880081177,-0.611616849899292,-0.5711309313774109,-0.7619726657867432,-0.21817287802696228,1.810773253440857,0.9240066824874615,0.27625226708099737,-1.1438404402861526
1687104051.212119,0.7554931044578552,-0.2938724756240845,-0.5855503082275391,-0.5484314560890198,-0.5503199100494385,-0.5352537035942078,-0.790348470211029,0.3536110818386078,0.6001063585281372,0.9114505943677738,0.2982757026685668,-1.0778153157957173
1687104051.223606,0.7635790109634399,-0.2853226065635681,-0.5792564749717712,-0.435805082321167,-0.20433181524276733,-0.3629586696624756,-0.3553006649017334,0.4689335525035858,0.013295190408825874,0.9218093964662751,0.2893430099185906,-1.0416729118290002
1687104051.3056269,0.7836448550224304,-0.26769912242889404,-0.5605692863464355,-0.2909843921661377,-0.2336893379688263,-0.31388163566589355,-0.3498125672340393,0.7570706009864807,-0.5744909644126892,0.9498518394934573,0.27100420933294006,-1.0392397322514269
1687104051.310509,0.8233281373977661,-0.21262286603450775,-0.526233971118927,-0.39518189430236816,-0.3983389139175415,-0.30091458559036255,-1.2097722291946411,1.3846997022628784,-1.2764261960983276,1.0020831129348762,0.2142584257523201,-1.0352522828110922
1687104051.425756,0.8785418272018433,-0.11433210968971252,-0.46378064155578613,-0.4574146270751953,-0.23834417760372162,-0.3622998595237732,-1.2507902383804321,2.0245165824890137,-1.779096245765686,1.0850800643578002,0.11458267566867354,-1.016031337385752
1687104051.487791,0.9351711273193359,0.005851289257407188,-0.35414770245552063,-0.5404874086380005,-0.29953712224960327,-0.2533048391342163,-1.8192192316055298,3.0004000663757324,-1.9699703454971313,1.208787276921392,-0.005851322794958687,-0.9812302812590322
1687104051.4913769,0.9740415215492249,0.12211344391107559,-0.19060809910297394,-0.5738036036491394,-0.08439362049102783,-0.17296326160430908,-2.1333391666412354,3.5061593055725098,-1.7065621614456177,1.3775504809199968,-0.12241898819806944,-0.9155305143556417
1687104051.501124,0.9788265228271484,0.2044629156589508,0.009671284817159176,-0.5862942934036255,-0.030588924884796143,-0.04421734809875488,-2.204500913619995,3.8254284858703613,-1.2640825510025024,1.580676494755028,-0.20591500248981617,-0.8088710966181318
1687104051.540207,0.9427983164787292,0.249320849776268,0.22129316627979279,-0.6351657509803772,-0.17034117877483368,-0.020411312580108643,-2.530168056488037,3.8786377906799316,-1.1248648166656494,1.8013424588481997,-0.2519788883766153,-0.6856103951398679
1687104051.6055021,0.8671056628227234,0.2546611428260803,0.42810630798339844,-0.6524757742881775,-0.11798810958862305,0.06846025586128235,-2.234785318374634,3.700312376022339,-0.9231357574462891,2.0294063051297293,-0.2574972914406209,-0.5440589469958024
1687104051.66802,0.7653390169143677,0.242915078997612,0.5960270166397095,-0.45535677671432495,-0.03197745978832245,0.0023460984230041504,-1.6276848316192627,3.237440347671509,-0.8174046874046326,2.2324606607107893,-0.24536981077996659,-0.4381651661170775
1687104051.724028,0.6435443162918091,0.2202128767967224,0.7330465316772461,-0.5934954285621643,-0.11080718040466309,0.07957547903060913,-1.2417876720428467,3.3327126502990723,-0.5988392233848572,2.4211204210797317,-0.22203270041814097,-0.36097412365216724
1687104051.8179789,0.5064659714698792,0.2053629755973816,0.837447464466095,-0.6742057800292969,-0.036859989166259766,0.019119858741760254,-0.586549699306488,3.6659059524536133,-0.6184971928596497,2.597670696818916,-0.20683457507788597,-0.31379969590465384
1687104051.8217092,0.34522682428359985,0.21164745092391968,0.9143432974815369,-0.6335721611976624,0.09091922640800476,-0.04147970676422119,-0.25497007369995117,3.5589663982391357,-0.6386221647262573,2.7805724253028052,-0.21326029151610298,-0.2756202002312192
1687104051.8746219,0.14305037260055542,0.1936884969472885,0.9705777764320374,-0.7759696841239929,-0.11042113602161407,-0.00439143180847168,-0.21884939074516296,4.668646812438965,-0.27583760023117065,2.9952593555371605,-0.19492046133790655,-0.25451636661970384
1687104051.968151,-0.1016455814242363,0.21160398423671722,0.9720554947853088,-0.8647392988204956,0.2087758332490921,0.04413402080535889,0.6887111663818359,5.398438930511475,-0.6249514222145081,-3.037403625857358,-0.21321581496594946,-0.22934549671877374
1687104051.972456,-0.3584696352481842,0.22841507196426392,0.9051661491394043,-0.7989399433135986,0.06606446206569672,0.5327150821685791,0.14441360533237457,5.280487060546875,-0.20549307763576508,-2.76451653577578,-0.23044940297213884,-0.2000388208959475
1687104052.022784,-0.5741047263145447,0.24475036561489105,0.7813454270362854,-0.9057230353355408,0.1335151195526123,0.9084584712982178,-0.2529568672180176,4.985330581665039,0.20554406940937042,-2.507913937450091,-0.24726222279777343,-0.17859949842463838
1687104052.1172671,-0.7319313287734985,0.25970345735549927,0.6299446821212769,-0.5145894885063171,0.03323489427566528,0.8767079710960388,1.8163185119628906,3.9150876998901367,-0.36891981959342957,-2.2814471400237646,-0.26271511424739524,-0.16122508955286166
1687104052.121865,-0.8289573192596436,0.2788142263889313,0.4848635792732239,-0.22470790147781372,0.15320807695388794,1.077056646347046,-0.05598201975226402,2.774738311767578,-0.31351718306541443,-2.100044670838618,-0.28255913674321664,-0.08577559083340663
1687104052.2053618,-0.8914886713027954,0.2733331620693207,0.3612986207008362,-0.11961960792541504,0.31704479455947876,1.009993314743042,1.8174296617507935,1.7588610649108887,-0.747911810874939,-1.9558423659269206,-0.27685644029129813,-0.04278379942681127
1687104052.325519,-0.9196709990501404,0.26352283358573914,0.29113641381263733,0.08542752265930176,0.06112325191497803,0.9593212008476257,1.039385199546814,1.172623634338379,-0.595971941947937,-1.8773809934454397,-0.2666723120620797,0.03675206114041087
1687104052.330306,-0.9346125721931458,0.25322696566581726,0.2497507631778717,0.26369887590408325,0.32871291041374207,0.8657429218292236,0.01379098929464817,0.11417272686958313,-0.16238099336624146,-1.8319188363698637,-0.2560145055684954,0.07809043626265966
1687104052.4449701,-0.9326382279396057,0.2528678774833679,0.2573779821395874,0.17827445268630981,0.27966392040252686,0.6510233283042908,-0.16837316751480103,-0.5716232657432556,0.11326652765274048,-1.8400619465835952,-0.2556433313489807,0.07461926515204229
1687104052.456122,-0.9167248606681824,0.25360307097435,0.30870765447616577,0.00518035888671875,0.12425041198730469,0.4507678151130676,-0.9785383343696594,-0.9000068306922913,0.36326152086257935,-1.8956192751953314,-0.25640330061279204,0.03875892811095015
1687104052.458724,-0.8918820023536682,0.2521630525588989,0.37544646859169006,0.02037644386291504,0.15562820434570312,0.292003333568573,-1.2295987606048584,-1.3216161727905273,0.5255504846572876,-1.9692399127496722,-0.2549148857492438,-0.028946837652301
1687104052.531986,-0.8549965023994446,0.24995435774326324,0.45442652702331543,-0.061446189880371094,0.0562286376953125,0.48389729857444763,-1.491806983947754,-1.620429515838623,0.5950770974159241,-2.059321464834421,-0.2526331122864086,-0.10414702421193116
1687104052.535499,-0.7988033890724182,0.23270469903945923,0.5547624230384827,-0.16756612062454224,0.15715749561786652,0.4737865924835205,-1.3396916389465332,-2.276155710220337,0.3382047712802887,-2.1778159795318563,-0.23485780393612468,-0.18064006615581094
1687104052.6224198,-0.7251373529434204,0.20260927081108093,0.6581223011016846,-0.31688523292541504,0.13207712769508362,0.4917493462562561,-1.3352525234222412,-2.4396770000457764,0.3317602276802063,-2.3077851359559087,-0.204021728036789,-0.2509256346391544
1687104052.627799,-0.6269227862358093,0.17291411757469177,0.7596501111984253,-0.4163510203361511,0.17083601653575897,0.3977136015892029,-0.7275189757347107,-2.881141424179077,0.2604382336139679,-2.4516270077804783,-0.17378758990949855,-0.3030085171211548
1687104052.714158,-0.49758681654930115,0.17124764621257782,0.8503420948982239,-0.5317100882530212,0.1432056874036789,0.2893521189689636,0.45266544818878174,-3.4290242195129395,0.06656380742788315,-2.612155847391075,-0.1720958803886104,-0.31402033365542104
1687104052.728492,-0.32698488235473633,0.20575372874736786,0.922359049320221,-0.6376604437828064,-0.007862314581871033,0.3206065893173218,0.6055986881256104,-4.0186381340026855,0.20267698168754578,-2.8009062977287793,-0.20723385913824802,-0.30250218274230395
1687104052.7739758,-0.12734295427799225,0.23200948536396027,0.9643418788909912,-0.7699653506278992,-0.06993044912815094,0.35900700092315674,0.8096911311149597,-4.430681228637695,0.12823271751403809,-3.0103006116518984,-0.23414302439343276,-0.3066999648526566
1687104052.864904,0.09874825924634933,0.3031092584133148,0.9478254318237305,-0.8677148818969727,-0.08887574076652527,0.3362928628921509,1.7090262174606323,-4.844968318939209,0.48741602897644043,3.037783153064699,-0.3079537077849603,-0.31902869377766535
1687104052.879632,0.3377799093723297,0.37884521484375,0.8616153597831726,-0.9292105436325073,-0.12835675477981567,0.3682734966278076,2.1157386302948,-4.994566440582275,0.8389430642127991,2.767974940723289,-0.38854817802001285,-0.3763900992279828
1687104052.921002,0.5519801378250122,0.436947226524353,0.7102078199386597,-0.9263086915016174,-0.2031061351299286,0.281125009059906,2.074965476989746,-4.635178565979004,1.2557110786437988,2.4809037972858787,-0.4522019512205097,-0.48507641703417115
1687104052.988193,0.7260485887527466,0.45720961689949036,0.5136271119117737,-0.7958880662918091,-0.08281981945037842,0.27862435579299927,2.013638734817505,-4.575872421264648,1.460587978363037,2.1864901845992604,-0.4748551432813158,-0.6207770204682047
1687104052.992363,0.8498033285140991,0.43075987696647644,0.3037763237953186,-0.7804980278015137,-0.07625234127044678,0.20829308032989502,1.7977439165115356,-4.079742431640625,1.680200219154358,1.914107383625554,-0.4453346115460916,-0.7476022411895069
1687104053.040725,0.9234960079193115,0.3742752969264984,0.08410067856311798,-0.5671882033348083,-0.018058806657791138,0.2106379270553589,2.2920992374420166,-3.7353575229644775,1.9054135084152222,1.6616135438341089,-0.3836151416342851,-0.8804583558430794
1687104053.193296,0.9547179341316223,0.27594563364982605,-0.11121008545160294,-0.5709442496299744,0.041071027517318726,0.20857620239257812,2.0405502319335938,-3.202155590057373,2.1611008644104004,1.4548341771365476,-0.279573394748736,-0.9947515810712514
1687104053.206862,0.948802649974823,0.14192119240760803,-0.28219088912010193,-0.5542410612106323,0.19891442358493805,0.2352394163608551,1.9913709163665771,-2.928893804550171,2.6454567909240723,1.2817101216730378,-0.1424019906676583,-1.0692995346316814
1687104053.284892,0.9087137579917908,-0.022304795682430267,-0.4168233275413513,-0.6254802942276001,0.24166522920131683,0.154371976852417,1.7830790281295776,-2.5125513076782227,2.974776029586792,1.1407344158117472,0.02230664641554601,-1.109944253779474
1687104053.29001,0.8460265398025513,-0.18591102957725525,-0.49967607855796814,-0.7655212879180908,0.004926636815071106,-0.0024908781051635742,0.5904222726821899,-1.5255870819091797,3.0839993953704834,1.0373060463065669,0.18699897513107921,-1.0881683326234775
1687104053.375731,0.7814565300941467,-0.3020165264606476,-0.5459960699081421,-0.5609671473503113,-0.23465022444725037,-0.33854079246520996,0.0076362635008990765,-0.8224348425865173,2.226316452026367,0.9609499101864657,0.30680725839814554,-1.0218829205070097
1687104053.389513,0.7415828704833984,-0.35469451546669006,-0.569426417350769,-0.407262921333313,-0.5050618648529053,-0.4324963092803955,-0.5682634711265564,-0.21054266393184662,1.0092759132385254,0.9159670395978957,0.36258731939305494,-0.9599098769758603
1687104053.4318051,0.7295648455619812,-0.3633784055709839,-0.5793887376785278,-0.3926355838775635,-0.2507724463939667,-0.4023008346557617,-0.17015200853347778,0.06631503254175186,0.2179475724697113,0.8996285651810296,0.37189164843074674,-0.9201681058176091
1687104053.5268722,0.7359811663627625,-0.3556138277053833,-0.5760819315910339,-0.3344463109970093,-0.26502200961112976,-0.2849411368370056,0.16846296191215515,0.1843012571334839,-0.4865455627441406,0.9066687142286144,0.3635707436196527,-0.9239294282669607
1687104053.5405211,0.7599394917488098,-0.323693186044693,-0.5636617541313171,-0.39646005630493164,-0.31534475088119507,-0.2794474959373474,-0.5098262429237366,0.6317946910858154,-1.0321502685546875,0.9326160073289724,0.3296302137410187,-0.9458641019755394
1687104053.646665,0.804983913898468,-0.262174129486084,-0.532227098941803,-0.492453396320343,-0.19153061509132385,-0.32557642459869385,-0.27370932698249817,1.3429815769195557,-1.4498276710510254,0.986612298302416,0.2652744454852834,-0.9605978839358612
1687104053.6603332,0.8640287518501282,-0.18143808841705322,-0.46961092948913574,-0.5153197646141052,-0.23711039125919342,-0.2617735266685486,-0.9292290210723877,1.8733975887298584,-1.9581319093704224,1.0729471178957224,0.18244861806824106,-0.9871454343187692
1687104053.735841,0.9248771667480469,-0.05051574856042862,-0.3768954575061798,-0.6092340350151062,-0.16535022854804993,-0.20115336775779724,-2.165555953979492,2.7307305335998535,-2.114577531814575,1.1838337633437714,0.05053725921644226,-0.9544929167835824
1687104053.7397919,0.969781756401062,0.07981621474027634,-0.23054854571819305,-0.5762424468994141,-0.04209638386964798,-0.19184541702270508,-1.721632480621338,3.3139891624450684,-2.0883772373199463,1.3373965443007636,-0.07990120331568498,-0.8960111524299931
1687104053.793799,0.9807640910148621,0.1920318603515625,-0.03500641509890556,-0.6028345227241516,-0.04736316204071045,-0.08599597215652466,-2.5577945709228516,4.0797810554504395,-1.856290578842163,1.5351184688604558,-0.1932321148912496,-0.7987523061996038
1687104053.884265,0.9427759051322937,0.26672884821891785,0.20007331669330597,-0.6037561893463135,-0.017873167991638184,0.009582281112670898,-2.740691661834717,4.491302013397217,-1.5725737810134888,1.7799111804575787,-0.2699973165066039,-0.669657203399532
1687104053.889133,0.850537896156311,0.26075980067253113,0.4567161798477173,-0.6278510689735413,-0.04290992021560669,0.18969184160232544,-3.419957160949707,4.669738292694092,-0.700550377368927,2.063583301580231,-0.2638091578395117,-0.4892751432457971
1687104054.0065122,0.71928471326828,0.18778659403324127,0.6688538193702698,-0.6583258509635925,-0.005382895469665527,0.2084653377532959,-3.1798787117004395,4.394282341003418,-0.006167168729007244,2.3198805881291187,-0.18890816932370488,-0.35002686930172805
1687104054.0120149,0.5565446615219116,0.0875479131937027,0.8261918425559998,-0.6924090385437012,0.04347945749759674,0.03846246004104614,-1.4454671144485474,4.372686386108398,0.4180813133716583,2.5487872061594303,-0.08766013952497839,-0.27595128611198566
1687104054.096499,0.36035338044166565,0.04753408953547478,0.9316036105155945,-0.6700153350830078,-0.09677404910326004,-0.052392542362213135,0.0370752215385437,4.716945648193359,0.3431446850299835,2.772508607376347,-0.04755200917206802,-0.27633040158672123
1687104054.1109009,0.12213397771120071,0.07991955429315567,0.9892908930778503,-0.7008387446403503,-0.10236505419015884,0.13136041164398193,0.4605712294578552,5.115846633911133,-0.08580003678798676,3.018758110374434,-0.08000487788210489,-0.2846171658125822
1687104054.18623,-0.12328064441680908,0.07594618201255798,0.9894615411758423,-0.8680523633956909,-0.08722225576639175,0.2541450262069702,0.5333666801452637,4.828342914581299,0.22407522797584534,-3.0176377614816476,-0.07601937617309172,-0.2954276173084863
1687104054.190592,-0.37588444352149963,0.1403856873512268,0.9159707427024841,-0.7003178596496582,0.19982442259788513,0.47549331188201904,0.9423573613166809,4.66873836517334,0.19660888612270355,-2.752181033684545,-0.14085095117419952,-0.28573616067777446
1687104054.336499,-0.5719724893569946,0.20933771133422852,0.7931113243103027,-0.9398073554039001,-0.1325705200433731,0.6151682734489441,2.295881509780884,4.910919189453125,-0.32893407344818115,-2.516795835106766,-0.21089761232963924,-0.23942468213161855
1687104054.341474,-0.720279335975647,0.25637269020080566,0.6445698738098145,-0.4331628680229187,0.019674181938171387,0.6180642247200012,1.9634864330291748,3.3039121627807617,-0.6845718622207642,-2.3007803171310814,-0.2592675894880787,-0.16596094178939982
1687104054.4315782,-0.8257108926773071,0.2701927423477173,0.4951735734939575,-0.20382988452911377,0.07973715662956238,0.9127851724624634,0.10507078468799591,2.7566981315612793,-0.5021306276321411,-2.110990519977629,-0.2735932142295786,-0.08927566182137212
1687104054.446608,-0.8879052996635437,0.2606952488422394,0.37902820110321045,-0.19141000509262085,0.27418652176856995,0.998764157295227,2.217977523803711,1.8743469715118408,-0.9611763954162598,-1.974257513756043,-0.2637422956705269,-0.032779878850119924
1687104054.4498692,-0.9186714887619019,0.2442110776901245,0.31048887968063354,0.1103219985961914,0.15106800198554993,0.8982969522476196,0.7372865080833435,0.75605708360672,-0.8912110924720764,-1.896719400496097,-0.24670605643690727,0.06978448121169974
1687104054.575762,-0.9373192191123962,0.21922218799591064,0.27087628841400146,0.15350592136383057,0.4932107925415039,0.8475775718688965,0.9805045127868652,0.07082626223564148,-0.637287974357605,-1.8521222423331851,-0.22101720166189667,0.12212965980554842
1687104054.638413,-0.9360491633415222,0.21975965797901154,0.27480411529541016,0.17437636852264404,0.4131597876548767,0.5602177381515503,1.6337553262710571,-0.602979838848114,-0.17410676181316376,-1.85635168390095,-0.22156810478783726,0.19525820892918272
1687104054.643784,-0.9266425967216492,0.23550879955291748,0.29303422570228577,0.06923604011535645,0.08878642320632935,0.2935744524002075,0.8380774855613708,-0.7751868367195129,0.08729429543018341,-1.8770777270111332,-0.23774206047223373,0.2552336622392277
1687104054.648309,-0.9119910597801208,0.24777449667453766,0.326924592256546,-0.024715304374694824,-0.041445061564445496,0.0007118880748748779,0.17895710468292236,-0.8379258513450623,0.13687308132648468,-1.9149998591309365,-0.25038244345168925,0.27006389234267386
1687104054.6896648,-0.8971579074859619,0.25566157698631287,0.36020132899284363,-0.09892052412033081,-0.11729472875595093,-0.13017484545707703,-0.12441785633563995,-0.5864850282669067,0.197694331407547,-1.9525878783683164,-0.2585319664215095,0.2679840418768965
1687104054.78617,-0.8861911296844482,0.26190558075904846,0.38219183683395386,0.04346352815628052,-0.09924671053886414,-0.14514672756195068,0.36494889855384827,-0.7019511461257935,-0.0676480159163475,-1.9779697203503963,-0.264996174449777,0.2701161851906793
1687104054.846952,-0.8743728399276733,0.2579866349697113,0.4109921455383301,-0.14495986700057983,-0.14725348353385925,-0.13251954317092896,-0.4390309154987335,-0.22586345672607422,0.061754755675792694,-2.0101918076113288,-0.2609377261884736,0.26501790564534794
1687104054.861267,-0.8686978220939636,0.2547885775566101,0.42479026317596436,0.009261846542358398,0.004702508449554443,-0.1092386245727539,0.22925403714179993,-0.5163836479187012,-0.20897111296653748,-2.025602494640134,-0.25762907195605345,0.2642099594165614
1687104054.864357,-0.8626885414123535,0.2449694573879242,0.4424459934234619,-0.07784795761108398,-0.04785624146461487,-0.08265918493270874,-0.4042179584503174,-0.12723244726657867,-0.027300262823700905,-2.0446858334819544,-0.24748819142448686,0.2542097970041731
1687104054.901528,-0.8596405982971191,0.24216923117637634,0.4498577117919922,0.03026449680328369,0.03328254818916321,-0.06529057025909424,0.5794991254806519,-0.28103798627853394,-0.19234678149223328,-2.05291681756779,-0.24460101307673607,0.2613124339555293
1687104054.994056,-0.8563398718833923,0.2439584881067276,0.45515477657318115,-0.00556790828704834,-0.004136025905609131,-0.07177788019180298,0.03929901123046875,-0.13417716324329376,-0.08022717386484146,-2.059334448642865,-0.24644558846322037,0.283600472516936
1687104055.0872788,-0.8566083312034607,0.24595923721790314,0.4535706341266632,-0.022816777229309082,0.040585726499557495,-0.014438092708587646,0.6601096391677856,-0.03677454963326454,-0.12677855789661407,-2.057761322097865,-0.24850920356956424,0.2960216412844017
1687104055.093161,-0.8551511168479919,0.2564200460910797,0.4505162537097931,0.004214465618133545,0.03001803159713745,-0.013931959867477417,0.9741780757904053,-0.19430969655513763,-0.21541963517665863,-2.0556740609700466,-0.25931657792555335,0.33845954523945404
1687104055.174718,-0.8558038473129272,0.2846541106700897,0.43193987011909485,-0.005326032638549805,0.10328549146652222,-0.04117769002914429,3.0958030223846436,-0.314105749130249,-0.4785909354686737,-2.0382114624497225,-0.28864559562316333,0.4333641590599206
1687104055.190991,-0.84879070520401,0.3203526735305786,0.4206283390522003,0.05870598554611206,-0.05353739857673645,0.10218331217765808,1.3521324396133423,-0.6456016898155212,-0.3010807931423187,-2.0308871680664886,-0.32610175982214973,0.5649855417814896
1687104055.2642899,-0.8462256789207458,0.3237922489643097,0.4231550991535187,-0.06759250164031982,-0.09649723768234253,0.09288161993026733,-0.1818401962518692,0.024907350540161133,-0.1058092787861824,-2.0344838950456925,-0.32973492856601944,0.5921301086103763
1687104055.279393,-0.8472445011138916,0.31451284885406494,0.4280872046947479,0.0016785860061645508,-0.007719516754150391,-0.0012226700782775879,-0.2619764804840088,0.05901637300848961,0.01703016273677349,-2.038651014849713,-0.3199434308855373,0.5724206897782941
1687104055.3207169,-0.8473356366157532,0.317607581615448,0.4256144165992737,0.02362048625946045,0.04605525732040405,0.016524076461791992,0.4822990894317627,-0.11326522380113602,-0.0721600353717804,-2.036280088193577,-0.3232053583714001,0.5825540359886181
1687104055.416461,-0.8462817668914795,0.3234347999095917,0.42331668734550476,-0.015687227249145508,0.0031033754348754883,-0.0097731351852417,0.26382920145988464,-0.042615074664354324,-0.05132652074098587,-2.034610120687281,-0.329357142822508,0.602432626546761
1687104055.432674,-0.8459851145744324,0.32386156916618347,0.4235829710960388,0.0130690336227417,-0.010247617959976196,0.00137406587600708,0.06263378262519836,-0.07987482845783234,-0.0449027344584465,-2.0350020926147963,-0.3298082066762044,0.6094279123836411
1687104055.504648,-0.8447064161300659,0.3236748278141022,0.4262693524360657,-0.004139959812164307,-0.00702434778213501,-0.013549834489822388,0.03578747436404228,-0.04101067781448364,0.0006323254201561213,-2.0381459455248763,-0.3296108146860492,0.6113845351626387
1687104055.62536,-0.8437721729278564,0.32352492213249207,0.4282289445400238,0.005194962024688721,0.004081398248672485,-0.021216154098510742,-0.08230865001678467,-0.06276769191026688,0.013297231867909431,-2.040439655928508,-0.32945238989604536,0.6121992532608578
1687104055.641852,-0.8428530693054199,0.3235718905925751,0.43000003695487976,-0.007870197296142578,-0.0029540657997131348,-0.0124129056930542,0.05159786343574524,-0.00947512499988079,0.02024604007601738,-2.0425483888677913,-0.3295020286419936,0.6097233535612415
1687104055.745229,-0.8426727652549744,0.32799816131591797,0.4269888401031494,0.001898348331451416,0.019261419773101807,-0.019655734300613403,0.34763893485069275,-0.06681186705827713,-0.041515640914440155,-2.039795743480518,-0.33418372239404864,0.6220338881628343
1687104055.761461,-0.8425334692001343,0.3308509290218353,0.4250592291355133,-0.011897861957550049,-0.03710377216339111,0.0061998069286346436,-0.025778472423553467,0.04730650410056114,0.01807956025004387,-2.0380385119595172,-0.33720513453151724,0.6307564613219714
1687104055.765143,-0.8438539505004883,0.33294418454170227,0.42078301310539246,0.009259402751922607,0.030031979084014893,0.00367051362991333,0.2735765874385834,-0.01832667365670204,-0.037540826946496964,-2.0333588418592465,-0.33942417552634574,0.6351458562576036
1687104055.830559,-0.8433678150177002,0.3386586010456085,0.41718220710754395,-0.0014960169792175293,-0.008046329021453857,0.028252124786376953,0.28038308024406433,-0.0707443431019783,-0.026023253798484802,-2.0301645977291765,-0.34549089666483535,0.6547734233792553
1687104055.8439941,-0.843011200428009,0.3409176170825958,0.41606175899505615,-0.015188932418823242,-0.026082873344421387,0.009719312191009521,0.04646909236907959,0.029452141374349594,0.0032677671406418085,-2.0292645153123225,-0.3478928195849097,0.6594832731963247
1687104055.924442,-0.8430145382881165,0.3456465005874634,0.4121340215206146,-7.915496826171875e-05,0.026393383741378784,0.02107793092727661,0.6563701033592224,-0.10762283205986023,-0.08664814382791519,-2.025509442984179,-0.3529276688320525,0.6756578769805971
1687104055.9370909,-0.841745913028717,0.3530648648738861,0.408422589302063,-0.010899901390075684,-0.036231279373168945,0.03649306297302246,0.16700391471385956,-0.0863908901810646,-0.017164159566164017,-2.0225411744952444,-0.36084492388433614,0.7026076458527138
1687104056.0140061,-0.8420670628547668,0.35498830676078796,0.40608614683151245,-0.0045209527015686035,-0.03458419442176819,0.050471752882003784,0.16194742918014526,0.0332307405769825,0.01202914584428072,-2.0201426823786655,-0.3629015602435389,0.7046240070125385
1687104056.028069,-0.8406181931495667,0.36121639609336853,0.4035881757736206,0.0215265154838562,-0.009318172931671143,0.030035823583602905,0.4953749477863312,-0.17130349576473236,-0.04943201690912247,-2.018404726075394,-0.36957203042130754,0.7243773187203595
1687104056.099917,-0.8377457857131958,0.36865144968032837,0.4028370678424835,-0.025901496410369873,-0.05038362741470337,0.04630511999130249,0.35875603556632996,-0.15143780410289764,-0.011307202279567719,-2.0190136973183685,-0.3775578745703316,0.7453834792572981
1687104056.19565,-0.8355249166488647,0.37479346990585327,0.4017806947231293,-0.03010612726211548,-0.045600295066833496,0.03268250823020935,0.32763826847076416,-0.09863919764757156,-0.011462043970823288,-2.019024939552655,-0.38417400877995955,0.7621151850499243
1687104056.2130132,-0.8330610990524292,0.38193488121032715,0.40016844868659973,0.009178102016448975,-0.04791992902755737,0.026848524808883667,0.3636895418167114,-0.1566288322210312,0.007144841831177473,-2.0186080953634247,-0.39188899668655075,0.7797065196623649
1687104056.282088,-0.8304463028907776,0.3892399072647095,0.39856114983558655,-0.021375536918640137,-0.060031503438949585,0.03590214252471924,0.29768216609954834,-0.07324095070362091,0.0280404482036829,-2.018264332412873,-0.39980628857486183,0.7956437453087237
1687104056.296634,-0.8277590274810791,0.3952333927154541,0.39825254678726196,-0.009933054447174072,-0.0716555118560791,0.029588401317596436,0.12508736550807953,-0.08262890577316284,0.06973269581794739,-2.0192272607618476,-0.4063219209844515,0.8043487137561295
1687104056.406528,-0.8242717981338501,0.4010538160800934,0.3996644914150238,0.008247017860412598,-0.04671409726142883,0.014794528484344482,0.3325769007205963,-0.1977541595697403,0.007567640393972397,-2.0222666603802812,-0.41266694775568524,0.8134784209169367
1687104056.412593,-0.8201962113380432,0.4079189896583557,0.40109866857528687,-0.013574481010437012,-0.03781697154045105,0.0037931203842163086,0.19855770468711853,-0.19786490499973297,0.0054264371283352375,-2.025627604875918,-0.42017362562215005,0.8311331770580411
1687104056.527504,-0.8169590830802917,0.4089328944683075,0.4066346287727356,-0.013042807579040527,-0.04282867908477783,-0.011569440364837646,-0.058351434767246246,-0.06836394965648651,0.037577517330646515,-2.032635695392583,-0.42128442303162866,0.8293368135286545
1687104056.544028,-0.8147467374801636,0.4100957214832306,0.4098893702030182,0.0195196270942688,0.00909385085105896,-0.03812438249588013,0.18773236870765686,-0.13156290352344513,-0.014286192134022713,-2.0369113331796966,-0.4225590171533812,0.8325201093234798
1687104056.647763,-0.8135389685630798,0.4121919274330139,0.410185307264328,-0.004683017730712891,0.00036004185676574707,-0.04548525810241699,0.08422248810529709,-0.03646381199359894,-0.006084033753722906,-2.037797267051221,-0.42485855279578205,0.8404385459668988
1687104056.651846,-0.8132438063621521,0.41326504945755005,0.4096907079219818,-0.020893216133117676,0.029560387134552002,-0.046501219272613525,-0.022326640784740448,0.01625942625105381,0.025530017912387848,-2.037458195528923,-0.42603671749126837,0.8406865221182468
1687104056.656389,-0.8134784698486328,0.41416728496551514,0.408311128616333,-0.010068833827972412,0.05102744698524475,-0.0547652542591095,-0.008907932788133621,0.02174745686352253,0.02678527683019638,-2.0359885946666023,-0.42702774483741546,0.8401713747202442
1687104056.734936,-0.8145599365234375,0.4169349670410156,0.40330734848976135,-0.012740910053253174,0.054500579833984375,-0.04797619581222534,0.11156623065471649,0.10972589254379272,0.03222225233912468,-2.030534690949063,-0.43007060084198745,0.8423433124284155
1687104056.739702,-0.8164034485816956,0.42094650864601135,0.39533430337905884,0.019345462322235107,0.047589898109436035,-0.04711368680000305,0.028293179348111153,0.1579703837633133,0.06337203085422516,-2.0217557435991256,-0.4344885381010267,0.8458994570040819
