Timestamp,gravityX,gravityY,gravityZ,accelerationX,accelerationY,accelerationZ,rotationRateX,rotationRateY,rotationRateZ,attitudeRoll,attitudePitch,attitudeYaw
1687104097.6568851,-0.2667017877101898,0.9120180606842041,-0.31159770488739014,0.008019417524337769,0.0014797449111938477,-0.008958995342254639,-0.0032913254108279943,-0.0038718869909644127,-0.00947749987244606,-0.707919184571913,-1.1481778264811058,-2.6718924827243478
1687104097.661648,-0.26647305488586426,0.9124924540519714,-0.3104023337364197,0.001229405403137207,-0.011049091815948486,-0.0029064416885375977,-0.01411137543618679,-0.0038286906201392412,-0.006141846999526024,-0.7093944771187544,-1.149335883251924,-2.6731389184031817
1687104097.7477632,-0.26616862416267395,0.9129083156585693,-0.30943915247917175,-0.007742017507553101,0.021951794624328613,-0.00203859806060791,-0.0053702956065535545,-0.020782213658094406,-0.007060081698000431,-0.7103656646911999,-1.150353588961511,-2.6732872276437196
1687104097.8372622,-0.26594454050064087,0.913291335105896,-0.3085005283355713,-0.01103314757347107,0.006157517433166504,-0.00995054841041565,0.003366097342222929,-0.03419847413897514,0.031664811074733734,-0.711451323918098,-1.1512929322529881,-2.6727960284626002
1687104097.8434439,-0.26504215598106384,0.9139897227287292,-0.30720585584640503,-0.0034821033477783203,-0.020679235458374023,0.0036016106605529785,-0.05160580575466156,-0.03907205909490585,0.052171990275382996,-0.711850279359737,-1.1530108690163754,-2.6713312970247314
1687104097.926077,-0.26385971903800964,0.9148113131523132,-0.3057747483253479,0.0016678273677825928,-0.009400725364685059,-0.01035696268081665,-0.03950493782758713,-0.04989674314856529,0.046549394726753235,-0.7119482024581909,-1.1550405164958975,-2.669200291407759
1687104097.9317951,-0.262826532125473,0.9157760739326477,-0.3037700951099396,0.009164303541183472,0.02312755584716797,-0.006075024604797363,0.006747353821992874,-0.031066276133060455,0.019065216183662415,-0.7132612791018014,-1.1574357825803914,-2.6684861254125347
1687104098.016453,-0.2621792256832123,0.9159334897994995,-0.3038548231124878,0.002276182174682617,0.0004786849021911621,-0.00702783465385437,0.03846810385584831,-0.029294954612851143,0.005718497093766928,-0.7119034098974367,-1.1578277444917109,-2.664989616209794
1687104098.030816,-0.2615237832069397,0.9165071845054626,-0.30268797278404236,-0.005856126546859741,0.0027584433555603027,-0.00010752677917480469,0.0012805229052901268,-0.03130830451846123,0.003994166851043701,-0.7125684618712583,-1.1592595328610138,-2.6639576505927907
1687104098.0756888,-0.26111623644828796,0.9166663885116577,-0.30255743861198425,-0.012794435024261475,0.020116329193115234,0.00020444393157958984,0.014738913625478745,-0.021402625367045403,0.013818323612213135,-0.7120103258551189,-1.1596578129387307,-2.6616795759916174
1687104098.0795379,-0.2608112096786499,0.9166580438613892,-0.30284571647644043,-0.009834080934524536,-0.014558553695678711,0.004185318946838379,-0.018120765686035156,-0.015769505873322487,0.020572856068611145,-0.7109612927699868,-1.1596369145434258,-2.6594034543099525
1687104098.133656,-0.2602544128894806,0.9163879156112671,-0.30413928627967834,0.007355153560638428,0.023583829402923584,-0.01005449891090393,0.09516222029924393,-0.0014925124123692513,0.004708226770162582,-0.7077985143775575,-1.1589615613304964,-2.655521679861335
1687104098.197178,-0.26218879222869873,0.91525799036026,-0.3058757483959198,0.0028654634952545166,-0.05943828821182251,0.007596820592880249,-0.05598708242177963,0.015784213319420815,-0.04192265495657921,-0.7086442947428936,-1.156147813717172,-2.6573175411346863
1687104098.2580972,-0.26296091079711914,0.9142900109291077,-0.3080992102622986,0.009512335062026978,0.03144949674606323,-0.011755615472793579,0.16847378015518188,0.03644410893321037,0.01718391664326191,-0.7065191580397265,-1.1537515821078919,-2.6561103538559405
1687104098.316834,-0.2533635199069977,0.9065626263618469,-0.33756664395332336,-0.08243674039840698,0.2014695405960083,0.00025576353073120117,0.8931569457054138,0.013664762489497662,-0.031641967594623566,-0.6438584670611363,-1.1350673516001186,-2.5882093239516997
1687104098.407824,-0.24875232577323914,0.9021478295326233,-0.35249316692352295,-0.0762142539024353,-0.18893694877624512,-0.016494929790496826,0.001701409462839365,0.0656217560172081,0.043066710233688354,-0.6145372442147684,-1.1247223488939677,-2.557229731525703
1687104098.413268,-0.2414872646331787,0.8990742564201355,-0.3651701807975769,-0.0006851255893707275,-0.014781773090362549,0.01975691318511963,0.24153488874435425,0.130104660987854,0.19689425826072693,-0.5842784126062122,-1.1176503093779149,-2.53022805177852
1687104098.464745,-0.2343870848417282,0.8944854140281677,-0.38073381781578064,0.03988318145275116,-0.029586970806121826,-0.0034672915935516357,0.13207295536994934,0.16673782467842102,0.08146245777606964,-0.5518251842711803,-1.1072789407604777,-2.5029466876937834
1687104098.559273,-0.22567889094352722,0.8919232487678528,-0.39184436202049255,-0.02943292260169983,0.08479171991348267,-0.0034193992614746094,0.32921579480171204,0.13823838531970978,0.10612080246210098,-0.5225405134355371,-1.1015806426472312,-2.4803360117000715
1687104098.565069,-0.22100305557250977,0.8893986940383911,-0.4001591205596924,0.06142653524875641,-0.041330695152282715,-0.018954068422317505,0.08490495383739471,0.08837047964334488,0.02528851479291916,-0.5045980804004145,-1.096028147305583,-2.4659877923333844
1687104098.6134229,-0.21615593135356903,0.8860977292060852,-0.41000890731811523,0.0006864070892333984,0.06685924530029297,-0.020289063453674316,0.3292931914329529,0.03919243812561035,0.10035601258277893,-0.48516863662138965,-1.0888570449675659,-2.4488550566699994
1687104098.705491,-0.21057099103927612,0.8800641298294067,-0.42561352252960205,-0.022201940417289734,-0.037351906299591064,0.024810820817947388,0.29563918709754944,0.00715679582208395,0.1307622492313385,-0.4594363580502734,-1.0759972953937642,-2.421463533375156
1687104098.711224,-0.2025894671678543,0.8750184774398804,-0.439659059047699,0.03755024075508118,0.004131793975830078,-0.0015946626663208008,0.4292539954185486,0.06811058521270752,0.19761984050273895,-0.4317886294087964,-1.065473997559591,-2.3921719977984885
1687104098.765452,-0.19487662613391876,0.8684834837913513,-0.4558063745498657,0.0034244656562805176,-0.024016499519348145,0.015834331512451172,0.13953815400600433,0.031577929854393005,0.10995452851057053,-0.40402225340295084,-1.05213486752996,-2.3628423818500766
1687104098.859523,-0.19226232171058655,0.8694896101951599,-0.45499762892723083,0.009004145860671997,-0.03007328510284424,0.007518351078033447,-0.12205307930707932,0.03092406876385212,0.0071720280684530735,-0.39979936575145825,-1.0541680518962917,-2.3597321095287955
1687104098.8655019,-0.18912231922149658,0.868627667427063,-0.4579504728317261,-0.004527106881141663,0.07605904340744019,-0.002605646848678589,0.251704603433609,-0.01534100342541933,0.11378087103366852,-0.39164184094521776,-1.0524257959049155,-2.351286242181849
1687104098.914299,-0.18745923042297363,0.8673771619796753,-0.460994154214859,0.011983022093772888,-0.0784522294998169,-0.011189103126525879,-0.13188029825687408,0.010581301525235176,-0.00038810912519693375,-0.3862184160464124,-1.0499074522004503,-2.3434537117578977
1687104099.00745,-0.18533745408058167,0.8687524199485779,-0.45925942063331604,0.0019876956939697266,0.03887069225311279,0.007812798023223877,0.02659860998392105,0.011892801150679588,0.055209219455718994,-0.3835691966526197,-1.052677628639765,-2.3418376334285984
1687104099.013309,-0.18420515954494476,0.8691136240959167,-0.45903146266937256,0.008011788129806519,-0.013156712055206299,0.002488374710083008,-0.0509333573281765,-0.0008511701016686857,-0.004680903162807226,-0.38161875040979276,-1.053407443606769,-2.33954511587914
1687104099.064414,-0.1850043535232544,0.8698081970214844,-0.45739153027534485,0.001120537519454956,0.016834139823913574,-0.0019133687019348145,-0.06819655001163483,-0.016383152455091476,-0.05338805168867111,-0.38435988438266094,-1.0548134103832123,-2.3423722378753364
1687104099.157206,-0.1892697662115097,0.8728182315826416,-0.4498503804206848,-0.00230446457862854,-0.009994864463806152,-0.02466750144958496,-0.14926733076572418,-0.02649512141942978,-0.09649854898452759,-0.3982563231373052,-1.0609473289795361,-2.3568518011430455
1687104099.162967,-0.19516508281230927,0.8758572340011597,-0.4413439929485321,0.021214738488197327,0.045361459255218506,0.0008837282657623291,-0.3149614930152893,-0.08864211291074753,-0.15517480671405792,-0.41635377544348984,-1.067209315309828,-2.374251844524569
1687104099.214304,-0.20402705669403076,0.8832104206085205,-0.422270268201828,0.03987288475036621,-0.03515756130218506,-0.03497469425201416,-0.33982589840888977,-0.038598284125328064,-0.09969624876976013,-0.4500907398535087,-1.0826643170540953,-2.4089459636115245
1687104099.307414,-0.21148374676704407,0.8896837830543518,-0.40464478731155396,0.012158036231994629,0.05956536531448364,-0.05821537971496582,-0.84521484375,-0.22377201914787292,-0.2793062627315521,-0.48159551711210674,-1.0966521244588117,-2.4381888996889103
1687104099.3132339,-0.2273315042257309,0.9009004831314087,-0.3697274625301361,0.08708786964416504,-0.3718785047531128,0.002478867769241333,-0.7179972529411316,-0.0008799853385426104,0.19252653419971466,-0.5512761203872522,-1.121839805683617,-2.507634067783225
1687104099.366897,-0.23994675278663635,0.9043284058570862,-0.35300910472869873,-0.029599830508232117,-0.016694366931915283,0.07001957297325134,-1.1627602577209473,-0.23125194013118744,-0.3614230453968048,-0.5969840089263312,-1.1298037081265957,-2.5528803373812305
1687104099.456849,-0.2529507279396057,0.9175289273262024,-0.3068488836288452,0.01604267954826355,-0.26393425464630127,-0.06622856855392456,-0.8862922787666321,-0.09129180014133453,0.23165613412857056,-0.6894128632167369,-1.161821403008558,-2.648362634435092
1687104099.462603,-0.2583847641944885,0.9167557954788208,-0.3046247065067291,-0.0928269624710083,0.0116194486618042,0.023466140031814575,-0.778891384601593,-0.22016765177249908,-0.0924919843673706,-0.7034521066279992,-1.1598815319512488,-2.658355599217589
1687104099.5149431,-0.2569969892501831,0.9217943549156189,-0.2902545928955078,-0.060920000076293945,0.21905940771102905,-0.02500736713409424,0.4718543589115143,0.013399884104728699,-0.17896884679794312,-0.7247007937139406,-1.172683728755284,-2.6746397515845484
1687104099.606619,-0.25548842549324036,0.9245235919952393,-0.2828100919723511,0.024500727653503418,0.03621530532836914,0.03494623303413391,-0.0828748345375061,-0.04334552586078644,0.03165850788354874,-0.7346860623783426,-1.179783751512833,-2.6823773318845214
1687104099.612834,-0.25280794501304626,0.9248253703117371,-0.28422901034355164,-0.005370885133743286,-0.04388982057571411,-0.024212241172790527,-0.06915736943483353,0.017223436385393143,0.07415388524532318,-0.7269565712540884,-1.1805763062516086,-2.6737986307685375
1687104099.663815,-0.25170907378196716,0.9270514845848083,-0.27788135409355164,-0.01422119140625,-0.0309334397315979,-1.1801719665527344e-05,0.07028089463710785,-0.016926702111959457,0.017012298107147217,-0.7360185128552222,-1.186470692538274,-2.6836872594380328
1687104099.756849,-0.25075289607048035,0.9265305995941162,-0.28047099709510803,0.017217010259628296,-0.07588374614715576,-0.00865262746810913,-0.01443734671920538,-0.024899886921048164,0.07725308835506439,-0.7295137224331724,-1.1850837488739234,-2.675535727510683
1687104099.7628279,-0.24970954656600952,0.9253166913986206,-0.2853664457798004,-0.011093810200691223,-0.07418161630630493,0.019008904695510864,-0.032116688787937164,0.005972168408334255,0.03278995305299759,-0.7188575908848676,-1.181869881026416,-2.664260631866165
1687104099.813921,-0.24943038821220398,0.9255011081695557,-0.2850126624107361,0.009775698184967041,-0.008615851402282715,-0.010290801525115967,-0.026086226105690002,-0.008699985221028328,0.02110828272998333,-0.7189180497785355,-1.1823564625959626,-2.6643327138390958
1687104099.9099689,-0.24939042329788208,0.925585150718689,-0.2847738564014435,-0.005812928080558777,0.025479614734649658,-0.004654884338378906,0.16363193094730377,-0.019409142434597015,-0.016967549920082092,-0.7192540656641873,-1.182578527560863,-2.6635519276620823
1687104099.924257,-0.24943700432777405,0.9259253144264221,-0.28362563252449036,-0.00823831558227539,-0.009299397468566895,-0.02167239785194397,-0.041427046060562134,-0.015911931172013283,0.011137452907860279,-0.721349652232158,-1.183478143019338,-2.6648123279300764
1687104099.96433,-0.24902217090129852,0.9262058138847351,-0.283073365688324,-0.0051894038915634155,-0.054013609886169434,0.011009126901626587,-0.07165978103876114,0.029400689527392387,0.013496015220880508,-0.7214907908524149,-1.1842214399927722,-2.6653327754349205
1687104100.056869,-0.25074660778045654,0.925220787525177,-0.284767210483551,0.0007007718086242676,-0.1369519829750061,0.07085418701171875,-0.08875322341918945,0.15496543049812317,0.018252087756991386,-0.7219545687261123,-1.1816170121929415,-2.6698661693102217
1687104100.06264,-0.22478945553302765,0.9195768237113953,-0.3222544193267822,-0.0553467720746994,0.2952209711074829,-0.28306183218955994,1.885561466217041,0.09612859040498734,0.27419939637184143,-0.6090815895559019,-1.167002141224142,-2.5615655193265154
1687104100.11415,-0.2067667543888092,0.8954426050186157,-0.394245982170105,-0.02860020101070404,-0.38485318422317505,-0.10164949297904968,0.4684409499168396,0.01620376668870449,0.37141886353492737,-0.48302460211221515,-1.1094244741037462,-2.4279731106086664
1687104100.237474,-0.20021827518939972,0.8932402729988098,-0.402535080909729,0.08704367280006409,-0.003973424434661865,-0.05910444259643555,-0.04358622804284096,0.03795987367630005,0.11007828265428543,-0.46156009777433005,-1.1045016337806781,-2.4053986586146396
1687104100.243295,-0.19059936702251434,0.8883472681045532,-0.41774508357048035,0.0675370991230011,0.18307900428771973,0.039372801780700684,0.6657760143280029,0.07158681005239487,0.2030806541442871,-0.42804555118298976,-1.0937331259285241,-2.3733746975733845
1687104100.329118,-0.1805606484413147,0.8770497441291809,-0.4451758861541748,0.007861524820327759,-0.036427974700927734,-0.049025893211364746,0.41943395137786865,0.05635128915309906,0.14674930274486542,-0.38531942319490037,-1.0696861285813626,-2.329275158035583
1687104100.3441238,-0.17532867193222046,0.8694307804107666,-0.4618981182575226,-0.032587721943855286,0.014632821083068848,0.023833483457565308,0.4171116054058075,-0.02520417980849743,0.17124922573566437,-0.3627825513922898,-1.054048985739793,-2.302431382199616
1687104100.4184241,-0.16824303567409515,0.8582194447517395,-0.48492631316185,0.010436519980430603,-0.008701801300048828,0.06199842691421509,0.564998984336853,0.014438517391681671,0.18054431676864624,-0.33395114971740575,-1.0317906170372846,-2.267937180050495
1687104100.4321818,-0.16144463419914246,0.8502923846244812,-0.5009375810623169,-0.028802096843719482,0.013232827186584473,-0.016518592834472656,0.22485338151454926,-0.016525790095329285,0.12908630073070526,-0.311774257103043,-1.01654062844137,-2.2409562297424412
1687104100.505883,-0.1572490632534027,0.8483965396881104,-0.505466103553772,0.02471107244491577,0.014518380165100098,9.489059448242188e-05,0.0022753728553652763,0.020137788727879524,0.046427153050899506,-0.30160633093948785,-1.0129488834814748,-2.2293535266004
1687104100.510788,-0.15556637942790985,0.8498460650444031,-0.5035482048988342,0.03547956049442291,0.0076367855072021484,-0.008964121341705322,-0.019714239984750748,0.028477530926465988,0.0015075290575623512,-0.299638699506605,-1.0156931633562747,-2.2285040551079742
1687104100.565178,-0.15647722780704498,0.8512799143791199,-0.5008366107940674,-0.0012530088424682617,0.016639888286590576,-0.005419552326202393,-0.16224448382854462,-0.01574026420712471,-0.06000813841819763,-0.30282263654344455,-1.018419813608298,-2.2329691874456974
1687104100.6560822,-0.15734265744686127,0.8520219922065735,-0.4993012249469757,0.005944833159446716,0.020872175693511963,0.016772478818893433,-0.028009988367557526,-0.04497857764363289,-0.03939926624298096,-0.3052751754839948,-1.0198356190700777,-2.235477144760621
1687104100.662037,-0.16129133105278015,0.8533521890640259,-0.4957570731639862,0.0035306066274642944,0.0008957386016845703,-0.01347455382347107,-0.12755058705806732,-0.041342511773109436,-0.12187131494283676,-0.3145425434290189,-1.0223818091808432,-2.2435590748824805
1687104100.776288,-0.1675814688205719,0.8572568297386169,-0.48685434460639954,0.004495382308959961,0.019268929958343506,-0.023445427417755127,-0.11100111156702042,-0.025417178869247437,-0.11343297362327576,-0.33150987612458727,-1.0299180908846886,-2.261363470547583
1687104100.7826838,-0.17496860027313232,0.8642764091491699,-0.4716060757637024,0.004192054271697998,-0.013736367225646973,-0.022580385208129883,-0.7975732684135437,0.06983348727226257,-0.24775226414203644,-0.35526432837988986,-1.04371004012634,-2.288776666595488
1687104100.866662,-0.186263307929039,0.8773370385169983,-0.4422505497932434,0.06707678735256195,-0.05897784233093262,0.013844788074493408,-0.2804569900035858,0.021807324141263962,-0.06332778930664062,-0.3986233733729658,-1.0702844023224471,-2.3375443421957605
1687104100.8811688,-0.19628958404064178,0.8893479108810425,-0.41295361518859863,0.02697792649269104,0.0007582306861877441,-0.04525268077850342,-1.1744056940078735,-0.2951447367668152,-0.5070760846138,-0.44371822313880716,-1.0959169552959223,-2.38519486350766
1687104100.956273,-0.2134053111076355,0.905229389667511,-0.36744770407676697,0.03702881932258606,0.06686210632324219,-0.1919395923614502,-0.5773104429244995,-0.06956983357667923,-0.3340020477771759,-0.5261652594074859,-1.131919316669973,-2.4705970382657085
1687104100.9621038,-0.24175484478473663,0.9180814027786255,-0.31413525342941284,0.1174871176481247,-0.049978554248809814,-0.022748321294784546,-1.0655804872512817,-0.20586882531642914,-0.4153924286365509,-0.6559202631854906,-1.1632128752535322,-2.6003039104324372
1687104101.017215,-0.25227952003479004,0.9256385564804077,-0.2820430397987366,-0.0516146719455719,0.051885128021240234,-0.02261406183242798,-0.4047868847846985,-0.04696838557720184,-0.23245856165885925,-0.7297523924592226,-1.1827195429107362,-2.676576569284814
1687104101.1077008,-0.26002857089042664,0.9299098253250122,-0.2601017951965332,-0.0352138876914978,-0.2228480577468872,0.12887606024742126,-0.6731731295585632,-0.1820608526468277,0.4014086425304413,-0.7852574193167796,-1.1941676016103437,-2.7279329670105925
1687104101.113068,-0.26794782280921936,0.9308666586875916,-0.24837720394134521,-0.028439074754714966,-0.04915285110473633,-0.046453267335891724,-0.8487482070922852,-0.010267415083944798,0.13413584232330322,-0.8232836966186888,-1.1967777992050115,-2.7647032104041203
1687104101.2262092,-0.26427677273750305,0.9363763928413391,-0.230990931391716,0.005869090557098389,0.15035438537597656,0.01060815155506134,0.22055907547473907,-0.024388879537582397,-0.0022227386943995953,-0.8525050596279449,-1.212160220617382,-2.793429870078254
1687104101.231976,-0.26022908091545105,0.9381290674209595,-0.2284618318080902,0.0022333264350891113,-0.06042832136154175,-0.005348682403564453,-0.19669440388679504,0.026208624243736267,0.12499478459358215,-0.850311614654277,-1.2171872055194062,-2.7905926365893463
1687104101.317968,-0.26038023829460144,0.9366362690925598,-0.23433813452720642,-0.01777234673500061,-0.15451675653457642,0.04491548240184784,0.276750385761261,0.011251778341829777,-0.06241956725716591,-0.8379898546348952,-1.2129012675400412,-2.7771704650952658
1687104101.4397511,-0.26005953550338745,0.9378747344017029,-0.22969509661197662,0.028064757585525513,0.1355656385421753,-0.03240525722503662,0.02221754938364029,0.056603070348501205,0.06120548024773598,-0.8473181771035819,-1.2164535178102602,-2.78771223852053
1687104101.444083,-0.25813546776771545,0.9378156661987305,-0.23209424316883087,0.007647067308425903,-0.07039940357208252,-6.830692291259766e-05,0.056439805775880814,0.009295793250203133,-0.004367870278656483,-0.838468734296924,-1.2162834456320504,-2.779479819485826
1687104101.449353,-0.25854459404945374,0.9375336766242981,-0.2327766716480255,0.007476359605789185,0.005627095699310303,-0.028057128190994263,-0.036604009568691254,0.009037786163389683,-0.02130180224776268,-0.8377962991090745,-1.2154719539278822,-2.7797665197068993
1687104101.5242229,-0.2597810924053192,0.93793785572052,-0.22975245118141174,0.011810362339019775,0.006123244762420654,0.022904172539711,0.044433798640966415,-0.00035720691084861755,0.0390358604490757,-0.846662720202091,-1.2166355575690102,-2.78886239000848
1687104101.529238,-0.2572409510612488,0.9375655651092529,-0.23408934473991394,-0.04218241572380066,-0.05121314525604248,0.013355612754821777,0.018356818705797195,0.03078973852097988,1.1742115020751953e-05,-0.8324835979644222,-1.2155636567234036,-2.775078942791896
1687104101.616911,-0.2561241090297699,0.9391944408416748,-0.22872263193130493,-0.0033822357654571533,0.04043489694595337,-0.017096564173698425,-0.15908114612102509,0.027608167380094528,0.01173391193151474,-0.8418538387806084,-1.220276795244426,-2.7868045924649083
1687104101.630978,-0.25382471084594727,0.9386602640151978,-0.233430415391922,-0.010533928871154785,-0.00900346040725708,0.0076612383127212524,0.22288939356803894,0.02629975602030754,0.03975702449679375,-0.8272292509011954,-1.2187243958170053,-2.7721049840931244
1687104101.707453,-0.24741199612617493,0.9386151432991028,-0.24039289355278015,-5.5208802223205566e-05,-0.04644918441772461,-0.003930911421775818,0.3133256435394287,0.03022557683289051,0.37617722153663635,-0.7997863252718381,-1.2185937035389032,-2.74515187717011
1687104101.712851,-0.231560617685318,0.929898738861084,-0.2857758700847626,-0.06291888654232025,0.01048499345779419,0.1617218554019928,1.4603760242462158,0.04263979569077492,0.4916193187236786,-0.6809823863782233,-1.1941374828747644,-2.6189325595871757
1687104101.766247,-0.20421293377876282,0.9125416874885559,-0.35435107350349426,-0.24816453456878662,0.14605188369750977,-0.1585426926612854,1.4586007595062256,0.09308922290802002,0.4096642732620239,-0.5228115786041103,-1.1494562682483307,-2.4571496965342625
1687104101.856145,-0.19092318415641785,0.9032838940620422,-0.3842219412326813,0.2482197880744934,-0.2360171675682068,-0.07436579465866089,0.1817876100540161,0.17244476079940796,0.19229017198085785,-0.4611714334164642,-1.127362870816355,-2.3932387025801605
1687104101.86255,-0.18213997781276703,0.8973430395126343,-0.4019954800605774,0.13195370137691498,0.15099668502807617,0.009218961000442505,0.48988503217697144,0.01798611506819725,0.12847232818603516,-0.4254202845364838,-1.1137118366586036,-2.3588475548862817
1687104101.913665,-0.1771600842475891,0.8887776136398315,-0.42271578311920166,0.002034813165664673,-0.051451683044433594,-0.033522069454193115,0.18147575855255127,-0.004205102100968361,0.040706999599933624,-0.3968624921257236,-1.094671200019562,-2.328089842361119
1687104102.0069609,-0.1754908263683319,0.8842496275901794,-0.43278807401657104,-0.02813786268234253,0.010998666286468506,0.0065947771072387695,0.3208334147930145,-0.042579494416713715,0.09255950152873993,-0.3852293469287948,-1.0848848614838378,-2.313211031225813
1687104102.013124,-0.17337051033973694,0.8787800669670105,-0.4446212649345398,0.012542754411697388,0.0011025667190551758,0.00852501392364502,0.22452980279922485,-0.04656864330172539,0.06377782672643661,-0.3717940241999427,-1.073299891814128,-2.294534453588627
1687104102.064334,-0.17369188368320465,0.8750885725021362,-0.45172011852264404,0.013169288635253906,0.0024900436401367188,0.010374844074249268,0.1961158961057663,-0.0710868239402771,-0.005371039267629385,-0.3670839076533611,-1.0656187767395713,-2.2855205153773097
1687104102.184647,-0.1754753589630127,0.8671174645423889,-0.4661712348461151,0.0006247609853744507,0.07669955492019653,-0.021270841360092163,0.3311830461025238,-0.18650801479816437,-0.03241211175918579,-0.36001347602807193,-1.0493857790810304,-2.2708182448811516
1687104102.199296,-0.18232671916484833,0.8640848994255066,-0.46916335821151733,-0.029282301664352417,-0.05439257621765137,-0.005797028541564941,-0.16509972512722015,-0.03659350797533989,-0.09220144897699356,-0.37065852828158674,-1.0433294704325944,-2.275800911910547
1687104102.2760901,-0.18334956467151642,0.863359808921814,-0.4700986444950104,0.006439030170440674,0.06820440292358398,0.05235868692398071,0.10152914375066757,-0.05476073920726776,0.021798642352223396,-0.3718765633807481,-1.041890691939482,-2.2762157282857087
1687104102.2819262,-0.18594805896282196,0.865671694278717,-0.46479639410972595,-0.01049371063709259,-0.06151843070983887,-0.014177024364471436,-0.3706144094467163,0.033008258789777756,-0.12668997049331665,-0.38056109374438446,-1.0464905450551514,-2.2851594925530927
1687104102.3673139,-0.1881677657365799,0.872470498085022,-0.4509856402873993,-0.011508852243423462,0.05077767372131348,-0.01814591884613037,-0.1502722054719925,0.09380316734313965,-0.03193933516740799,-0.3952767439125219,-1.0602353684290813,-2.3053617173568584
1687104102.381432,-0.1922648698091507,0.8777336478233337,-0.43888232111930847,0.009571269154548645,-0.035524964332580566,-0.037924379110336304,-0.7017748951911926,-0.045034024864435196,-0.1493387371301651,-0.4128958206286901,-1.0711115212706523,-2.324851316482906
1687104102.488422,-0.1983652412891388,0.8897842168807983,-0.4110172688961029,0.04715052247047424,-0.02744913101196289,-0.022866487503051758,-0.36937767267227173,0.08812487870454788,-0.040353234857320786,-0.44964736653089726,-1.0968721391470218,-2.3685719472202327
1687104102.494032,-0.20205585658550262,0.8952651023864746,-0.3970813751220703,-0.014100298285484314,0.034696877002716064,0.006791979074478149,-0.7011384963989258,-0.007652724161744118,-0.21324166655540466,-0.470704512324121,-1.1090259221006273,-2.39299194652816
1687104102.577258,-0.2132979780435562,0.9113876223564148,-0.35196083784103394,0.08767223358154297,-0.17472398281097412,-0.04878079891204834,-0.7989550232887268,0.05844788998365402,0.0666133388876915,-0.5448397821570388,-1.1466433340785305,-2.476201948609887
1687104102.592299,-0.2254345566034317,0.9148955345153809,-0.3348809480667114,0.02233998477458954,-0.050546348094940186,0.08160027861595154,-1.0492173433303833,-0.25315260887145996,-0.2274864912033081,-0.5924970495375871,-1.1552490510392317,-2.5249606211993756
1687104102.66552,-0.23553012311458588,0.9233968257904053,-0.3030903935432434,0.015650838613510132,0.11424648761749268,-0.027033627033233643,-0.14505670964717865,-0.011621419340372086,-0.16337858140468597,-0.6606177913187773,-1.1768378235951082,-2.5916931702784134
1687104102.6796222,-0.25579118728637695,0.9247049689292908,-0.2819426953792572,0.0514606237411499,-0.06670331954956055,0.01572251319885254,-1.0777572393417358,-0.19880808889865875,-0.521822988986969,-0.7368036271110967,-1.180259806994324,-2.6673541760070885
1687104102.757897,-0.2532237768173218,0.9307848215103149,-0.26366108655929565,-0.2607075870037079,0.16702383756637573,-0.04038563370704651,0.6589833498001099,0.04804910346865654,-0.6457805037498474,-0.7652081921240171,-1.1965539424372449,-2.6894567728205163
1687104102.763661,-0.2655763626098633,0.9319431781768799,-0.24688272178173065,0.12479865550994873,-0.11864984035491943,0.0718948245048523,-0.575402557849884,-0.13038748502731323,0.07538643479347229,-0.8218603203384662,-1.199735439926214,-2.749551328172721
1687104102.81151,-0.26843497157096863,0.9314054846763611,-0.24581769108772278,-0.00037926435470581055,0.08769834041595459,0.02662503719329834,0.041624054312705994,-0.04384881258010864,-0.059616681188344955,-0.8293507170623349,-1.198255357892853,-2.754205131971848
1687104102.906565,-0.2712711989879608,0.9325234293937683,-0.23835192620754242,-0.00892600417137146,-0.006650865077972412,-0.022603943943977356,0.05036599189043045,-0.007154925726354122,-0.02953656204044819,-0.8499038889089494,-1.2013389396265788,-2.7754221018963916
1687104102.912373,-0.2750431299209595,0.930406928062439,-0.24226851761341095,-0.011684894561767578,-0.009768068790435791,-0.005931004881858826,-0.10782290250062943,-0.018714269623160362,-0.05522956699132919,-0.8486692551830488,-1.1955214520780686,-2.7740675168151716
1687104102.964062,-0.27641651034355164,0.9308055639266968,-0.239154651761055,0.012210458517074585,0.021586894989013672,0.013202428817749023,0.0070243217051029205,-0.05527574568986893,0.02304593287408352,-0.8575457022907247,-1.1966105537715883,-2.7815786164476557
1687104103.0611029,-0.27700841426849365,0.9297634363174438,-0.24250009655952454,-0.0245511531829834,-0.0538022518157959,0.003440558910369873,-0.015941767022013664,-0.0046891579404473305,-0.029767703264951706,-0.8517256417802904,-1.1937698079782588,-2.774005797332773
1687104103.075778,-0.2765648365020752,0.930188000202179,-0.24137520790100098,0.015685170888900757,0.04481792449951172,-0.010593235492706299,0.07603593170642853,-0.011789890006184578,0.004371914081275463,-0.8532354121477563,-1.1949247286657012,-2.7751829946046307
1687104103.11186,-0.275980144739151,0.9297478795051575,-0.24372908473014832,-0.02640339732170105,-0.014632642269134521,-0.015395760536193848,0.07807868719100952,-0.0013451863778755069,-0.013517338782548904,-0.8473746617992259,-1.1937274618042035,-2.7685811373929456
1687104103.207941,-0.27624863386154175,0.9298746585845947,-0.24294009804725647,0.00676301121711731,-0.03700661659240723,0.003758460283279419,-0.07772263139486313,-0.01575395278632641,0.0244127344340086,-0.849465330367735,-1.1940719991235378,-2.770301955847201
1687104103.213636,-0.2755671739578247,0.9298213124275208,-0.24391601979732513,0.0013055503368377686,0.010959208011627197,-0.0021778345108032227,-0.004324791952967644,-0.01058406475931406,0.025371449068188667,-0.8462510601534796,-1.1939270015150136,-2.7661675626795494
1687104103.295546,-0.27535006403923035,0.9299976229667664,-0.2434883415699005,-0.002604156732559204,-0.007695555686950684,-0.0048180073499679565,-0.027432881295681,-0.022816281765699387,0.008966244757175446,-0.8467308432916842,-1.1944063482955212,-2.765787199770518
1687104103.387227,-0.27458834648132324,0.9306614398956299,-0.24180637300014496,-3.94284725189209e-05,0.009539186954498291,0.004333749413490295,0.021672720089554787,-0.0044516040943562984,0.0017939961981028318,-0.8487954830179497,-1.1962165337553374,-2.767133923830525
1687104103.392981,-0.2740411162376404,0.9311556220054626,-0.24052180349826813,-0.01096266508102417,-0.005527019500732422,-0.005419492721557617,-0.013599356636404991,-0.005424243863672018,-0.0006417087279260159,-0.8504475876437968,-1.1975694438566995,-2.768506070312677
1687104103.474983,-0.27317148447036743,0.9319667220115662,-0.23835964500904083,0.00022208690643310547,-0.003103315830230713,0.0026570558547973633,-0.04880906268954277,-0.0028445995412766933,0.017662663012742996,-0.8533475643484153,-1.199800335269268,-2.7713747808497233
1687104103.4806051,-0.27269381284713745,0.9324132800102234,-0.23715676367282867,-0.0054282546043396,0.014562249183654785,-0.008402988314628601,0.0026872046291828156,-0.0014508074382320046,0.016924191266298294,-0.8549865314264756,-1.2010341065566308,-2.7730339885277733
1687104103.566718,-0.27217864990234375,0.9328778982162476,-0.23591837286949158,-0.0008774995803833008,0.010008275508880615,-0.004850134253501892,0.010088928043842316,-0.01948387175798416,0.0243671927601099,-0.856642246154402,-1.2023218189694354,-2.7742782103140406
1687104103.581254,-0.2719899117946625,0.9328346848487854,-0.2363070398569107,0.003374040126800537,-0.0083351731300354,0.006051808595657349,-0.002126299077644944,-0.01701756939291954,0.0206039696931839,-0.8554840125485595,-1.202201806347437,-2.7721513349541906
1687104103.660478,-0.27161461114883423,0.9329032897949219,-0.2364673912525177,2.3305416107177734e-05,0.007175326347351074,-0.002454817295074463,0.03517356142401695,-0.008225196972489357,-0.01247056107968092,-0.8544644333485357,-1.202392335618625,-2.770613837371877
1687104103.665708,-0.2716245651245117,0.9330101609230042,-0.23603422939777374,4.8488378524780273e-05,0.0015600919723510742,-0.0033762753009796143,0.011250545270740986,-0.01267246250063181,-0.01270920131355524,-0.8553904516141415,-1.2026891889696127,-2.771145056475992
1687104103.7765012,-0.27135902643203735,0.9329751133918762,-0.2364773154258728,-0.006564676761627197,0.006142139434814453,-0.003436744213104248,0.008269616402685642,-0.0003855964168906212,-0.004083888605237007,-0.8539773971207105,-1.2025918753497746,-2.76933419310162
1687104103.782892,-0.2709762454032898,0.9331870675086975,-0.23608016967773438,-0.0035142600536346436,-0.00807720422744751,-0.0041696131229400635,-0.03227589279413223,0.0019336442928761244,0.029398193582892418,-0.854110698465242,-1.2031810425700513,-2.7695323638940703
1687104103.866885,-0.27025875449180603,0.9335614442825317,-0.23542086780071259,0.003794431686401367,-0.0015853047370910645,0.0010916143655776978,-0.03026941418647766,-0.0011019334197044373,0.02928370051085949,-0.8541826816238367,-1.2042242943667638,-2.769470927366297
1687104103.880919,-0.2698993682861328,0.9337852597236633,-0.23494531214237213,-0.004163920879364014,0.006186544895172119,-0.0019780397415161133,0.0028321868740022182,-0.0013458256144076586,0.00885104015469551,-0.8545250732693717,-1.204849178158086,-2.7698713571870246
1687104103.9221811,-0.2699645757675171,0.9336859583854675,-0.23526516556739807,0.008627176284790039,0.011794328689575195,0.002492249011993408,0.03806538134813309,-0.008554683066904545,-0.009193496778607368,-0.8539709251388448,-1.2045717346645735,-2.768864415350985
1687104104.014792,-0.2704943120479584,0.9330700039863586,-0.23709294199943542,-0.004942208528518677,0.004475593566894531,-0.0034161508083343506,0.03271908685564995,-0.008098749443888664,-0.037588804960250854,-0.8511076141768518,-1.2028554624838121,-2.765270884038702
1687104104.0298781,-0.27099961042404175,0.9325509667396545,-0.23855380713939667,-0.00570341944694519,0.011037170886993408,-0.0022910237312316895,0.05933881923556328,0.002411735011264682,-0.03643106296658516,-0.8489873103317699,-1.201415234099947,-2.7626600283450826
1687104104.072403,-0.27136823534965515,0.9323861002922058,-0.2387790083885193,-0.006372392177581787,-0.006955862045288086,0.003244251012802124,-0.011317986994981766,0.002553308615460992,-0.02095050923526287,-0.8491935045485062,-1.2009588543257559,-2.7630378282883283
