Timestamp,gravityX,gravityY,gravityZ,accelerationX,accelerationY,accelerationZ,rotationRateX,rotationRateY,rotationRateZ,attitudeRoll,attitudePitch,attitudeYaw
1687089305.755538,-0.9492328763008118,0.31455427408218384,-0.003584660589694977,-0.009736359119415283,-0.04450416564941406,0.016569972038269043,-0.1784195899963379,0.12177611887454987,0.01619577966630459,-1.5670199685243513,-0.31998705789005255,-2.206411945811717
1687089305.761749,-0.9490307569503784,0.3150835335254669,-0.00793655589222908,0.00046813488006591797,0.013529807329177856,0.004091382026672363,-0.1068030372262001,0.12681397795677185,0.01497587375342846,-1.5624337205887555,-0.32054466814763294,-2.2124570439761473
1687089305.843302,-0.9490090608596802,0.3150792717933655,-0.01033263374119997,-0.008678257465362549,0.02841135859489441,-0.003964780829846859,0.048777025192976,0.0834067314863205,-0.041827596724033356,-1.5599089436429043,-0.32054016675705893,-2.214818494153746
1687089305.860468,-0.9489167332649231,0.31519195437431335,-0.014529380947351456,0.0034058690071105957,-0.016043394804000854,0.01983952522277832,-0.08194471895694733,0.13694921135902405,0.024364713579416275,-1.5554859781836121,-0.32065890902819033,-2.2173834261781145
1687089305.899489,-0.9485867023468018,0.3160429298877716,-0.01732233539223671,-0.0009829401969909668,-0.0012846291065216064,0.022861363366246223,-0.1257804036140442,0.09550467133522034,0.02904806099832058,-1.5525371521584383,-0.32155573256905484,-2.221681100978504
1687089306.025731,-0.9484736919403076,0.31651976704597473,-0.014596154913306236,0.005205810070037842,0.026970863342285156,0.011529207229614258,0.04960249364376068,0.022078074514865875,-0.018841922283172607,-1.555408442784372,-0.3220583782935436,-2.2277113767611865
1687089306.042305,-0.9487211108207703,0.3157075047492981,-0.016039393842220306,0.010931074619293213,-0.004977434873580933,0.023302672430872917,-0.013400545343756676,0.13736547529697418,0.019894687458872795,-1.5538916049224947,-0.32120219479022966,-2.2256519760053033
1687089306.108639,-0.9477437734603882,0.3186134397983551,-0.016348207369446754,0.027882933616638184,-0.0005744993686676025,-0.009576437994837761,-0.08844048529863358,-0.10034526139497757,0.05151961371302605,-1.5535484308949858,-0.32426632427559887,-2.2312054602873608
1687089306.122915,-0.9475053548812866,0.3195764720439911,-0.010213673114776611,0.002894878387451172,0.014652013778686523,0.003713490441441536,0.09834238886833191,-0.05162474885582924,0.02538093365728855,-1.5600172022989516,-0.3252824761962142,-2.2298363449965257
1687089306.233598,-0.9471559524536133,0.32055073976516724,-0.011941729113459587,0.000805974006652832,-0.016321003437042236,0.007074238732457161,0.03973250091075897,0.015194974839687347,0.04122161120176315,-1.55818900874934,-0.3263108407765433,-2.2266485271727214
1687089306.23952,-0.9467869400978088,0.3215700685977936,-0.013673362322151661,0.00033015012741088867,-0.0024629831314086914,-0.01237332634627819,0.10451448708772659,-0.02470328100025654,0.0029362551867961884,-1.5563554736298661,-0.32738716781816135,-2.2214649705742198
1687089306.329721,-0.9466615915298462,0.32197320461273193,-0.012854175642132759,-0.010323941707611084,0.002611815929412842,-0.004739165306091309,0.13298197090625763,-0.02129288949072361,-0.0010507632978260517,-1.557218734207618,-0.32781293224798896,-2.216463348619379
1687089306.3469439,-0.9474300146102905,0.3195963203907013,-0.01531510055065155,-0.030597329139709473,-0.02623087167739868,0.0017958888784050941,-0.2187286615371704,0.19898621737957,-0.000580870546400547,-1.5546328462946783,-0.3253034435178918,-2.215061140304572
1687089306.414936,-0.9472947716712952,0.32005149126052856,-0.014135726727545261,0.01537942886352539,0.07368636131286621,-0.056298792362213135,0.060777176171541214,-0.16419070959091187,-0.08127296715974808,-1.555875229240053,-0.3257838224657962,-2.222395646675146
1687089306.42911,-0.9477256536483765,0.318874716758728,-0.011630835011601448,-0.008237600326538086,-0.016750633716583252,0.0029333829879760742,-0.03670506551861763,0.03823462128639221,0.016779964789748192,-1.5585245780252381,-0.3245419836362013,-2.220359832039962
1687089306.500043,-0.947504997253418,0.3194127082824707,-0.014485465362668037,0.003184378147125244,-0.021667927503585815,0.012807131744921207,-0.2927556037902832,0.03141874074935913,-0.1505187600851059,-1.5555095081631838,-0.32510965659765056,-2.22513738305269
1687089306.504678,-0.9485346078872681,0.31650978326797485,-0.010194072499871254,-0.04862731695175171,-0.2657589912414551,0.07246530055999756,-3.161903142929077,0.2799721360206604,0.3140992224216461,-1.5600495601901012,-0.3220478471510892,-2.3195286502246897
1687089306.62725,-0.942493200302124,0.33190253376960754,0.03933604061603546,0.06964468955993652,0.22772884368896484,-0.11840701103210449,-1.9702861309051514,-0.8662738800048828,0.335582435131073,-1.6125082720583577,-0.33831972772570423,-2.4354565743920804
1687089306.644606,-0.9352412819862366,0.3374426066875458,0.10703407973051071,-0.030685842037200928,0.042348653078079224,0.047354452311992645,-1.853447675704956,-0.3471847474575043,0.3454194962978363,-1.6847459744726974,-0.3441988406774726,-2.5401136699777744
1687089306.7445931,-0.9289361834526062,0.3443186283111572,0.13609622418880463,-0.03325247764587402,0.03567099571228027,-0.022662296891212463,-1.4426807165145874,0.1626034826040268,0.21916577219963074,-1.7162690050348581,-0.35151293267308364,-2.634161413183245
1687089306.761214,-0.92839115858078,0.3435152471065521,0.141728475689888,0.02891618013381958,-0.006051927804946899,-0.03732779622077942,-0.6146230697631836,0.20389623939990997,0.24712537229061127,-1.7222870204129457,-0.35065737543203424,-2.6752618293781296
1687089306.865308,-0.924363374710083,0.35536840558052063,0.1388019323348999,-0.029677271842956543,0.03749966621398926,-0.06383536756038666,-0.4851109981536865,0.3138105869293213,0.2720245122909546,-1.7198422478182511,-0.36330817437031,-2.7161728684341524
1687089306.881913,-0.924198567867279,0.3568234443664551,0.13613981008529663,-0.0037646889686584473,-0.005550891160964966,-0.0014808326959609985,-0.29886725544929504,0.13987614214420319,-0.05348363518714905,-1.717050318305853,-0.3648652882764754,-2.7364296662924827
1687089306.922672,-0.9260006546974182,0.3534678816795349,0.1326022744178772,-0.012460649013519287,-0.0127849280834198,0.011929035186767578,-0.2544431984424591,0.21373257040977478,0.0017234296537935734,-1.7130282854214438,-0.3612757231482367,-2.7489512546506627
1687089306.9268842,-0.9261639714241028,0.3538115322589874,0.13052931427955627,0.024827241897583008,0.012872427701950073,-0.0006005764007568359,-0.019149456173181534,0.020432347431778908,0.017307914793491364,-1.7108096049377048,-0.3616431101553416,-2.7606982607493284
1687089306.930009,-0.9273512363433838,0.3525717854499817,0.12535038590431213,-0.017381370067596436,0.02296227216720581,-0.00747622549533844,0.1867215633392334,0.05676420405507088,-0.09937189519405365,-1.705152349345421,-0.3603179366480033,-2.7491983889012803
1687089306.9796581,-0.9283194541931152,0.3511352241039276,0.12217671424150467,0.006673336029052734,-0.009368866682052612,-0.003142833709716797,-0.09856369346380234,0.0654253363609314,0.045456353574991226,-1.7016548734956793,-0.35878324819850343,-2.7498947232841
1687089307.045907,-0.9274603128433228,0.3540170192718506,0.12037161737680435,0.006271958351135254,0.031725138425827026,-0.0003306940197944641,0.059981368482112885,0.03204921633005142,0.04467298090457916,-1.6998611484272959,-0.3618628094840556,-2.7517025138374906
1687089307.103722,-0.9269402623176575,0.3564929664134979,0.11702395230531693,0.02036982774734497,0.016553878784179688,0.047526828944683075,0.13972781598567963,0.0904226154088974,0.12089283019304276,-1.696379502221429,-0.36451154431835925,-2.7469889414128836
1687089307.193565,-0.9218335151672363,0.37238192558288574,0.10749364644289017,0.03236818313598633,0.08246734738349915,0.06930994987487793,0.09395179897546768,0.20456276834011078,0.4963153302669525,-1.6868805937223545,-0.38157420859218955,-2.742161621282364
1687089307.210527,-0.9093821048736572,0.40264949202537537,0.10439381748437881,0.0974312424659729,0.2874140739440918,0.23560263216495514,-0.4943883717060089,0.022436270490288734,0.9829998016357422,-1.6850924319845395,-0.4144094963070115,-2.7558461307861988
1687089307.282498,-0.8782965540885925,0.4574261009693146,0.13912875950336456,0.0429997444152832,0.4799061119556427,0.4887552261352539,-1.2152442932128906,-1.078315019607544,1.757786750793457,-1.7278984484336959,-0.4750985567244361,-2.8089234123867173
1687089307.3741589,-0.7998508810997009,0.5337688326835632,0.2744622528553009,-0.23106342554092407,0.35456740856170654,0.7012152671813965,-2.8376452922821045,-3.2323005199432373,2.7554805278778076,-1.9013483551049442,-0.5630511259415337,-2.9642580897072692
1687089307.391717,-0.6194666028022766,0.5806484818458557,0.5283069014549255,-0.7446842789649963,0.40996718406677246,0.6751537322998047,-1.3428971767425537,-6.831418514251709,2.2205138206481934,-2.2769378144828676,-0.6195249880521756,3.118517465109803
1687089307.461128,-0.3332709074020386,0.6500298380851746,0.6829291582107544,-1.033901333808899,0.15975415706634521,0.5515833497047424,1.644787311553955,-7.175784587860107,2.060187339782715,-2.6875893224251546,-0.7076237392030809,3.0396309997994417
1687089307.475023,0.001962171634659171,0.7121617197990417,0.7020130753517151,-0.9619535803794861,-0.2773166298866272,0.3486310839653015,1.154995083808899,-7.441687107086182,2.6231536865234375,3.138797596744595,-0.7925727059484675,2.8994446264944354
1687089307.614657,0.33857375383377075,0.7537469863891602,0.5632349848747253,-1.1484034061431885,-0.1123436689376831,0.3082098364830017,3.190096855163574,-6.594419956207275,2.8892335891723633,2.6003474994218796,-0.8537453553419603,2.6588599555474013
1687089307.632749,0.5723650455474854,0.763224184513092,0.29981210827827454,-1.2069323062896729,-0.20588165521621704,-0.021262913942337036,3.199066638946533,-4.498978137969971,2.7821712493896484,2.053312157920194,-0.8682884459839043,2.304914539738716
1687089307.672385,0.6963727474212646,0.7086794972419739,0.11330585181713104,-0.9979475140571594,-0.40715062618255615,-0.543344259262085,1.919586420059204,-2.0025925636291504,1.6797794103622437,1.732091474003943,-0.7876247939583287,2.0881862574148884
1687089307.675497,0.7138827443122864,0.6994770169258118,-0.03321954607963562,-0.4721681475639343,-0.6271045804023743,-0.853255033493042,2.9411795139312744,-0.12936022877693176,-0.6307176947593689,1.5242962531544513,-0.7746654770702731,1.8821805410132966
1687089307.678643,0.6789052486419678,0.7341887354850769,0.0073829274624586105,-0.13338828086853027,-0.7167632579803467,0.012789249420166016,-2.9449808597564697,2.2775895595550537,-0.9706352949142456,1.5816706521425339,-0.8244710190232946,1.8707349018113215
1687089307.730402,0.6521826386451721,0.7399512529373169,0.16471074521541595,0.3411339521408081,0.37094950675964355,0.26500722765922546,-1.2271599769592285,-0.3024650812149048,-0.3240797519683838,1.8181764376473997,-0.8329978718034552,2.101711333906968
1687089307.824246,0.6590659022331238,0.7419756054878235,0.12289895117282867,0.0032570958137512207,0.19672977924346924,0.020457372069358826,1.113945484161377,-0.4286580979824066,0.05091680958867073,1.7551533627656946,-0.8360123580761718,2.0486684697395043
1687089307.914093,0.6643580794334412,0.7405657768249512,0.1009504497051239,-0.014837086200714111,-0.0656999945640564,-0.17622195184230804,-0.3284003436565399,-0.2254810780286789,0.24160295724868774,1.7215946439087246,-0.8339119426192747,2.0330355103361355
1687089307.9322171,0.6671721935272217,0.7364370226860046,0.1119917556643486,-0.09858381748199463,0.04319560527801514,-0.032005056738853455,0.22773563861846924,0.48521050810813904,0.0036354013718664646,1.7371061972630797,-0.8277884018150319,2.0375772784359607
1687089308.034596,0.6635215878486633,0.7390785813331604,0.11619852483272552,0.028510332107543945,-0.062397003173828125,0.10708332061767578,-0.0823385939002037,-0.0007226328598335385,-0.0890127494931221,1.744162258464244,-0.8317014459121025,2.0286620147356906
1687089308.0398421,0.663415253162384,0.7376351952552795,0.1255960911512375,0.028128325939178467,0.0015615224838256836,0.0129079669713974,-0.416724294424057,0.0009532943367958069,0.07528029382228851,1.7578994399569894,-0.829561254960184,2.0490787119176233
1687089308.120685,0.6657605171203613,0.7334540486335754,0.13714273273944855,-0.0015148520469665527,0.04581230878829956,-0.06167270243167877,0.11295478045940399,0.10636696219444275,0.04204481840133667,1.773948745237494,-0.8233895272248666,2.066070613688826
1687089308.126359,0.6658201813697815,0.734064519405365,0.13353998959064484,0.012204110622406006,-0.00472491979598999,0.03973887860774994,0.1019754707813263,0.13215626776218414,0.02912890911102295,1.7687347451725075,-0.8242880387039943,2.047172178410426
1687089308.215703,0.6633381843566895,0.736158549785614,0.13436169922351837,0.18662214279174805,0.026399433612823486,-0.027702689170837402,0.13369184732437134,-0.06011197715997696,-0.3016020655632019,1.770646290725861,-0.8273769074725467,2.0524812507037704
1687089308.221068,0.6604964137077332,0.7453035116195679,0.09092371165752411,0.8807328343391418,0.043194353580474854,-0.347652792930603,1.3069682121276855,-1.0398539304733276,0.5282766819000244,1.707596175725829,-0.8409899615581401,1.9935302283176728
1687089308.30424,0.6874924302101135,0.7248018383979797,0.044906292110681534,0.6358261108398438,-0.33086568117141724,-0.17250025272369385,-0.9899608492851257,-0.7232140898704529,0.45127567648887634,1.636022628151486,-0.8107467396395643,1.955341859614255
1687089308.30999,0.6874814033508301,0.7230100631713867,0.06801217049360275,0.7489352822303772,-0.379550039768219,-0.05517948418855667,-1.2478922605514526,-0.8289262652397156,-0.7460397481918335,1.6694049332898993,-0.8081495997263114,2.067279162215038
1687089308.396474,0.6196108460426331,0.7822623252868652,0.06440602988004684,0.4044981002807617,-0.7054190635681152,-0.47756826877593994,1.1290150880813599,0.5519550442695618,-3.0942790508270264,1.6743703005561168,-0.8982892290971687,2.0847289154066164
1687089308.414102,0.43063488602638245,0.9015945196151733,0.041001059114933014,-0.15710574388504028,-0.6383804082870483,-0.4652411937713623,1.2477444410324097,2.5699875354766846,-4.814229965209961,1.66572091361143,-1.1234415216900897,1.9814188229839491
1687089308.449778,0.2529107630252838,0.9447067379951477,0.20872379839420319,-2.114879608154297,-0.48898768424987793,0.4547741413116455,-4.808222770690918,7.360194683074951,-1.3965142965316772,2.2607667280967756,-1.2366991057007457,2.4451727787797353
1687089308.543947,0.10259386152029037,0.9703808426856995,0.2187138944864273,-0.4609465003013611,1.2031116485595703,0.37889671325683594,3.5812528133392334,1.720814824104309,-2.306187868118286,2.70298727251026,-1.3268022570458375,2.6650822120458506
1687089308.561125,0.032100435346364975,0.9868221879005432,0.1585925668478012,0.13635662198066711,-0.4326382279396057,0.42563605308532715,0.4989009201526642,-0.1845960170030594,-0.19936920702457428,2.9418826042800412,-1.4082733252011295,2.848580019489557
1687089308.597762,0.08786999434232712,0.9919654726982117,0.09101376682519913,0.05484548211097717,-0.1381598711013794,-0.10879015922546387,1.2296189069747925,-1.842629313468933,1.4731066226959229,2.3737670691967327,-1.4439475477122108,2.359837420240095
1687089308.694649,0.10224197059869766,0.9932912588119507,0.054031822830438614,-0.3642811179161072,-0.25536084175109863,-0.10832249373197556,0.4514809548854828,0.4097834527492523,-0.8764495253562927,2.0569597289041264,-1.4548975279235157,2.0803844304747448
1687089308.71206,0.07312870770692825,0.996986985206604,0.02586587332189083,0.24848082661628723,-0.02358311414718628,-0.2543356418609619,0.5784463286399841,-0.0012184602674096823,0.07268068939447403,1.9107665730063381,-1.4931490980194748,1.92168349094406
1687089308.7472649,0.07395324110984802,0.9968320727348328,0.029270799830555916,-0.12195733934640884,-0.010854899883270264,-0.006718279793858528,-0.5152831673622131,0.14884592592716217,-0.11510605365037918,1.9476780156591542,-1.491177340556077,1.9545055948750978
1687089308.877245,0.0719389021396637,0.9963279962539673,0.046425335109233856,-0.023858405649662018,0.03779059648513794,0.01905011758208275,-0.1084204763174057,0.11586911976337433,0.09878908097743988,2.14389142743889,-1.485073194481138,2.1434919066568745
1687089308.895004,0.07546354085206985,0.9958276152610779,0.051307596266269684,-0.011010363698005676,-0.05069833993911743,0.040397755801677704,-0.1308402568101883,-0.048034969717264175,0.016112422570586205,2.1679040165424137,-1.4794146917456938,2.1672570764105075
1687089308.9606528,0.0814955085515976,0.995228111743927,0.053661756217479706,-0.01472301036119461,0.025767982006072998,0.035373326390981674,-0.12519818544387817,-0.44636404514312744,0.23944318294525146,2.1530977427068962,-1.4730652958742052,2.16160055023607
1687089308.9745932,0.10102156549692154,0.9929414391517639,0.0621456503868103,-0.10138773918151855,0.03682851791381836,0.029758095741271973,-0.18420247733592987,-0.6295552253723145,0.45888566970825195,2.1222971491594897,-1.4519106539929199,2.1623572680268466
1687089309.05024,0.130658820271492,0.9897426962852478,0.057774052023887634,-0.07925188541412354,-0.014721274375915527,-0.0014690160751342773,0.0014342749491333961,-0.8744585514068604,0.7649515867233276,1.9871238930967878,-1.4274442172907624,2.0592182488410162
1687089309.054397,0.19681687653064728,0.9780475497245789,0.06845502555370331,-0.3018888235092163,-0.04977917671203613,0.12351583689451218,-1.1689478158950806,-2.036245822906494,1.682294487953186,1.9055194647114004,-1.3608762037992477,2.0546421592717463
1687089309.144425,0.273677796125412,0.9522583484649658,0.1352938562631607,-0.5114860534667969,0.1299406886100769,0.0704709142446518,-1.586409330368042,-1.6610406637191772,1.1178745031356812,2.0299173396570107,-1.2605497762709834,2.275231010989646
1687089309.162559,0.3625631630420685,0.9256529808044434,0.10823297500610352,-0.395354300737381,0.16026920080184937,-0.05687189847230911,0.902366578578949,-2.452672243118286,2.1448349952697754,1.8608963430605472,-1.1827577442240387,2.2063770406561583
1687089309.230257,0.45860013365745544,0.8869485855102539,0.05484854429960251,-0.6971254348754883,-0.2104349136352539,0.31955647468566895,-0.4679732024669647,-1.4082603454589844,1.679809331893921,1.6898308454709678,-1.0906959689097213,2.1247078035090605
1687089309.324081,0.518430769443512,0.8550546169281006,0.010546369478106499,-0.3788280487060547,0.16108918190002441,0.22782647609710693,1.3020390272140503,-1.4557710886001587,1.163470983505249,1.5911363913088725,-1.02565610713788,2.093457774911979
1687089309.342885,0.5487830638885498,0.8303290009498596,-0.09690824896097183,-0.3146215081214905,0.014031469821929932,0.22457854449748993,1.8895424604415894,1.1246057748794556,0.2359851747751236,1.3960107029174302,-0.9796977633319143,1.8996183777165716
1687089309.410372,0.5677526593208313,0.8218657374382019,-0.04683537781238556,0.6643640398979187,-0.23626399040222168,-0.002404686063528061,-0.6402148604393005,2.304466962814331,0.5449093580245972,1.4884901147871932,-0.96467838444391,1.8640302314781785
1687089309.4249969,0.5812205076217651,0.8116629123687744,0.05819105729460716,0.6081563830375671,-0.22067463397979736,-0.17289137840270996,0.018708283081650734,3.973522186279297,-0.20065400004386902,1.6705825284475744,-0.9469933806197778,1.906358005168851
1687089309.4985008,0.5413727164268494,0.8286031484603882,0.14259134232997894,1.3057494163513184,-0.44823217391967773,-0.36416423320770264,-0.8856326341629028,0.2999233901500702,-0.9234666228294373,1.8283356895298826,-0.976607966160627,1.9471487555814813
1687089309.512508,0.5369060635566711,0.8311864137649536,0.14443352818489075,0.40685009956359863,0.4123438000679016,-0.09473563730716705,0.3154886066913605,-1.0323398113250732,0.6378864049911499,1.833585959936832,-0.9812381620990351,2.00129224992889
1687089309.593838,0.5763956904411316,0.8098759055137634,0.10894470661878586,0.006932556629180908,0.0633540153503418,0.024646036326885223,0.693181037902832,-0.06962452083826065,1.0638216733932495,1.757602860424861,-0.9439405522166202,1.9282619058676778
1687089309.608159,0.617686927318573,0.7821383476257324,0.08199188858270645,-0.12673532962799072,-0.20573759078979492,-0.007055997848510742,-0.13181374967098236,-0.7258659601211548,0.5253398418426514,1.702765043374418,-0.8980902671251046,1.8918177398539813
1687089309.6808472,0.6187776923179626,0.7818666696548462,0.07614810764789581,-0.25636619329452515,0.03933072090148926,0.03093814104795456,0.020292118191719055,0.14193980395793915,-0.3246056139469147,1.6932428246361062,-0.8976543650445319,1.899505213240324
1687089309.8107982,0.6099414229393005,0.7888129949569702,0.07580050826072693,-0.02635371685028076,0.07851183414459229,-0.043253421783447266,0.1457861214876175,0.2153618335723877,0.004626141861081123,1.694437468364814,-0.9088753301571042,1.8933204258612406
1687089309.828269,0.6041494607925415,0.7916969656944275,0.09066066145896912,-0.0674978494644165,-0.08617639541625977,-0.09975481778383255,-0.2877451181411743,0.7058815956115723,-0.20311908423900604,1.7197481765025755,-0.9135817728528571,1.8956529405445444
1687089309.831167,0.5900512337684631,0.7951955199241638,0.1396559774875641,0.02254343032836914,-0.10336196422576904,-0.1559218168258667,-1.0139702558517456,0.7789220809936523,-0.26101577281951904,1.8032040154029816,-0.9193299224333384,1.9545252862833438
1687089309.890383,0.5658359527587891,0.798507034778595,0.20546606183052063,-0.09009736776351929,-0.16162043809890747,-0.24356722831726074,-0.4276617765426636,1.755494236946106,-0.5346702337265015,1.9191107465322765,-0.924811089879458,2.024583350901641
1687089309.903532,0.5046401619911194,0.8222034573554993,0.2632873058319092,-0.055268704891204834,-0.4080340266227722,-0.26905497908592224,0.22476345300674438,2.1731574535369873,-1.2516953945159912,2.0516786153581132,-0.9652715075376563,2.062754219070095
1687089309.979579,0.40533822774887085,0.8550728559494019,0.3233442008495331,-0.11128601431846619,-0.5417945384979248,-0.23931404948234558,-1.1287611722946167,2.499079942703247,-1.977534532546997,2.2441421365249647,-1.0256913572898523,2.1538303994148134
1687089310.074703,0.25385555624961853,0.8463984131813049,0.4681534171104431,-0.15201830863952637,-0.5328911542892456,-0.25614768266677856,-3.3483378887176514,3.1772303581237793,-2.21990704536438,2.644720058590662,-1.0091855835204029,2.460273215105589
1687089310.094305,0.06764544546604156,0.7411507368087769,0.667921781539917,-0.31952226161956787,-0.2700052261352539,-0.30622750520706177,-4.89381742477417,4.953497886657715,-1.3665472269058228,3.0406593114918814,-0.8347828250146521,2.706871302203961
1687089310.194005,-0.1954285055398941,0.5580747723579407,0.8064494729042053,-0.6348327398300171,-0.1414639949798584,-0.1081002950668335,-3.525845766067505,6.376659870147705,-1.2926552295684814,-2.903843858925164,-0.5920638365432859,2.765318677761977
1687089310.2122478,-0.45868250727653503,0.48367440700531006,0.7454325556755066,-0.41604283452033997,0.03451406955718994,-0.20316553115844727,0.3945534825325012,4.906853675842285,-1.5727128982543945,-2.5899816697515043,-0.5048480039347756,2.832828198587514
1687089310.2805161,-0.6738472580909729,0.45209845900535583,0.58441162109375,-0.8824729323387146,-0.001277536153793335,0.5300903916358948,0.6332495808601379,5.379784107208252,-1.7241801023483276,-2.2852349498963833,-0.4691165529481587,2.927930442270166
1687089310.294599,-0.8265606760978699,0.41409626603126526,0.3812117278575897,-0.7867971062660217,0.319592148065567,0.5394885540008545,1.5106576681137085,4.255927562713623,-1.7198333740234375,-2.0029269971418864,-0.4269497324774248,3.0302924597194134
1687089310.4079351,-0.9127697944641113,0.35871806740760803,0.19537852704524994,-0.17406803369522095,0.6125496625900269,0.7036389112472534,0.9374497532844543,2.727022886276245,-1.4900175333023071,-1.7816644512451432,-0.3668941941500506,3.120043338593024
1687089310.4261389,-0.9371638298034668,0.3303541839122772,0.11220545321702957,0.2920680046081543,0.4761490821838379,0.4069443941116333,0.4176306426525116,0.64335697889328,0.04398577660322189,-1.689957840571854,-0.33667880573855175,-3.115893615349304
1687089310.496028,-0.9352290034294128,0.3455706834793091,0.07699047029018402,0.003618955612182617,0.27677425742149353,0.35611510276794434,0.49223265051841736,0.4540236294269562,0.3364314138889313,-1.652933700270785,-0.3528468695611916,-3.0991146110673236
1687089310.510855,-0.931473433971405,0.3577190637588501,0.0662919282913208,0.028656482696533203,-0.0818706750869751,0.30268096923828125,0.26812028884887695,-0.1984449177980423,0.1338145136833191,-1.641845425050252,-0.3658241910289824,-3.0797818139704454
1687089310.513792,-0.9282032251358032,0.36332985758781433,0.08018723875284195,-0.023258447647094727,-0.18088054656982422,0.14471209049224854,-0.32570284605026245,-0.31495848298072815,0.11557886749505997,-1.656972114533211,-0.37183953290932537,-3.086482915804738
1687089310.611664,-0.925916314125061,0.3644603192806244,0.09923716634511948,0.013852536678314209,-0.00040084123611450195,0.029638662934303284,0.054493390023708344,-0.42580169439315796,-0.017787842079997063,-1.6775660019123193,-0.373053180793918,-3.0969204988536125
1687089310.6759272,-0.9228011965751648,0.3674485683441162,0.11584285646677017,-0.01497352123260498,0.02209305763244629,-0.029920578002929688,0.12638531625270844,-0.24470360577106476,0.11439695954322815,-1.6956769985543674,-0.3762641870514169,-3.0891427315797255
1687089310.693322,-0.9196338653564453,0.37328529357910156,0.12219619005918503,-0.01817142963409424,0.041448622941970825,-0.12831483781337738,0.021318979561328888,-0.2138964831829071,0.11263072490692139,-1.7028973391289848,-0.38254777644351984,-3.089809292866733
1687089310.696445,-0.91584312915802,0.3788749575614929,0.13298599421977997,-0.010533273220062256,-0.011580616235733032,-0.08751475811004639,0.017382828518748283,-0.16253741085529327,0.08894634991884232,-1.7149945911478088,-0.38858030825478945,-3.0914071937075827
1687089310.729147,-0.9157688021659851,0.38171884417533875,0.12513278424739838,-0.023821651935577393,-0.051213473081588745,-0.02340233325958252,0.03901723027229309,0.13811492919921875,0.016417264938354492,-1.7065976392430093,-0.39165525556247144,-3.0866334867588754
1687089310.791367,-0.9164708256721497,0.3828694820404053,0.11615650355815887,0.017285585403442383,-0.03199362754821777,-0.007605314254760742,0.019009754061698914,0.012704972177743912,0.034139469265937805,-1.6968673954416216,-0.39290046232103093,-3.0819635529642837
1687089310.852058,-0.9178621172904968,0.3810882568359375,0.1109093576669693,-0.0016324520111083984,0.002410888671875,0.026038408279418945,0.033069808036088943,0.09033287316560745,-0.00941271148622036,-1.6910477620700248,-0.3909730908953428,-3.0801504766339036
1687089310.91224,-0.9188380837440491,0.3798063397407532,0.10716334730386734,-0.015182971954345703,0.003845393657684326,0.015700459480285645,0.04482659697532654,0.06774047017097473,-0.02045752853155136,-1.6869009859588115,-0.3895869426613886,-3.078620570666152
1687089311.068005,-0.9184002876281738,0.38024958968162537,0.1093219742178917,0.022495746612548828,0.003631025552749634,0.02428412437438965,-0.07313061505556107,-0.008367981761693954,0.031337469816207886,-1.689274050285627,-0.3900661372520591,-3.079756012743
1687089311.0738459,-0.9171419143676758,0.3827434778213501,0.1111690104007721,-0.0071593523025512695,0.018791615962982178,0.020972266793251038,-0.0024963910691440105,0.08531004190444946,0.026729024946689606,-1.6914203081533292,-0.3927640655804605,-3.0822866215702036
1687089311.12322,-0.9165356159210205,0.38414815068244934,0.1113223284482956,0.014329254627227783,-0.004005938768386841,0.017675630748271942,-0.004224303178489208,-0.015471325255930424,-0.01739558018743992,-1.6916641844057225,-0.39428501203310456,-3.082293914576895
1687089311.128017,-0.9162007570266724,0.3841777741909027,0.1139465868473053,0.0037251710891723633,-0.004279673099517822,0.02225351333618164,0.02466774545609951,0.032343704253435135,-0.004886825103312731,-1.6945295639896443,-0.3943170951106661,-3.0830145059927516
1687089311.131695,-0.9166679382324219,0.38313403725624084,0.11370278149843216,0.007061004638671875,0.010191738605499268,0.02960789203643799,0.034622374922037125,-0.015469620935618877,-0.02001602202653885,-1.694205214754914,-0.3931868634426554,-3.0820674629498126
1687089311.209641,-0.9162595868110657,0.38259413838386536,0.11870245635509491,0.014495551586151123,0.016789495944976807,0.030971065163612366,-0.010766145773231983,-0.07205593585968018,-0.0013841912150382996,-1.6996298821822888,-0.3926024217557205,-3.0816804204343864
1687089311.428587,-0.9155080914497375,0.382968932390213,0.12320560216903687,0.0020560026168823242,0.026546359062194824,0.009713873267173767,0.03395610675215721,-0.052449848502874374,0.003521085251122713,-1.7045688213148007,-0.39300813398421075,-3.083190914133123
1687089311.447037,-0.913906455039978,0.38499173521995544,0.12867173552513123,-0.003940224647521973,0.019625604152679443,0.009038925170898438,0.12568920850753784,-0.1191985234618187,0.01911422610282898,-1.710670044293273,-0.3951988585736705,-3.0804435198665745
1687089311.5458589,-0.9124600887298584,0.3879077136516571,0.13017036020755768,-0.004059135913848877,0.009187042713165283,0.007403016090393066,0.10512711852788925,-0.058470774441957474,0.017109176144003868,-1.712498892675887,-0.3983604843800111,-3.0715315639075595
1687089311.562971,-0.9111849665641785,0.39079028367996216,0.13048051297664642,-0.0011991262435913086,0.01339980959892273,-0.004900574684143066,0.11426490545272827,-0.04399905353784561,0.02944103255867958,-1.713028106392165,-0.4014899949314748,-3.0672801723198724
1687089311.5666351,-0.9096004962921143,0.3937113583087921,0.1327340006828308,-0.004141569137573242,-0.013309776782989502,-0.005155205726623535,0.004632358439266682,-0.08997602760791779,0.051422011107206345,-1.715699160234938,-0.4046655610148274,-3.0635736227743235
1687089311.569989,-0.9083153605461121,0.3958125710487366,0.13526181876659393,-0.014353156089782715,-0.00862082839012146,-0.0014727115631103516,0.027139529585838318,-0.02091972529888153,0.013555698096752167,-1.718625018423322,-0.40695251259314424,-3.0635371388179444
1687089311.631166,-0.9081526398658752,0.3964565694332123,0.13446614146232605,0.006388664245605469,-0.00882229208946228,-0.014394640922546387,0.08604124933481216,-0.05330280587077141,0.017889704555273056,-1.7177938779117434,-0.4076538985644928,-3.060778376767534
1687089311.643923,-0.9081085324287415,0.3971123695373535,0.1328187733888626,-0.01089787483215332,-0.010088413953781128,0.00977468490600586,0.0038847560063004494,0.049649085849523544,0.015262185595929623,-1.7160253111440418,-0.40836833641418113,-3.055032826272156
1687089311.646545,-0.9080025553703308,0.3979174494743347,0.13112317025661469,0.00466686487197876,0.012849211692810059,0.0014910846948623657,0.04786558076739311,-0.023046795278787613,0.012481113895773888,-1.7142132570638438,-0.4092457228844891,-3.053579274754805
1687089311.7514338,-0.9077737927436829,0.3982403874397278,0.13172389566898346,-0.0014821290969848633,0.007658630609512329,-0.0015511661767959595,-0.0011127721518278122,0.006061876192688942,0.015640176832675934,-1.7148970772427867,-0.4095977674377743,-3.052688442115819
1687089311.8736749,-0.907360851764679,0.3995474874973297,0.1306067258119583,0.00831305980682373,0.009937316179275513,-0.0032568126916885376,0.04988569766283035,0.0048682475462555885,0.025154918432235718,-1.713755720424784,-0.4110231821797765,-3.0511662938789343
1687089311.879041,-0.9067057371139526,0.4012373685836792,0.12997592985630035,-0.0006431341171264648,-0.013953953981399536,0.0008683502674102783,0.07016539573669434,0.00406450591981411,0.017240624874830246,-1.713175976872275,-0.41286732821255434,-3.047737305120974
1687089311.968474,-0.9067415595054626,0.4018639326095581,0.12777094542980194,0.005786299705505371,-0.010094493627548218,-0.004998683929443359,0.057288967072963715,0.004064079839736223,0.0025409087538719177,-1.710786824940582,-0.4135514693126437,-3.04434691802111
1687089311.9740648,-0.9067701697349548,0.4021609127521515,0.12662725150585175,0.0005965232849121094,0.0021970272064208984,-0.013193383812904358,0.08640316873788834,-0.007114805281162262,0.008167879655957222,-1.709545514964915,-0.41387580142567276,-3.0414344688709423
1687089311.9790812,-0.9066829681396484,0.40286263823509216,0.12501241266727448,0.0012720227241516113,0.0005035400390625,-0.0015076249837875366,0.024264702573418617,0.0378958135843277,0.015703028067946434,-1.7078112986311467,-0.41464236240369196,-3.037790683864845
1687089312.051536,-0.9066199660301208,0.40349841117858887,0.1234072893857956,0.0004310011863708496,-0.003138303756713867,-0.006356962025165558,0.006965979468077421,0.02894950844347477,0.00783216580748558,-1.7060828787036317,-0.41533710761686093,-3.037690203372467
1687089312.0561929,-0.9069843888282776,0.4036218225955963,0.12028632313013077,0.0004749894142150879,0.0021246373653411865,-0.005555391311645508,0.03907182440161705,0.05719797685742378,-0.003212939016520977,-1.7026491396243333,-0.41547199883697017,-3.0360211712165297
1687089312.1160111,-0.9073354601860046,0.4036698043346405,0.11744371801614761,0.003587961196899414,0.0034956634044647217,0.005633816123008728,0.00857857707887888,0.04186759516596794,-0.00011037895455956459,-1.6995186621272802,-0.41552443229624114,-3.034355231632929
1687089312.20554,-0.9068785309791565,0.4046875834465027,0.1174694150686264,0.03161931037902832,0.04604172706604004,0.058525532484054565,0.04914965480566025,-0.1332726776599884,0.05692461133003235,-1.6996106756590066,-0.41663716148482033,-3.034335537058365
1687089312.210352,-0.9012836217880249,0.4137134850025177,0.12856565415859222,0.0514911413192749,0.1686687171459198,0.16447949409484863,-0.1642860770225525,-0.3245653510093689,0.4496269226074219,-1.712487704601919,-0.42652922344159006,-3.034908853233792
1687089312.26294,-0.88248610496521,0.4422137439250946,0.16020388901233673,0.07790547609329224,0.24580499529838562,0.3349897861480713,-0.6508015990257263,-0.7714419960975647,0.974561333656311,-1.7503776383014418,-0.4580653819708503,-3.0648070747517164
1687089312.3532062,-0.8448454141616821,0.4814312160015106,0.2333678901195526,0.022884845733642578,0.25970351696014404,0.34951797127723694,-0.9218573570251465,-1.7529913187026978,1.1709585189819336,-1.8403015566818306,-0.5022868959399095,-3.123838185390544
1687089312.358934,-0.7817398309707642,0.5172037482261658,0.34840127825737,-0.11387491226196289,0.18010765314102173,0.42744722962379456,-1.3318722248077393,-2.4697177410125732,1.4589130878448486,-1.9900470990641457,-0.5435805607449092,3.0738709571090497
1687089312.504671,-0.6725367307662964,0.5503910779953003,0.49473628401756287,-0.29789167642593384,0.16570383310317993,0.3746485412120819,-0.9672975540161133,-3.9330995082855225,1.7460777759552002,-2.2050351684567695,-0.5828325596203636,2.9600969251689118
1687089312.565837,-0.49071672558784485,0.5981764197349548,0.6335476636886597,-0.5414947271347046,0.21848934888839722,0.3467230200767517,1.1636581420898438,-5.247068881988525,1.4530398845672607,-2.482561455013252,-0.6412235983573487,2.889760106755967
1687089312.583665,-0.2646891176700592,0.6914803385734558,0.672156572341919,-0.6536610126495361,-0.014402210712432861,0.36565470695495605,1.9335973262786865,-5.349205493927002,1.7512626647949219,-2.766450415767035,-0.7635362853534687,2.8588439490372908
1687089312.5866718,-0.017609206959605217,0.7608926296234131,0.6486387848854065,-0.7911370992660522,-0.22179967164993286,0.2716798782348633,1.60525643825531,-4.875103950500488,2.3449363708496094,-3.1144513795919986,-0.8646876201031833,2.734310597918183
1687089312.653893,0.22616180777549744,0.7992072105407715,0.5568830370903015,-0.7940176129341125,-0.24694591760635376,0.09308046102523804,1.6189744472503662,-5.1511712074279785,2.4353384971618652,2.755820826004045,-0.925975104296526,2.524444263234578
1687089312.657871,0.4441310465335846,0.7999076247215271,0.4036026895046234,-0.8637935519218445,-0.24085623025894165,0.17438501119613647,1.6070446968078613,-4.878559112548828,2.0497939586639404,2.308422971579925,-0.927141292424508,2.2846431057287813
1687089312.7115688,0.5813410878181458,0.7826650738716125,0.22243697941303253,-0.7729913592338562,-0.231761634349823,0.0006771385669708252,1.5783501863479614,-4.116231441497803,1.2591595649719238,1.9362371138877215,-0.8989360397510207,2.0992112878821207
1687089312.835772,0.6365364193916321,0.7684179544448853,0.06599675118923187,-0.66294926404953,-0.36846983432769775,-0.19276666641235352,1.561484694480896,-1.7712961435317993,0.5024571418762207,1.6741082201629691,-0.8763652815382504,1.9609716480586086
1687089312.840798,0.6366777420043945,0.7696952819824219,-0.04701759293675423,-0.08089160919189453,-0.37076956033706665,-0.7223915457725525,2.0058035850524902,-1.0791594982147217,-0.10748621821403503,1.4970817983719238,-0.8783636936833171,1.8192597857163475
1687089312.925353,0.624341607093811,0.772406816482544,-0.11655666679143906,0.06126636266708374,-0.26309895515441895,-0.45946258306503296,0.5069945454597473,-0.502530038356781,-0.502048909664154,1.3862335620728379,-0.8826219371226984,1.7264406911186865
1687089312.943266,0.6095105409622192,0.781959593296051,-0.13052335381507874,0.10533326864242554,0.10532379150390625,-0.07833892107009888,0.47915178537368774,0.3969855308532715,-0.056756481528282166,1.3598379692185183,-0.8978033602354554,1.6928918708275982
1687089313.013973,0.6238052845001221,0.7679716944694519,-0.1452122926712036,0.13271021842956543,0.017993271350860596,0.011240184307098389,0.38991957902908325,-0.13635683059692383,0.5504046678543091,1.3420848068100462,-0.8756682899601759,1.6588269916790412
1687089313.018806,0.6422791481018066,0.7516528964042664,-0.14998438954353333,-0.0037446022033691406,-0.1850636601448059,-0.027017518877983093,-0.5730559229850769,-0.3493054509162903,0.280871719121933,1.3413883096118073,-0.8505645808377139,1.672924444476011
1687089313.104072,0.6409986019134521,0.7540661692619324,-0.1431957632303238,-0.05471014976501465,0.05339843034744263,-0.09262877702713013,0.1457819789648056,0.07909006625413895,-0.022121405228972435,1.351010251706499,-0.8542311499502837,1.6996126446892803
1687089313.110084,0.6455471515655518,0.7489932179450989,-0.1492585837841034,0.024679958820343018,0.13592499494552612,-0.030535683035850525,0.2520807683467865,0.0357065349817276,0.33963507413864136,1.3435766352647325,-0.8465412544103249,1.6829129949653563
1687089313.163923,0.6651091575622559,0.7306431531906128,-0.15424104034900665,0.11034250259399414,0.10443979501724243,-0.03768394887447357,0.007698988541960716,4.8139248974621296e-05,0.6313313245773315,1.342920976218283,-0.819263445804122,1.6802937800351834
1687089313.2542639,0.690596878528595,0.7060115337371826,-0.1569192111492157,0.34539860486984253,0.10357397794723511,-0.3102591037750244,0.35114961862564087,-0.18112309277057648,0.8091639876365662,1.3473674085205858,-0.7838504115693771,1.6912769074586302
1687089313.2599812,0.7271917462348938,0.659618616104126,-0.18998804688453674,0.5056421756744385,-0.10187935829162598,-0.31983858346939087,0.600394606590271,-0.07517960667610168,1.1742751598358154,1.3152459221564647,-0.7203111887007577,1.6523888774684568
1687089313.312444,0.7458948493003845,0.640252411365509,-0.1836235523223877,0.6372381448745728,-0.5937590003013611,-0.1914374679327011,-1.1207950115203857,-0.3822811245918274,0.055297862738370895,1.329417228589319,-0.694826819489363,1.6907485281536478
1687089313.404944,0.7246025800704956,0.6698934435844421,-0.1618449091911316,0.5217964053153992,-0.4541952610015869,-0.12831620872020721,-0.15234731137752533,0.3221109211444855,-1.2078930139541626,1.3510464509650686,-0.7340652773401263,1.7356475172210153
1687089313.41116,0.6527936458587646,0.7461463212966919,-0.13086746633052826,0.18172484636306763,-0.7349768877029419,-0.14679670333862305,-0.349913626909256,1.1903557777404785,-3.3656394481658936,1.3729460530812267,-0.842254928724777,1.7076622940700852
1687089313.46003,0.47424960136413574,0.8790717124938965,-0.048172347247600555,-0.24181237816810608,-0.8231328725814819,-0.18980371952056885,-0.9885336756706238,1.9325262308120728,-5.137055397033691,1.4695675835398856,-1.0739113308395871,1.7316765073295524
1687089313.5539808,0.30122655630111694,0.9466326832771301,0.11467064917087555,-1.9710873365402222,0.08467841148376465,0.5377953052520752,-4.294374465942383,6.819190979003906,-3.256803274154663,1.934536602862009,-1.2426229690233856,2.053908661722663
1687089313.5601912,0.11891884356737137,0.9665303230285645,0.22732791304588318,-0.316306471824646,1.0700452327728271,0.35354381799697876,1.9997166395187378,1.98886239528656,-2.5967459678649902,2.659623822638104,-1.3113427812504463,2.595684476866623
1687089313.645592,0.03993526101112366,0.9898996949195862,0.13602998852729797,0.42542731761932373,-0.18444907665252686,0.1606772094964981,2.0817275047302246,-0.8387762904167175,0.4374628961086273,2.8560389872801295,-1.42854744826001,2.7548606042773867
1687089313.735364,0.09939078241586685,0.9942117929458618,0.04080050811171532,-0.17240400612354279,-0.19417810440063477,-0.04067837819457054,0.83987957239151,-1.4866279363632202,0.6758436560630798,1.9603266185406192,-1.4631507539917314,1.944229703853155
1687089313.740961,0.08621390908956528,0.9960775971412659,0.019912827759981155,-0.204576313495636,-0.11592018604278564,-0.1562652587890625,0.4343428313732147,0.436613529920578,-0.7115765810012817,1.7977858108646154,-1.4821966151890638,1.7930938328922084
1687089313.827215,0.06643904000520706,0.9977719187736511,-0.0061153993010520935,0.16933980584144592,0.0437626838684082,-0.19391202926635742,0.25579389929771423,0.23001816868782043,-0.009447799064218998,1.4790096849828187,-1.5040295086079867,1.4636865239409251
1687089313.844832,0.06328224390745163,0.9976637363433838,0.02574005350470543,-0.07234591245651245,0.05423140525817871,0.03801131248474121,-1.0200152397155762,0.26274192333221436,-0.06014762073755264,1.9571080854782363,-1.502427291161944,1.9274278976106176
1687089313.9172158,0.06648601591587067,0.9966335892677307,0.047967638820409775,0.00709187239408493,0.14295369386672974,0.04047238081693649,0.29515692591667175,-0.0941849946975708,0.1726210117340088,2.1957865378567982,-1.4887196497698763,2.1612822419182462
1687089313.9220319,0.07348468154668808,0.9971444606781006,0.017403917387127876,0.0026109516620635986,-0.017911672592163086,0.12055087089538574,0.5652626156806946,-0.04252169281244278,0.05462000146508217,1.803348763906551,-1.495206956709919,1.7696965517954975
1687089314.002627,0.08661209046840668,0.9962124824523926,0.0076876054517924786,0.025067001581192017,0.013476848602294922,0.07226848602294922,-0.17952746152877808,-0.7744830250740051,0.5482638478279114,1.6593233663519367,-1.4837340129772743,1.6417237591926674
1687089314.007618,0.13477051258087158,0.990664005279541,0.020539967343211174,-0.1959581971168518,0.14695501327514648,-0.00474703311920166,-0.4327734112739563,-1.4036157131195068,1.3161425590515137,1.7220394538255104,-1.4340442757445737,1.7626634536940355
1687089314.059967,0.21778301894664764,0.9756875038146973,0.024585697799921036,-0.35515785217285156,0.11819982528686523,0.016155242919921875,-0.18179115653038025,-2.01043963432312,1.9674264192581177,1.6832111777210297,-1.349836218705306,1.8095416777065774
1687089314.151706,0.33246442675590515,0.9430980682373047,-0.005759687162935734,-0.6321165561676025,-0.08074778318405151,0.08122968673706055,-0.009438399225473404,-2.2845661640167236,2.5192513465881348,1.5534738400849755,-1.2318276128999175,1.7930976658813498
1687089314.1578388,0.43149638175964355,0.9019129276275635,-0.019078386947512627,-0.7274100184440613,-0.15475106239318848,0.20602911710739136,-0.603209912776947,-1.7345621585845947,1.7932301759719849,1.5266106298374602,-1.1241781277434897,1.8698982684682142
1687089314.2152948,0.5108409523963928,0.8570610284805298,-0.06699400395154953,-0.47510474920272827,0.028269290924072266,0.18532592058181763,0.5962054133415222,-1.6956483125686646,2.1140170097351074,1.440395959598932,-1.0295379634645714,1.8696333194635055
1687089314.303035,0.5782307982444763,0.8109493851661682,-0.08950034528970718,-0.4149007201194763,-0.09625822305679321,0.45098114013671875,-0.8394540548324585,0.007240964565426111,1.2859898805618286,1.417231868512506,-0.945772803978445,1.905616126836159
1687089314.309482,0.6253473162651062,0.7766609787940979,-0.07575380057096481,0.20033633708953857,0.0261649489402771,0.11229860782623291,0.7784470319747925,-0.5610655546188354,1.1509852409362793,1.450244959534231,-0.8893476638897289,1.9546994164347815
1687089314.395649,0.6684783697128296,0.7326241731643677,-0.1280563324689865,0.2933136224746704,-0.013401210308074951,-0.20356284081935883,2.730454444885254,2.781229019165039,0.6049109101295471,1.381525404010143,-0.8221694966476315,1.8011444396393743
1687089314.4864469,0.6750385165214539,0.7336216568946838,-0.07824566215276718,1.0211437940597534,-1.4030704498291016,-0.7787488698959351,-1.3833128213882446,1.3971104621887207,-1.5306111574172974,1.4553984270617406,-0.8236361365861696,1.7314508338138752
1687089314.4919229,0.5889753699302673,0.8081305027008057,0.005749352276325226,0.7321000695228577,0.5884758830070496,-0.17478621006011963,-1.1928656101226807,-0.1608719825744629,-1.5650990009307861,1.5805576340523262,-0.9409711409680236,1.8731989991462488
1687089314.572274,0.6026967763900757,0.7975759506225586,-0.02508213371038437,0.2589365243911743,0.45692533254623413,0.17490822076797485,0.9789563417434692,-0.4130643904209137,1.3878031969070435,1.5292038247878783,-0.9232659167758139,1.8233807572533087
1687089314.5786572,0.6605843901634216,0.748076319694519,-0.06332558393478394,0.08096224069595337,-0.22996419668197632,0.00042892247438430786,0.12464169412851334,-0.9014835357666016,1.3795772790908813,1.4752253930972616,-0.8451585261199904,1.7958768681799788
1687089314.6943212,0.686889111995697,0.7228542566299438,-0.0752672329545021,-0.36740052700042725,-0.23849451541900635,-0.0928235650062561,-0.416596919298172,0.002853513229638338,-0.05719121918082237,1.46165478760156,-0.8079240200039324,1.8129975449846094
1687089314.711746,0.6700041890144348,0.7411095499992371,-0.043023910373449326,-0.12608927488327026,0.13050293922424316,-0.04179966449737549,-0.6231607794761658,0.39163678884506226,-0.5257859230041504,1.5066699803268329,-0.8347215254793332,1.8504251725430045
1687089314.781551,0.6606627702713013,0.7499203085899353,-0.03382653743028641,0.05997931957244873,0.1608157753944397,-0.23744416236877441,0.7709952592849731,0.600511372089386,0.009933533146977425,1.5196400858036951,-0.8479416151849807,1.846377615979324
1687089314.796595,0.6575441360473633,0.7534011602401733,0.004727336578071117,-0.11301898956298828,-0.3859695792198181,-0.2920961380004883,-1.3779101371765137,1.709525227546692,-0.45370933413505554,1.5779855856108238,-0.8532192798023173,1.8409308335160743
1687089314.8732018,0.6180057525634766,0.7689103484153748,0.16384677588939667,-0.1706485152244568,-0.45776844024658203,-0.3635537624359131,-2.8965277671813965,2.4664857387542725,-1.0610041618347168,1.8299558237803177,-0.8771351518185256,2.041176662153286
1687089314.877624,0.5359547734260559,0.7776937484741211,0.32854965329170227,-0.3529561161994934,-0.32028108835220337,-0.5480625629425049,-0.8262895345687866,3.542793035507202,-1.240193247795105,2.1207325439801332,-0.8909888317128594,2.2195619329531926
1687089314.9638572,0.3988266885280609,0.8042761087417603,0.4405423402786255,-0.463828980922699,-0.3372960090637207,-0.33203691244125366,-1.2687534093856812,4.3324079513549805,-1.815078616142273,2.405852461554387,-0.9344563027645911,2.3301200364144474
1687089314.981534,0.18502512574195862,0.7035119533538818,0.6861751079559326,-0.5483826398849487,-0.5835474729537964,0.17843353748321533,-6.881483554840088,6.302585124969482,-1.3169134855270386,2.8782097732073724,-0.7803271242955956,2.6027923751725024
1687089315.050297,-0.09373977035284042,0.5372470617294312,0.8381998538970947,-0.2565562129020691,0.14079254865646362,-0.5210151672363281,-0.3275769054889679,6.487001895904541,0.5723264813423157,-3.030220789882269,-0.5671697290982595,2.667831218753579
1687089315.0549579,-0.35335496068000793,0.5425798892974854,0.7620680928230286,-1.099327564239502,-0.4956437945365906,0.35749995708465576,-0.9870630502700806,5.831639289855957,-1.5432109832763672,-2.7074216825571633,-0.5735053746085398,2.6739808684558066
1687089315.11379,-0.571539044380188,0.5366748571395874,0.6207444071769714,-0.5653628706932068,0.008674323558807373,-0.12468105554580688,2.60591983795166,5.5113959312438965,-0.9250543713569641,-2.397440923433277,-0.5664914136999447,2.757001558526333
1687089315.2080212,-0.7721526026725769,0.517497718334198,0.36874958872795105,-1.3202698230743408,-0.04706937074661255,0.9246159195899963,0.14175771176815033,5.919381618499756,-2.185028076171875,-2.016331728215944,-0.5439240561906181,2.913291743682529
1687089315.224844,-0.8793501257896423,0.4394500255584717,0.18337665498256683,-0.2169785499572754,0.42702025175094604,0.8648412227630615,0.4163369834423065,2.7312920093536377,-1.8016383647918701,-1.7763864827252396,-0.45498630695984804,2.932223309595629
1687089315.2910662,-0.9168701171875,0.38128697872161865,0.1181928962469101,0.2456207275390625,0.6679989099502563,0.5365008115768433,1.4193660020828247,0.31416139006614685,-0.8046461343765259,-1.6989984096900244,-0.39118803965025345,2.9961347048035307
1687089315.38465,-0.9261075258255005,0.37052011489868164,0.0709935650229454,0.07512462139129639,0.7013945579528809,0.45337486267089844,0.4764418601989746,0.6500897407531738,-0.004008470103144646,-1.6473047162144012,-0.37956893700125705,3.0707890145111234
1687089315.3912811,-0.9196825623512268,0.38877949118614197,0.05508702993392944,0.0964861512184143,0.27659526467323303,0.32832062244415283,0.44470950961112976,-0.031075211241841316,0.5038208365440369,-1.6306227210528483,-0.39930648488984505,3.0688765365295825
1687089315.4780722,-0.9104740023612976,0.4098856449127197,0.055056121200323105,-0.009631156921386719,-0.20172518491744995,0.15743792057037354,0.5142042636871338,-0.4445628821849823,0.3162224590778351,-1.6311925174847954,-0.4223287005306983,3.113589225899706
1687089315.496212,-0.9060250520706177,0.4161462187767029,0.07707782834768295,-0.012859225273132324,-0.3108910918235779,0.017786145210266113,-0.4687863886356354,-0.39800509810447693,0.05225886404514313,-1.6556644965120852,-0.42920297845158145,3.1062888629118364
1687089315.560179,-0.9040135145187378,0.41548439860343933,0.10066045075654984,-0.03930020332336426,-0.07918065786361694,-0.061521515250205994,-0.21794968843460083,-0.1925397366285324,0.019370200112462044,-1.6816879300779204,-0.4284752935614423,3.0856845795224075
1687089315.574222,-0.9045125842094421,0.4129469096660614,0.10645123571157455,-0.014982044696807861,0.0610826313495636,-0.145208477973938,0.03423301875591278,-0.13323993980884552,-0.0637093260884285,-1.6879465027646945,-0.4256873702336993,3.0862898906970573
1687089315.6500921,-0.9050033688545227,0.4092870056629181,0.11598887294530869,0.01645338535308838,0.059997111558914185,-0.10105036199092865,-0.05456353351473808,-0.1639520823955536,-0.005088603124022484,-1.6982654504119827,-0.4216724944193165,3.080724177291399
1687089315.664115,-0.9035261869430542,0.4122278094291687,0.11708354949951172,-0.00374603271484375,0.04997614026069641,-0.020571604371070862,-0.0024296524934470654,0.011939366348087788,0.0937982052564621,-1.6996633204415732,-0.4248979533143368,3.0793399628032727
1687089315.804586,-0.9017890691757202,0.4175505042076111,0.11148148030042648,-0.018682122230529785,0.006506443023681641,-0.036118283867836,-0.004437729250639677,0.026676872745156288,0.0876002162694931,-1.693794855554539,-0.43074791314151856,3.082775254177966
1687089315.865858,-0.899934709072113,0.4231124520301819,0.10532624274492264,-0.006986737251281738,0.009138524532318115,-0.018076419830322266,0.011654369533061981,0.10391184687614441,0.0890592709183693,-1.6873039424904643,-0.4368776539651335,3.0809104047068305
1687089315.883368,-0.8986894488334656,0.42712363600730896,0.09961315989494324,0.004631161689758301,-0.02366599440574646,-0.005573153495788574,-0.023599278181791306,0.07204696536064148,0.10019352287054062,-1.6811884000699362,-0.44130924221438866,3.080184069501147
1687089315.886481,-0.8981842398643494,0.4299241304397583,0.09181738644838333,-0.021340906620025635,-0.0157700777053833,0.004786133766174316,-0.03876523673534393,0.2199329435825348,0.0738719254732132,-1.6726680152356033,-0.4444087541203303,3.079036023653949
1687089315.981839,-0.8979611396789551,0.4310242533683777,0.08879075199365616,0.0003171563148498535,-0.009088248014450073,0.010650865733623505,-0.08505981415510178,0.06832727789878845,0.036276012659072876,-1.6693563432468472,-0.4456275926588072,3.072505963806769
1687089315.998357,-0.8972672820091248,0.4318213164806366,0.09187982976436615,0.013935983180999756,-0.022229671478271484,0.02539931982755661,-0.09096846729516983,0.026212099939584732,0.04970910772681236,-1.672840269764464,-0.44651109404203193,3.0644075888473687
1687089316.070266,-0.8967081308364868,0.4330504834651947,0.09155184030532837,-0.017964720726013184,-0.0061706602573394775,0.02095126360654831,0.05929502099752426,0.07349076867103577,-0.009644007310271263,-1.672541476527696,-0.447874317033986,3.063864480114289
1687089316.074377,-0.8966113328933716,0.4326125383377075,0.0945233553647995,0.024388372898101807,-0.0066634416580200195,0.029317021369934082,0.08679252862930298,-0.06388834118843079,0.013308823108673096,-1.6758312433644798,-0.4473884904226127,3.0650278479226682
1687089316.165818,-0.8970667719841003,0.4315725266933441,0.09495580196380615,-0.012952208518981934,0.018515974283218384,0.0451810359954834,-0.043867480009794235,0.07039836049079895,-0.014041529037058353,-1.6762550579104698,-0.4462352769850644,3.0665739881609464
1687089316.184246,-0.8957388997077942,0.43278974294662476,0.10170920938253403,0.032915472984313965,0.028864890336990356,0.016576990485191345,-0.0027491250075399876,-0.09329112619161606,0.047594889998435974,-1.6838599052158318,-0.4475850485127594,3.061175396970592
1687089316.2494612,-0.8937097191810608,0.4355005621910095,0.10780657827854156,-0.009656369686126709,0.03376820683479309,0.015133492648601532,-0.0030919804703444242,0.012165202759206295,0.06376052647829056,-1.6908444656986297,-0.45059426979685835,3.060817719646754
1687089316.253923,-0.890518069267273,0.44073259830474854,0.11283981055021286,0.04753077030181885,0.052965641021728516,0.0059957802295684814,0.004530998412519693,-0.17177283763885498,0.13622534275054932,-1.6968371655358558,-0.4564146508186589,3.05783959148359
1687089316.309859,-0.884703516960144,0.44956234097480774,0.12326190620660782,0.008314967155456543,0.10572025179862976,0.06756460666656494,-0.05054924264550209,-0.24484075605869293,0.2531670928001404,-1.7092308407371979,-0.4662753125527564,3.0538811079433916
1687089316.407263,-0.8749728798866272,0.46427300572395325,0.1373797208070755,0.019137859344482422,0.12894296646118164,0.21560192108154297,-0.22691388428211212,-0.40053555369377136,0.4678114354610443,-1.7265351216366083,-0.48281360086550945,3.0463635999618535
1687089316.413156,-0.8568835258483887,0.48674476146698,0.1697947084903717,0.03753238916397095,0.17495262622833252,0.23338840901851654,-0.1201646476984024,-0.873392641544342,0.6263693571090698,-1.7664160514051896,-0.5083593986029656,3.029025188736413
1687089316.494341,-0.8277488946914673,0.5165852308273315,0.21902398765087128,0.003301262855529785,0.15142923593521118,0.24298177659511566,0.14530478417873383,-1.439409852027893,0.8203182220458984,-1.8294701183705664,-0.5428580412211202,3.0178656720184867
1687089316.5862122,-0.7841838598251343,0.5561403036117554,0.27525222301483154,-0.13225901126861572,0.07120954990386963,0.203477144241333,0.2378578931093216,-1.6155095100402832,0.9123034477233887,-1.908365923443674,-0.589734392483767,3.0132676233270863
1687089316.591453,-0.7274093627929688,0.5954025387763977,0.3411327302455902,-0.11019128561019897,-0.021138012409210205,0.19976088404655457,-0.07400652766227722,-2.221411943435669,1.0394366979599,-2.00931273439153,-0.6377665542822205,3.001249431705853
1687089316.67471,-0.6394201517105103,0.6290761232376099,0.44204628467559814,-0.22560060024261475,-0.07144373655319214,0.13525468111038208,-0.24375061690807343,-3.0915091037750244,1.1972712278366089,-2.1756755096257976,-0.6803641510305701,2.950093200359103
1687089316.693325,-0.5206674337387085,0.669289231300354,0.5300541520118713,-0.397499680519104,-0.0671316385269165,0.09634971618652344,0.8482058644294739,-3.561363458633423,1.1005979776382446,-2.3651278538502014,-0.7332517687114408,2.916417656226867
1687089316.760498,-0.3673761188983917,0.7250942587852478,0.5824720859527588,-0.47233033180236816,-0.10717421770095825,0.16295045614242554,0.9506084322929382,-4.368978500366211,1.3679951429367065,-2.578891473379919,-0.8111712195348352,2.892429166418752
1687089316.77511,-0.17040054500102997,0.7758735418319702,0.6074405312538147,-0.49024397134780884,0.020574212074279785,0.21485567092895508,1.0302119255065918,-4.777626037597656,1.5594561100006104,-2.8680997996601594,-0.8880985115509844,2.8201150508550183
1687089316.8526459,0.03049384616315365,0.799268901348114,0.6001991629600525,-0.4484625458717346,-0.027921974658966064,0.20725011825561523,0.3401060700416565,-4.450788497924805,1.4980143308639526,3.0908300917024736,-0.9260776911707211,2.6990178835924366
1687089316.857329,0.22508835792541504,0.7988764643669128,0.5577914118766785,-0.36112043261528015,0.15578967332839966,0.2412041425704956,0.2801586985588074,-4.628922939300537,1.7004163265228271,2.7580425924455336,-0.9254250333624057,2.5674251227554894
1687089316.9444308,0.40858709812164307,0.7900146245956421,0.4570927321910858,-0.4599176049232483,0.21694350242614746,0.18815582990646362,1.4626237154006958,-4.255030155181885,1.8237988948822021,2.4121678064976444,-0.9108328213737182,2.4141984065523396
1687089317.0351028,0.5648455619812012,0.782126247882843,0.26311272382736206,-0.4806169867515564,0.016259431838989258,0.0897468626499176,3.2948226928710938,-3.8039426803588867,2.3267173767089844,2.0067227139891415,-0.8980708465493874,2.1555778722150727
1687089317.040604,0.6918932795524597,0.7218396663665771,0.015204723924398422,-0.5853258967399597,-0.17957288026809692,0.20987772941589355,2.9976296424865723,-4.039004802703857,2.766667127609253,1.5927683244197028,-0.8064568837294425,1.8646337680354732
1687089317.123198,0.7562305927276611,0.6263731122016907,-0.18913474678993225,-0.6440021991729736,-0.33349597454071045,0.434892863035202,0.7380708456039429,-3.569700241088867,1.8744094371795654,1.325721698938408,-0.6768917785976608,1.7580958302826017
1687089317.129408,0.7639673948287964,0.5647073984146118,-0.312184602022171,-0.3980463743209839,-0.5142314434051514,0.07086688280105591,-1.2293529510498047,-1.5728760957717896,1.4087542295455933,1.1828673270490766,-0.6000786897551023,1.789909774534117
1687089317.18731,0.7127949595451355,0.5705434679985046,-0.4079259932041168,-0.4097859263420105,-0.47369593381881714,-0.3486657738685608,-2.028571605682373,-0.6675074696540833,-0.83623206615448,1.0510004775617992,-0.6071674185165733,1.8020875168354396
1687089317.191977,0.7307564616203308,0.6176931858062744,-0.2906034290790558,-0.050214409828186035,0.5905129909515381,-0.4196169376373291,-0.931915819644928,2.0745279788970947,-0.09228646755218506,1.19229604050288,-0.6658059771195359,1.8900270934087768
1687089317.239619,0.7418681383132935,0.6089707016944885,-0.2806892693042755,0.2843160033226013,0.13870996236801147,0.1591835618019104,0.8273751735687256,-0.5352298617362976,0.18230833113193512,1.2090878406813488,-0.6547622574597701,1.8625036189849564
1687089317.334001,0.7367446422576904,0.6009208559989929,-0.3100023865699768,-0.13066554069519043,-0.18093806505203247,0.025044530630111694,-0.31541717052459717,-0.33788883686065674,0.010188953019678593,1.1725112802594782,-0.6446527096070482,1.8536699975815178
1687089317.4246612,0.729975163936615,0.6121577024459839,-0.30397269129753113,-0.09433966875076294,-0.0027063488960266113,-0.05714181065559387,-0.12038952112197876,0.006867802236229181,-0.23198918998241425,1.1762195824103878,-0.6587864149296192,1.8684701448290784
1687089317.442727,0.7276310920715332,0.6156638860702515,-0.302508145570755,0.020614266395568848,0.08167797327041626,-0.009411990642547607,0.2714898884296417,0.1966397613286972,0.0014655243139714003,1.17679177666279,-0.6632282020209334,1.8577951759609355
1687089317.545333,0.7313126921653748,0.6095001697540283,-0.3060902953147888,0.05356895923614502,0.025173842906951904,-0.05542084574699402,0.21644054353237152,-0.012814768590033054,0.14939242601394653,1.17440228580064,-0.6554299336815983,1.8472460916378917
1687089317.563601,0.7318630218505859,0.6011706590652466,-0.32089024782180786,0.15827375650405884,0.08243834972381592,-0.25718891620635986,0.4449818432331085,-0.5468773245811462,0.031906209886074066,1.157583163756008,-0.644965220406241,1.8344162839530163
1687089317.628602,0.7378268241882324,0.5785351991653442,-0.34771910309791565,0.3101468086242676,0.059221088886260986,-0.4577923119068146,1.6073335409164429,0.9942290186882019,0.3278961479663849,1.1303918961523658,-0.616931661053108,1.7721953071113146
1687089317.643106,0.7635979056358337,0.5465675592422485,-0.3437765836715698,0.533612847328186,-0.45681536197662354,-0.3907510042190552,-0.5924153327941895,0.3483334183692932,0.4206327497959137,1.1477708396238044,-0.5782598913580252,1.7566218103888145
1687089317.720628,0.7671836614608765,0.5598850846290588,-0.31298258900642395,0.3765084147453308,-0.7227268815040588,-0.46802324056625366,0.45430508255958557,0.9546113610267639,-1.0103729963302612,1.1834441665435926,-0.5942471067920957,1.7674933327875435
1687089317.724681,0.7186417579650879,0.6520184874534607,-0.2417142689228058,0.04470968246459961,-1.3140974044799805,-0.30323806405067444,-1.1811579465866089,3.223567008972168,-4.342833518981934,1.2463343518475412,-0.7102435948165919,1.7008327162829449
1687089317.8154712,0.5272361040115356,0.8491714596748352,0.030499061569571495,-0.48591524362564087,-1.0713393688201904,-0.17554903030395508,-6.068999767303467,4.023402690887451,-6.1266770362854,1.6285789985636985,-1.014414480016583,1.945073930238291
1687089317.83395,0.26662662625312805,0.911208987236023,0.3140200972557068,-2.5200140476226807,-0.24488812685012817,0.413183331489563,1.769879698753357,7.923520088195801,-3.4718337059020996,2.4376358458376792,-1.1462094344976976,2.5088393619219826
1687089317.900934,-0.02029394917190075,0.9900548458099365,0.1392115354537964,0.1691434681415558,0.859463095664978,1.5325720310211182,-0.7862913012504578,1.69835364818573,-2.969327449798584,-2.996834543302509,-1.4296462560910614,3.132937456415687
1687089317.905151,-0.06117687746882439,0.9769536852836609,0.2044965624809265,1.0784956216812134,0.6903893947601318,0.11409172415733337,2.875962257385254,-5.207696437835693,-0.3574844002723694,-2.8509080838606233,-1.3556900171583994,-2.9547351301943516
1687089318.0249062,0.013985022902488708,0.999738872051239,-0.018076421692967415,-0.7063983082771301,-0.15252506732940674,0.009562134742736816,2.1755573749542236,0.7103038430213928,-0.26510733366012573,0.6584729809401356,-1.5479424304153735,0.6591438044524585
1687089318.043901,-0.02019071951508522,0.9979809522628784,0.06021878123283386,0.018573345616459846,-0.1393384337425232,-0.1583784818649292,-2.367689371109009,-0.12033701688051224,-0.6040177941322327,-2.8180826664452563,-1.5072400221159123,-2.8564487601877633
1687089318.110211,-0.018802201375365257,0.9963523745536804,0.08323804289102554,0.058841317892074585,0.40704429149627686,-0.24611032009124756,1.051328420639038,-0.15703175961971283,0.35361552238464355,-2.9194362847254913,-1.4853577763164416,-2.929166075520149
1687089318.125338,-0.00823464896529913,0.9986789226531982,0.05072525143623352,-0.06099444627761841,-0.07512527704238892,0.005747564136981964,0.006473880726844072,0.3099277913570404,0.07181048393249512,-2.9806583236445574,-1.5193883640436014,-3.0060258872963894
1687089318.20521,-0.0029566946905106306,0.9980472922325134,0.06239495798945427,-0.022861123085021973,-0.03491246700286865,0.008375406265258789,-0.19028806686401367,0.029803529381752014,0.133794903755188,-3.09424131806564,-1.5082929996531513,-3.126787720670546
1687089318.2098331,0.0010437448509037495,0.9980753660202026,0.06200611591339111,0.014855951070785522,-0.014478445053100586,0.029714815318584442,0.18014393746852875,0.09924140572547913,0.044358354061841965,3.1247613092374853,-1.5087442918591027,3.091005258750575
1687089318.260631,0.007116542663425207,0.9987078309059143,0.050320159643888474,0.010232746601104736,-0.02992725372314453,-0.00014925003051757812,0.18762396275997162,-0.2186950147151947,0.20261017978191376,3.001099104570169,-1.5199546466151193,2.968937846839615
1687089318.414637,0.020407574251294136,0.9986947178840637,0.04682385176420212,-0.0825107991695404,-0.02527552843093872,0.014287706464529037,-0.03507915511727333,-0.3413524925708771,0.22037827968597412,2.7305787775227963,-1.519696844277978,2.71320456042946
1687089318.434056,0.040604159235954285,0.9979552626609802,0.04936116188764572,-0.049179527908563614,0.0269012451171875,-0.00512588769197464,-0.23121953010559082,-0.6487361192703247,0.698076069355011,2.4532263450737783,-1.5068359764546064,2.4557516708161113
1687089318.502933,0.1055847555398941,0.9910665154457092,0.08148164302110672,-0.21656188368797302,-0.04120683670043945,0.05600011348724365,-1.2023862600326538,-1.7148627042770386,1.7142444849014282,2.228052594197364,-1.437029050296349,2.2922655918133534
1687089318.506796,0.18810072541236877,0.9730417132377625,0.1334482580423355,-0.3806207776069641,0.0032768845558166504,0.04829934239387512,-1.254062294960022,-1.6964375972747803,1.429337501525879,2.18783715500381,-1.33807213987903,2.334418043752319
1687089318.510563,0.30085489153862,0.9374823570251465,0.17496727406978607,-0.5523196458816528,-0.037808775901794434,0.06480945646762848,-1.482835292816162,-2.5782487392425537,2.3836185932159424,2.0975518881364295,-1.2153244765851614,2.3575386025965144
1687089318.561063,0.4188874661922455,0.8931955695152283,0.16350869834423065,-0.8102753758430481,0.143746018409729,0.12521815299987793,0.14544861018657684,-2.1012768745422363,1.7173035144805908,1.9429478112622556,-1.1044022317969606,2.3150168275285954
1687089318.6545448,0.5032282471656799,0.8552030324935913,0.1240534782409668,-0.44442081451416016,-0.05243808031082153,0.3611760139465332,-0.05500471219420433,-1.4635385274887085,1.8296681642532349,1.812492626545799,-1.0259423927168159,2.262820055985676
1687089318.6610599,0.5815107226371765,0.812418520450592,0.04267987236380577,-0.4194013476371765,0.24522918462753296,0.2349386215209961,2.167198419570923,-1.09454345703125,1.2574567794799805,1.644059778879383,-0.9482881128730202,2.158126881273693
1687089318.71083,0.6174094676971436,0.7865660786628723,-0.010936763137578964,0.03057032823562622,0.07653212547302246,-0.03415292501449585,2.5727107524871826,4.7822747230529785,0.8162665367126465,1.5530842240118838,-0.9052281401714519,1.947195319295647
1687089318.8675342,0.686408519744873,0.7271634340286255,0.008766425773501396,1.231773853302002,-0.674902081489563,-0.29187798500061035,0.8628349900245667,1.5202217102050781,1.5619571208953857,1.5835670736827137,-0.8141807378968018,1.8049205903270351
1687089318.87346,0.7026155591011047,0.7115631699562073,0.0030581934843212366,0.794546365737915,-0.5742188692092896,-0.5842196941375732,0.8764810562133789,-0.3183678686618805,-1.1619521379470825,1.575148883742274,-0.791720515067763,1.7401889760130838
1687089319.048473,0.6561755537986755,0.7545247673988342,-0.011230211704969406,0.47781187295913696,-0.31221824884414673,0.1732175350189209,0.07471179217100143,-0.37396740913391113,-0.17109358310699463,1.553683353259745,-0.8549297128186382,1.6995615885221174
1687089319.067642,0.6785923838615417,0.7340146899223328,-0.0271123256534338,-0.010882914066314697,0.09230983257293701,0.25062310695648193,-0.6247543096542358,-0.5586999654769897,1.003259301185608,1.5308637933238347,-0.8242147001161114,1.7169903351172542
1687089319.070575,0.7029702663421631,0.7101094126701355,-0.039718881249427795,-0.055539727210998535,0.012195885181427002,-0.2512356638908386,0.284038782119751,-0.8860592842102051,0.24168506264686584,1.5143548274091,-0.7896536200711687,1.7439281714193626
1687089319.13174,0.6883243322372437,0.7242267727851868,-0.041296470910310745,-0.2253420352935791,-0.017058193683624268,-0.19255965948104858,-0.49343374371528625,0.7629640698432922,-0.8031935095787048,1.510872497635981,-0.8099123729416566,1.7359993080573135
1687089319.145927,0.6754787564277649,0.7370163798332214,0.023139724507927895,0.08836102485656738,-0.01533663272857666,-0.15621161460876465,-1.2213667631149292,0.6516528725624084,-0.09765839576721191,1.6050397104437877,-0.8286451713585279,1.8110514838628347
1687089319.1485481,0.6651501059532166,0.7425602078437805,0.07861153781414032,-0.14546626806259155,-0.16400796175003052,-0.28903019428253174,-0.37639105319976807,1.5603643655776978,-0.48810312151908875,1.6884367808370668,-0.8368847262217438,1.8563142573498252
1687089319.2196121,0.613854706287384,0.7666540741920471,0.18821191787719727,-0.1482633352279663,-0.6628944277763367,-0.3552497923374176,-2.56286358833313,2.031775951385498,-1.5454339981079102,1.8683031604066995,-0.8736136043740187,1.9759469391840465
1687089319.223033,0.49918651580810547,0.7728540897369385,0.39180314540863037,-0.37749752402305603,-0.4811364412307739,-0.5096467137336731,-3.5176210403442383,3.6409223079681396,-2.150367498397827,2.2362515478200344,-0.8833264875850906,2.275932097736415
1687089319.34805,0.3006347417831421,0.7422152757644653,0.5989452600479126,-0.4240477681159973,-0.41930878162384033,-0.510566234588623,-2.1861884593963623,5.381565570831299,-2.059480905532837,2.676394007504466,-0.836369884268311,2.555770769972108
1687089319.3660731,0.03718060627579689,0.7005226016044617,0.7126611471176147,-0.4732462465763092,-0.20918959379196167,-0.2979423999786377,-2.3065359592437744,6.5591840744018555,-1.584519863128662,3.0894684042927776,-0.7761295160266131,2.710747544965984
1687089319.46931,-0.27770546078681946,0.5838106870651245,0.7629187107086182,-0.7969557642936707,-0.3419588804244995,0.03780162334442139,-2.362534999847412,7.467484474182129,-1.1251933574676514,-2.7924969938902855,-0.6234143994686979,2.7832447200541184
1687089319.474369,-0.5685437917709351,0.5726972818374634,0.5905722975730896,-0.9605241417884827,0.24378520250320435,-0.1576041579246521,2.4244632720947266,7.0064697265625,-1.4276204109191895,-2.3751967994605154,-0.6097923855332463,2.8591439859456043
1687089319.5560079,-0.7821846008300781,0.516771674156189,0.3480440080165863,-1.675594449043274,0.28069841861724854,0.8729643821716309,-0.011060744524002075,5.662055492401123,-2.992255926132202,-1.9894544558904121,-0.5430758088584982,3.0042065243321145
1687089319.561697,-0.8935798406600952,0.4212946593761444,0.15500319004058838,0.0019019246101379395,0.4604191780090332,0.8104815483093262,0.17916841804981232,1.9904066324234009,-1.6306465864181519,-1.7425504457656067,-0.43487237525034245,3.0384334984283745
1687089319.566496,-0.9249242544174194,0.37192732095718384,0.07864528894424438,0.1459783911705017,0.9420069456100464,0.4244370460510254,3.0497167110443115,0.5665873289108276,-1.0846585035324097,-1.6556211898643158,-0.3810844231397938,-3.136900642790968
1687089319.611222,-0.9393953680992126,0.34011003375053406,0.04314723238348961,0.16591203212738037,0.27921369671821594,0.39278125762939453,-0.8359848856925964,-0.3725365102291107,-0.28518354892730713,-1.6166949238953514,-0.34703390661298805,-3.0829231044037892
1687089319.704484,-0.933949887752533,0.34711650013923645,0.0851324126124382,-0.03025287389755249,0.16536515951156616,0.4014856815338135,0.06671815365552902,-0.8287636637687683,0.2662479281425476,-1.6616982010741448,-0.3544946622516864,-3.108053558852912
1687089319.710092,-0.9254313111305237,0.3643729090690613,0.1039690300822258,0.007462441921234131,-0.09011143445968628,0.21080471575260162,-0.02876858226954937,-0.2676102817058563,0.3572966456413269,-1.6826737676514598,-0.37295933661877106,-3.105551748229311
1687089319.7950978,-0.9186206459999084,0.3764466941356659,0.12009883671998978,-0.027424097061157227,-0.14690878987312317,0.09147951006889343,-0.14547809958457947,-0.30602511763572693,0.10776589065790176,-1.7007972274040573,-0.38595784307388714,-3.112397513450874
1687089319.885458,-0.9163987040519714,0.375935822725296,0.13742516934871674,-0.021391212940216064,-0.06735733151435852,-0.03085768222808838,-0.0811893418431282,-0.2977997958660126,-0.014521276578307152,-1.7196493143166758,-0.38540647309772125,-3.1206394543312013
1687089319.891253,-0.9155264496803284,0.37517157196998596,0.14511393010616302,-0.024338841438293457,0.0298425555229187,-0.08288846909999847,0.12623330950737,-0.1023031622171402,-0.033793576061725616,-1.7279918667309044,-0.38458186341793543,-3.1183292888316356
1687089319.977768,-0.9130918383598328,0.376496821641922,0.15656854212284088,0.01872837543487549,0.008360356092453003,-0.06973063945770264,-0.2086850255727768,-0.3013717830181122,0.10956721007823944,-1.7406155840977482,-0.38601196816078487,-3.1219368440619286
1687089319.9972,-0.9094778299331665,0.38094809651374817,0.16651907563209534,-0.01927882432937622,0.01629921793937683,-0.10516346991062164,-0.0007879734039306641,-0.12513694167137146,0.11200086772441864,-1.7518836261165183,-0.39082148676432854,-3.12593677208842
1687089320.0597858,-0.9089092016220093,0.3853958249092102,0.15922951698303223,-0.008479654788970947,-0.016178905963897705,-0.04965604841709137,-0.014955563470721245,-0.0030702094081789255,0.047453880310058594,-1.7442238944702353,-0.3956367408963426,-3.120520010198539
1687089320.073525,-0.9088844656944275,0.3879855275154114,0.15295951068401337,-0.003728628158569336,-0.030075281858444214,-0.03185032308101654,0.05294385924935341,0.015569254755973816,0.021933959797024727,-1.737527619217613,-0.39844488308651305,-3.120190229884723
1687089320.150049,-0.9103890657424927,0.3880701959133148,0.143503800034523,-0.004909396171569824,-0.04921826720237732,-0.028696537017822266,0.10912584513425827,0.13809554278850555,-0.0310459453612566,-1.727139001118911,-0.3985367675910755,-3.1135177174875635
1687089320.153687,-0.9138597846031189,0.3846696615219116,0.1299605369567871,-0.0035138726234436035,0.003925949335098267,0.010725617408752441,0.16975447535514832,0.2106892615556717,-0.0678086206316948,-1.712059695932565,-0.39484990752805305,-3.104852567468321
1687089320.274695,-0.9165964126586914,0.3808309733867645,0.12173311412334442,0.008515357971191406,0.011182576417922974,0.03701949119567871,0.08261179178953171,0.08101633191108704,-0.05450064688920975,-1.7028335692579126,-0.3906948149688344,-3.095754133761502
1687089320.2943,-0.9178061485290527,0.37944772839546204,0.11683924496173859,0.004109859466552734,0.022926539182662964,0.07055401802062988,0.02713681571185589,0.19227229058742523,-0.05536573380231857,-1.697417994307184,-0.3891993030423885,-3.0941565630068344
1687089320.360036,-0.9173426628112793,0.3800094723701477,0.11863936483860016,0.027633190155029297,0.013590961694717407,0.059888601303100586,0.047508396208286285,0.010707814246416092,-0.012842041440308094,-1.69941180865331,-0.3898065489654231,-3.095781272387161
1687089320.374259,-0.9159181118011475,0.3809557855129242,0.1263597160577774,0.004037618637084961,0.009241968393325806,0.04899430274963379,0.03940935432910919,-0.0002586035989224911,-0.022987021133303642,-1.707890554593102,-0.39082980487950947,-3.098470739351548
1687089320.449253,-0.9142448902130127,0.3820585310459137,0.1348608434200287,0.00973445177078247,0.011480867862701416,0.015712961554527283,0.09497737884521484,-0.09982988238334656,-0.01592882350087166,-1.717250800898157,-0.39202277869758767,-3.0989564770028184
1687089320.464425,-0.9126534461975098,0.38345736265182495,0.14150798320770264,0.0016577839851379395,0.015331149101257324,-0.017423376441001892,0.2469511479139328,-0.1454973965883255,0.008757703006267548,-1.7246226053987692,-0.3935369177088501,-3.0924021320505526
1687089320.509753,-0.9113786220550537,0.38611119985580444,0.14250397682189941,-0.0073531270027160645,0.007550328969955444,0.011243581771850586,0.21388843655586243,-0.06295862793922424,-0.0021473639644682407,-1.7259013177923122,-0.3964121220323963,-3.0810283269096
1687089320.638135,-0.9098839163780212,0.39028623700141907,0.14066900312900543,-0.005628049373626709,0.027285724878311157,0.0014514774084091187,0.18347683548927307,-0.06291276961565018,0.03793531656265259,-1.7241830060298124,-0.4009424581740552,-3.0677859322983023
1687089320.64327,-0.9089205861091614,0.39289766550064087,0.13962513208389282,-0.016662418842315674,0.013886481523513794,-0.004523739218711853,0.08736655116081238,0.08249369263648987,0.03430585190653801,-1.7232212202749926,-0.4037805489752223,-3.0629009496342325
