Timestamp,gravityX,gravityY,gravityZ,accelerationX,accelerationY,accelerationZ,rotationRateX,rotationRateY,rotationRateZ,attitudeRoll,attitudePitch,attitudeYaw
1687099484.509673,-0.6791956424713135,0.7307801842689514,0.06821548193693161,0.010784506797790527,0.015359222888946533,0.020682089030742645,-0.06354258954524994,-0.01657627709209919,-0.07171396911144257,-1.670896329727518,-0.8194642206261946,-0.7697860309984548
1687099484.512609,-0.6811841726303101,0.7288388609886169,0.06915170699357986,0.01846444606781006,0.04154682159423828,0.023194313049316406,0.030039340257644653,-0.023472905158996582,-0.03041324019432068,-1.671966634356606,-0.8166245755086511,-0.7699405340369511
1687099484.597291,-0.6806750893592834,0.7289664149284363,0.0727243572473526,0.011913120746612549,0.01023012399673462,0.007551893591880798,-0.09242287278175354,-0.08318454027175903,0.01662120223045349,-1.6772340701721753,-0.816810888745633,-0.7720376742073396
1687099484.68639,-0.6785749197006226,0.7304478287696838,0.07734289765357971,-0.0012041330337524414,0.01920109987258911,0.006214141845703125,0.07325312495231628,-0.13305479288101196,0.022335968911647797,-1.6842849866715237,-0.8189774696364532,-0.7737174222715151
1687099484.6920428,-0.6763419508934021,0.7320799827575684,0.08136612921953201,-0.0121651291847229,-0.031808435916900635,0.007577188313007355,-0.10749396681785583,-0.03165451064705849,0.015689583495259285,-1.6905241718723165,-0.8213702975978098,-0.7758650114839291
1687099484.7799911,-0.6764598488807678,0.7316526770591736,0.08418060094118118,0.004447579383850098,0.007193088531494141,-0.0035381317138671875,0.05272095277905464,-0.06787365674972534,-0.017612669616937637,-1.6946027202827227,-0.8207432281644336,-0.7789930074962366
1687099484.781863,-0.6768655180931091,0.7311151623725891,0.08557748049497604,-0.006545066833496094,-0.008062243461608887,-0.005514740943908691,-0.02056753635406494,-0.06294170022010803,-0.0014463933184742928,-1.696561073770016,-0.8199550486112506,-0.7764123480853213
1687099484.866236,-0.6761376261711121,0.731286346912384,0.08976645767688751,0.006307363510131836,0.0006166696548461914,-0.0057364702224731445,-0.05679488927125931,-0.0412798672914505,0.01760510727763176,-1.7027880190527265,-0.8202059573270387,-0.7808218562621277
1687099484.867976,-0.6767109632492065,0.730746328830719,0.08984434604644775,-0.006547033786773682,0.00996100902557373,-0.026428937911987305,0.027680208906531334,-0.042699117213487625,-0.015273569151759148,-1.7027905897740518,-0.8194145724057589,-0.7790791688324383
1687099484.957374,-0.6767107844352722,0.7305521368980408,0.0914095863699913,-0.004548251628875732,0.004143178462982178,-0.0032901838421821594,-0.05376996099948883,0.010248626582324505,-0.009406670928001404,-1.7050628853438823,-0.8191301539438508,-0.7811288750281303
1687099484.9617949,-0.6762484908103943,0.7309492230415344,0.09165661782026291,0.013376235961914062,0.024269163608551025,-0.012051701545715332,0.026572972536087036,-0.004142617341130972,0.0249705221503973,-1.705512291738348,-0.8197118635167875,-0.782227602071516
1687099485.0167809,-0.6753048300743103,0.7321265339851379,0.08918280154466629,0.011425614356994629,0.020177364349365234,-0.005931034684181213,0.07548017054796219,-0.0434311144053936,0.0552593432366848,-1.7020995373595682,-0.8214386513350084,-0.7766090044656258
1687099485.07755,-0.672988772392273,0.7343577742576599,0.08834490180015564,0.0011594891548156738,-0.008649826049804688,0.008227832615375519,-0.03696350008249283,0.013415283523499966,0.05922742933034897,-1.7013224563593428,-0.8247200602281115,-0.7747304580179732
1687099485.166596,-0.6713271141052246,0.7360213398933411,0.08713237941265106,-0.005445897579193115,0.0009474754333496094,0.014887683093547821,0.1061033234000206,-0.0012738066725432873,0.003217156510800123,-1.6998660366342182,-0.8271742065273188,-0.7734283768430805
1687099485.168486,-0.6716877222061157,0.7359487414360046,0.08494144678115845,0.0029407739639282227,-0.02433997392654419,0.025852441787719727,0.02448020502924919,-0.04661273956298828,-0.006155660841614008,-1.6965883374689377,-0.8270669404012261,-0.7665809748799983
1687099485.25835,-0.6722560524940491,0.735252320766449,0.08646086603403091,0.001479804515838623,-0.008903563022613525,0.03327464312314987,0.03651609644293785,-0.05308368802070618,-0.024837691336870193,-1.6987071326587753,-0.8260388670178378,-0.7658260258578905
1687099485.262727,-0.6725777387619019,0.7346992492675781,0.08863486349582672,0.0025185346603393555,-0.0177498459815979,0.004596233367919922,0.003985956311225891,-0.0693153366446495,-0.01989901438355446,-1.7018251050986377,-0.8252232254846388,-0.7635407988650635
1687099485.318583,-0.6744369864463806,0.732832670211792,0.08994965255260468,-0.004411280155181885,0.007981479167938232,-0.012267343699932098,0.07868224382400513,-0.07649484276771545,-0.06912452727556229,-1.703383878526354,-0.8224758972398161,-0.7619064157959848
1687099485.378263,-0.6755341291427612,0.7316567897796631,0.09127812832593918,0.0026216506958007812,0.006227612495422363,-0.0056612491607666016,0.044832777231931686,-0.08506643772125244,-0.032655976712703705,-1.7051028389491247,-0.8207492760311242,-0.7575895816593613
1687099485.467041,-0.6757839322090149,0.7312071323394775,0.09301647543907166,0.007174372673034668,0.01094973087310791,-0.0035390853881835938,0.0046530249528586864,-0.08004750311374664,0.00026697292923927307,-1.7075791800511522,-0.8200898893869967,-0.7551535109509167
1687099485.46912,-0.67572021484375,0.7312027812004089,0.09351146966218948,0.0028534531593322754,0.016996562480926514,-0.016042836010456085,0.07981035858392715,-0.0954325795173645,-0.003790773916989565,-1.7083107694831814,-0.8200834715262008,-0.7510869461356962
1687099485.5264301,-0.6746165156364441,0.7320540547370911,0.09481213986873627,-0.010808289051055908,-0.00721585750579834,-0.005243182182312012,-0.025412198156118393,-0.031608328223228455,0.0065344562754035,-1.710424087690606,-0.8213322117386427,-0.7492651437092921
1687099485.61586,-0.6740639209747314,0.7324341535568237,0.09580136835575104,-0.0007712841033935547,0.002368032932281494,-0.0028601884841918945,0.022916343063116074,-0.07644029706716537,0.012704357504844666,-1.7119758642283647,-0.82189032352076,-0.748615671614273
1687099485.617432,-0.6739940047264099,0.732308030128479,0.09724722802639008,-0.008531570434570312,-0.01136082410812378,-0.00458073616027832,-0.04877552390098572,-0.023561961948871613,0.004567734431475401,-1.714092394278271,-0.8217050758049458,-0.7484941111726219
1687099485.71033,-0.6739905476570129,0.7321726679801941,0.09828545898199081,0.0008948445320129395,0.010625183582305908,-0.01593385636806488,0.06532697379589081,-0.051087114959955215,-0.0020215031690895557,-1.7156018083326898,-0.8215063345137842,-0.7484702564058678
1687099485.714644,-0.6742079257965088,0.7321019768714905,0.0973145142197609,-0.00935518741607666,-0.005615890026092529,-0.0010774210095405579,0.012337788939476013,0.0022453474812209606,-0.016204966232180595,-1.714145316635823,-0.8214025512281599,-0.7445844481415976
1687099485.767365,-0.6742343902587891,0.7320811152458191,0.09728824347257614,0.005121290683746338,0.00020331144332885742,0.001069776713848114,0.024614376947283745,-0.02299438789486885,0.004105942323803902,-1.7141016082504408,-0.8213719574431475,-0.7440755881354735
1687099485.828577,-0.6742883324623108,0.7321228981018066,0.09659764915704727,0.005816102027893066,0.0008939504623413086,-0.0008031129837036133,0.03777380287647247,-0.03259338065981865,0.02116646245121956,-1.7130868554269318,-0.8214332684496468,-0.7413986952576813
1687099485.915841,-0.6740899085998535,0.7322823405265808,0.09677280485630035,-0.006345152854919434,0.011385142803192139,-0.009233236312866211,-0.02102421596646309,0.03440339118242264,0.0007498932536691427,-1.7133827690253531,-0.8216673987772162,-0.7414402419985024
1687099485.918416,-0.6735368967056274,0.7330523729324341,0.09477279335260391,0.003981351852416992,0.024821043014526367,-0.021149292588233948,0.11460695415735245,-0.023146135732531548,0.02610343135893345,-1.7105877024328509,-0.822798817421745,-0.7385191974588354
1687099485.977511,-0.6716514825820923,0.734962522983551,0.09335161745548248,-0.00943988561630249,-0.004982054233551025,-0.002088896930217743,-0.039522744715213776,0.008128270506858826,0.06098542734980583,-1.7088997632908691,-0.8256113969880787,-0.7342801731603882
1687099486.067141,-0.6692932844161987,0.7366892695426941,0.09661856293678284,-0.007586538791656494,-0.025934994220733643,0.016403183341026306,-0.08755631744861603,0.07661012560129166,0.018624652177095413,-1.7141649672268786,-0.8281613473683882,-0.7458280938461557
1687099486.0688229,-0.6691312789916992,0.7371429204940796,0.09425250440835953,0.013842582702636719,-0.004812657833099365,0.008362650871276855,0.10313395410776138,-0.08643168210983276,0.024577505886554718,-1.7107336994567495,-0.828832448421975,-0.7397195232359625
1687099486.127639,-0.6692395806312561,0.7367285490036011,0.09669048339128494,-0.015513718128204346,-0.0393105149269104,0.02896546572446823,-0.09749480336904526,0.02558390609920025,-0.022674117237329483,-1.7142815980263786,-0.8282194851013642,-0.7433390128112218
1687099486.2171679,-0.6703557372093201,0.7355242967605591,0.09811731427907944,-0.0018854141235351562,-0.0030414462089538574,-0.005572915077209473,0.008079182356595993,-0.030830686911940575,-0.03694766014814377,-1.7161303955940137,-0.8264402383798497,-0.744625564428185
1687099486.21926,-0.67259281873703,0.7331597208976746,0.10047691315412521,-0.0005943775177001953,-0.0012109875679016113,0.0035115480422973633,-0.025027211755514145,-0.023602386936545372,-0.033780232071876526,-1.719087129213563,-0.8229566799160535,-0.7474281822212119
1687099486.280696,-0.6731988787651062,0.7324761748313904,0.10139937698841095,0.003353297710418701,0.015769004821777344,-0.011143788695335388,0.010045446455478668,-0.03445428982377052,-0.009896337985992432,-1.7202957205827965,-0.821952095632194,-0.7459826013457395
1687099486.3694391,-0.6742380857467651,0.7316129803657532,0.10072454810142517,-0.0005512833595275879,0.01586925983428955,-0.00926351547241211,0.02754848822951317,0.019470300525426865,-0.02256321907043457,-1.7190898115951176,-0.8206849631630442,-0.7451188833007076
1687099486.376029,-0.6750393509864807,0.7312893867492676,0.09766045957803726,-0.0033205747604370117,0.021640241146087646,-0.014240860939025879,0.04347078129649162,0.02489025890827179,-0.01226799376308918,-1.7144731819097239,-0.8202104231977208,-0.7398516505622079
1687099486.427923,-0.6760969161987305,0.7306256294250488,0.09528253972530365,-0.011570870876312256,0.08134013414382935,-0.011222019791603088,0.01522257924079895,0.16056270897388458,-0.07679793983697891,-1.7108045717464857,-0.8192377905670081,-0.740423992398822
1687099486.5175219,-0.672046422958374,0.7350575923919678,0.08968766033649445,0.0556371808052063,0.12997835874557495,-0.09202241897583008,-0.014143725857138634,0.12851321697235107,0.3083111643791199,-1.7034669605663588,-0.8257516013523434,-0.7387474051380539
1687099486.520247,-0.6601675748825073,0.7462993264198303,0.0849476084113121,0.0019339323043823242,0.0894702672958374,-0.03650104999542236,-0.09248987585306168,0.24276670813560486,0.3911176323890686,-1.6987689394983958,-0.8424847708305696,-0.7469314483819778
1687099486.57704,-0.6475275754928589,0.7576035261154175,0.08212654292583466,-0.021829724311828613,0.20180797576904297,-0.023273587226867676,-0.29765719175338745,0.3350200355052948,0.3729615807533264,-1.6969537071208483,-0.8596337268892071,-0.7647776935781596
1687099486.66804,-0.6107845306396484,0.7858275175094604,0.09704149514436722,0.1702938675880432,0.5083617568016052,0.06512878835201263,-0.4212779700756073,-0.24375425279140472,1.7241967916488647,-1.7283594405315472,-0.9040330772835248,-0.8078988362824326
1687099486.670847,-0.5311097502708435,0.8422179222106934,0.09268844872713089,0.05680561065673828,1.1063140630722046,0.20113468170166016,1.509722113609314,-0.7742344737052917,2.1928954124450684,-1.7435747151832204,-1.0013839331473564,-0.8085934617501866
1687099486.759413,-0.3777415454387665,0.9257907271385193,-0.014932313933968544,0.08027142286300659,1.2335721254348755,0.04627370834350586,3.5561232566833496,-1.6975963115692139,4.544911861419678,-1.5312863944462074,-1.1831219003276523,-0.48501270453838463
1687099486.8484778,-0.1354510635137558,0.9799174666404724,-0.14633706212043762,-0.765031099319458,1.2536944150924683,0.4014333486557007,3.443228244781494,-0.9628336429595947,5.673372745513916,-0.7467854980677823,-1.3700471254711017,0.3850387102893409
1687099486.850659,0.16758392751216888,0.9265797734260559,-0.3366975784301758,-1.213573932647705,1.2285866737365723,0.3512238562107086,3.5334513187408447,-0.10905960202217102,7.110340118408203,0.4618286585540551,-1.1852145853870688,1.6744067235695832
1687099486.9104,0.4765135645866394,0.7202699184417725,-0.5041289925575256,-1.3839843273162842,1.232366681098938,0.46064138412475586,5.262365818023682,0.2501073479652405,7.330727577209473,0.7572450492502907,-0.804191362717853,2.0035237738410454
1687099486.915328,0.7072303891181946,0.3874225318431854,-0.5913786888122559,-1.429825782775879,0.6632975935935974,0.6877226829528809,2.392122745513916,1.9530354738235474,7.222865581512451,0.8743747632312858,-0.39783411691814186,2.1175828889178696
1687099486.997731,0.8533417582511902,0.0617213100194931,-0.5176854729652405,-1.221933126449585,0.4819188416004181,0.5935673713684082,1.2182812690734863,2.240748643875122,6.736353397369385,1.0254965533324203,-0.06176056532863397,2.272812641564311
1687099487.091298,0.8618898391723633,-0.2659403681755066,-0.431765615940094,-1.0328189134597778,0.5050456523895264,0.33478063344955444,1.3873125314712524,1.4925451278686523,6.803803443908691,1.1063872344023677,0.2691792886963078,2.3694518115329255
1687099487.0975242,0.7705118656158447,-0.5303052663803101,-0.35367724299430847,-1.0013774633407593,0.38000625371932983,0.4394773244857788,-0.2919660210609436,2.0189549922943115,5.828216075897217,1.1404700794257847,0.5589605873848922,2.4988818005227027
1687099487.17889,0.6440250873565674,-0.7010769844055176,-0.3061414062976837,-0.9210942387580872,0.19529402256011963,0.09753835201263428,-0.5444580316543579,1.4589544534683228,4.374241828918457,1.1270572846117706,0.7769067274475545,2.6508715813368835
1687099487.182087,0.513196587562561,-0.7970060706138611,-0.31845027208328247,-0.7068154215812683,0.04552602767944336,0.18942183256149292,-0.8493282794952393,0.1635696440935135,3.073983669281006,1.0154229049248504,0.9223217910797165,2.8619899126724473
1687099487.269119,0.3902612626552582,-0.8446033000946045,-0.3665257692337036,-0.6874567270278931,-0.3458719849586487,0.062067121267318726,-1.6937193870544434,0.35057908296585083,2.5895626544952393,0.8167513807260613,1.0058238191209745,3.104925509436191
1687099487.276967,0.3328774571418762,-0.8483926653862,-0.4116092622280121,-0.3616708219051361,-0.18973881006240845,-0.17829564213752747,-0.9333508610725403,0.047284141182899475,0.44199854135513306,0.6800366498361861,1.0129415741845367,-2.9928346082787343
1687099487.3283582,0.32617872953414917,-0.8253828287124634,-0.4608150124549866,-0.49375075101852417,-0.36503148078918457,-0.0821232795715332,-1.1544190645217896,1.0904182195663452,-0.0801568478345871,0.6159617251085265,0.9708799572904799,-2.90066208405908
1687099487.39145,0.3558844029903412,-0.797182559967041,-0.48769479990005493,-0.16142642498016357,0.013735473155975342,-0.07436281442642212,-0.9072785377502441,0.8651261329650879,-0.5406180620193481,0.6304000975590762,0.9226141247766826,-2.8525701744241734
1687099487.4820008,0.4380778670310974,-0.7772292494773865,-0.4516662657260895,-0.2850169837474823,-0.051170289516448975,-0.4012543261051178,2.1310787200927734,0.9973949193954468,-2.5582163333892822,0.7701271065062179,0.8902502326423725,-2.971482945866805
1687099487.48489,0.5724218487739563,-0.7407325506210327,-0.3516366183757782,-0.6628302931785583,-0.40994787216186523,-0.18528971076011658,0.7627191543579102,0.8998530507087708,-3.632664203643799,1.0199310979745264,0.8341601080694063,3.0483582274092127
1687099487.571446,0.7395668029785156,-0.5958930850028992,-0.3129732310771942,-1.0703926086425781,-0.47257304191589355,-0.004669070243835449,-0.03620987758040428,1.162360668182373,-5.307859897613525,1.170464384962878,0.6383772682579619,2.903411613257313
1687099487.579235,0.8972825407981873,-0.3527052104473114,-0.26548612117767334,-1.147557258605957,-0.12982338666915894,0.10594013333320618,-1.6966010332107544,1.3782658576965332,-5.922513484954834,1.283125496102012,0.3604605266770203,2.822648940205806
1687099487.6316252,0.9750856161117554,-0.026214193552732468,-0.22027409076690674,-1.32271146774292,-0.15322911739349365,0.07340812683105469,-3.5742721557617188,2.3548715114593506,-6.11936616897583,1.348623222376469,0.026217196974549883,2.895190792701739
1687099487.721668,0.9595398306846619,0.27863994240760803,-0.040534526109695435,-1.2455201148986816,0.27101215720176697,0.003058791160583496,0.027170957997441292,4.404664993286133,-6.342675685882568,1.528577713728215,-0.2823776771665232,2.9574283775869805
1687099487.729776,0.8139570951461792,0.5623287558555603,0.14580918848514557,-1.1429212093353271,0.15097391605377197,0.16910161077976227,-1.541297197341919,3.9569199085235596,-6.619020938873291,1.7480524564694457,-0.5971992777668828,3.004299885459658
1687099487.778863,0.49711963534355164,0.8172503709793091,0.29150205850601196,-1.1529730558395386,0.3425547480583191,0.18524333834648132,2.2300829887390137,3.366614818572998,-7.285674095153809,2.1011424835266346,-0.9566234568231278,-3.106593860276448
1687099487.874243,0.2491084337234497,0.8571882843971252,0.45074722170829773,-1.3301020860671997,0.278584361076355,1.0197116136550903,-4.9509196281433105,4.8525824546813965,-1.9993079900741577,2.6367120893127205,-1.0297850110083075,-2.616849573249621
1687099487.882266,-0.02865121141076088,0.8716478943824768,0.4892940819263458,-0.3994341194629669,0.46483880281448364,0.025399893522262573,3.7095203399658203,2.0960958003997803,-4.460895538330078,-3.083103223566457,-1.0585545259509506,-2.2399891583254843
1687099487.929572,-0.22787754237651825,0.9000943303108215,0.3713516891002655,-0.5609256029129028,0.31093478202819824,0.3744061291217804,0.13564865291118622,2.10809063911438,-4.493642330169678,-2.5912015401415793,-1.1199859768328528,-1.742470283432968
1687099488.0223389,-0.4809615910053253,0.8080076575279236,0.340292751789093,-0.4401198625564575,0.7155365347862244,0.5905694961547852,0.27969416975975037,1.981869101524353,-4.067967891693115,-2.186555367578994,-0.9407625963577816,-1.4486853200706329
1687099488.030474,-0.6410076022148132,0.7254310250282288,0.25071629881858826,-0.23733395338058472,1.027376413345337,0.5263831615447998,0.9548684358596802,2.704677104949951,-3.75270938873291,-1.9436314622034199,-0.8116604511015175,-1.255752633854367
1687099488.081706,-0.7740296125411987,0.6123539209365845,0.16093802452087402,0.49024659395217896,1.7449612617492676,0.5077477693557739,1.1270062923431396,0.4669909179210663,-1.8253859281539917,-1.7757977574333057,-0.6590345866348853,-1.1286973077612314
1687099488.1705031,-0.7876352071762085,0.5999794006347656,0.1401979774236679,0.6134104132652283,1.5214653015136719,0.40006983280181885,0.5511261820793152,-1.089034914970398,0.7406806945800781,-1.746950008908534,-0.6434753399307118,-1.057924001264497
1687099488.179735,-0.7317653894424438,0.6640002727508545,0.15369747579097748,0.2643429636955261,1.2369396686553955,0.2824443578720093,-0.04241973161697388,-0.6193097829818726,2.246800661087036,-1.77782352306527,-0.7261560194280754,-1.0477353147554302
1687099488.229523,-0.6177500486373901,0.7618946433067322,0.1946830302476883,0.06805217266082764,0.7306133508682251,0.34305182099342346,0.5978283882141113,-1.9329755306243896,3.535857677459717,-1.8760922772734565,-0.8662332589439777,-1.0952890127159676
1687099488.320967,-0.4559621214866638,0.8687431812286377,0.1933484971523285,-0.4478464722633362,0.9104620218276978,0.44102025032043457,1.7382065057754517,-1.6428545713424683,3.439052104949951,-1.971857889737165,-1.052659001154577,-1.0922010996660305
1687099488.328991,-0.22936350107192993,0.9592977166175842,0.1647423803806305,-0.43393605947494507,0.8715432286262512,0.26937007904052734,2.048671245574951,-3.0782713890075684,5.314334392547607,-2.1936717823428618,-1.2845047386061854,-1.1963340179013093
1687099488.3813028,0.05703093856573105,0.9963186979293823,0.0640031024813652,-1.0074398517608643,0.8172950744628906,0.47881293296813965,2.5715103149414062,-2.187584400177002,5.546195983886719,2.4137358863615495,-1.4849640932111994,-2.7500518045364997
1687099488.470968,0.3384742736816406,0.9357860684394836,-0.09868912398815155,-1.1723365783691406,0.7275439500808716,0.5520886778831482,2.569486141204834,-1.6184017658233643,6.0518622398376465,1.2870908176451987,-1.2104820312814089,2.496974600521056
1687099488.480773,0.5942428708076477,0.7767667174339294,-0.20858708024024963,-1.211705207824707,0.45879828929901123,0.45594722032546997,2.2606842517852783,-0.9968446493148804,6.11308479309082,1.233219183484931,-0.8895155564122691,2.5042157613060523
1687099488.561302,0.7805154919624329,0.5076103210449219,-0.3648661971092224,-1.2109050750732422,0.7599220275878906,0.48054295778274536,5.195866107940674,-0.7674484848976135,6.178268909454346,1.1335111498775357,-0.5324089387852781,2.422832232561329
1687099488.56462,0.8768339157104492,0.16335126757621765,-0.452193021774292,-1.1782103776931763,0.49570637941360474,0.5428148508071899,2.7806015014648438,0.38641613721847534,5.984648704528809,1.0946589542048573,-0.16408659799273567,2.361367570426059
1687099488.651929,0.908623993396759,-0.1358744204044342,-0.3948928713798523,-1.0520873069763184,0.2413737177848816,0.423808217048645,1.5835736989974976,1.9110668897628784,5.456347465515137,1.1608180627665114,0.1362960181146421,2.4114617269676812
1687099488.740168,0.8501555919647217,-0.4087114632129669,-0.3319491446018219,-0.6618164777755737,0.3841295838356018,0.19048482179641724,0.5782095789909363,0.13923494517803192,5.816485404968262,1.1985437281986273,0.42104177142810356,2.439234633594266
1687099488.750369,0.7306548357009888,-0.6151024699211121,-0.2962975800037384,-0.8120758533477783,0.06972289085388184,0.16929858922958374,-0.0365244522690773,2.166696071624756,4.343267440795898,1.1855375457875383,0.6625158948400619,2.571310397999695
1687099488.798674,0.6146245002746582,-0.7455597519874573,-0.2576373219490051,-0.6407781839370728,0.2904665470123291,0.059074610471725464,-0.11936932057142258,0.4706183075904846,3.5796048641204834,1.173866922474695,0.8413743884985698,2.67606774451058
1687099488.891269,0.47706565260887146,-0.8442380428314209,-0.2442750334739685,-0.48884549736976624,-0.25170910358428955,0.11233218014240265,-0.5872583985328674,0.5745950937271118,3.2967112064361572,1.0975659309103853,1.0051418864523813,2.818482541291567
1687099488.90047,0.3747560679912567,-0.9017009139060974,-0.21562258899211884,-0.453995019197464,0.08584415912628174,-0.058028608560562134,1.5832017660140991,0.30225566029548645,2.103605270385742,1.0486856713248771,1.1236875050962405,2.8987765051034584
1687099488.982358,0.3064742684364319,-0.9348134398460388,-0.17943574488162994,-0.27626192569732666,-0.6042641997337341,0.002326861023902893,-0.29908907413482666,0.028867103159427643,-0.34465861320495605,1.041118834445874,1.2077333118676883,2.901753496980846
1687099488.985273,0.3478175401687622,-0.9154660105705261,-0.20234790444374084,-0.4852382242679596,-0.48417675495147705,-0.055174753069877625,-0.4667474031448364,1.2010935544967651,0.021857310086488724,1.0438931846906365,1.1566645575840484,2.9460929976117662
1687099489.072865,0.4014984667301178,-0.8896132707595825,-0.21768569946289062,-0.24440926313400269,-0.5621688365936279,-0.1473047137260437,-0.8499747514724731,0.5670155882835388,-2.6274008750915527,1.0739743612497632,1.0964977691603524,2.95313319305682
1687099489.0834432,0.547440767288208,-0.8107796311378479,-0.20723137259483337,-0.6926891803741455,-0.27959805727005005,-0.06568747758865356,0.02047417312860489,0.7632166743278503,-3.763594388961792,1.2089206839183313,0.945482812152819,2.8316866098975706
1687099489.130352,0.7241877317428589,-0.6525517106056213,-0.2229982316493988,-0.9272823333740234,-0.5548304319381714,-0.03495168685913086,-2.1193835735321045,1.0938712358474731,-5.522825717926025,1.272081425492639,0.7109470572422129,2.8026797811548785
1687099489.222018,0.8923670053482056,-0.40419551730155945,-0.20076598227024078,-0.9243342876434326,0.012044727802276611,-0.03460097312927246,-1.3553378582000732,2.2197153568267822,-5.4988908767700195,1.3494995761296509,0.4160991163973416,2.817929439673125
1687099489.231884,0.9847742319107056,-0.11761883646249771,-0.12800532579421997,-0.8886287212371826,0.1443675458431244,-0.12606889009475708,-1.7691164016723633,1.8070176839828491,-6.1507720947265625,1.441536622597634,0.11789173394874859,2.8367524210495865
1687099489.3445392,0.9860052466392517,0.16628648340702057,-0.01191793940961361,-1.0945565700531006,0.10635755956172943,-0.015166519209742546,-0.5951610207557678,3.114590883255005,-5.3605194091796875,1.5587098203845486,-0.16706251674840333,2.891353665527112
1687099489.3473392,0.8880289196968079,0.422730952501297,0.1808391958475113,-0.9711284637451172,0.06455841660499573,0.06186698377132416,0.4207655191421509,3.3904075622558594,-4.515442848205566,1.7716904990778526,-0.4364566698454854,2.9340216455440076
1687099489.4315748,0.7328946590423584,0.5929217338562012,0.33362993597984314,-1.1214293241500854,0.019779682159423828,0.3184390068054199,-2.28605580329895,4.086565017700195,-4.6793904304504395,1.997984563536968,-0.6346823169840281,3.0986102540750866
1687099489.435423,0.4850296676158905,0.7407708168029785,0.4647630453109741,-0.7989792823791504,0.36759716272354126,0.27682918310165405,1.9730480909347534,3.7902426719665527,-4.695400238037109,2.3348597967327227,-0.834217093656472,-2.9850634099111955
1687099489.521559,0.2179514467716217,0.8773985505104065,0.4273975193500519,-0.5712992548942566,0.34783637523651123,0.2864847183227539,1.153831958770752,2.3589131832122803,-4.84454870223999,2.670016623072136,-1.0704126770281095,-2.7706353266272536
1687099489.5331411,-0.03890950232744217,0.9145979881286621,0.4024876356124878,-0.8620914816856384,0.4448532462120056,0.3451317548751831,1.384779691696167,3.360278606414795,-4.139105319976807,-3.0452195944360025,-1.1545125662450022,-2.285410814198453
1687099489.582124,-0.2859567403793335,0.9015008807182312,0.3248458802700043,-0.4061208963394165,0.4581640362739563,0.4705031216144562,0.8135804533958435,1.8336939811706543,-4.142507553100586,-2.4197776191798184,-1.1232251295170903,-1.7473218998592939
1687099489.673166,-0.48328840732574463,0.8362743854522705,0.25899264216423035,-0.465411514043808,0.7456194758415222,0.5361578464508057,1.0248322486877441,1.1818158626556396,-3.9537787437438965,-2.0627472132480658,-0.9904528597957013,-1.4287838888182698
1687099489.6844912,-0.630038321018219,0.7515215873718262,0.19561903178691864,0.09674370288848877,0.6888927221298218,0.5030654668807983,1.6430307626724243,-0.5421338081359863,-3.0551607608795166,-1.8718467138941701,-0.8503655495219149,-1.2105305362975611
1687099489.730847,-0.7202929258346558,0.6726680994033813,0.16939854621887207,-0.07958805561065674,0.8233951330184937,0.17519058287143707,1.389599084854126,-0.9025182723999023,-2.544389009475708,-1.8017789428054098,-0.7378087229585367,-1.0437176663912593
1687099489.8234239,-0.7956309914588928,0.5852707028388977,0.1562991589307785,0.1735454797744751,0.9705153703689575,0.15868794918060303,0.2713771164417267,0.11801072210073471,-2.064648151397705,-1.7647730316839327,-0.625213886001459,-0.9663268627058503
1687099489.835133,-0.8188415169715881,0.5556337833404541,0.1441166251897812,0.2900177240371704,1.1264339685440063,-0.06591546535491943,0.4210514724254608,-0.027288734912872314,0.0945897251367569,-1.745012721769167,-0.589125071005035,-0.9283378171412678
1687099489.881942,-0.7891270518302917,0.5965791940689087,0.1461905539035797,0.348788857460022,0.8564541935920715,-0.04743574559688568,0.18770375847816467,-0.4398795962333679,1.78080415725708,-1.75397565650206,-0.6392319511752161,-0.9291285504311614
1687099489.946511,-0.7182536125183105,0.676393449306488,0.16310666501522064,0.026221752166748047,0.6350231766700745,0.1962529569864273,-0.538802444934845,-0.17626389861106873,2.3529624938964844,-1.7940971190824506,-0.7428549231854162,-0.9573344669079673
1687099490.0345669,-0.6216359734535217,0.7591090798377991,0.19318951666355133,-0.02278846502304077,0.8341069221496582,0.15794554352760315,0.05984463915228844,-1.1031941175460815,2.9831392765045166,-1.872109775414596,-0.8619433882250325,-1.0379997036885513
1687099490.03948,-0.4584348499774933,0.8673970103263855,0.19354526698589325,-0.19967669248580933,1.1262247562408447,0.47611701488494873,1.9285176992416382,-1.8175626993179321,4.380179405212402,-1.9702819912419638,-1.0499473238283608,-1.0621162373228783
1687099490.120446,-0.1881340593099594,0.9796387553215027,0.07009431719779968,-0.7813636064529419,1.5154935121536255,0.18295729160308838,4.837742805480957,-2.7117273807525635,6.358251571655273,-1.9274405471887304,-1.3686541824517655,-0.8956443471945279
1687099490.133872,0.17361192405223846,0.9777027368545532,-0.11813581734895706,-1.491895079612732,1.1978037357330322,0.8909170627593994,3.489872932434082,-0.5680810809135437,8.07125473022461,0.9733057905119531,-1.3592279183182587,2.093756226962712
1687099490.180263,0.5393916368484497,0.7708604335784912,-0.33886682987213135,-1.5489590167999268,1.3930647373199463,0.3758997917175293,4.809673309326172,-1.4009766578674316,8.663497924804688,1.0098713017613088,-0.8801907860122188,2.198918628884266
1687099490.273158,0.7817222476005554,0.4121188521385193,-0.46804749965667725,-1.7837822437286377,0.8888149857521057,0.9312126636505127,3.1405296325683594,0.3439571261405945,8.153656005859375,1.0313046159891122,-0.4247783548831739,2.2759276687095027
1687099490.283498,0.8876722455024719,0.0055038221180438995,-0.46044275164604187,-1.4801559448242188,0.6530960202217102,0.5336848497390747,2.7040250301361084,1.328796148300171,7.495931625366211,1.0922945442593484,-0.005503850034903248,2.3406992840009413
1687099490.332962,0.8542540073394775,-0.3461218476295471,-0.3878783881664276,-1.3178313970565796,0.5524970293045044,0.47482287883758545,0.9489731788635254,1.6278667449951172,6.648780345916748,1.144575295934785,0.35343427218542833,2.4061914794714085
1687099490.421229,0.7392101883888245,-0.6046010851860046,-0.2966914772987366,-1.1217480897903442,0.22307032346725464,0.32537785172462463,0.24691851437091827,2.11553692817688,5.70716667175293,1.1891156757651353,0.6492649572532534,2.527987904997409
1687099490.43498,0.5852643251419067,-0.7802765965461731,-0.22053146362304688,-0.8522778749465942,0.26788657903671265,0.028575778007507324,0.36723339557647705,1.4697283506393433,4.57175874710083,1.2104427114709202,0.8951079584197882,2.6291814333025867
1687099490.480751,0.4247044026851654,-0.8795119524002075,-0.21467414498329163,-0.6915348172187805,0.06904137134552002,0.13343623280525208,-1.0509865283966064,0.7968755960464478,3.627390146255493,1.102784540848177,1.0748355967371308,2.8186340738542617
1687099490.601828,0.2986450791358948,-0.9304407238960266,-0.21234674751758575,-0.5635834336280823,-0.08288007974624634,-0.02872699499130249,0.642175555229187,0.5497333407402039,2.139995574951172,0.9527034497853044,1.195613762062754,3.0396923832426426
1687099490.606406,0.2455647885799408,-0.9529737234115601,-0.17759141325950623,-0.4942525625228882,-0.3166794180870056,-0.10404013097286224,0.07074613124132156,-0.33301979303359985,-0.3568628430366516,0.9446717791677923,1.2629018013445676,3.027980268982912
1687099490.696885,0.28885987401008606,-0.9315614700317383,-0.22080132365226746,-0.7033191323280334,-1.0846128463745117,-0.04966086149215698,-1.1776236295700073,1.1543822288513184,-1.1256896257400513,0.9181496718694458,1.1986840809071746,3.0928740218963666
1687099490.700931,0.42060187458992004,-0.8744080066680908,-0.24187736213207245,-0.6162500977516174,-0.15740644931793213,-0.07613116502761841,-1.160645604133606,1.2034926414489746,-3.6581783294677734,1.0489061437835243,1.064214358592573,3.0136517650623813
1687099490.783558,0.5980480909347534,-0.7573436498641968,-0.2622380554676056,-0.6678265929222107,-0.4327043890953064,-0.05859336256980896,-0.963830292224884,1.6655504703521729,-4.068436622619629,1.1575553156583065,0.8592356330274381,2.97490613696122
1687099490.7886329,0.7723638415336609,-0.5943222045898438,-0.2241315096616745,-0.6822456121444702,0.1241227388381958,-0.06448861956596375,0.3935588598251343,1.0150946378707886,-5.277529716491699,1.2883645659449576,0.636422589896543,2.871835908597582
1687099490.8731298,0.9120202660560608,-0.3592611253261566,-0.19786426424980164,-0.5627314448356628,-0.11164030432701111,-0.013668403029441833,-1.0110867023468018,-0.09363223612308502,-5.548596382141113,1.3571555465775451,0.3674760265587322,2.8051530815649266
1687099490.886755,0.9671332240104675,-0.09397736191749573,-0.23626570403575897,-0.7879951596260071,0.07720798254013062,0.14903104305267334,-1.023097038269043,-0.27341052889823914,-5.046257019042969,1.3311943537723865,0.09411624731748569,2.816938872999971
1687099490.929439,0.9702151417732239,0.19581574201583862,-0.14261333644390106,-0.9861301779747009,0.20515474677085876,0.2449691891670227,-1.9751744270324707,3.0568320751190186,-5.755442142486572,1.4248500158147592,-0.19708923131329167,2.832554135233041
1687099491.0209742,0.8948525190353394,0.4459421634674072,0.01935032568871975,-0.7791604995727539,-0.17195534706115723,0.053891777992248535,-2.997624158859253,2.1531710624694824,-4.494970321655273,1.5924169953772767,-0.4622266106311528,2.94151499055966
1687099491.032422,0.7399215698242188,0.6186462044715881,0.26418307423591614,-0.8185959458351135,0.1745361089706421,0.17388129234313965,-4.239912986755371,4.007845878601074,-4.644665718078613,1.9137308331359064,-0.6670184259087482,-3.051569546670015
1687099491.0800319,0.5400184988975525,0.7009382843971252,0.46590283513069153,-0.682184636592865,-0.04763317108154297,0.08268100023269653,0.8543570637702942,4.203883171081543,-2.9385247230529785,2.2826479977722043,-0.7767121857117028,-2.7854736839754906
1687099491.178184,0.2842666506767273,0.8442201614379883,0.45440590381622314,-0.8738358020782471,0.6879149675369263,0.13301151990890503,2.153012990951538,2.7436060905456543,-5.731749057769775,2.582577297662254,-1.0051085205724124,-2.613591882708021
1687099491.193169,0.01053351815789938,0.9100090861320496,0.4144543409347534,-0.5746204257011414,0.17869031429290771,0.32855695486068726,1.6352980136871338,3.038198947906494,-4.2159624099731445,3.116182734972006,-1.143306042053917,-2.1718796152939746
1687099491.232048,-0.2784949541091919,0.9065477252006531,0.31719347834587097,-0.4660119116306305,1.0076369047164917,0.4001219570636749,0.7845601439476013,3.4735395908355713,-4.51552152633667,-2.4210677218830203,-1.135032058635615,-1.5503847519543552
1687099491.323657,-0.4605010449886322,0.8498261570930481,0.2563871443271637,-0.10738533735275269,0.7238280773162842,0.49053052067756653,0.17690612375736237,1.5509570837020874,-2.6771066188812256,-2.078812353795824,-1.0156553418243695,-1.304671347897981
1687099491.3384042,-0.5681288242340088,0.7899155616760254,0.23078715801239014,-0.08468788862228394,0.6100782155990601,0.41537654399871826,-0.22605837881565094,0.643541157245636,-1.8962284326553345,-1.9566560732781353,-0.910671254947793,-1.2174157787318045
1687099491.380307,-0.6389166116714478,0.7382144927978516,0.2163897603750229,0.17486649751663208,0.6056574583053589,0.24524949491024017,0.5246924757957458,0.007836547680199146,-1.430145502090454,-1.8973532145168854,-0.8304196293986666,-1.1650226030943585
1687099491.475058,-0.6772424578666687,0.7105817794799805,0.19082973897457123,0.11191970109939575,0.6309861540794373,0.07775519788265228,0.871064305305481,-0.13459207117557526,-0.9626966714859009,-1.8454498638306913,-0.7903246724933601,-1.0719575690187426
1687099491.4903178,-0.7067928314208984,0.6859105825424194,0.1731196790933609,0.1478939652442932,0.4448113441467285,0.18036530911922455,0.025878630578517914,0.4983472228050232,-0.5156229138374329,-1.8110041315995817,-0.7558542956767487,-1.0479261884578717
1687099491.530603,-0.7108172178268433,0.6850076913833618,0.1596965789794922,0.2504596710205078,0.41486096382141113,0.13905511796474457,0.3012874126434326,-0.2847767770290375,0.26428115367889404,-1.7917929872842846,-0.7546142832883911,-1.0219029810507598
1687099491.6532269,-0.6958834528923035,0.697779655456543,0.16985192894935608,0.07942843437194824,0.19243329763412476,0.1579219102859497,-0.29558220505714417,-0.2366151660680771,0.5268072485923767,-1.8101964683410727,-0.7722931347601565,-1.0365398044908827
1687099491.669219,-0.6677139401435852,0.7200477719306946,0.18891523778438568,0.031926095485687256,0.12702852487564087,0.03590761125087738,0.35523927211761475,-0.8239621520042419,0.6298457980155945,-1.8465184677225226,-0.8038711927780563,-1.0465699393204484
1687099491.710326,-0.6390711069107056,0.7415210008621216,0.20428980886936188,-0.05061084032058716,-0.12300616502761841,0.006876438856124878,-0.1808084398508072,-0.34474894404411316,0.6598721742630005,-1.8801969840795991,-0.8353345761837081,-1.049752903804938
1687099491.836863,-0.6209079027175903,0.7529598474502563,0.21800102293491364,-0.08667254447937012,-0.12039166688919067,-0.050810620188713074,-0.09550004452466965,-0.11402496695518494,0.2440069317817688,-1.9084511415137857,-0.8525483648569514,-1.073993208242477
1687099491.851517,-0.6120428442955017,0.7585760354995728,0.22353054583072662,-0.07809686660766602,-0.13610905408859253,-0.08467578887939453,-0.05405572056770325,-0.044232193380594254,0.12278684973716736,-1.920965666367821,-0.8611249068060807,-1.0827812907765952
1687099491.925747,-0.610981822013855,0.7593327164649963,0.22386357188224792,-0.04230797290802002,-0.10499006509780884,-0.053346723318099976,0.2402389794588089,-0.018467335030436516,-0.11551244556903839,-1.9220058007986283,-0.8622870631125866,-1.0826593534108349
1687099491.940918,-0.6259695291519165,0.7560278177261353,0.19126906991004944,-0.02580958604812622,-0.051773786544799805,0.008468389511108398,2.3906588554382324,-0.8192055225372314,-0.9925369620323181,-1.8673429998346167,-0.8572230020456086,-0.9905821723846517
1687099491.9437509,-0.6575981378555298,0.7430453896522522,0.12428947538137436,0.045125722885131836,-4.929304122924805e-05,0.08365713059902191,2.743752956390381,-1.7270985841751099,-0.8966903686523438,-1.7575979616376332,-0.8376094140967325,-0.7534287679976005
1687099491.984542,-0.6921516060829163,0.7190015912055969,0.06294908374547958,-0.01931983232498169,-0.12572473287582397,0.11476992815732956,4.128054141998291,-1.5833860635757446,-1.6118324995040894,-1.6614937679310215,-0.8023646721954608,-0.5116150097185119
1687099492.069744,-0.7429481744766235,0.6690965294837952,-0.01837337762117386,0.1908242106437683,0.08014041185379028,0.2537858486175537,2.8566222190856934,-2.0186409950256348,-0.7414112687110901,-1.5460710044820503,-0.7329924466998073,-0.2047971352490149
1687099492.0839372,-0.7538532018661499,0.6570025682449341,0.007265913765877485,-0.23027753829956055,-0.25853461027145386,0.03130817413330078,-0.6141727566719055,-0.4794527292251587,-0.26019248366355896,-1.5804343948311081,-0.7168358507018813,-0.16164463615905605
1687099492.12865,-0.7669323086738586,0.6412208676338196,0.025500239804387093,0.06325817108154297,0.18145662546157837,-0.03885186091065407,0.48348262906074524,-0.1854964792728424,-0.42172563076019287,-1.6040337437793077,-0.6960882462761986,-0.18751503362934485
1687099492.223054,-0.7870737314224243,0.6168032288551331,-0.00829659029841423,0.07386255264282227,0.37054717540740967,-0.27089357376098633,3.531872034072876,-1.8022314310073853,-0.6066051721572876,-1.560255658758982,-0.6646748191223922,-0.037414061511024596
1687099492.240003,-0.7926440238952637,0.6096447110176086,-0.006964850705116987,-0.10083431005477905,-0.1648663878440857,-0.08249753713607788,0.6316466927528381,-1.0683187246322632,0.14129255712032318,-1.5620096947857756,-0.655612314401148,0.09572783027095841
1687099492.281025,-0.7915689945220947,0.6110506653785706,0.005979211535304785,-0.01606351137161255,-0.012906134128570557,-0.0018746843561530113,0.023984111845493317,-0.2044309675693512,0.046391744166612625,-1.578349802908624,-0.6573871585223051,0.10742687860503686
1687099492.3728518,-0.7863013744354248,0.6176876425743103,0.013851211406290531,-0.024581074714660645,-0.0054135918617248535,-0.10178780555725098,0.34092336893081665,-0.1981363743543625,0.09941273182630539,-1.5884101562288928,-0.6657989221147487,0.12682839104237909
1687099492.389964,-0.7840830087661743,0.6206009387969971,0.00825353804975748,-0.021825134754180908,0.004536271095275879,-0.0034166574478149414,-0.19086922705173492,0.06383595615625381,0.23996418714523315,-1.5813222954082544,-0.6695088783694778,0.13148070283362043
1687099492.428524,-0.7729715704917908,0.6341797709465027,0.018195729702711105,-0.062248826026916504,-0.10872811079025269,0.003792049363255501,-1.0175540447235107,0.5424495339393616,0.3486102223396301,-1.5943319523538757,-0.686947212879835,0.0972565455197028
1687099492.557222,-0.7661865949630737,0.6421008110046387,0.025779807940125465,-0.003253161907196045,0.012821614742279053,-0.04196953400969505,-0.5955666303634644,0.5342729091644287,0.14108401536941528,-1.604430544321346,-0.6972354657034164,0.03280990365995218
1687099492.573698,-0.7608709335327148,0.6481378078460693,0.03150644898414612,-0.02207273244857788,-0.05901134014129639,-0.02972126007080078,-0.8908576965332031,0.527118444442749,0.1830037236213684,-1.6121810856659882,-0.7051365040200819,-0.002712513458750605
1687099492.641943,-0.757632315158844,0.6513793468475342,0.041209626942873,-0.015255928039550781,-0.019696056842803955,0.028217796236276627,-1.3606315851211548,0.8529890775680542,0.18400724232196808,-1.6251354295036826,-0.7094009691530394,-0.08796302368842711
1687099492.6568022,-0.7507703900337219,0.6583127975463867,0.05447934940457344,-0.0080033540725708,0.009243905544281006,-0.025564074516296387,-1.3380122184753418,0.8608523011207581,0.3115200996398926,-1.6432339550022586,-0.7185751546189835,-0.1686704526035312
1687099492.7317948,-0.7451519966125488,0.6639423370361328,0.06268355995416641,0.025257587432861328,0.04562187194824219,0.024840719997882843,-1.056938886642456,0.8507661819458008,0.21151530742645264,-1.6547205807954655,-0.7260785204091973,-0.2606523538307768
1687099492.7357988,-0.7433452606201172,0.6661921143531799,0.0602135993540287,0.02290165424346924,0.08595925569534302,0.028638120740652084,-0.4758507013320923,0.3805210590362549,0.12020169943571091,-1.65162339598155,-0.7290911480157137,-0.3012593690997594
1687099492.822973,-0.7392848134040833,0.6702436804771423,0.06504849344491959,-0.005801796913146973,-0.01042318344116211,0.0587763786315918,-0.7193349599838257,0.4707289934158325,0.15197381377220154,-1.6585587164701792,-0.7345370576796847,-0.3401921971661798
1687099492.840163,-0.7368074655532837,0.6726407408714294,0.06833192706108093,0.046865999698638916,0.06643396615982056,0.057217247784137726,-0.2777053415775299,0.2780912518501282,0.07776786386966705,-1.663272360970403,-0.7377717033249165,-0.37858414776793997
1687099492.877245,-0.7351852059364319,0.6746167540550232,0.06629358232021332,0.03399813175201416,0.01634693145751953,0.05885887145996094,0.014548424631357193,0.0712578147649765,0.04150544852018356,-1.6607257346979267,-0.7404453855198869,-0.384439858249877
