Timestamp,gravityX,gravityY,gravityZ,accelerationX,accelerationY,accelerationZ,rotationRateX,rotationRateY,rotationRateZ,attitudeRoll,attitudePitch,attitudeYaw
1687086688.645571,-0.7792524695396423,0.5998501777648926,0.18150801956653595,0.0008711814880371094,-8.821487426757812e-05,-0.006322145462036133,-0.008527386002242565,-0.01905604638159275,0.001161995343863964,-1.7996417645852734,-0.6433138514068611,2.8052926518744297
1687086688.648747,-0.7791344523429871,0.5999897718429565,0.1815529614686966,-0.0024816393852233887,0.002808690071105957,-0.006168723106384277,0.0033369436860084534,-0.008047230541706085,0.008385886438190937,-1.799729943226777,-0.6434882926395376,2.8053354957288557
1687086688.7079868,-0.7789275646209717,0.6002541184425354,0.18156608939170837,-0.004168510437011719,-0.00027865171432495117,-0.000536113977432251,-0.007878480479121208,-0.009571518748998642,0.010170115157961845,-1.7998046286894496,-0.643818812217358,2.8052270400863017
1687086688.792616,-0.7787186503410339,0.6004765033721924,0.18172767758369446,-0.0034009814262390137,0.0002467036247253418,-0.0007892996072769165,-4.4152140617370605e-05,-0.01228256244212389,-0.0015821922570466995,-1.8000607254014596,-0.6440968357111895,2.8053498919759754
1687086688.7954888,-0.7787322402000427,0.6003365516662598,0.18213117122650146,-0.0034789443016052246,-0.0013222694396972656,0.0002720355987548828,-0.019429834559559822,-0.008022303692996502,-0.005532015115022659,-1.800548180341205,-0.6439218872009592,2.8051031624426273
1687086688.952128,-0.778801441192627,0.6000913977622986,0.18264265358448029,-0.003272414207458496,0.0021729469299316406,-0.0008039623498916626,-0.020078901201486588,-0.006426963955163956,-0.002659529447555542,-1.801151099067805,-0.643615362880421,2.804556400156437
1687086688.953459,-0.7788645029067993,0.5998793244361877,0.18307004868984222,-0.002934753894805908,0.004612863063812256,-0.0040541887283325195,0.0004611024633049965,-0.0024486808106303215,-0.00189540209248662,-1.8016531777854945,-0.6433502732783094,2.8038359329370772
1687086688.9552832,-0.7790298461914062,0.5997108221054077,0.18291915953159332,-0.00215911865234375,0.0008599162101745605,-0.0029725879430770874,-0.003719687694683671,0.008286308497190475,-0.0055466401390731335,-1.80142233251744,-0.6431396540352637,2.804044820446193
1687086689.005001,-0.7793700098991394,0.5993673205375671,0.18259567022323608,-0.00477910041809082,-0.0016500353813171387,-0.00438845157623291,-0.0177379809319973,0.011311286129057407,-0.008471634238958359,-1.8009317778074951,-0.6427105114454423,2.8034028057447165
1687086689.102684,-0.7797088623046875,0.5989887118339539,0.18239036202430725,-0.002532780170440674,-0.007405459880828857,-0.0026421695947647095,-0.01628868840634823,0.008714437484741211,-0.012183393351733685,-1.8005856102896327,-0.6422375661346057,2.8026336795694546
1687086689.103648,-0.7804769277572632,0.5981405973434448,0.18188896775245667,-0.0009256601333618164,-0.008785068988800049,-0.00015698373317718506,-0.023316077888011932,0.019101779907941818,-0.026798199862241745,-1.7997581052824068,-0.6411788758029047,2.8022564368197633
1687086689.1561952,-0.7813971042633057,0.5970684885978699,0.1814597100019455,-0.0005851984024047852,-0.0019451379776000977,0.0030187368392944336,0.00041502946987748146,0.006456396542489529,-0.02931002713739872,-1.7989766237571965,-0.6398416972588935,2.802164341272599
1687086689.275899,-0.782246470451355,0.5958451628684998,0.1818217635154724,-0.0002548098564147949,-0.0003402829170227051,0.0058763474225997925,-0.02223595418035984,0.0015694965841248631,-0.02252637781202793,-1.7991765163591402,-0.6383175911664021,2.801515688831108
1687086689.280614,-0.782831072807312,0.5948737263679504,0.1824840009212494,0.003656446933746338,0.0077568888664245605,-0.0007978826761245728,-0.003487992798909545,-0.0038270796649158,-0.02312081679701805,-1.799814326014122,-0.6371085271199526,2.801069260318341
1687086689.36602,-0.783126711845398,0.5942385792732239,0.18328329920768738,0.004486083984375,0.007064521312713623,-0.003397703170776367,-0.01570146158337593,-0.0029515386559069157,-0.0117237763479352,-1.8006987279769682,-0.6363186250981986,2.800352173931157
1687086689.368042,-0.7833860516548157,0.5939082503318787,0.18324686586856842,-0.00042742490768432617,0.008173167705535889,0.00014831125736236572,-0.01767129637300968,0.0061120507307350636,-0.002359657548367977,-1.800581181420539,-0.635907949423117,2.800234863539051
1687086689.455645,-0.7834841012954712,0.593786895275116,0.18322035670280457,0.0007236003875732422,0.003579437732696533,0.0010292530059814453,0.0020321542397141457,0.0035497164353728294,-0.001712287776172161,-1.8005213307948464,-0.6357571580552226,2.799578649506006
1687086689.457953,-0.7836044430732727,0.5938158631324768,0.18261054158210754,0.00032514333724975586,-0.0023088455200195312,0.0012881755828857422,0.004134294111281633,0.0033423099666833878,-0.004994078539311886,-1.7997492683992524,-0.6357931115361238,2.8004614229645135
1687086689.547782,-0.7837178707122803,0.5935421586036682,0.18301303684711456,-0.0033608675003051758,-0.008642315864562988,0.004227280616760254,-0.03368408605456352,0.0026595285162329674,-0.0024653184227645397,-1.800204363650971,-0.635453035363153,2.7992826810970572
1687086689.5519161,-0.7839565277099609,0.5930387377738953,0.18362122774124146,-0.002816915512084961,-0.004736185073852539,0.002550944685935974,-0.01364454347640276,-0.004560674075037241,-0.009611645713448524,-1.8008725291089678,-0.6348276574913045,2.798322597479232
1687086689.637459,-0.7842543125152588,0.5923439860343933,0.18458956480026245,-0.00894308090209961,-0.00025725364685058594,0.000911220908164978,-0.030828004702925682,-0.010433051735162735,-0.011149553582072258,-1.8019584407943938,-0.6339650658326377,2.797455091904605
1687086689.7280002,-0.7844669222831726,0.5918186902999878,0.18536952137947083,0.004926145076751709,0.0024805665016174316,-0.008703485131263733,0.022802256047725677,-0.012606296688318253,-0.01885521039366722,-1.8028398695463357,-0.6333131983721703,2.797054949815398
1687086689.732594,-0.7851618528366089,0.5910826325416565,0.18477529287338257,-0.0005283355712890625,-0.007098257541656494,-0.009833574295043945,0.010416477918624878,0.011294135823845863,-0.02293018065392971,-1.8019248027430712,-0.6324003697839986,2.798436326062621
1687086689.816615,-0.7863823175430298,0.5900399088859558,0.18290874361991882,0.00035643577575683594,-0.0018135905265808105,-0.0043048858642578125,0.034959688782691956,0.023499296978116035,-0.038787905126810074,-1.799328110724893,-0.6311082879445351,2.800148429298213
1687086689.8214931,-0.7877497673034668,0.5888077616691589,0.1809852421283722,-0.0011754035949707031,-0.00209200382232666,0.006621256470680237,-0.00852259248495102,0.02120429091155529,-0.02814766764640808,-1.7966269415278673,-0.6295830315006733,2.801997305261308
1687086689.910815,-0.7884060740470886,0.5880332589149475,0.1806441992521286,0.0012816190719604492,0.008524298667907715,0.007969364523887634,0.008929049596190453,-0.010629432275891304,-0.01100365724414587,-1.796034302547938,-0.6286250827586136,2.802259737516247
1687086689.915735,-0.7884379029273987,0.5877732634544373,0.18135099112987518,-0.005705773830413818,0.003855884075164795,0.00437869131565094,-0.007856694981455803,0.007328742183744907,-0.0033057015389204025,-1.796877089406214,-0.6283036779504636,2.8019491314751956
1687086689.997077,-0.788465678691864,0.5877496600151062,0.18130677938461304,-0.0018480420112609863,0.005695164203643799,5.8904290199279785e-05,0.022787554189562798,0.008537444286048412,0.0025062481872737408,-1.7968161445893884,-0.628274564967428,2.8022813697307054
1687086690.00176,-0.7882288694381714,0.5881081223487854,0.18117403984069824,-0.0021001100540161133,-0.002048492431640625,0.00519658625125885,-0.005486695095896721,-0.00248830858618021,0.007868301123380661,-1.7967217921103298,-0.6287176969516134,2.802569170746444
1687086690.056591,-0.7878887057304382,0.5885756015777588,0.18113566935062408,-0.002028346061706543,-0.0027295947074890137,-0.0027606338262557983,0.03694816678762436,-0.02167542465031147,-0.0014518527314066887,-1.7967698045277736,-0.6292957873097235,2.803654936946955
1687086690.1497889,-0.7883616089820862,0.5882625579833984,0.18009106814861298,-0.011946439743041992,-0.009756147861480713,-0.01224459707736969,0.04532695189118385,0.048827074468135834,-0.02571091800928116,-1.7953798690940082,-0.6289086137317803,2.8060167742599007
1687086690.155016,-0.7899617552757263,0.5873355269432068,0.17606119811534882,-0.0009470582008361816,9.739398956298828e-05,-0.007497534155845642,0.03966411203145981,0.06693848967552185,-0.03316950052976608,-1.7900853946877393,-0.6277627824062797,2.809235387616193
1687086690.209043,-0.7910902500152588,0.5868608951568604,0.1725398451089859,0.0008988380432128906,0.009666144847869873,0.010275468230247498,-0.004331415519118309,0.04021947458386421,0.005617131013423204,-1.7855373113656658,-0.6271764504927322,2.811196034266434
1687086690.296787,-0.7906873226165771,0.5876230597496033,0.17179232835769653,0.002738654613494873,0.011360704898834229,0.010260000824928284,-0.025481441989541054,0.001409227610565722,0.04113220423460007,-1.7847408179671687,-0.6281180737694672,2.810534549870057
1687086690.301965,-0.7888162136077881,0.5894621014595032,0.17407792806625366,0.0013712644577026367,0.0023652315139770508,0.006112933158874512,-0.020308731123805046,-0.026034487411379814,0.05501319840550423,-1.787997521626503,-0.630392822362129,2.8073906777593303
1687086690.355888,-0.7866765856742859,0.5914824604988098,0.17688533663749695,-0.004842638969421387,-0.011144936084747314,0.005060210824012756,-0.03390076011419296,-0.04330018535256386,0.05595793575048447,-1.79196932986077,-0.6328961937526315,2.804600851030639
1687086690.4487429,-0.7846859693527222,0.5933418869972229,0.17947955429553986,-0.007229745388031006,-0.012439846992492676,-0.006719842553138733,-0.03149198368191719,-0.04072054475545883,0.047385018318891525,-1.795656166612543,-0.635204184222538,2.802418592977994
1687086690.454834,-0.7833284139633179,0.5945144891738892,0.181519016623497,-0.003521561622619629,-0.015122950077056885,-0.01016305387020111,-0.0542314387857914,-0.018341360613703728,0.04266882315278053,-1.7985051431764447,-0.6366617326861002,2.79944466065427
1687086690.506774,-0.782386839389801,0.5953351259231567,0.1828845888376236,-0.0118330717086792,-0.010191082954406738,-0.008080244064331055,-0.050066038966178894,-0.025838319212198257,0.033926334232091904,-1.8004254027488518,-0.6376826785006359,2.7969986094223858
1687086690.56761,-0.7818849086761475,0.5956197381019592,0.1841011643409729,-0.011007606983184814,-0.010582387447357178,-0.017292335629463196,-0.03378762677311897,-0.005304761230945587,0.008625682443380356,-1.8020424023380426,-0.6380369831042357,2.7943825853424364
1687086690.658455,-0.7823770046234131,0.5952431559562683,0.18322594463825226,-0.008638620376586914,-0.004438042640686035,-0.020048722624778748,-0.003515582997351885,0.027422506362199783,-0.01072380319237709,-1.8008418375135824,-0.6375682076441823,2.794012726626642
1687086690.661008,-0.7834995985031128,0.5947322845458984,0.18006069958209991,-0.007638096809387207,0.003717482089996338,-0.016761407256126404,0.019166242331266403,0.05685187503695488,-0.017719371244311333,-1.7966898961905304,-0.6369325880352537,2.795624910641869
1687086690.7484999,-0.7848748564720154,0.5942582488059998,0.17558029294013977,0.006112158298492432,0.003199636936187744,-0.005124568939208984,-0.009262312203645706,0.08481874316930771,-0.008942103944718838,-1.7908776618904885,-0.6363430357178737,2.797360568667729
1687086690.7542,-0.7859920859336853,0.5940041542053223,0.17139281332492828,0.004299581050872803,0.001958489418029785,0.00905732810497284,0.012373102828860283,0.06860935688018799,-0.012464800849556923,-1.7854946748617915,-0.636027165905984,2.7983485534652206
1687086690.8061872,-0.7866808772087097,0.5936629176139832,0.16940319538116455,0.005293607711791992,-0.004795730113983154,0.019286751747131348,-0.01905752532184124,0.053246911615133286,-0.003951961174607277,-1.78289664357249,-0.6356030321016412,2.7977160824703287
1687086690.898505,-0.7869192361831665,0.5933765172958374,0.1692991554737091,0.006523847579956055,-0.0020068883895874023,0.02346479892730713,-0.017348840832710266,0.01746414788067341,-0.0072579216212034225,-1.7827079301850184,-0.6352472324530105,2.796750479434104
1687086690.903961,-0.7867703437805176,0.5928298830986023,0.17188690602779388,0.006557941436767578,-0.002909839153289795,0.018054261803627014,-0.01846422627568245,-0.005577149335294962,-0.008245976641774178,-1.7858882451901994,-0.634568301398302,2.7935565759040983
1687086690.95755,-0.7867230772972107,0.592241108417511,0.1741182655096054,0.007517755031585693,-0.0006425380706787109,0.00836135447025299,-0.024888142943382263,0.005065055564045906,-0.014778687618672848,-1.7886062190033947,-0.6338373430180442,2.79201792818554
1687086691.0203118,-0.7869765162467957,0.5913345217704773,0.1760445386171341,0.0003858208656311035,0.005146920680999756,0.007884666323661804,0.013506276533007622,-0.008199403993785381,-0.021270498633384705,-1.790870530804396,-0.6327127170174531,2.7900133703879253
1687086691.107121,-0.7871970534324646,0.5906801223754883,0.1772509664297104,0.0012626051902770996,0.002718985080718994,0.00966896116733551,-0.01882316544651985,-0.025521669536828995,-0.010547990910708904,-1.7922699128102553,-0.6319014574636982,2.7900732190759143
1687086691.1096,-0.7870292067527771,0.5904334783554077,0.1788102388381958,0.00701528787612915,0.01207500696182251,0.002112969756126404,0.019078411161899567,-0.04090382158756256,-0.002593128476291895,-1.7942003875825383,-0.6315958545183394,2.790120073062832
1687086691.199827,-0.7864634990692139,0.5905033946037292,0.18105436861515045,-0.001286625862121582,0.004070580005645752,-0.0007109642028808594,-0.024381928145885468,-0.02527383528649807,0.005697314627468586,-1.797067295343004,-0.6316824646175411,2.7885605190571705
1687086691.206233,-0.7860706448554993,0.5906902551651001,0.18214744329452515,-0.0015574097633361816,0.005318045616149902,-0.0074346065521240234,-0.0010342095047235489,-0.02005654387176037,0.0014518362004309893,-1.7984966587535545,-0.6319140194941616,2.788503713205567
1687086691.256218,-0.7858306169509888,0.5908878445625305,0.1825413554906845,-0.0003477334976196289,0.003472447395324707,-0.007950559258460999,-0.013518363237380981,-0.015191107988357544,0.005447310395538807,-1.79903948201742,-0.6321589441655612,2.788693835897936
1687086691.3497481,-0.7855493426322937,0.5910557508468628,0.1832081377506256,-0.0041844844818115234,-0.000555872917175293,-0.005779266357421875,-0.05040394142270088,-0.005549665540456772,0.016790490597486496,-1.799923588977351,-0.6323670736713649,2.7871629180354094
1687086691.3558722,-0.7854101657867432,0.5912070274353027,0.183316171169281,-0.0021415352821350098,0.0035958290100097656,-0.016812458634376526,-0.01704300381243229,0.022734861820936203,0.008885362185537815,-1.8000932180102456,-0.6325546045775068,2.785497262006306
1687086691.4076052,-0.7853949069976807,0.591494619846344,0.1824524849653244,-0.006231069564819336,0.0015535354614257812,-0.011493310332298279,-0.09976179897785187,0.05519602447748184,0.032407112419605255,-1.7990544020002046,-0.6329112345141508,2.7829035801524924
1687086691.4991379,-0.7845436334609985,0.5924403667449951,0.1830451339483261,-0.008302927017211914,0.012372255325317383,-0.016221046447753906,-0.27332982420921326,0.1150645837187767,0.10924592614173889,-1.8000100643786292,-0.6340846675895285,2.772283458883632
1687086691.505749,-0.7791389226913452,0.5968326926231384,0.19165879487991333,-0.016225337982177734,0.10154682397842407,-0.0637751966714859,-0.8880952000617981,0.25400087237358093,0.4278642237186432,-1.811995409566476,-0.6395477958481431,2.736018055916937
1687086691.556751,-0.7636220455169678,0.6104522347450256,0.21030785143375397,-0.0055887699127197266,0.25168466567993164,-0.1562308967113495,-1.207999348640442,0.5359647870063782,0.8236268758773804,-1.839542086003107,-0.6566314567621322,2.658004083678023
1687086691.6509218,-0.7395485639572144,0.6365510821342468,0.21879322826862335,0.014725685119628906,0.31532275676727295,-0.22355425357818604,-1.1320897340774536,0.8577668070793152,1.2151987552642822,-1.8584386926690455,-0.6900179971514564,2.5717264559455772
1687086691.65723,-0.7034516334533691,0.6756863594055176,0.22046267986297607,-0.05668008327484131,0.3688541650772095,-0.2037850320339203,-1.246450424194336,1.1273046731948853,1.6783086061477661,-1.8745021204845493,-0.7418953624694776,2.4704235673635253
1687086691.707779,-0.6516388058662415,0.7244129180908203,0.22492769360542297,-0.10412883758544922,0.2536906599998474,-0.15139581263065338,-1.01419198513031,1.130236268043518,1.9634405374526978,-1.903163892264818,-0.8101823907732586,2.347674139705187
1687086691.769287,-0.588843584060669,0.7772948741912842,0.22152994573116302,-0.17313432693481445,0.19060057401657104,-0.08775641024112701,-0.9126800894737244,1.2508742809295654,2.0939688682556152,-1.9306290270295954,-0.8903545870251002,2.2327938005759695
1687086691.8586512,-0.5161452293395996,0.8274009823799133,0.22136351466178894,-0.21584928035736084,0.16283351182937622,-0.017414778470993042,-0.7621550559997559,1.2057428359985352,2.19437313079834,-1.9759473659693636,-0.9744639747272533,2.0976824560783447
1687086691.862056,-0.43308666348457336,0.8733963370323181,0.22274309396743774,-0.2521853446960449,0.11265707015991211,0.021931380033493042,-0.5979663133621216,1.0313787460327148,2.2885019779205322,-2.045830468721371,-1.062133124833719,1.9506377019091055
1687086691.9196649,-0.3402049243450165,0.9118826985359192,0.22963091731071472,-0.2439776360988617,0.09386980533599854,0.08869779109954834,-0.48339828848838806,0.8847217559814453,2.3253173828125,-2.1645310499128536,-1.1478479142074949,1.7628852516458762
1687086692.00593,-0.24000149965286255,0.9411476850509644,0.23799118399620056,-0.2620124816894531,0.11590474843978882,0.08065780997276306,-0.4317634105682373,0.6819682121276855,2.3814573287963867,-2.351988788698668,-1.2260100407895103,1.5182520000536448
1687086692.008562,-0.1320565789937973,0.9540227055549622,0.2690747380256653,-0.2846149802207947,0.10728693008422852,0.07484278082847595,-0.9883195161819458,0.48206180334091187,2.436774492263794,-2.685348009401636,-1.2663822386957964,1.13646989246662
1687086692.0686522,-0.021242011338472366,0.955727756023407,0.29348450899124146,-0.2690562903881073,0.17395663261413574,0.06688213348388672,0.09107829630374908,0.3792860209941864,2.4467780590057373,-3.069339999059821,-1.2721231493730627,0.7127135687960839
1687086692.1313381,0.09009871631860733,0.9565627574920654,0.27725347876548767,-0.2659103572368622,0.09801775217056274,0.128111332654953,0.2805183231830597,0.35739046335220337,2.417048931121826,2.827389016752596,-1.2749740653421378,0.2892529978556718
1687086692.1398768,0.20148849487304688,0.9347207546234131,0.29274389147758484,-0.2912863492965698,0.05085945129394531,0.18561884760856628,-0.8658260107040405,0.05815410614013672,2.4149980545043945,2.538778806215109,-1.207472567795685,-0.027412769467256914
1687086692.250799,0.3138672113418579,0.8914812207221985,0.3267238438129425,-0.29294729232788086,0.11587351560592651,0.20965293049812317,-0.4983876943588257,-0.45179513096809387,2.3875577449798584,2.376261721567091,-1.1006041473735881,-0.19396338538287392
1687086692.33866,0.43104347586631775,0.8399624824523926,0.3296422064304352,-0.35003456473350525,0.09201353788375854,0.20461362600326538,-0.4562048614025116,-0.8662209510803223,2.534475088119507,2.223673290657598,-0.997214078592845,-0.33164741004407444
1687086692.3418941,0.5518567562103271,0.7676385641098022,0.32586055994033813,-0.4169536828994751,0.0998997688293457,0.15396714210510254,-0.5002962946891785,-1.2031238079071045,2.599900960922241,2.1041866558360014,-0.8751482995593579,-0.4152098947103163
1687086692.429311,0.6670386791229248,0.6823790669441223,0.2990292012691498,-0.41272032260894775,0.09105837345123291,0.09736350178718567,-0.21173503994941711,-1.336038589477539,2.6207382678985596,1.992230354592458,-0.7510122722281891,-0.4803867642707673
1687086692.437192,0.7697583436965942,0.5850442051887512,0.2553333342075348,-0.41502201557159424,0.07613420486450195,0.05635759234428406,-0.07195062190294266,-1.3253720998764038,2.666759729385376,1.8910814423976288,-0.6249345587475865,-0.5339768388029348
1687086692.611113,0.8558439016342163,0.47638025879859924,0.2014763206243515,-0.3858885169029236,0.07885637879371643,0.02525375783443451,0.23009717464447021,-1.3049275875091553,2.647620916366577,1.8019991368647,-0.49653321162222586,-0.5764296340589363
1687086692.618894,0.9224293828010559,0.36124587059020996,0.13647425174713135,-0.3733571767807007,0.07941251993179321,0.02211010456085205,0.4657338261604309,-1.2157342433929443,2.684119701385498,1.7176816537225525,-0.36960365574757464,-0.6261097995173934
1687086692.669561,0.9692844748497009,0.23453842103481293,0.07402215898036957,-0.3636784553527832,0.09608887135982513,0.005079150199890137,0.38230055570602417,-1.1310129165649414,2.7672512531280518,1.6470162215295718,-0.23674371032260186,-0.6654319817784649
1687086692.671885,0.9948113560676575,0.10042034834623337,0.016314929351210594,-0.2956535816192627,0.08353947103023529,-0.020465610548853874,0.8063117265701294,-1.0178042650222778,2.687727212905884,1.587194880174702,-0.10058989418779549,-0.7004997019459678
1687086692.6740751,0.999118983745575,-0.025504520162940025,-0.03332432359457016,-0.23888051509857178,0.005210192874073982,0.011748198419809341,0.847690999507904,-0.8568357229232788,2.341085910797119,1.5374549782087417,0.025507286052399793,-0.7446665173178465
1687086692.7593,0.9885751008987427,-0.13448825478553772,-0.0680599957704544,-0.21892184019088745,-0.05627724528312683,0.0017756149172782898,0.7564741969108582,-0.6660343408584595,1.9703888893127441,1.5020582358561776,0.1348970074791783,-0.7747803184639608
1687086692.765658,0.9699375033378601,-0.2268597036600113,-0.0880662128329277,-0.20698297023773193,-0.09839673340320587,-0.050239674746990204,0.93839430809021,-0.48869258165359497,1.6776691675186157,1.480248844470961,0.22885210788739188,-0.8156577014412021
1687086692.818285,0.9483963251113892,-0.3027542531490326,-0.09425550699234009,-0.182420551776886,-0.12853553891181946,-0.05328190326690674,0.40710392594337463,-0.1677435338497162,1.338377833366394,1.4717375248240072,0.30758120236250175,-0.8426205258362256
1687086692.936823,0.9286686778068542,-0.35899674892425537,-0.09325116872787476,-0.08970999717712402,-0.14001154899597168,-0.08811498433351517,0.17557747662067413,-0.054949864745140076,1.0502259731292725,1.4707179688877248,0.36719277568513736,-0.8509795421700566
1687086692.938715,0.9104426503181458,-0.40331482887268066,-0.09182272851467133,-0.07278096675872803,-0.10175123810768127,-0.0779467299580574,0.34941235184669495,-0.0599445179104805,0.8605632185935974,1.4702811712151589,0.41513648465762015,-0.8561901673490433
1687086693.03034,0.8929787874221802,-0.44197535514831543,-0.08512528240680695,-0.06695979833602905,-0.06298378109931946,-0.06198488175868988,0.36795181035995483,-0.045909978449344635,0.7871779799461365,1.4757561866169284,0.45779957841422486,-0.8753311197904866
1687086693.03988,0.8758283257484436,-0.47687458992004395,-0.07426325976848602,-0.0704544186592102,-0.01689988374710083,-0.08705281466245651,0.6605009436607361,0.034277163445949554,0.703235924243927,1.4862066367414761,0.4970954989022587,-0.8984142229234756
1687086693.1182442,0.8595890402793884,-0.5076650381088257,-0.058159470558166504,-0.057831525802612305,-0.059198975563049316,-0.037879519164562225,0.34934425354003906,0.12444295734167099,0.6214382648468018,1.5032396652509774,0.5324724511760449,-0.9251788177717463
1687086693.126498,0.8450068235397339,-0.5329742431640625,-0.043608564883470535,-0.04126554727554321,-0.051925718784332275,-0.04776126146316528,0.27337557077407837,0.16934309899806976,0.5384703874588013,1.5192347172230083,0.562111797945968,-0.9414439325440719
1687086693.209556,0.8316463232040405,-0.5544528365135193,-0.03076539933681488,-0.0450863242149353,-0.06368082761764526,-0.05421096459031105,0.2277761697769165,0.1866127997636795,0.44979435205459595,1.5338198189140846,0.5877053539339239,-0.9527855397510437
1687086693.218396,0.8207415342330933,-0.5711299777030945,-0.013921897858381271,-0.06056410074234009,-0.07741439342498779,-0.04332929849624634,0.32975146174430847,0.19767408072948456,0.34404873847961426,1.5538353681819108,0.6078817533602111,-0.9707949747203347
1687086693.269187,0.8127424716949463,-0.5826202034950256,0.0018466231413185596,-0.07392722368240356,-0.09122335910797119,-0.021103382110595703,0.25027498602867126,0.16623902320861816,0.20702050626277924,1.5730684116468032,0.6219488589325802,-0.9885280992791873
1687086693.361299,0.8092671036720276,-0.5872965455055237,0.013018319383263588,-0.07840168476104736,-0.11694246530532837,0.02808869071304798,0.21177451312541962,0.09232528507709503,0.02225523069500923,1.5868814947120715,0.6277145602846178,-1.0013195911927315
1687086693.370328,0.8112123608589172,-0.5844351053237915,0.01922757364809513,-0.05771833658218384,-0.13077479600906372,0.03472733497619629,0.07973041385412216,-0.01268837507814169,-0.15188856422901154,1.5944941594208708,0.6241837537538989,-1.0110263989328891
1687086693.4203172,0.818315327167511,-0.5743690729141235,0.021441571414470673,-0.04912006855010986,-0.09488135576248169,0.01176130585372448,0.19674129784107208,-0.03220716118812561,-0.3500485122203827,1.5969924216256837,0.611833221413956,-1.0172638411035777
1687086693.509707,0.8294969201087952,-0.5579608082771301,0.024785956367850304,-0.03431588411331177,-0.07529419660568237,0.015512345358729362,0.11395378410816193,-0.06735886633396149,-0.4601481258869171,1.600668147149275,0.5919265342702826,-1.0282043070806097
1687086693.5185618,0.8436095714569092,-0.536469042301178,0.022885972633957863,-0.05167853832244873,-0.0879359245300293,0.006487011909484863,0.1348712146282196,-0.14112262427806854,-0.5472201108932495,1.5979183051712347,0.5662475468430556,-1.0325858193497954
1687086693.56832,0.8592090606689453,-0.5110564231872559,0.024104364216327667,-0.09823805093765259,-0.1533266305923462,0.012363914400339127,0.5667294859886169,-0.25853803753852844,-0.6403934955596924,1.5988431020186753,0.5364133951555148,-1.0533924785076412
1687086693.6641111,0.8793648481369019,-0.4754487872123718,0.02579972706735134,-0.09484970569610596,-0.18693530559539795,0.007525322958827019,0.6214747428894043,-0.3531833291053772,-0.9898208975791931,1.600126960541819,0.49547409744363896,-1.088345385858854
1687086693.671912,0.9056900143623352,-0.42339712381362915,0.02145136520266533,-0.1133623719215393,-0.187534362077713,0.007799623534083366,0.4190185070037842,-0.33676350116729736,-1.3088902235031128,1.5944770072432635,0.4371918502908094,-1.1135142177109514
1687086693.719421,0.9343763589859009,-0.35598358511924744,0.014707759022712708,-0.1154068112373352,-0.12620949745178223,-0.0068649062886834145,0.3374330401420593,-0.29577094316482544,-1.5890830755233765,1.5865357493017023,0.36396638203478193,-1.133919583916381
1687086693.8097901,0.9609560370445251,-0.2766698896884918,0.004107580054551363,-0.12504929304122925,-0.06065624952316284,0.02326655387878418,-0.20544913411140442,-0.21847349405288696,-1.7248542308807373,1.5750707731190126,0.2803270049530931,-1.1382849981966858
1687086693.818754,0.9814561009407043,-0.19146092236042023,-0.009301703423261642,-0.0643877387046814,-0.012015163898468018,-0.02141439914703369,0.09582490473985672,-0.27376994490623474,-1.7791287899017334,1.561319157983678,0.19265039409076265,-1.130093163061911
1687086693.932344,0.9942933320999146,-0.10398519784212112,-0.023831136524677277,-0.05975353717803955,-0.03801325708627701,-0.02905595675110817,0.4066917896270752,-0.3791130781173706,-1.7372783422470093,1.546833001831037,0.1041735163852663,-1.1473222943568457
1687086694.051034,0.9989705085754395,-0.01890351064503193,-0.04123571887612343,-0.1107717752456665,-0.05267563462257385,-0.04599893093109131,0.4131353199481964,-0.36135539412498474,-1.6957380771636963,1.5295415331147342,0.018904637351923208,-1.170906868552684
1687086694.0583181,0.9962571859359741,0.06408616900444031,-0.058002304285764694,-0.15772587060928345,-0.11439458280801773,-0.029842667281627655,0.4650175869464874,-0.2974150776863098,-1.7097278833389282,1.5126417618329104,-0.06413011818585199,-1.1970743336376566
1687086694.0606198,0.9858522415161133,0.1504814326763153,-0.07382823526859283,-0.17051416635513306,-0.17278996109962463,-0.014688074588775635,0.38997477293014526,-0.2513676881790161,-1.868427038192749,1.4960481236141356,-0.15105523722185346,-1.2241927218906203
1687086694.141045,0.9654021859169006,0.24491070210933685,-0.08953888714313507,-0.1874786615371704,-0.15462464094161987,0.0019380450248718262,0.3136681616306305,-0.24046316742897034,-2.0149478912353516,1.4783131489662258,-0.247427589171814,-1.2513110727644476
1687086694.145906,0.9333710074424744,0.34260880947113037,-0.10694757848978043,-0.1843169927597046,-0.1361728012561798,0.017088457942008972,0.353998601436615,-0.2736870050430298,-2.2015411853790283,1.456711798221603,-0.3496923614145477,-1.280745392628647
1687086694.262224,0.886795699596405,0.4452400803565979,-0.12391295284032822,-0.1883399486541748,-0.07277324795722961,0.03995896130800247,0.09177280217409134,-0.30031266808509827,-2.2926478385925293,1.4319641099173555,-0.461442364102213,-1.3065475822029593
1687086694.271591,0.8299625515937805,0.5396815538406372,-0.14108826220035553,-0.19701272249221802,-0.03293734788894653,0.011602044105529785,0.1823064386844635,-0.3633105456829071,-2.108105421066284,1.4024124578671282,-0.5700587932453135,-1.3321787483328542
1687086694.408502,0.768507719039917,0.619202196598053,-0.16119705140590668,-0.20364254713058472,-0.04776078462600708,0.01449894905090332,0.1482158899307251,-0.36839058995246887,-1.9665019512176514,1.3640403921155955,-0.6677263126420215,-1.3664467916469696
1687086694.412895,0.7013487815856934,0.6894887089729309,-0.18087373673915863,-0.2060788869857788,-0.03156036138534546,-0.00452066957950592,0.11785563826560974,-0.41745811700820923,-1.9522746801376343,1.3184017957214909,-0.7607829016774151,-1.4053948590287813
1687086694.5913138,0.6254203915596008,0.7536351680755615,-0.20219625532627106,-0.18415135145187378,0.006893277168273926,0.0318775475025177,0.13224442303180695,-0.5403193235397339,-1.9585860967636108,1.2581059176191678,-0.8535752167554382,-1.4552720455592842
1687086694.595906,0.5435816049575806,0.8093398213386536,-0.2224588841199875,-0.1771875023841858,-0.023817598819732666,0.05574120581150055,0.1533820480108261,-0.5872771739959717,-2.0115199089050293,1.1823443228826611,-0.9430272290754839,-1.5172958518063653
1687086694.599358,0.4544063210487366,0.8572281002998352,-0.24222901463508606,-0.18316596746444702,0.05239391326904297,0.01726853847503662,-0.0028818033169955015,-0.693692147731781,-1.8651849031448364,1.0810463606215335,-1.0298622731087457,-1.5991929738977106
1687086694.681351,0.3656858205795288,0.8920995593070984,-0.2653904855251312,-0.11071133613586426,0.050023674964904785,0.10744670033454895,0.29838526248931885,-0.9155681133270264,-1.776763916015625,0.9430074775883918,-1.101970712584708,-1.711593794730355
1687086694.69004,0.27434849739074707,0.9139704704284668,-0.2989831268787384,-0.10219871997833252,0.10018956661224365,0.024660468101501465,0.37183448672294617,-1.063732624053955,-1.6833326816558838,0.7424570984978731,-1.152963403296281,-1.8772050674169636
1687086694.8036141,0.17625664174556732,0.9337683320045471,-0.31146469712257385,-0.14297708868980408,0.03936082124710083,0.09300446510314941,-0.2710758149623871,-1.0149180889129639,-1.910565972328186,0.5149655026562974,-1.2048018538790248,-2.067677097500668
1687086694.808214,0.07051055133342743,0.951434314250946,-0.2996680438518524,-0.0965724065899849,0.1145903468132019,0.019028276205062866,-0.26344600319862366,-1.041119933128357,-1.9233717918395996,0.23109201733961912,-1.2578619072570352,-2.3160090116617
1687086694.8113542,-0.03218166157603264,0.9496616125106812,-0.3116200864315033,-0.08453267812728882,0.1750941276550293,0.0020343363285064697,0.6707409024238586,-1.1638646125793457,-1.7151532173156738,-0.10290730173591497,-1.2521539162716149,-2.6095302622630934
1687086694.8584762,-0.1268858164548874,0.9348440766334534,-0.3316119313240051,-0.11437071859836578,0.10986405611038208,0.06720748543739319,0.1355648636817932,-1.1961255073547363,-1.5740033388137817,-0.36544617526847145,-1.2078196174678273,-2.826241300928572
1687086694.861042,-0.21808215975761414,0.9247808456420898,-0.3118019998073578,-0.09756097197532654,0.11856931447982788,-0.01298147439956665,-0.3373343348503113,-1.2612000703811646,-1.5138505697250366,-0.6103400495231064,-1.1804592033335886,-3.0233251853362164
1687086694.918488,-0.30998319387435913,0.9090434312820435,-0.2784789800643921,-0.12663161754608154,0.09669381380081177,0.021063029766082764,-0.11747400462627411,-1.3786917924880981,-1.6154307126998901,-0.8388836126073919,-1.1409826526233602,3.0825987280985516
1687086695.010466,-0.3968156576156616,0.8802338242530823,-0.26024165749549866,-0.10133787989616394,0.17587268352508545,-0.07432276010513306,0.06408651918172836,-1.4119149446487427,-1.4173399209976196,-0.9903370179506283,-1.076354668464664,2.9921879317663027
1687086695.0198898,-0.4727723002433777,0.8525294661521912,-0.22288966178894043,-0.06368076801300049,0.10131263732910156,-0.042384564876556396,-0.18092216551303864,-1.3382848501205444,-1.3890249729156494,-1.1302464327848993,-1.0208057671179185,2.9097356106432577
1687086695.034358,-0.5464383959770203,0.8164252042770386,-0.18669484555721283,-0.12023317813873291,0.09695065021514893,-0.09496736526489258,-0.029798001050949097,-1.3461724519729614,-1.4508708715438843,-1.2415727155881833,-0.9551929542575411,2.857411047923177
1687086695.067518,-0.6187361478805542,0.7731470465660095,-0.13931675255298615,-0.04959869384765625,0.014816820621490479,-0.053325653076171875,-0.1489914506673813,-1.3925304412841797,-1.6262648105621338,-1.3493263331282936,-0.8837882597003123,2.808942992493477
1687086695.1585798,-0.6881296634674072,0.7192720174789429,-0.09552545845508575,-0.06356382369995117,0.09159523248672485,-0.045420221984386444,0.23688605427742004,-1.370614767074585,-1.6585444211959839,-1.4328588879735678,-0.8027538727102651,2.7877941931226906
1687086695.188521,-0.7472563982009888,0.6625080108642578,-0.05187312513589859,-0.0674101710319519,0.1803874373435974,-0.10561305284500122,-0.0978890061378479,-1.3160274028778076,-1.4333900213241577,-1.501489400494506,-0.7241620408914662,2.788317106533673
1687086695.252228,-0.7906925678253174,0.6122037172317505,-0.003433553036302328,-0.041567444801330566,0.332757830619812,-0.10124200582504272,-0.14435435831546783,-1.0079880952835083,-1.1308257579803467,-1.5664538913173636,-0.6588446523000594,2.777405607825515
1687086695.311923,-0.8187420964241028,0.5731815695762634,0.03352917730808258,0.03512704372406006,0.3592984080314636,-0.1367093324661255,0.410828173160553,-0.9323796033859253,-0.7852665185928345,-1.6117255159593868,-0.6103832607265398,2.7821406968876077
1687086695.3226619,-0.8322566747665405,0.5514848232269287,0.056684982031583786,0.0006375312805175781,0.2962934970855713,-0.1566455364227295,0.3336566090583801,-0.6851158142089844,-0.3564831018447876,-1.6388012756037034,-0.584143187092008,2.80601679956631
1687086695.370693,-0.8349098563194275,0.5457567572593689,0.07123705744743347,0.017450988292694092,0.2165723443031311,-0.14635634422302246,0.07640769332647324,-0.4319383203983307,0.022899359464645386,-1.6559132301789699,-0.5772919531187901,2.8260702840075065
1687086695.4623098,-0.8299123644828796,0.5511667132377625,0.086374931037426,-0.007718801498413086,0.09138083457946777,-0.11533641815185547,-0.019881879910826683,-0.2715701162815094,0.2271333932876587,-1.6745001283768193,-0.5837618811961056,2.8247123791080506
1687086695.4728189,-0.8223562836647034,0.5611233711242676,0.09418386965990067,-0.0070351362228393555,-0.013500690460205078,-0.10286641120910645,-0.04780719801783562,-0.06946291774511337,0.23904091119766235,-1.6848287543910925,-0.5957423708043291,2.821095098669389
1687086695.519158,-0.8161507248878479,0.5694928169250488,0.0978560596704483,-0.03034573793411255,-0.03984498977661133,-0.05905318260192871,-0.26598089933395386,0.11203891038894653,0.19315750896930695,-1.6901261745626257,-0.6058886967389758,2.8083430600262966
1687086695.611567,-0.8121062517166138,0.5755510330200195,0.09604154527187347,-0.02579939365386963,-0.029469549655914307,-0.028964176774024963,-0.05326620116829872,0.10632632672786713,0.13450244069099426,-1.6885118615058674,-0.6132777850723566,2.8012990924450567
1687086695.6225328,-0.8092727065086365,0.5794883966445923,0.09628351777791977,-0.009834110736846924,-0.042546868324279785,-0.004700556397438049,-0.20506936311721802,0.13862764835357666,0.09638671576976776,-1.6892150358683842,-0.618100771873199,2.789123111669524
1687086695.671722,-0.8091500401496887,0.5802103281021118,0.09290874749422073,-0.02428489923477173,-0.018183350563049316,0.011049151420593262,-0.1695612370967865,0.10521519184112549,0.07472342997789383,-1.6851183127371543,-0.6189868986199685,2.7813062263992943
1687086695.761815,-0.8096113204956055,0.5794406533241272,0.09368905425071716,0.0027267932891845703,-0.021625101566314697,0.0027156993746757507,-0.17593103647232056,0.1070648655295372,0.05256255716085434,-1.6860049170507607,-0.6180422161986098,2.7682026086395526
1687086695.7729192,-0.8100144863128662,0.579060435295105,0.09255038946866989,0.0016342997550964355,0.008952319622039795,0.002694733440876007,-0.09895272552967072,0.08176025748252869,0.04414861276745796,-1.6845606766517773,-0.6175757631159314,2.7631981066576907
1687086695.851397,-0.8093200325965881,0.579802930355072,0.09396325051784515,0.007287859916687012,0.005814075469970703,0.016998395323753357,-0.08564938604831696,0.047319356352090836,0.037243299186229706,-1.6863803089123257,-0.6184867927049521,2.7549897252740196
1687086695.941166,-0.8080924153327942,0.5811087489128113,0.09643130749464035,-0.0025153160095214844,-0.0007101893424987793,0.01199745386838913,-0.10702018439769745,0.028732355684041977,0.0509306862950325,-1.689566707764247,-0.6200904243139364,2.7479244593574244
1687086695.946672,-0.8065996766090393,0.5827109813690186,0.09921891242265701,0.003651916980743408,0.00533217191696167,0.004052393138408661,-0.047967471182346344,-0.006392183247953653,0.03092903457581997,-1.6931903410851759,-0.6220605764362506,2.7427837657248544
1687086696.032603,-0.8054109811782837,0.5836459994316101,0.1032974123954773,-0.002419710159301758,-0.012204349040985107,0.005344867706298828,-0.12234188616275787,0.020604653283953667,0.035231661051511765,-1.698354251961772,-0.62321161088273,2.73418396996715
1687086696.044139,-0.8046799898147583,0.5844937562942505,0.1041969358921051,0.0023729801177978516,0.004953265190124512,0.0038808584213256836,0.019299877807497978,-0.022521670907735825,0.01115391030907631,-1.6995684647863254,-0.624256006134184,2.731835698485593
1687086696.122367,-0.8042387366294861,0.5847668051719666,0.10605499893426895,0.004220545291900635,0.0016131997108459473,0.00289260596036911,-0.0740433856844902,-0.01912374421954155,0.020742245018482208,-1.7019098567224833,-0.6245925700913165,2.7303674111165614
1687086696.128399,-0.8033320307731628,0.5856417417526245,0.10807956010103226,0.008883297443389893,0.010641217231750488,-0.0036640167236328125,-0.043445900082588196,-0.00613982230424881,0.02822384051978588,-1.7045323659917695,-0.6256715348004493,2.7271014084485907
1687086696.211357,-0.8025616407394409,0.5864313840866089,0.1095116138458252,0.0035810470581054688,0.0016423463821411133,-1.4781951904296875e-05,-0.04217024892568588,0.00466249231249094,0.0211773831397295,-1.7064113721828833,-0.6266460673688569,2.723900365351211
1687086696.222764,-0.8017997741699219,0.5873172283172607,0.1103425845503807,0.0017358064651489258,0.0017940998077392578,0.002404332160949707,-0.06377189606428146,0.013034564442932606,0.018620014190673828,-1.707555917232944,-0.6277401074903004,2.7204446121892336
1687086696.270669,-0.8014097809791565,0.5875331163406372,0.11201435327529907,0.004458487033843994,-0.0038996338844299316,0.006881847977638245,-0.08079811930656433,-1.3955868780612946e-06,0.009394736029207706,-1.7096682865423594,-0.6280068973533149,2.7158482377594786
1687086696.359257,-0.8011617660522461,0.5874794125556946,0.1140519306063652,0.007399559020996094,0.0038293004035949707,0.008460655808448792,-0.035137638449668884,-0.018980253487825394,0.0004963385872542858,-1.71220436343431,-0.6279405500252402,2.7124618631177886
1687086696.365284,-0.8008397817611694,0.5874025225639343,0.11667928099632263,0.012326598167419434,0.004867494106292725,0.011326447129249573,-0.06155119091272354,-0.02243053913116455,0.009388789534568787,-1.7154745061965508,-0.6278455087274591,2.709040129901299
1687086696.4827762,-0.8001183867454529,0.5875820517539978,0.12065530568361282,0.007973730564117432,0.006457865238189697,0.014583110809326172,-0.060909632593393326,-0.052538905292749405,0.013495804741978645,-1.7204654640300925,-0.6280673864163239,2.7040514645443903
1687086696.4953089,-0.7989124655723572,0.587894856929779,0.1269570291042328,-0.0004953145980834961,-0.002811908721923828,0.02808724343776703,-0.1510479897260666,-0.08649618178606033,0.019865021109580994,-1.7283908712758123,-0.6284540260876287,2.6971604796302833
1687086696.571881,-0.7975297570228577,0.5880488157272339,0.13470245897769928,0.004484832286834717,-0.0026606321334838867,0.013963699340820312,-0.07763737440109253,-0.10562870651483536,0.01025480404496193,-1.7381168080812799,-0.6286443610774903,2.6893219315051886
1687086696.577193,-0.7965869903564453,0.587700366973877,0.14162243902683258,0.008684396743774414,-0.0054097771644592285,-0.004797115921974182,-0.06112300232052803,-0.08761342614889145,-0.006889761425554752,-1.7467444511214831,-0.6282136272266616,2.685262419396171
1687086696.690356,-0.7962982058525085,0.5870572328567505,0.14585159718990326,-0.0007597208023071289,-0.0003262758255004883,-0.01751019060611725,-0.03138881176710129,-0.06422208994626999,-0.024273322895169258,-1.7519503557185905,-0.6274189227171151,2.683087620174029
1687086696.696018,-0.7967644333839417,0.5859420895576477,0.14777737855911255,-0.006961703300476074,0.0010178089141845703,-0.02114485204219818,-0.022397927939891815,-0.030743595212697983,-0.028195828199386597,-1.7541842871564617,-0.6260421217293047,2.681255631824897
1687086696.781979,-0.7976998686790466,0.5850513577461243,0.14625291526317596,-0.0012808442115783691,0.017091095447540283,-0.01684330403804779,0.009914951398968697,-0.004937990568578243,-0.013139178976416588,-1.7521257321604549,-0.6249433755234464,2.683550785593866
1687086696.7943501,-0.7980623841285706,0.5851026773452759,0.14405305683612823,0.004376530647277832,0.02169358730316162,-0.009928584098815918,0.009528953582048416,0.019815770909190178,0.005669262260198593,-1.7493769228573317,-0.6250066932510308,2.684692462871834
1687086696.873369,-0.7980645298957825,0.5859098434448242,0.14072220027446747,0.005599319934844971,0.017209172248840332,-0.006460413336753845,0.08255714178085327,0.03419007733464241,0.013288943096995354,-1.7453315471077622,-0.6260023422845054,2.6875891667702834
1687086696.878289,-0.7980347275733948,0.587106466293335,0.13581714034080505,-0.010116338729858398,0.016287028789520264,0.011948689818382263,0.04602549970149994,0.052338190376758575,0.00878884457051754,-1.739370664684959,-0.6274797730390788,2.693489296891274
1687086696.963089,-0.7974091172218323,0.5886748433113098,0.1326671540737152,-0.0016936659812927246,0.02568984031677246,0.026268139481544495,0.04121113941073418,0.028335437178611755,0.0387921966612339,-1.7356590275840538,-0.6294186014372821,2.695554212073192
1687086696.97471,-0.7953594923019409,0.5912905335426331,0.13333635032176971,0.006571769714355469,0.013003349304199219,0.021646976470947266,-0.05192828178405762,-0.014675093814730644,0.08822445571422577,-1.7368946719642469,-0.6326581383027216,2.694695819085733
1687086697.019903,-0.7918162941932678,0.5949370265007019,0.1381177306175232,0.0026471614837646484,-0.0008513331413269043,0.00627589225769043,-0.06141632795333862,-0.03620089218020439,0.09780573844909668,-1.7434903518944438,-0.6371872705013574,2.6886898256545115
1687086697.145091,-0.7885574102401733,0.5981298089027405,0.14289043843746185,-0.009492337703704834,-0.02252250909805298,-0.011375203728675842,-0.03146151453256607,-0.05580516532063484,0.06566224992275238,-1.7500560659022957,-0.6411653844801516,2.683537328454034
1687086697.156167,-0.7872545719146729,0.5994097590446472,0.14469942450523376,0.0008319616317749023,-0.027861356735229492,-0.027542725205421448,0.03139052167534828,-0.009228023700416088,0.007739981170743704,-1.752570056301137,-0.6427635324604002,2.6831988427463025
1687086697.20502,-0.7883575558662415,0.598750650882721,0.14138580858707428,0.0007294416427612305,-0.019298076629638672,-0.011518478393554688,0.017331482842564583,0.0529223270714283,-0.033835601061582565,-1.748252081431534,-0.6419403328479096,2.6864296624840893
1687086697.209721,-0.7899353504180908,0.5973138809204102,0.1386299431324005,-0.0022552013397216797,0.002234518527984619,0.007961049675941467,0.00041327159851789474,0.01505286805331707,-0.03143516182899475,-1.744522539724077,-0.6401476492799265,2.6879773249881076
1687086697.260711,-0.7910049557685852,0.5960923433303833,0.1377863585948944,0.0018967390060424805,0.009712159633636475,0.0047762393951416016,0.023865386843681335,0.0020469482988119125,-0.02214723266661167,-1.7432574416710782,-0.6386254003850589,2.689026437389038
1687086697.322567,-0.7913364171981812,0.5956218838691711,0.13791559636592865,0.003845810890197754,0.010289251804351807,-0.001746445894241333,0.0058405278250575066,0.020517408847808838,-0.005683793220669031,-1.7433451273351266,-0.6380396043935589,2.6888054677116084
1687086697.412877,-0.7913509607315063,0.5957332849502563,0.13735084235668182,-0.0010683536529541016,0.010757803916931152,0.007958412170410156,0.007186755537986755,0.025446919724345207,-0.0007899682968854904,-1.74264931632542,-0.6381783465032107,2.6888021150274954
1687086697.425323,-0.7911715507507324,0.5961410403251648,0.13661377131938934,0.0013767480850219727,0.012471020221710205,0.005857229232788086,-0.03576982021331787,0.033400289714336395,0.01696559228003025,-1.7417830260438694,-0.6386860967672979,2.688140607446039
1687086697.469163,-0.7902424335479736,0.5972394943237305,0.1371924877166748,-0.004068970680236816,0.02379322052001953,-0.007371068000793457,-0.08217896521091461,0.04034709185361862,0.059396274387836456,-1.742691139686377,-0.6400549183886634,2.6840192091191093
1687086697.563416,-0.7878853678703308,0.5999733805656433,0.13880997896194458,0.011381030082702637,0.026155710220336914,-0.02623094618320465,-0.18238189816474915,0.09286654740571976,0.11949345469474792,-1.745187111021718,-0.6434678212937139,2.675515997152929
1687086697.575243,-0.7834364175796509,0.6051276922225952,0.1415899097919464,0.00418543815612793,0.044850945472717285,-0.037235379219055176,-0.42782318592071533,0.1998283565044403,0.2584512233734131,-1.7495955901716826,-0.6499262854568768,2.654409949402549
1687086697.61865,-0.7730442881584167,0.6164113283157349,0.14979849755764008,0.0070073604583740234,0.16785991191864014,-0.11685502529144287,-0.9100239872932434,0.3901970684528351,0.5793520212173462,-1.7622015157574382,-0.6641770480246281,2.6101193575047192
1687086697.7089481,-0.7531642317771912,0.63759845495224,0.16189977526664734,-0.0007265806198120117,0.26518774032592773,-0.17482425272464752,-1.19515061378479,0.7087653875350952,0.9706782698631287,-1.78253372880762,-0.691376834445321,2.533731830266176
1687086697.715407,-0.7208714485168457,0.6707900166511536,0.17431221902370453,-0.049483537673950195,0.30621498823165894,-0.17707432806491852,-1.5041749477386475,1.0083777904510498,1.4523887634277344,-1.8080497847390136,-0.7352734869826469,2.4284698671441944
1687086697.804521,-0.672835111618042,0.7159605622291565,0.1862601637840271,-0.041596412658691406,0.44320380687713623,-0.18157590925693512,-1.4696727991104126,1.3170530796051025,1.8969581127166748,-1.8408619838433116,-0.7979990079781254,2.296539304217781
1687086697.896483,-0.6074317097663879,0.770748496055603,0.19228419661521912,-0.07370519638061523,0.4779850244522095,-0.07439494132995605,-1.1575849056243896,1.3659822940826416,2.325810432434082,-1.877369146804787,-0.8800151275668635,2.1554496596142445
1687086697.9094338,-0.5181719660758972,0.8334094285964966,0.19216221570968628,-0.18206888437271118,0.4547528028488159,0.041357994079589844,-0.6962793469429016,1.1861286163330078,2.7114007472991943,-1.9259205234864387,-0.9852484269228466,2.014351509474537
1687086697.9842281,-0.40450653433799744,0.8931881785392761,0.19644132256507874,-0.3527259826660156,0.3595431447029114,0.15933239459991455,-0.5722213387489319,0.7920631766319275,2.977837562561035,-2.0228836133981813,-1.1043858388492767,1.844757161611121
1687086697.997705,-0.2704852223396301,0.9366756081581116,0.22243279218673706,-0.39008283615112305,0.26123082637786865,0.19205665588378906,-1.205011010169983,0.343959242105484,3.107360601425171,-2.2590159174584663,-1.213013666288338,1.5577136074944709
1687086698.133523,-0.12327788025140762,0.9502246379852295,0.2861393988132477,-0.43412554264068604,0.2832654118537903,0.156212717294693,-1.2159523963928223,-0.06651235371828079,3.2044708728790283,-2.734793019421988,-1.253956041702331,1.0476847507401397
1687086698.146553,0.03643897920846939,0.9459516406059265,0.32225388288497925,-0.5445259809494019,0.2136247158050537,0.12902462482452393,-0.6609205007553101,-0.4343211054801941,3.3126251697540283,3.0289955445361785,-1.2405164712627013,0.5141356951784092
1687086698.258858,0.19726043939590454,0.9108352661132812,0.3625839352607727,-0.5459694266319275,0.056815922260284424,0.06664559245109558,-1.0561026334762573,-0.6534397006034851,3.130844831466675,2.6433361865012452,-1.1453031941235845,0.13039668599855936
1687086698.26353,0.3420768976211548,0.8587703704833984,0.3814404606819153,-0.5034995079040527,0.03289228677749634,0.060102999210357666,-0.11242827028036118,-0.8576710224151611,2.7921204566955566,2.410546738680962,-1.0328648512266894,-0.08967240145896437
1687086698.267515,0.4727494716644287,0.8069814443588257,0.35396167635917664,-0.5008407831192017,-0.018514037132263184,0.05802538990974426,0.3608246147632599,-0.9488152265548706,2.6778194904327393,2.2134840896662706,-0.9390229656257452,-0.2716871156269048
1687086698.339556,0.5908451080322266,0.7421944737434387,0.3163054883480072,-0.4996432662010193,-0.01699012517929077,0.03833913803100586,0.25335097312927246,-1.0276974439620972,2.5419023036956787,2.06231788046456,-0.8363388985168134,-0.4013243157077192
1687086698.344308,0.693220317363739,0.6658071279525757,0.2759459912776947,-0.44318974018096924,-0.06923437118530273,0.02985513210296631,0.22544388473033905,-1.0043476819992065,2.37316632270813,1.949632564816315,-0.7285750232741418,-0.48733660986590205
1687086698.463821,0.775681734085083,0.5861734747886658,0.23391905426979065,-0.3756421208381653,-0.0566021203994751,0.018384680151939392,0.2125931680202484,-0.8986334800720215,2.1244096755981445,1.8636889713798468,-0.6263276782197412,-0.5491362745821222
1687086698.476974,0.8407024145126343,0.506460428237915,0.19161728024482727,-0.3203623294830322,-0.03587949275970459,-0.004056423902511597,0.36270231008529663,-0.8166471123695374,1.9630024433135986,1.79489328974601,-0.5310748230611773,-0.5960215352917051
1687086698.582223,0.891936182975769,0.42641472816467285,0.15039898455142975,-0.30468660593032837,-0.026237964630126953,0.035193413496017456,0.17318809032440186,-0.7615219354629517,1.8722673654556274,1.7378457187370966,-0.44052536069626036,-0.6353605236475008
1687086698.595581,0.9328444004058838,0.3418806791305542,0.11366008222103119,-0.25562894344329834,-0.013374418020248413,-0.0016455799341201782,0.11814107745885849,-0.769338846206665,1.8476876020431519,1.692041189273785,-0.3489174268465187,-0.6537414533953035
1687086698.6444468,0.9637420773506165,0.25649788975715637,0.07355234771966934,-0.23150330781936646,0.00045996904373168945,-0.004125118255615234,0.3063057065010071,-0.7433400750160217,1.8134171962738037,1.646968201494103,-0.25939710699523655,-0.6774633089588928
1687086698.655657,0.9849892258644104,0.1693943440914154,0.033187899738550186,-0.19542336463928223,-0.011755958199501038,-0.0240175761282444,0.517733633518219,-0.7001444101333618,1.7915136814117432,1.6044772536689196,-0.17021510473085408,-0.7008451493241769
1687086698.658546,0.9965591430664062,0.08284302800893784,-0.002603021450340748,-0.1793290376663208,0.01688826084136963,-0.0018680095672607422,0.7380976676940918,-0.5798110365867615,1.7117550373077393,1.5681843237718507,-0.08293807820686279,-0.737629696064914
1687086698.701293,0.9994980096817017,-0.0030860404949635267,-0.031527161598205566,-0.1744859218597412,0.004367649555206299,0.009203378111124039,0.5218692421913147,-0.5497044324874878,1.743840217590332,1.5392637871794739,0.003086045298726507,-0.7678430707955802
1687086698.7629151,0.9939249157905579,-0.0944448858499527,-0.05650874227285385,-0.1660136580467224,0.027809619903564453,-0.030924320220947266,0.8296879529953003,-0.5220193266868591,1.8706637620925903,1.5140033300118343,0.0945858603775381,-0.7963824050722267
1687086698.821841,0.9781910181045532,-0.19465909898281097,-0.07245580106973648,-0.19923007488250732,-0.013898134231567383,-0.04764633625745773,0.6069486141204834,-0.347633957862854,2.0951650142669678,1.4968601262321806,0.19590988431024817,-0.8284551608671583
1687086698.917227,0.9508135914802551,-0.3005737066268921,-0.07489272952079773,-0.20690196752548218,-0.011255025863647461,-0.06881469488143921,0.8903225064277649,-0.12297365069389343,2.153871774673462,1.49219162471421,0.3052941108589806,-0.8546397568859744
1687086698.9311419,0.9137125015258789,-0.4017232060432434,-0.06122004985809326,-0.14482223987579346,-0.07413753867149353,-0.041212327778339386,0.9128243923187256,-0.029682165011763573,2.017040967941284,1.5038948825930925,0.41339779973479907,-0.898257883104234
1687086699.032702,0.8721722960472107,-0.48719337582588196,-0.044252701103687286,-0.1182507872581482,-0.14848798513412476,0.00018518045544624329,0.5467715263366699,0.04979758709669113,1.6731536388397217,1.5201013156351553,0.5088730269056093,-0.9325407396057838
1687086699.046901,0.8335511684417725,-0.5518170595169067,-0.026272544637322426,-0.06798738241195679,-0.12960994243621826,-0.016467511653900146,0.5829961895942688,0.0452156700193882,1.3009607791900635,1.5392879438212421,0.5845415177326836,-0.9639326457986716
1687086699.1231961,0.8028023838996887,-0.5961238741874695,-0.012017473578453064,-0.03372913599014282,-0.17798501253128052,0.0026789307594299316,0.2406158596277237,0.03508814796805382,0.831304669380188,1.5558280404003357,0.638664739531903,-0.9892908879676646
1687086699.129117,0.7863752245903015,-0.6177093386650085,-0.006983008235692978,0.01052999496459961,-0.21308594942092896,0.00020796200260519981,0.1841467320919037,-0.03395802900195122,0.25930479168891907,1.5619165650856892,0.6658265051282347,-0.9992640607695406
1687086699.209615,0.7851943969726562,-0.619225263595581,-0.005448204465210438,-0.043388545513153076,-0.20558863878250122,0.004852950572967529,-0.03291426971554756,-0.0647219568490982,-0.1500789374113083,1.5638577690417932,0.6677556344047768,-1.0067741675258703
1687086699.2214189,0.7934021949768066,-0.6086238026618958,-0.009482753463089466,-0.07941311597824097,-0.13795828819274902,-0.02207261323928833,0.06035703420639038,-0.07435184717178345,-0.37353548407554626,1.558844882391342,0.6543250031542495,-1.0033553199218477
1687086699.272462,0.8086680769920349,-0.5882135629653931,-0.007785105146467686,-0.09428226947784424,-0.262174129486084,0.01603996753692627,0.30055612325668335,-0.2406245470046997,-0.6991025805473328,1.5611695528987581,0.6288480343587546,-1.0193112330472025
1687086699.363418,0.8351724743843079,-0.5497929453849792,-0.01464150007814169,-0.16622740030288696,-0.28628188371658325,0.03933006525039673,0.07715843617916107,-0.3783198297023773,-1.1726566553115845,1.553267014023051,0.5821163431620653,-1.0330755662898703
1687086699.376898,0.8700332045555115,-0.49209967255592346,-0.029661143198609352,-0.25550103187561035,-0.2665216028690338,0.07365208864212036,0.05770313739776611,-0.3863184452056885,-1.513147234916687,1.5367175589876132,0.5145000309241896,-1.0375521032873645
1687086699.418713,0.9073845744132996,-0.4175361096858978,-0.04813398793339729,-0.22846007347106934,-0.2118890881538391,0.06307219713926315,-0.09739717841148376,-0.43824830651283264,-1.8272746801376343,1.5177990461050292,0.4307320728378746,-1.0423175550854171
1687086699.5113149,0.9423041343688965,-0.32693007588386536,-0.0719696655869484,-0.17121660709381104,-0.17038452625274658,0.03632497787475586,-0.0555153489112854,-0.4910135567188263,-2.059799909591675,1.494568060235617,0.3330532983381444,-1.0409529145795526
1687086699.525132,0.9697690010070801,-0.22522102296352386,-0.09393295645713806,-0.1281096339225769,-0.12759283185005188,-0.05957061052322388,0.5839886665344238,-0.5761523246765137,-2.2315027713775635,1.4742363896595,0.22716987821700177,-1.0652718696275485
1687086699.571449,0.98616623878479,-0.11924280971288681,-0.11513947695493698,-0.2015136480331421,-0.08298207074403763,-0.10469406843185425,0.8096279501914978,-0.4787176251411438,-2.2379062175750732,1.4545679174480535,0.11952721615646081,-1.1116180308613046
1687086699.6651149,0.991339921951294,-0.01582201197743416,-0.13036280870437622,-0.22165632247924805,-0.06460721790790558,-0.13691024482250214,1.3932534456253052,-0.277678519487381,-2.2303874492645264,1.440044947344676,0.015822671999418475,-1.1805862692366111
1687086699.6780849,0.9858843684196472,0.08595997840166092,-0.14367587864398956,-0.201796293258667,-0.10668160021305084,-0.0685281753540039,1.0688598155975342,-0.21014568209648132,-2.2504003047943115,1.4260820832332444,-0.0860661958629238,-1.2622023577088035
1687086699.720541,0.9680034518241882,0.1915922909975052,-0.16205407679080963,-0.1847546100616455,-0.09802559018135071,-0.022852063179016113,0.6752235293388367,-0.3347320854663849,-2.325883150100708,1.4049238798882566,-0.19278423498348796,-1.3208315820860224
1687086699.843587,0.93559730052948,0.2995707094669342,-0.18685519695281982,-0.20064252614974976,-0.10741698741912842,0.022517934441566467,0.3793507218360901,-0.44925007224082947,-2.38602876663208,1.3736723676916505,-0.30424266296074837,-1.3674415585072277
1687086699.857985,0.8880676627159119,0.40172380208969116,-0.22350381314754486,-0.21445304155349731,-0.0329953134059906,-0.009192794561386108,0.985325038433075,-0.6006023287773132,-2.4026260375976562,1.3242424605424414,-0.41339845537385084,-1.4333433906310942
1687086699.932137,0.82895427942276,0.4894568920135498,-0.2706778347492218,-0.22943651676177979,0.02998259663581848,0.012483805418014526,0.599161684513092,-0.573388397693634,-2.162022590637207,1.2551818731236322,-0.5114668227971575,-1.5170109016363875
1687086699.947188,0.7668946981430054,0.5695779919624329,-0.2957247495651245,-0.18176597356796265,0.06248652935028076,0.05181300640106201,-0.09127292037010193,-0.41315585374832153,-1.9874930381774902,1.2027535342478657,-0.6059923002324031,-1.570855984827929
1687086700.082255,0.7017950415611267,0.6425018310546875,-0.3076927661895752,-0.1911901831626892,0.0046384334564208984,0.04795756936073303,-0.03662336245179176,-0.5283037424087524,-1.9320635795593262,1.157599866848016,-0.6977586846737566,-1.608836965273352
1687086700.09695,0.6258108615875244,0.707724392414093,-0.3278518319129944,-0.17978119850158691,0.04496091604232788,0.08429095149040222,-0.08740445971488953,-0.7093240022659302,-1.9197417497634888,1.0882251941120846,-0.7862720044238622,-1.6641572576483883
1687086700.143796,0.5441708564758301,0.7681094408035278,-0.3374697268009186,-0.1534237265586853,0.03845471143722534,0.059713929891586304,-0.46763935685157776,-0.6934753656387329,-1.8907465934753418,1.0156893944470249,-0.8758833492644905,-1.7157837643302796
1687086700.155693,0.45801448822021484,0.8236498832702637,-0.3344002366065979,-0.10263720154762268,0.0637858510017395,0.01286691427230835,-0.4035813510417938,-0.8629112243652344,-1.783660888671875,0.9401478600523059,-0.9678173317331001,-1.7646835140858466
1687086700.158544,0.36767318844795227,0.8579618334770203,-0.35877248644828796,-0.1374637484550476,0.00896608829498291,0.0987321138381958,0.3903117775917053,-1.033595085144043,-1.7459028959274292,0.7976499262512285,-1.0312888653206613,-1.8774188792551427
1687086700.263977,0.27347061038017273,0.8824074864387512,-0.3828457295894623,-0.06064090132713318,0.070534348487854,0.004702270030975342,-0.517441987991333,-1.0262457132339478,-1.6475272178649902,0.6202657300880104,-1.0809549369444518,-2.0201458100147986
1687086700.382884,0.17536641657352448,0.9190549850463867,-0.3529653251171112,-0.29028022289276123,-0.05011284351348877,0.10920608043670654,-0.4936222434043884,-1.0530221462249756,-1.9666029214859009,0.4611144325186064,-1.1656760202263563,-2.1429157321464993
1687086700.397099,0.06343231350183487,0.936863899230957,-0.34389257431030273,-0.15652602910995483,0.009318113327026367,-0.02573642134666443,-1.067366600036621,-1.078979253768921,-1.945159912109375,0.18240365092819946,-1.2135517321687779,-2.3813851032898445
1687086700.474769,-0.05510120466351509,0.947856068611145,-0.3138989806175232,-0.15179255604743958,0.26164698600769043,-0.06981390714645386,0.203870952129364,-1.1335967779159546,-2.2088823318481445,-0.17376765876037642,-1.246440043895252,-2.7026032851967714
1687086700.4808102,-0.16577257215976715,0.9405791759490967,-0.2963615357875824,-0.15959042310714722,0.09776604175567627,-0.02018219232559204,-0.5105741024017334,-1.0362666845321655,-1.8486629724502563,-0.5100004342215548,-1.2243319242273774,-3.0008999334994644
1687086700.4856582,-0.2647702991962433,0.9229108691215515,-0.27952149510383606,-0.10295107960700989,0.3362748622894287,-0.05399000644683838,-0.1601305454969406,-1.1994602680206299,-1.5863373279571533,-0.7583031690907452,-1.1755736574829245,3.0769799812342065
1687086700.5943642,-0.34948766231536865,0.9061194658279419,-0.2383391410112381,-0.11935368180274963,0.10329502820968628,0.041012316942214966,-0.3464168608188629,-1.2566651105880737,-1.658201813697815,-0.9722756565008671,-1.1340186298705133,2.9076602402429756
1687086700.609179,-0.4388744533061981,0.8724555969238281,-0.2149655520915985,-0.08015301823616028,0.2211264967918396,-0.1366734355688095,0.05748332291841507,-1.2592896223068237,-1.4745842218399048,-1.1153330706665576,-1.060204771836214,2.8223947634915394
1687086700.714254,-0.5182526111602783,0.8361244797706604,-0.17974990606307983,-0.09574562311172485,0.1458396315574646,0.05241513252258301,0.06948891282081604,-1.415187954902649,-1.6347302198410034,-1.2369408399586697,-0.9901795130090407,2.756587605967894
1687086700.727985,-0.5925824642181396,0.7916477918624878,-0.1487935185432434,-0.040214598178863525,0.11496829986572266,-0.045451030135154724,0.377137690782547,-1.5940134525299072,-1.4630385637283325,-1.3247888844624074,-0.91350129178264,2.740920073624262
1687086700.808299,-0.6632620096206665,0.7372044920921326,-0.12889130413532257,0.015923261642456055,0.16346079111099243,-0.12702929973602295,1.245314359664917,-1.4582082033157349,-1.5841518640518188,-1.3788591700638742,-0.8289235602527231,2.7735389955552447
1687086700.8141751,-0.726836085319519,0.6759415864944458,-0.1217048317193985,-0.02568143606185913,0.18386059999465942,-0.06945746392011642,0.9700257182121277,-1.3906172513961792,-1.4545214176177979,-1.404890762972808,-0.7422416299422643,2.8365832556388715
1687086700.8936481,-0.7777263522148132,0.6200916767120361,-0.1030905544757843,-0.06715261936187744,0.2079417109489441,-0.03712272644042969,1.0695195198059082,-1.425206184387207,-1.1706829071044922,-1.4390108292771364,-0.6688595755796133,2.89225486852407
1687086700.908757,-0.816352903842926,0.5727759599685669,-0.07413016259670258,-0.05753296613693237,0.16014939546585083,-0.04269140213727951,1.2774628400802612,-1.5722993612289429,-0.9355189800262451,-1.4802381754798593,-0.609888339819363,2.951725879207652
1687086700.983454,-0.8465778231620789,0.530153214931488,-0.04736468568444252,-0.03461712598800659,0.10526847839355469,-0.009428739547729492,2.1874380111694336,-1.8798353672027588,-0.9450067281723022,-1.5149061824442533,-0.5587812882929475,3.0412172472159984
1687086700.9976568,-0.8659485578536987,0.5000052452087402,-0.011290023103356361,-0.11661040782928467,-0.01282268762588501,-0.19256770610809326,0.37586358189582825,-1.4654077291488647,-0.38243529200553894,-1.5577593132910765,-0.523604825685874,3.1284649233779374
1687086701.104981,-0.8740804195404053,0.4845658540725708,0.034338030964136124,0.016551852226257324,0.10413345694541931,-0.09967648983001709,0.6502751708030701,-1.0234252214431763,-0.3751079738140106,-1.6100608876526614,-0.5058667796541138,-3.1412833687127804
1687086701.1104732,-0.8787031173706055,0.47312837839126587,0.06348307430744171,-0.07008826732635498,0.07096946239471436,-0.1599951982498169,0.0978376716375351,-0.8723427057266235,-0.1682196706533432,-1.6429173553514251,-0.4928383814344521,-3.108923049716057
1687086701.2284951,-0.8789922595024109,0.46789950132369995,0.09188371896743774,0.001077890396118164,0.07593899965286255,-0.15240025520324707,0.5260895490646362,-0.6511853933334351,-0.14723986387252808,-1.6749510789317772,-0.48691257179199166,-3.096678944618907
1687086701.242515,-0.8788579702377319,0.4651210308074951,0.10616321116685867,-0.04524463415145874,0.027447819709777832,-0.12009479105472565,0.13470280170440674,-0.43779057264328003,-0.04028739780187607,-1.6910106467710135,-0.48377133067071887,-3.072257656421424
1687086701.314898,-0.8769645094871521,0.466412216424942,0.11572586745023727,-0.019824862480163574,0.05313420295715332,-0.13190044462680817,0.30277490615844727,-0.17672035098075867,0.029740042984485626,-1.7020000943550517,-0.4852304556148461,-3.062329337526816
1687086701.327797,-0.8760524392127991,0.4684576690196991,0.11436285823583603,-0.02049267292022705,0.010652929544448853,-0.09858563542366028,0.0993075743317604,0.006216872483491898,0.02254440449178219,-1.7006056593694332,-0.4875442364901252,-3.052031688632292
1687086701.331334,-0.8757619261741638,0.4704977869987488,0.10804074257612228,-0.005249977111816406,0.001883774995803833,-0.06011319160461426,0.22208040952682495,0.0912935733795166,0.02218170464038849,-1.6935438165705081,-0.4898548047245071,-3.0425362719235616
1687086701.494142,-0.8763604164123535,0.47183284163475037,0.09677807241678238,-0.011090636253356934,-0.017441362142562866,-0.011329174041748047,-0.12658143043518066,0.20770594477653503,0.05949898064136505,-1.6807824825178768,-0.491368397499005,-3.0401757568291545
1687086701.50916,-0.876130998134613,0.4743310809135437,0.08604717999696732,0.007677197456359863,0.011432409286499023,0.017163030803203583,-0.04483655095100403,0.20065346360206604,0.08535747975111008,-1.6686950530943971,-0.49420403633420384,-3.040732313332988
1687086701.513047,-0.874923050403595,0.47732675075531006,0.08166113495826721,-0.0010686516761779785,0.006956666707992554,0.03996645659208298,-0.2097950279712677,0.18758592009544373,0.11263499408960342,-1.6638619251166356,-0.49760998567353587,-3.0514051260364696
1687086701.580955,-0.8724053502082825,0.4818921387195587,0.08178498595952988,-0.009720444679260254,0.0057329535484313965,0.03416633605957031,-0.205762580037117,0.10976670682430267,0.11062133312225342,-1.6642696862601936,-0.5028128254089628,-3.062922035430884
1687086701.593886,-0.8700822591781616,0.4853096902370453,0.0862034410238266,0.009135782718658447,-0.014591366052627563,0.02913748472929001,-0.07133489847183228,0.04344711825251579,0.07241473346948624,-1.6695491002638876,-0.5067173220599694,-3.0754637745323525
1687086701.671921,-0.8688265085220337,0.487052321434021,0.08899641036987305,0.002325773239135742,-0.022620588541030884,0.02616143226623535,-0.05902629718184471,0.007669148035347462,0.038697630167007446,-1.6728731952547624,-0.5087115232282517,-3.078557023066693
1687086701.677176,-0.868160605430603,0.4875224232673645,0.09283848106861115,-0.00023227930068969727,-0.005710959434509277,0.028041362762451172,0.04526367411017418,-0.048636045306921005,0.004780742805451155,-1.6773284635878587,-0.5092498394194386,-3.080806956799765
1687086701.763236,-0.8675592541694641,0.4874323904514313,0.09874389320611954,-0.006494581699371338,0.00364115834236145,0.01769566535949707,-0.05524460971355438,-0.07343608886003494,0.04480505734682083,-1.684126657627606,-0.5091467505700156,-3.0836779724119565
1687086701.7775512,-0.865838348865509,0.48905107378959656,0.10560619831085205,-0.005240023136138916,0.008415907621383667,-0.00796545296907425,-0.07838966697454453,-0.1000572070479393,0.0555916391313076,-1.6921667185419818,-0.511001509727798,-3.0879629516429405
1687086701.9089909,-0.863956868648529,0.49095627665519714,0.11198286712169647,0.0045362114906311035,-0.006733924150466919,-0.03326309472322464,-0.0656614601612091,-0.0557720884680748,0.040312882512807846,-1.699693958020986,-0.513187077794676,-3.0936099110574062
1687086701.915718,-0.8634483814239502,0.4918803870677948,0.11184997111558914,-0.0003821253776550293,-0.014097243547439575,-0.03647184371948242,-0.052384160459041595,0.023010393604636192,0.017794257029891014,-1.6996176572261852,-0.5142481685160768,-3.0950153818346524
1687086702.002321,-0.8639262914657593,0.49179378151893616,0.10848964750766754,-0.006999492645263672,-0.017092883586883545,-0.023254282772541046,-0.11168370395898819,0.0617964044213295,0.005729183554649353,-1.6957198342817883,-0.5141486892807478,-3.0972002029209222
1687086702.017339,-0.8650733232498169,0.49048081040382385,0.10524598509073257,-0.00737839937210083,-0.0015282034873962402,-0.011877775192260742,-0.10935541242361069,0.0846361517906189,0.0006694882176816463,-1.691862698602191,-0.5126414052696237,-3.103537962584152
1687086702.096652,-0.8660674691200256,0.4895786941051483,0.10119187086820602,0.00528872013092041,0.014464884996414185,-0.0029712915420532227,-0.029970252886414528,0.06481147557497025,-0.0029791533015668392,-1.6871095779755088,-0.5116065228178752,-3.10600487842201
1687086702.111246,-0.866253137588501,0.48971664905548096,0.09890816360712051,0.010921835899353027,0.014433711767196655,0.010298728942871094,-0.08603490144014359,0.07277576625347137,0.02436649613082409,-1.6844832693487781,-0.5117647496621845,-3.109262173660893
1687086702.182724,-0.8654986619949341,0.4914175570011139,0.09705816954374313,0.007970213890075684,0.016944169998168945,0.016970500349998474,-0.07021253556013107,0.0716380625963211,0.04175957664847374,-1.6824710823693114,-0.5137166684530938,-3.112786882926024
1687086702.1965919,-0.8642299175262451,0.493375688791275,0.09842122346162796,0.003008723258972168,0.0093555748462677,0.023664116859436035,-0.09869062155485153,0.03354761749505997,0.038792017847299576,-1.684190943915426,-0.5159664287851388,-3.1199483323613615
1687086702.278555,-0.862897515296936,0.49505263566970825,0.10163895040750504,-0.004579782485961914,0.002048194408416748,0.016219615936279297,-0.07524484395980835,-0.011981998570263386,0.037664078176021576,-1.688044061359122,-0.5178954005411232,-3.1254347321802687
1687086702.2935,-0.8616930246353149,0.4962756633758545,0.10580823570489883,0.004683256149291992,-0.005141079425811768,0.0070912763476371765,-0.05687004327774048,-0.024072857573628426,0.022400926798582077,-1.6929758172527059,-0.5193036038080189,-3.1306368359613197
1687086702.361527,-0.861057698726654,0.49677926301956177,0.10858072340488434,0.0030103325843811035,-0.007094234228134155,0.002975933253765106,0.028217151761054993,-0.05176227167248726,-0.005563484504818916,-1.696235791481769,-0.5198837522510862,-3.13154741232784
1687086702.373321,-0.8608628511428833,0.49644163250923157,0.11162618547677994,-0.002814948558807373,-0.010769695043563843,0.0031654760241508484,-0.017898516729474068,-0.06799829006195068,-0.0015888502821326256,-1.6997446309009723,-0.5194947659488748,-3.1313905580328485
1687086702.457649,-0.8607882857322693,0.4957711696624756,0.11512785404920578,-0.0019284486770629883,-5.885958671569824e-05,-0.005981907248497009,0.023222073912620544,-0.09261426329612732,-0.02487684041261673,-1.7037542770091072,-0.5187225809750745,-3.131854589783611
1687086702.548758,-0.8609925508499146,0.49468037486076355,0.11825079470872879,-0.0013426542282104492,0.0010167062282562256,-0.0046951621770858765,0.0005979887209832668,-0.07880230247974396,-0.01941462978720665,-1.7072848214627128,-0.5174670086106962,-3.1303609503310508
1687086702.563716,-0.8611400723457336,0.4939926862716675,0.12003705650568008,0.003458857536315918,0.01237022876739502,-0.012172937393188477,0.004428519867360592,-0.044133223593235016,-0.00694080488756299,-1.7092970656203414,-0.5166759110566614,-3.129697093792353
1687086702.567374,-0.8610090017318726,0.49380770325660706,0.12172568589448929,-0.0025925636291503906,0.007229864597320557,-0.009345054626464844,-0.08950239419937134,-0.03857116028666496,0.009911101311445236,-1.7112411903805056,-0.5164631597667043,-3.1313673546210814
1687086702.5995731,-0.860532283782959,0.4942284822463989,0.1233782023191452,0.004560112953186035,0.009693026542663574,-0.008327245712280273,-0.03825902193784714,-0.016852334141731262,0.01221795380115509,-1.713200144407476,-0.5169471073208769,-3.135030206947815
1687086702.659861,-0.8602508902549744,0.49481379985809326,0.12299332022666931,0.005468964576721191,0.004545271396636963,-0.005409374833106995,-0.031821414828300476,-0.0012519627343863249,0.011110832914710045,-1.7128076816749858,-0.5176205415771699,-3.1354491326566496
1687086702.725356,-0.8599117994308472,0.49537521600723267,0.1231045201420784,0.0015135407447814941,0.0031141340732574463,-0.0013701990246772766,-0.026738347485661507,-0.003052312880754471,0.014710916206240654,-1.7129896559771747,-0.5182667301409409,-3.1370929185776992
1687086702.812286,-0.8595629930496216,0.49590569734573364,0.123404860496521,0.003285646438598633,-0.000895380973815918,0.005302786827087402,-0.03289083391427994,-0.0013600336387753487,0.0160652007907629,-1.7133889484052034,-0.5188774973464021,-3.1386930536293836
1687086702.826452,-0.8592216968536377,0.496048241853714,0.12519571185112,-0.002823472023010254,-0.0034030377864837646,0.005434498190879822,-0.09617606550455093,-0.015539768151938915,0.006145280320197344,-1.7154863715486646,-0.5190416599934277,3.1408747010888685
1687086702.870287,-0.8589698672294617,0.49577099084854126,0.12799088656902313,0.0019295215606689453,-0.007230401039123535,0.00021314620971679688,-0.06286141276359558,-0.0038202085997909307,0.005076820496469736,-1.7187131182952302,-0.5187223910201013,3.1360349012433617
1687086702.996383,-0.8589286208152771,0.4954720735549927,0.12941744923591614,-0.00786203145980835,0.0059011876583099365,-0.024498343467712402,-0.1766330897808075,0.07440822571516037,0.04182802140712738,-1.7203445149882235,-0.5183782106242101,3.1307133067095374
1687086703.009517,-0.8570401668548584,0.4977843463420868,0.13301292061805725,-0.0308380126953125,0.039523303508758545,-0.08934260904788971,-0.7156505584716797,0.29257938265800476,0.22018004953861237,-1.7247682595039757,-0.5210422373614675,3.1039654108180894
1687086703.083246,-0.8514694571495056,0.5066872239112854,0.13515742123126984,-0.030167996883392334,0.16744601726531982,-0.2741652727127075,-1.0715386867523193,0.713060200214386,0.49234291911125183,-1.7282172563898166,-0.5313378662975253,3.048872632721156
1687086703.097431,-0.8398977518081665,0.5286816954612732,0.12274818122386932,-0.06018751859664917,0.28067493438720703,-0.33875179290771484,-1.2532627582550049,1.2544244527816772,0.9545609951019287,-1.7159155297039435,-0.5570467344468358,2.978974742820867
1687086703.173149,-0.8139405846595764,0.5720661878585815,0.10119738429784775,-0.11826455593109131,0.32382309436798096,-0.38021981716156006,-1.8142939805984497,1.8680678606033325,1.5814933776855469,-1.6944917602590819,-0.6090227550909025,2.875525313434494
1687086703.178808,-0.7652835249900818,0.6392825245857239,0.07522407174110413,-0.1787317395210266,0.3531033396720886,-0.30000150203704834,-1.8773548603057861,2.2569713592529297,2.2045631408691406,-1.6687772629330835,-0.693564866719297,2.7445884607895583
1687086703.231264,-0.6899024248123169,0.7219437956809998,0.053215380758047104,-0.24175339937210083,0.3129379153251648,-0.1700674295425415,-1.7195910215377808,2.2964940071105957,2.6127769947052,-1.647778544450493,-0.8066073376904451,2.606164087989771
1687086703.3557348,-0.5891674757003784,0.8063105940818787,0.052389852702617645,-0.32841962575912476,0.23024940490722656,-0.025519374758005142,-2.07094669342041,2.112480640411377,2.920412302017212,-1.6594848969000915,-0.9378878460690412,2.445848029770663
1687086703.361789,-0.4673287570476532,0.8803029656410217,0.08167362958192825,-0.37402549386024475,0.20958662033081055,0.05824924260377884,-1.4515174627304077,1.745807409286499,3.054830551147461,-1.743815871566102,-1.0765004288386053,2.2304787910349058
1687086703.442669,-0.33713874220848083,0.9360554218292236,0.10068448632955551,-0.42474764585494995,0.12601721286773682,0.07405900955200195,-1.0509467124938965,1.33658766746521,2.9882287979125977,-1.8610086817336529,-1.211246891253738,2.0172718492665718
1687086703.4483051,-0.20504873991012573,0.968662679195404,0.14016824960708618,-0.37356436252593994,0.04786241054534912,0.0909564197063446,-1.0081895589828491,0.8966525197029114,2.8697619438171387,-2.170420405730181,-1.3197887531161925,1.6362496264501225
1687086703.5331988,-0.0724417045712471,0.9823896288871765,0.1722286492586136,-0.39957353472709656,0.009828329086303711,0.07494831085205078,-0.8115924000740051,0.679457426071167,2.798668384552002,-2.7434432310348087,-1.3828478252277592,1.0098606891318052
1687086703.547799,0.05552105978131294,0.9752040505409241,0.2142282873392105,-0.390680193901062,0.022476255893707275,0.04776483774185181,-0.6905763149261475,0.43580132722854614,2.640962600708008,2.8880043215619144,-1.3476412509608877,0.3166219155816714
1687086703.663175,0.1761799454689026,0.9572744369506836,0.22931700944900513,-0.34977906942367554,0.058197975158691406,0.07331040501594543,-0.23842887580394745,0.2916911244392395,2.521268129348755,2.4864938708278514,-1.2774251392714273,-0.11672053742685284
1687086703.676538,0.28852981328964233,0.919513463973999,0.2669180631637573,-0.32595956325531006,0.04233938455581665,0.13293835520744324,-1.1299923658370972,-0.06601109355688095,2.374511957168579,2.3173053767551317,-1.166840881262137,-0.30318266462727206
1687086703.74155,0.39701709151268005,0.8683931827545166,0.29710397124290466,-0.3065322935581207,0.0751492977142334,0.11796548962593079,-0.28780266642570496,-0.4696717858314514,2.3057799339294434,2.213234504655843,-1.0519527373921258,-0.40397621624305097
1687086703.746702,0.5021272301673889,0.8127030730247498,0.2956037223339081,-0.32634592056274414,0.07058227062225342,0.12057948112487793,-0.45727503299713135,-0.6295070052146912,2.2720792293548584,2.1028676553428642,-0.9487763075998027,-0.5013656004232008
1687086703.83386,0.5994376540184021,0.744175136089325,0.29474976658821106,-0.3179587721824646,0.10227543115615845,0.05664464831352234,-0.3394143879413605,-0.7372996211051941,2.2092103958129883,2.0277903450317294,-0.8392991628173316,-0.5525593636191165
1687086703.84812,0.6882069706916809,0.669305145740509,0.28000301122665405,-0.32988476753234863,0.11578994989395142,0.04687061905860901,-0.3534364700317383,-0.7843102216720581,2.203843832015991,1.9572013652553508,-0.7332731921166946,-0.5987050229485069
1687086703.9236321,0.7691361904144287,0.5809964537620544,0.26621875166893005,-0.3305985927581787,0.092556893825531,0.004181981086730957,-0.560179591178894,-0.8418793678283691,2.2421553134918213,1.9040165852051676,-0.6199524331862861,-0.6188972283919746
1687086703.92937,0.8402013182640076,0.48626044392585754,0.2400260865688324,-0.342795193195343,0.05440413951873779,-0.017598837614059448,-0.029366353526711464,-0.8950520157814026,2.234280586242676,1.8490613984822404,-0.5078050596580184,-0.6402543987080941
1687086703.983181,0.897588312625885,0.3920513391494751,0.2015710324048996,-0.30533367395401,0.008354365825653076,-0.025805234909057617,0.00701093440875411,-0.8264563679695129,2.098391056060791,1.7917010655216212,-0.40286038520568007,-0.6715635631504457
1687086704.103417,0.9395122528076172,0.2992842495441437,0.16656967997550964,-0.26672178506851196,-0.004240483045578003,0.018870100378990173,-0.07803626358509064,-0.7457219362258911,1.9197911024093628,1.746266755190747,-0.3039424300853276,-0.6892909476155764
1687086704.1082702,0.9689813852310181,0.20854076743125916,0.13261167705059052,-0.24750006198883057,-0.0030660629272460938,0.004747748374938965,-0.18323218822479248,-0.6991837620735168,1.8272744417190552,1.7068081586769803,-0.21008268780301875,-0.6966773101801368
1687086704.1921248,0.9877225756645203,0.1199977919459343,0.10002236813306808,-0.23245835304260254,0.04943567514419556,-0.008668184280395508,-0.06289608776569366,-0.6804497241973877,1.79501473903656,1.6717179388797156,-0.12028765843905598,-0.7021845846133187
1687086704.198497,0.9973723888397217,0.028931288048624992,0.06641405075788498,-0.19649982452392578,0.04458539932966232,-0.033165350556373596,0.002986472100019455,-0.6774532794952393,1.8783881664276123,1.6372871849258377,-0.028935325790910276,-0.7062232334089424
1687086704.280927,0.9971228241920471,-0.06771636754274368,0.03406623750925064,-0.21626955270767212,0.0031562969088554382,-0.02971768006682396,0.17174731194972992,-0.622076153755188,2.013052463531494,1.6049475773577881,0.06776822888965832,-0.7159085525523258
1687086704.295438,0.9855268597602844,-0.16935878992080688,0.007366057951003313,-0.22121423482894897,-0.04815538227558136,-0.028331875801086426,0.2924594581127167,-0.5250666737556458,2.0705158710479736,1.5782704210898157,0.17017902101679222,-0.7297882440701672
1687086704.403676,0.9635056257247925,-0.2674883008003235,-0.010330789722502232,-0.1982775330543518,-0.10380390286445618,-0.05722004175186157,0.521560788154602,-0.4481550455093384,1.9564698934555054,1.560074652215301,0.2707853913160677,-0.7532171384173629
1687086704.409264,0.934760332107544,-0.35462260246276855,-0.021586129441857338,-0.14195942878723145,-0.1673654317855835,-0.054723262786865234,0.43256160616874695,-0.35064223408699036,1.674291968345642,1.5477077414921578,0.36251040841646315,-0.7780066636230086
1687086704.55459,0.9061130881309509,-0.42208975553512573,-0.028270969167351723,-0.12568718194961548,-0.18946731090545654,-0.02865976095199585,0.22491620481014252,-0.23421430587768555,1.2384300231933594,1.5396061792121112,0.4357492659664762,-0.7936179077649514
1687086704.559989,0.883021891117096,-0.46835222840309143,-0.030309610068798065,-0.07996708154678345,-0.23922845721244812,-0.05448365584015846,0.39730069041252136,-0.2118801474571228,0.8011645674705505,1.5364849289669844,0.48742489965073005,-0.8095615783258314
1687086704.6169472,0.8686427474021912,-0.49447572231292725,-0.030878333374857903,-0.07272922992706299,-0.23144599795341492,-0.04082292318344116,0.10840126127004623,-0.1519012302160263,0.3767431676387787,1.535263496167333,0.5172315626473452,-0.8257694515756929
1687086704.629827,0.8641325235366821,-0.5019254684448242,-0.03668609634041786,-0.04044795036315918,-0.20119959115982056,-0.06950002908706665,-0.0028738141991198063,-0.10414314270019531,-0.008643674664199352,1.5283675557160963,0.5258235232272092,-0.8250445716369228
1687086704.632972,0.8672288656234741,-0.49650487303733826,-0.037374380975961685,-0.07203251123428345,-0.18675321340560913,-0.06846076250076294,0.12184899300336838,-0.053494714200496674,-0.23149830102920532,1.5277266467903305,0.5195676277954056,-0.8301933488398597
1687086704.704771,0.8766093254089355,-0.48004624247550964,-0.03334034979343414,-0.0576549768447876,-0.23730000853538513,-0.0844271183013916,0.5203521847724915,-0.07057767361402512,-0.5960966944694519,1.5327813440902112,0.5007074184788296,-0.846316744562125
1687086704.79358,0.8951182961463928,-0.44525790214538574,-0.022543396800756454,-0.0826491117477417,-0.26444366574287415,-0.07848525047302246,0.5551784038543701,-0.04671957716345787,-1.0032033920288086,1.5456168261794776,0.4614622591633634,-0.8808894566699025
1687086704.809033,0.919877290725708,-0.39198219776153564,-0.013253134675323963,-0.11784493923187256,-0.24084565043449402,-0.08049708604812622,0.40522024035453796,0.031204992905259132,-1.3561447858810425,1.5563898204778748,0.4027852469417396,-0.9075569961833637
1687086704.883935,0.946723222732544,-0.3220275640487671,-0.003659699810668826,-0.122794508934021,-0.19501662254333496,-0.07838696241378784,0.416549950838089,0.053773846477270126,-1.6362594366073608,1.5669306969189847,0.32787036802173225,-0.9303112557908062
1687086704.898515,0.971258819103241,-0.23798339068889618,0.004489765968173742,-0.11275368928909302,-0.11495254933834076,-0.052265167236328125,0.2809138596057892,0.08554738014936447,-1.8641571998596191,1.575418919723234,0.24028905219552588,-0.9478377751742955
1687086704.973069,0.9895208477973938,-0.14373892545700073,0.013699410483241081,-0.1261022686958313,-0.0711202323436737,-0.05482196807861328,0.43644145131111145,0.15368850529193878,-1.9219353199005127,1.5846399315434263,0.14423855225062743,-0.9650785053220954
1687086704.9787788,0.99847412109375,-0.049659568816423416,0.02415338158607483,-0.139892578125,-0.058952637016773224,-0.032576318830251694,0.5584863424301147,0.17129956185817719,-1.8178765773773193,1.5949819031712427,0.049680003429649545,-0.9851938464223898
1687086705.031879,0.9986873269081116,0.04052527993917465,0.031326133757829666,-0.13912922143936157,-0.08370780944824219,-0.0335388146340847,1.0164735317230225,0.11515981703996658,-1.7588326930999756,1.602153353084792,-0.040536379778083116,-1.0237315310552138
1687086705.12119,0.991256594657898,0.12720902264118195,0.035046614706516266,-0.15657025575637817,-0.042187198996543884,-0.007031675428152084,0.6433756351470947,0.18211784958839417,-1.6808984279632568,1.6061373492306315,-0.12755463476306625,-1.0619961604902106
1687086705.1275802,0.9776245951652527,0.20681889355182648,0.03841712698340416,-0.10852980613708496,0.04757547378540039,0.02876722812652588,0.5072041749954224,0.13314323127269745,-1.4559738636016846,1.6100725175301414,-0.2083224273349523,-1.089478496474822
1687086705.181593,0.9611827731132507,0.2738768756389618,0.03345368057489395,-0.11757004261016846,-0.04072272777557373,0.019387368112802505,0.9128137826919556,-0.007176164537668228,-1.3223017454147339,1.6055869848491313,-0.2774217290353384,-1.120719635987466
1687086705.2710052,0.939856231212616,0.34141120314598083,0.010407939553260803,-0.09064370393753052,-0.07555755972862244,0.03869473934173584,1.2688077688217163,-0.2407090663909912,-1.4905662536621094,1.5818698441847343,-0.3484179172262841,-1.1782809993684338
1687086705.277718,0.9102402925491333,0.41339731216430664,-0.02377607300877571,-0.17829138040542603,-0.11296716332435608,0.03215300664305687,0.9551014304161072,-0.28150132298469543,-1.6054407358169556,1.544681610292754,-0.426181983686562,-1.2399790606262446
1687086705.3645458,0.8723980784416199,0.48596182465553284,-0.052560269832611084,-0.15848511457443237,-0.14324963092803955,0.03258639574050903,0.6914360523223877,-0.24940963089466095,-1.7579110860824585,1.5106210302148295,-0.5074633565014423,-1.2875405266101754
1687086705.455543,0.8237314224243164,0.5622305870056152,-0.0732327550649643,-0.20512491464614868,-0.1600397229194641,0.051153190433979034,0.12987816333770752,-0.23023167252540588,-1.9039171934127808,1.4821257764787055,-0.597080620264237,-1.318939770700994
1687086705.460781,0.761917233467102,0.6420993208885193,-0.08479562401771545,-0.22248858213424683,-0.09876459836959839,0.05050898343324661,-0.09978506714105606,-0.26847848296165466,-2.071021318435669,1.459960003161712,-0.6972335133079511,-1.3360187962627055
1687086705.577986,0.6897071599960327,0.7182438969612122,-0.09181344509124756,-0.23772644996643066,-0.09383916854858398,0.06047177314758301,-0.07557763159275055,-0.4279314875602722,-2.096999168395996,1.4384549340811086,-0.801275138789576,-1.3419454082535154
1687086705.5922918,0.6064385771751404,0.7887780070304871,-0.10030650347471237,-0.2442253828048706,-0.06892955303192139,0.08761107921600342,-0.5592962503433228,-0.49233466386795044,-2.1614723205566406,1.4068778171872476,-0.9088184269807356,-1.3522927142386225
1687086705.69348,0.5097677707672119,0.8561402559280396,-0.08461969345808029,-0.19211024045944214,0.006316840648651123,-0.002599656581878662,-0.2602153420448303,-0.4647897481918335,-2.3927624225616455,1.406299727880567,-1.0277534782180415,-1.3261178079420968
1687086705.707756,0.4061751663684845,0.9073734879493713,-0.10814303904771805,-0.13987866044044495,0.18407225608825684,0.0022316575050354004,0.5462839603424072,-0.8074621558189392,-2.1024606227874756,1.310585509382754,-1.1369925855824936,-1.3986343118074738
1687086705.7842321,0.3125559687614441,0.9369389414787292,-0.15637783706188202,-0.06791168451309204,0.12685787677764893,0.03255261480808258,0.9296033382415771,-1.0213428735733032,-1.7873197793960571,1.106893158586645,-1.2137663275199138,-1.569353826450107
1687086705.799063,0.21861957013607025,0.9466704726219177,-0.2366858869791031,-0.1154090166091919,0.16925030946731567,-0.06038758158683777,1.5682567358016968,-1.1064952611923218,-1.7978389263153076,0.7457394078292345,-1.2427402664997163,-1.89545477697656
1687086705.802747,0.11509133130311966,0.9499170780181885,-0.29053643345832825,-0.16854271292686462,-0.025661826133728027,-0.06972372531890869,0.485873281955719,-0.8476701378822327,-1.9883685111999512,0.3771690910711623,-1.252970451727414,-2.2318063202811844
1687086705.838626,0.007415095344185829,0.9518042206764221,-0.30661627650260925,-0.16422951221466064,0.07395243644714355,-0.021051019430160522,0.21436917781829834,-0.7849259972572327,-1.9483484029769897,0.02417891991162362,-1.2590658500023364,-2.561105643901224
1687086705.931109,-0.09980697929859161,0.9376093745231628,-0.3330572247505188,-0.17535459995269775,0.08450043201446533,0.10597580671310425,1.3022050857543945,-1.3096113204956055,-1.8930716514587402,-0.29115323850183905,-1.21568963644772,-2.8402600257066855
1687086705.947331,-0.21210244297981262,0.8963028192520142,-0.3894274830818176,-0.21421268582344055,0.09063553810119629,0.1457749605178833,1.2566107511520386,-1.5761692523956299,-1.9083117246627808,-0.49872798193464013,-1.1113604431661446,-2.9855217639340235
1687086706.023065,-0.3257864713668823,0.8625388145446777,-0.38715630769729614,-0.14540475606918335,0.1384682059288025,0.05541485548019409,-0.45310574769973755,-1.6628568172454834,-1.8100708723068237,-0.6995302121421169,-1.0402658812147665,-3.1227759649638545
1687086706.02884,-0.42995965480804443,0.8418384790420532,-0.3262554109096527,-0.17093130946159363,0.162647545337677,-0.01604515314102173,-0.5198779702186584,-1.7787771224975586,-1.6613940000534058,-0.9216839817408323,-1.0006805517512012,3.0001672123265615
1687086706.116558,-0.525719165802002,0.8050453066825867,-0.27481141686439514,-0.14781880378723145,0.11936265230178833,-0.024367868900299072,0.30432823300361633,-2.0599403381347656,-1.6248198747634888,-1.0891271847454964,-0.9357517897932722,2.914287821337165
1687086706.1308908,-0.6134771108627319,0.7491968870162964,-0.24969907104969025,0.01182323694229126,0.12349897623062134,-0.15104269981384277,1.1280142068862915,-1.982228398323059,-1.6304709911346436,-1.184250644566072,-0.8468487138588895,2.923183354377394
1687086706.167962,-0.6969783902168274,0.6849693655967712,-0.2122211903333664,-0.05405902862548828,0.15284490585327148,0.023958057165145874,0.410898357629776,-2.1453635692596436,-1.6425672769546509,-1.2752276815626864,-0.7545616690996577,2.9370367497628695
1687086706.234065,-0.7657754421234131,0.6283784508705139,-0.13685102760791779,-0.1515979766845703,0.1726621389389038,-0.013616129755973816,0.29777416586875916,-2.361997365951538,-1.5484973192214966,-1.3939540654178395,-0.6794669357515498,2.9244670579685605
1687086706.322979,-0.8242751359939575,0.561642050743103,-0.07161406427621841,-0.17438191175460815,0.4957309365272522,-0.13708066940307617,1.4011006355285645,-2.626688003540039,-1.1028717756271362,-1.4841326819151384,-0.5963691322428145,2.995151730055884
1687086706.3292642,-0.8566340804100037,0.5159242749214172,0.00022714848455507308,-0.05567348003387451,0.1776944398880005,-0.04742288589477539,2.5043718814849854,-2.605900526046753,-1.0734426975250244,-1.571061490732705,-0.5420862681228378,3.074929764389142
1687086706.414531,-0.8747316598892212,0.48278164863586426,0.04202442616224289,-0.15485495328903198,0.17833581566810608,-0.2846546173095703,1.2903882265090942,-2.331228017807007,-0.44758692383766174,-1.6188020653833566,-0.5038282701764386,-3.0431946236328686
1687086706.537535,-0.8744938969612122,0.4695553481578827,0.12156452983617783,-0.09388977289199829,0.10174891352653503,-0.15730082988739014,0.744049608707428,-1.7826076745986938,-0.34158414602279663,-1.7089224432667722,-0.48878708364150153,-3.020435164642757
1687086706.542392,-0.8692076206207275,0.46302172541618347,0.17346058785915375,-0.12946468591690063,0.04663705825805664,-0.29255568981170654,0.3640493154525757,-1.574733853340149,-0.15017038583755493,-1.7677704512941081,-0.48140135484904983,-2.960512698292928
1687086706.547845,-0.8569287061691284,0.4607848823070526,0.23097608983516693,-0.09459394216537476,0.07536303997039795,-0.2473032921552658,0.4501643478870392,-1.1670514345169067,-0.05053715035319328,-1.8340788495142992,-0.47887935170867274,-2.9558034307512058
1687086706.622081,-0.8484055399894714,0.4662301242351532,0.2506742477416992,-0.04949796199798584,0.0005819201469421387,-0.3098022937774658,0.9753811955451965,-0.6976626515388489,-0.2274000495672226,-1.8580875100000736,-0.48502458678658034,-2.906115337543373
1687086706.6270041,-0.8475410342216492,0.46664750576019287,0.2528126835823059,-0.04454880952835083,-0.037784039974212646,-0.18681871891021729,0.12286008894443512,-0.023597056046128273,-0.062191806733608246,-1.860683209704458,-0.4854964494445183,-2.874050636942516
1687086706.679765,-0.8499684929847717,0.4676901698112488,0.24252749979496002,-0.018699169158935547,-0.01616734266281128,-0.09796592593193054,0.2710639536380768,0.25743383169174194,-0.041670288890600204,-1.8487471734512386,-0.48667571144005284,-2.86526985044179
1687086706.775426,-0.8554021120071411,0.4670335054397583,0.22397994995117188,-0.011373519897460938,-0.0403672456741333,0.005573064088821411,0.09410876035690308,0.2691386044025421,-0.09032575786113739,-1.8268887047309952,-0.4859329454818577,-2.8480693096441247
1687086706.780875,-0.8586909174919128,0.4645528793334961,0.21642589569091797,-0.017132937908172607,-0.018218159675598145,0.03577110171318054,-0.24162812530994415,0.25725191831588745,0.04841945320367813,-1.817695636738336,-0.4831296368361378,-2.858298556338278
1687086706.831562,-0.860327422618866,0.46454834938049316,0.20983543992042542,0.0026921629905700684,0.0062004029750823975,0.02740783989429474,0.009358936920762062,0.15575625002384186,-0.015280250459909439,-1.8100273479589415,-0.48312452649432636,-2.8647174568430134
1687086706.923789,-0.8622353672981262,0.46345096826553345,0.20436067879199982,0.0026162266731262207,-0.007411599159240723,0.032379150390625,-0.048802051693201065,0.10343966633081436,-0.004485282115638256,-1.803514743000201,-0.481885721886236,-2.8642505741130444
1687086706.929861,-0.8614529371261597,0.4644937515258789,0.20528967678546906,-0.0029877424240112305,0.015578150749206543,0.015413135290145874,0.07241273671388626,0.05551432818174362,0.006250120233744383,-1.804739253177951,-0.4830628541344833,-2.8675862934663705
1687086706.981104,-0.8607482314109802,0.4652140140533447,0.2066117376089096,-0.003936886787414551,0.0077474117279052734,0.005775123834609985,-0.09740228950977325,0.030254565179347992,0.03516678884625435,-1.8063766269919337,-0.48387637472132444,-2.8678718412587854
1687086707.070887,-0.8587560057640076,0.46803900599479675,0.20851270854473114,-0.004693150520324707,0.018899500370025635,-0.012590140104293823,0.01344342716038227,0.019858594983816147,0.07725226134061813,-1.8089945566571333,-0.48707041326292166,-2.8733157238570937
1687086707.076688,-0.857725203037262,0.4706978499889374,0.2067621350288391,0.004606425762176514,-0.015055269002914429,-0.015051022171974182,0.07132882624864578,0.016952555626630783,0.022088471800088882,-1.8073421255720816,-0.49008156688991256,-2.8711451601784517
1687086707.167176,-0.8576326966285706,0.47178059816360474,0.2046681046485901,0.000897526741027832,-0.0266665518283844,-0.005571737885475159,-0.09798994660377502,0.06448449194431305,0.03359352797269821,-1.8050579040733978,-0.4913091454460352,-2.8720982729415754
1687086707.2557812,-0.8581953644752502,0.47234609723091125,0.20097127556800842,0.0010483264923095703,-0.002131342887878418,-0.002790480852127075,0.05684128776192665,0.04705841839313507,0.0034717549569904804,-1.8008300434326914,-0.491950641922364,-2.8722877109961025
1687086707.261621,-0.8592181205749512,0.4709569811820984,0.19985875487327576,-0.00012630224227905273,-0.011621713638305664,0.007095932960510254,-0.02046511135995388,0.018949871882796288,-0.0030857687816023827,-1.799337779871636,-0.49037528393694346,-2.872300879266589
1687086707.342917,-0.8590384125709534,0.47132766246795654,0.19975782930850983,0.0030355453491210938,-0.000655055046081543,0.007013827562332153,-0.08967901766300201,0.02591819316148758,0.03245043382048607,-1.799272473431007,-0.4907955175521726,-2.8743342628731314
1687086707.349225,-0.8587335348129272,0.47110211849212646,0.2015918493270874,0.0033106207847595215,-0.0005974173545837402,0.005088210105895996,0.002081263344734907,-0.008795845322310925,0.009246708825230598,-1.8013759443272757,-0.4905398021316975,-2.8789825489306993
1687086707.431817,-0.8583688139915466,0.4712599515914917,0.20277298986911774,-0.0006856918334960938,-0.007835328578948975,0.0036933422088623047,-0.030463149771094322,-0.018320800736546516,-0.004219342954456806,-1.8027741822655163,-0.4907187711806124,-2.8787975312434084
1687086707.4470801,-0.8579740524291992,0.4712992012500763,0.20434655249118805,0.005312860012054443,-0.0004892945289611816,-0.00409051775932312,-0.019198086112737656,-0.01504703052341938,0.007401160430163145,-1.8046134165061993,-0.49076327057860264,-2.8803842577231804
1687086707.523598,-0.857803463935852,0.47098061442375183,0.2057926058769226,0.0008697509765625,-0.0033597052097320557,-0.003308728337287903,-0.004826017655432224,-0.03538276627659798,-0.005014119204133749,-1.806252874668882,-0.4904020739458907,-2.88119799593177
1687086707.5288758,-0.8574265837669373,0.4706697165966034,0.20806096494197845,-0.008143424987792969,-0.005398809909820557,-0.00066375732421875,-0.07021348923444748,-0.026260217651724815,0.016388751566410065,-1.8088525167625769,-0.49004967993932474,-2.8842464974537583
1687086707.583195,-0.857111394405365,0.4707851707935333,0.20909637212753296,-0.00031054019927978516,0.0040531158447265625,-0.013585776090621948,0.028353240340948105,-0.05034760385751724,-0.009593380615115166,-1.810077270935017,-0.49018052511162774,-2.8844294880814916
1687086707.671502,-0.8569956421852112,0.47020235657691956,0.21087530255317688,-0.006041586399078369,-0.004412531852722168,-0.005888894200325012,-0.07629892230033875,-0.012496254406869411,0.00982845388352871,-1.8120665764821173,-0.48952005031906876,-2.8867959450771696
1687086707.6771688,-0.8571153879165649,0.4703563153743744,0.2100427746772766,-0.002122163772583008,0.011653542518615723,-0.01767551898956299,0.06868793070316315,-0.020183416083455086,-0.009445929899811745,-1.81111807261506,-0.4896944972072946,-2.88592100175836
1687086707.733736,-0.8571410179138184,0.47111639380455017,0.20822638273239136,-0.0017608404159545898,0.009718477725982666,-0.012380138039588928,0.0930713564157486,-0.023815540596842766,0.01376198697835207,-1.809111110286694,-0.490555998123643,-2.8811019718860784
1687086707.854969,-0.8567380905151367,0.4732397198677063,0.20504584908485413,0.0007810592651367188,0.01137930154800415,-0.005171298980712891,0.0776112824678421,0.008819686248898506,0.032061390578746796,-1.8057107068778542,-0.49296477066967775,-2.8756440806665466
1687086707.860793,-0.8559224009513855,0.47604745626449585,0.20192858576774597,-0.0032539963722229004,0.0035056471824645996,0.0020963847637176514,0.09204103797674179,0.006955846678465605,0.04331619292497635,-1.8024792678112513,-0.4961547134738819,-2.871201840742362
1687086707.9438381,-0.8547343015670776,0.47898629307746887,0.20000320672988892,-0.0037099719047546387,-0.00462108850479126,0.006676822900772095,0.07682133466005325,-0.018305834382772446,0.04418931156396866,-1.8006552773820772,-0.4994995506664798,-2.8667691845507677
1687086707.9593549,-0.8533967733383179,0.4814651608467102,0.19976291060447693,-0.008190751075744629,-0.010868936777114868,0.007771611213684082,0.023797476664185524,-0.010728768073022366,0.049197252839803696,-1.8007360363516371,-0.5023256306314885,-2.864639817214582
1687086708.033461,-0.8524869084358215,0.4833616018295288,0.19906644523143768,-0.004065155982971191,-0.01015615463256836,0.005385756492614746,0.12347234785556793,-0.02616460993885994,0.023331325501203537,-1.8001982796167801,-0.5044906589536811,-2.8610970914608207
1687086708.048804,-0.8521081805229187,0.48388391733169556,0.199418842792511,-0.012454867362976074,-0.027340978384017944,0.005842119455337524,-0.014838065952062607,-0.021652787923812866,-0.0033173970878124237,-1.8006888240611996,-0.5050873940626135,-2.8584788239375656
1687086708.122387,-0.8523355722427368,0.4830496907234192,0.20046724379062653,-0.003362119197845459,-0.01353675127029419,-0.004666775465011597,-0.016589786857366562,-0.016412433236837387,-0.013529598712921143,-1.8017954946753951,-0.5041343762109758,-2.8584769004811528
1687086708.127156,-0.8530206084251404,0.48133325576782227,0.20167894661426544,-0.008078813552856445,-0.0026344656944274902,-0.0067786723375320435,-0.012189552187919617,0.0016131192678585649,-0.01839626021683216,-1.8029622311470321,-0.5021751321160008,-2.8604022633015553
1687086708.181347,-0.8537540435791016,0.4801064729690552,0.2014988362789154,0.0022220611572265625,0.006297886371612549,-0.010947346687316895,-0.06473147869110107,0.014640557579696178,-0.0050198896788060665,-1.8025700271753773,-0.5007760957965458,-2.861389637578652
