Timestamp,gravityX,gravityY,gravityZ,accelerationX,accelerationY,accelerationZ,rotationRateX,rotationRateY,rotationRateZ,attitudeRoll,attitudePitch,attitudeYaw
1687089261.688894,-0.885297417640686,0.44942188262939453,0.11945142596960068,0.011899590492248535,-0.029377907514572144,0.034311532974243164,0.015238717198371887,0.04862968251109123,-0.05767287686467171,-1.7049143572159928,-0.4661180764470899,3.1216606984612194
1687089279.203819,-0.8439053893089294,0.48621541261672974,0.2267562597990036,0.001971125602722168,0.008245646953582764,-0.0023757219314575195,-0.004473521839827299,0.014030001126229763,-0.0171546321362257,-1.833294867515537,-0.5077535174190678,-2.687199356367068
1687089279.20884,-0.8440452814102173,0.48622873425483704,0.22620625793933868,0.0010734796524047852,0.004127711057662964,0.0032859891653060913,-0.00477951904758811,0.00736011378467083,0.004268879070878029,-1.8326454791607123,-0.5077687516075887,-2.6866233244351614
1687089279.294187,-0.8440721035003662,0.48633456230163574,0.22587856650352478,-0.001966714859008789,0.0006954967975616455,0.004269823431968689,-0.03060738742351532,0.030088864266872406,0.010615991428494453,-1.832275280762906,-0.5078898875330884,-2.6880916510129023
1687089279.313695,-0.8439609408378601,0.4866487383842468,0.22561757266521454,0.0008059144020080566,0.012145906686782837,-0.0016795098781585693,0.024104326963424683,-0.0024107573553919792,-0.004022872541099787,-1.8320195617228994,-0.5082494656615507,-2.6879288479221763
1687089279.382432,-0.8439868688583374,0.48663294315338135,0.225554421544075,0.00032842159271240234,0.00172463059425354,-0.001173853874206543,-0.015961119905114174,0.017271708697080612,0.011478854343295097,-1.8319420608185775,-0.5082314000826047,-2.6880310969822427
1687089279.386286,-0.8437651991844177,0.4872487187385559,0.22505320608615875,-0.0013427734375,-0.0022023916244506836,-0.0042126476764678955,-0.02368689700961113,0.012951953336596489,0.01877533830702305,-1.8314531026793217,-0.5089364115701903,-2.6894241420264144
1687089279.47385,-0.8433452248573303,0.48781126737594604,0.2254093438386917,-0.0053945183753967285,0.003933906555175781,0.0007870793342590332,-0.017368441447615623,0.0010079956846311688,0.009737236425280571,-1.8319712758072741,-0.5095807029239848,-2.690343626632853
1687089279.4929109,-0.8435103297233582,0.4877111613750458,0.22500748932361603,-0.007563948631286621,-0.001764446496963501,-0.0013135671615600586,-0.06681039929389954,0.045843590050935745,0.013039755634963512,-1.831477737410671,-0.5094660173662194,-2.692905463015529
1687089279.594229,-0.8434851765632629,0.48767346143722534,0.22518286108970642,0.005197882652282715,0.011990845203399658,-0.006707429885864258,0.001908477395772934,0.003325957804918289,0.011705910786986351,-1.8316792564194104,-0.5094228506593504,-2.695411859283937
1687089279.688498,-0.8433123826980591,0.4878592789173126,0.22542846202850342,-0.012766838073730469,-0.010137021541595459,0.02405288815498352,-0.17514348030090332,0.09066501259803772,0.043958880007267,-1.832002156163909,-0.5096356963988913,-2.6999756643482256
1687089279.694377,-0.8427584171295166,0.48760756850242615,0.22802896797657013,0.011856377124786377,-0.008329004049301147,0.011763080954551697,-0.4893861413002014,0.10529360175132751,0.10042040050029755,-1.8350435845869462,-0.5093473909280004,-2.7155582906143594
1687089279.699171,-0.8414188027381897,0.48390984535217285,0.24051153659820557,-0.019558310508728027,-0.02799248695373535,0.050183773040771484,-1.3880831003189087,0.40930163860321045,0.26711124181747437,-1.8492126176084804,-0.5051170266130878,-2.7683075155613306
1687089279.774314,-0.8403851985931396,0.47591865062713623,0.2593345642089844,0.012290716171264648,0.02022087574005127,0.015598416328430176,-1.6960928440093994,0.5581082701683044,0.30890074372291565,-1.8701152205219516,-0.49600827718046475,-2.8675382939935434
1687089279.7900882,-0.8398895859718323,0.4691257178783417,0.2729588449001312,0.006195187568664551,0.06561854481697083,-0.02655985951423645,-0.9860630035400391,0.292414128780365,0.24042952060699463,-1.8850225340890159,-0.4883005395616266,-2.947492373592114
1687089279.827375,-0.8376601934432983,0.4679943025112152,0.28161516785621643,-0.005479574203491211,-0.007056713104248047,-0.024367064237594604,-0.7309380769729614,0.30282264947891235,0.24013739824295044,-1.8951180107201764,-0.48701981729106364,-2.9948740064754857
1687089279.92342,-0.8381768465042114,0.4667445421218872,0.28215163946151733,0.001689910888671875,-0.013970434665679932,-0.05925115942955017,-0.6220271587371826,0.3126428425312042,0.13338704407215118,-1.8955068345117598,-0.48560616847720683,-3.0327557313188684
1687089279.941351,-0.8388959169387817,0.46643874049186707,0.28051507472991943,0.007780134677886963,-0.0013356208801269531,-0.03931927680969238,-0.10807459056377411,0.19840191304683685,0.09977828711271286,-1.89349401959439,-0.4852604391511799,-3.0554503180047545
1687089279.978804,-0.8400982022285461,0.46915939450263977,0.2722579836845398,-0.004368901252746582,-0.03011825680732727,0.009449809789657593,-0.130435511469841,0.2525912821292877,0.06846650689840317,-1.884194775431577,-0.4883386624901914,-3.0589889336899097
1687089280.075059,-0.8426135778427124,0.46916913986206055,0.26435330510139465,0.009544789791107178,0.025246143341064453,-0.018183141946792603,0.0569019541144371,0.15776985883712769,-0.009347109124064445,-1.8748015287607305,-0.48834970874549855,-3.06449958326371
1687089280.0928621,-0.8445638418197632,0.468229204416275,0.2597566843032837,0.0029042959213256836,0.009248852729797363,0.02999258041381836,-0.0830577090382576,0.13755331933498383,-0.0024791276082396507,-1.8691772264425728,-0.48728564777315503,-3.0643314599342255
1687089280.1285892,-0.8458423614501953,0.4683230519294739,0.2553907632827759,0.022172927856445312,0.027023017406463623,0.014857769012451172,-0.015038654208183289,0.03418341651558876,0.01673009805381298,-1.8640288445933748,-0.48739185999119317,-3.064898632530974
1687089280.224338,-0.8448252081871033,0.4677248001098633,0.25981536507606506,0.010398328304290771,0.02829265594482422,0.010646820068359375,-0.06262156367301941,0.006724523846060038,0.04443050175905228,-1.869153768532514,-0.48671490935811684,-3.0730426846330654
1687089280.242116,-0.8431371450424194,0.46851402521133423,0.2638455033302307,0.007184386253356934,0.02028602361679077,0.023126602172851562,0.020744215697050095,-0.07087396830320358,0.010837365873157978,-1.8740756900242084,-0.4876080163379134,-3.0746010590913206
1687089280.27918,-0.8414260745048523,0.4689938724040985,0.2684158980846405,0.0072737932205200195,0.01417568325996399,-0.01121366024017334,0.0326889231801033,-0.059893812984228134,0.028243165463209152,-1.8795929536821838,-0.48815123925064846,-3.075738105218549
1687089280.374145,-0.8395980596542358,0.47029849886894226,0.27183523774147034,-0.006059229373931885,0.0064470767974853516,-0.020217686891555786,0.006647786125540733,-0.04960586130619049,0.012628319673240185,-1.8839137891668258,-0.48962899167629625,-3.0759140689662585
1687089280.392729,-0.839038074016571,0.4709678888320923,0.27240481972694397,-0.004269421100616455,-0.003789544105529785,-0.01776602864265442,0.016597887501120567,-0.02540970966219902,-0.00923638790845871,-1.8847235969764107,-0.49038766223082236,-3.0742243589399085
1687089280.4295778,-0.839585542678833,0.4716207683086395,0.26957443356513977,0.0006266236305236816,-0.0007191896438598633,-0.014462679624557495,0.0872107520699501,-0.03294901177287102,0.0017091149929910898,-1.8814789724370777,-0.4911278912014397,-3.069347188075707
1687089280.522232,-0.8396397829055786,0.47228729724884033,0.2682347595691681,-0.006353259086608887,-0.006116032600402832,0.002929210662841797,-0.014665545895695686,-0.005949086509644985,0.010146630927920341,-1.880013073266501,-0.49188392038272466,-3.067074432436929
1687089280.538847,-0.8394845724105835,0.47365084290504456,0.2663099467754364,0.00167006254196167,0.009839236736297607,-0.01377686858177185,0.10558975487947464,-0.04023116081953049,0.004425028804689646,-1.8779848272031054,-0.4934315176478832,-3.063488961684815
1687089280.5792851,-0.839207112789154,0.47472596168518066,0.2652679681777954,-0.0019490718841552734,-0.007211863994598389,-0.007943600416183472,0.05979201942682266,-0.03453274071216583,-0.0019027306698262691,-1.8769516805328381,-0.49465265845722056,-3.0581444849718413
1687089280.673974,-0.8386861085891724,0.47614938020706177,0.2643625736236572,-0.004392564296722412,-0.005369961261749268,-0.0014382600784301758,0.05835886672139168,-0.04751357436180115,0.005129700992256403,-1.8761485483146927,-0.49627063918579484,-3.054387754800739
1687089280.691618,-0.8385546803474426,0.47694429755210876,0.2633446156978607,-0.0050733089447021484,0.0010982751846313477,-0.0009086132049560547,0.07735338062047958,-0.0025049266405403614,-0.016248758882284164,-1.8750889164469355,-0.49717482512425737,-3.0497608658088273
1687089280.79464,-0.8391304016113281,0.476947546005249,0.26149892807006836,-0.0014306902885437012,0.004177451133728027,-0.004998505115509033,0.07962707430124283,-0.014047387056052685,-0.01703052781522274,-1.8728891766236726,-0.4971785099982715,-3.0459474272253924
1687089280.8875542,-0.8392717838287354,0.47727158665657043,0.2604517638683319,0.004737973213195801,0.01102498173713684,-0.0034020841121673584,0.13024945557117462,-0.04869846627116203,-0.013758612796664238,-1.871703645967095,-0.49754723468892026,-3.039554665045666
1687089280.893846,-0.83869868516922,0.47906285524368286,0.2590048313140869,0.009963274002075195,0.011995524168014526,0.0005929470062255859,0.1935754269361496,-0.08978438377380371,-0.008302617818117142,-1.8703228268787708,-0.4995867706297182,-3.031268852308048
1687089280.898627,-0.8373267650604248,0.48311230540275574,0.25590306520462036,0.013153791427612305,0.045482635498046875,-0.039731770753860474,0.7078588008880615,-0.26409557461738586,-0.060819532722234726,-1.8674002660762692,-0.5042058996161145,-3.008228048027264
1687089280.969415,-0.8339306712150574,0.4948084056377411,0.24438560009002686,0.021339118480682373,0.2326085865497589,-0.2235114574432373,2.349738121032715,-0.8644346594810486,-0.26419976353645325,-1.8558672865278574,-0.5176143283732255,-2.932582710835038
1687089280.974228,-0.8368492126464844,0.5127766132354736,0.19168663024902344,-0.07155227661132812,0.38103753328323364,-0.3861902952194214,6.463673114776611,-1.9379723072052002,-1.2170196771621704,-1.795969422049664,-0.5384158268472894,-2.6782120659175974
1687089281.030798,-0.8609240055084229,0.5021491050720215,0.08158489316701889,-0.05405396223068237,0.260103702545166,0.05571376532316208,8.88774299621582,-2.2897839546203613,-1.7920955419540405,-1.665278514175607,-0.5260821391362664,-2.198854608659063
1687089281.123228,-0.9064488410949707,0.42215609550476074,-0.011606098152697086,-0.06820625066757202,-0.11313509941101074,0.30909156799316406,6.725759029388428,-2.3062071800231934,-2.228424549102783,-1.5579931066745616,-0.4358224328944384,-1.7400117899339862
1687089281.141185,-0.9480318427085876,0.31817254424095154,0.0014008868020027876,-0.056942522525787354,-0.07889944314956665,0.28372490406036377,5.511261940002441,-2.8902456760406494,-2.143810987472534,-1.5722740048082622,-0.3238012175106173,-1.431648244445437
1687089281.179373,-0.9734023809432983,0.2217630296945572,0.057525232434272766,0.07382035255432129,0.3062369227409363,0.41310155391693115,7.775426864624023,-3.218888759613037,-2.1088829040527344,-1.6298247466971965,-0.22362215217247675,-1.0828561263102099
1687089281.273687,-0.9688734412193298,0.19110386073589325,0.1573648750782013,0.20189034938812256,0.38067352771759033,0.3786458969116211,7.897678852081299,-4.1407036781311035,-0.6949185132980347,-1.7318107450850524,-0.19228661215376602,-0.6653753103130511
1687089281.290749,-0.9274794459342957,0.2665833532810211,0.26213550567626953,0.022892773151397705,0.3990965783596039,0.3304242491722107,6.460325717926025,-3.188474178314209,0.5853414535522461,-1.8462441502465938,-0.26984635183050487,-0.30590767972205457
1687089281.32933,-0.8720027208328247,0.4129832088947296,0.26278555393218994,-0.15505117177963257,0.2610585689544678,0.0014051198959350586,5.124701023101807,-1.39406156539917,2.1987147331237793,-1.8634991340572933,-0.42572723614090807,-0.024295922025520156
1687089281.424058,-0.7974203824996948,0.5689160823822021,0.20113550126552582,-0.20521944761276245,0.17151665687561035,-0.09664332866668701,3.049060821533203,-0.19095756113529205,2.8809866905212402,-1.8178752583158213,-0.6051872554255721,0.15361534241512867
1687089281.440824,-0.7064725756645203,0.6988286375999451,0.11195972561836243,-0.19007283449172974,-0.38706111907958984,0.06395887583494186,1.17695152759552,1.0520493984222412,3.0365047454833984,-1.7279663505571836,-0.7737585988691067,0.2506043089252755
1687089281.479161,-0.6089049577713013,0.7921956777572632,0.04075665399432182,-0.2525758743286133,-0.31815075874328613,-0.0015263520181179047,1.195299744606018,0.7930002212524414,2.324317216873169,-1.6376309806840634,-0.9143985318364428,0.31214703705586766
1687089281.634997,-0.5295894145965576,0.8481746912002563,-0.011612668633460999,-0.3271000385284424,-0.5202632546424866,0.1426246166229248,0.41289660334587097,0.6377701759338379,1.5063403844833374,-1.5488721582123712,-1.012529928719692,0.3735421407220496
1687089281.640129,-0.48471787571907043,0.8737075328826904,-0.041037239134311676,-0.16408589482307434,-0.4599805474281311,0.1372896432876587,0.4464826285839081,0.05644850805401802,0.730705201625824,-1.4863356259470017,-1.0627725018927072,0.425163380339303
1687089281.755844,-0.4588190019130707,0.8869665861129761,-0.05268128216266632,-0.08839163184165955,-0.22128671407699585,-0.07010620087385178,-0.07230599224567413,-0.07363960891962051,0.47840261459350586,-1.45647763383999,-1.0907350040553585,0.461376656503838
1687089281.772398,-0.4447084367275238,0.8943495750427246,-0.04871722310781479,0.19801956415176392,0.000471651554107666,0.20408225059509277,0.11533916741609573,-0.278903067111969,0.40847423672676086,-1.4616827445846945,-1.1069751493118756,0.4698084671638829
1687089281.776231,-0.4290049374103546,0.902657151222229,-0.03413062542676926,0.018207818269729614,0.023658156394958496,0.007351402193307877,-0.5711277723312378,0.1043974980711937,0.3427429795265198,-1.491405898219696,-1.1259042776519792,0.44378280833811806
1687089281.839838,-0.4098472595214844,0.9119919538497925,-0.017205603420734406,0.019496887922286987,0.20992577075958252,-0.03291952610015869,-0.2095576971769333,0.43293672800064087,0.5767605900764465,-1.5288404336362693,-1.1481141510982613,0.3859686294830654
1687089281.852343,-0.37864744663238525,0.9254012703895569,-0.0160750113427639,0.04794374108314514,-0.0072037577629089355,-0.0405503511428833,-0.4118238091468811,0.6240192651748657,0.7000309824943542,-1.5283680320403434,-1.1820930182211429,0.3566870352002892
1687089281.933577,-0.3520452678203583,0.9359440803527832,-0.008534494787454605,-0.04250127077102661,-0.015655994415283203,-0.0028180480003356934,-0.12547728419303894,0.41604796051979065,0.4041347801685333,-1.546558467562457,-1.2109305001784116,0.30935523437507934
1687089281.938447,-0.3411000370979309,0.9399938583374023,-0.007892465218901634,-0.0678507387638092,-0.22142702341079712,0.12247073650360107,-0.13210433721542358,0.2903841435909271,0.04387063533067703,-1.5476621831375206,-1.2226123633054886,0.2878445138696696
1687089282.023653,-0.3410380184650421,0.9400203227996826,-0.007426008116453886,-0.07168173789978027,0.016278624534606934,-0.014760316349565983,-0.13401415944099426,-0.07690693438053131,0.11666408181190491,-1.5490250457077575,-1.2226898809849773,0.2795761086927148
1687089282.040731,-0.3274514079093933,0.9448269009590149,-0.008833551779389381,-0.06100687384605408,0.22288262844085693,-0.03555428981781006,-0.055858418345451355,0.3273197412490845,0.3811231553554535,-1.5438261873944878,-1.2370656823666608,0.2795325075419474
1687089282.078973,-0.31187883019447327,0.9499349594116211,-0.018848659470677376,0.02389967441558838,-0.035841941833496094,0.05998635292053223,0.21205925941467285,0.25565844774246216,0.3190920352935791,-1.5104339010460763,-1.2530276554440076,0.2994916124066415
1687089282.142906,-0.2994658648967743,0.9535504579544067,-0.0325813964009285,-0.0020172595977783203,-0.007749736309051514,-0.0364188514649868,0.27465397119522095,0.18892139196395874,0.1734289526939392,-1.462424233001355,-1.2648105384806538,0.3377555558462062
1687089282.1564589,-0.2970615029335022,0.9538159966468811,-0.04460472613573074,0.019366830587387085,-0.1809125542640686,0.09138816595077515,0.09488539397716522,0.049825601279735565,-0.044439006596803665,-1.4217565834886425,-1.2656932498107418,0.37329129883948314
1687089282.265734,-0.3016221821308136,0.9519069194793701,-0.05382410064339638,0.013841450214385986,0.04040253162384033,-0.05481849983334541,0.23624609410762787,-0.017746729776263237,-0.12884491682052612,-1.394206364772311,-1.2594008263924101,0.40265257075720434
1687089282.354377,-0.30379635095596313,0.950729489326477,-0.061814628541469574,-0.00032651424407958984,0.0041654109954833984,0.03793461248278618,0.09714231640100479,0.09122464805841446,0.004742299672216177,-1.3700627269014554,-1.25558045881853,0.4239422968306274
1687089282.3606238,-0.3026433289051056,0.95070481300354,-0.06758315861225128,-0.0354914665222168,0.013681232929229736,-0.023008286952972412,0.007930416613817215,-0.01838413067162037,0.0593675933778286,-1.3510914104035887,-1.2555008271230386,0.44162323802165165
1687089282.444031,-0.29808321595191956,0.95216304063797,-0.06731902807950974,-0.0030947327613830566,0.009720444679260254,-0.013323657214641571,0.05047532171010971,0.01585272140800953,0.10059534758329391,-1.3486827762478024,-1.260237837388958,0.4452965722197442
1687089282.460628,-0.2961072325706482,0.9524933099746704,-0.07125311344861984,0.012385308742523193,-0.01032412052154541,0.01331549882888794,0.08759760856628418,0.026185359805822372,0.011050796136260033,-1.3346530829008694,-1.2613204225211556,0.4584462057641981
1687089282.563424,-0.2951686978340149,0.9525848031044006,-0.07387780398130417,0.005846768617630005,0.01743185520172119,-0.0024466589093208313,-0.006157119292765856,0.013629354536533356,0.04567892476916313,-1.3255446317696544,-1.2616209027004186,0.4674689916896209
1687089282.5807462,-0.2926183044910431,0.9533702731132507,-0.07389003038406372,0.004196643829345703,0.005568325519561768,-0.0022055506706237793,0.043503113090991974,-0.009904200211167336,0.027503516525030136,-1.323453552765796,-1.2642130201908375,0.46988175697006057
1687089282.651932,-0.29181885719299316,0.9532133936882019,-0.07890423387289047,0.013498574495315552,-0.01226496696472168,0.04975993186235428,0.1002039983868599,0.15199299156665802,-0.013214862905442715,-1.3067231671613557,-1.2636934611993145,0.4849851769268728
1687089282.6567469,-0.2936799228191376,0.9520269632339478,-0.0860062837600708,0.032525718212127686,-0.029678761959075928,0.049797169864177704,0.11926349252462387,0.16452758014202118,-0.1675863265991211,-1.285905369237587,-1.259792772365653,0.4961707142822726
1687089282.744379,-0.3081529140472412,0.9466321468353271,-0.09449588507413864,0.04792952537536621,-0.12293213605880737,0.04331791400909424,0.2818796932697296,0.12685056030750275,-0.5435892939567566,-1.2732474999285832,-1.2426212770779184,0.5035056056090178
1687089282.760909,-0.34825608134269714,0.9293542504310608,-0.12254995107650757,0.08649155497550964,-0.11276489496231079,0.17468923330307007,0.49774348735809326,0.08102964609861374,-1.2623451948165894,-1.2324333319526946,-1.192659859127072,0.5379715965431192
1687089282.8315349,-0.4156058132648468,0.9027552604675293,-0.11092738807201385,0.2636282444000244,-0.4004969000816345,0.14876919984817505,-0.49263468384742737,-1.2689038515090942,-1.6394420862197876,-1.3099711621663577,-1.126132286326756,0.47869756454433376
1687089282.84636,-0.5145368576049805,0.8564842343330383,-0.041067108511924744,0.09427934885025024,-0.5292900800704956,0.14410972595214844,-1.2729125022888184,-2.402965545654297,-2.3163270950317383,-1.491151425483559,-1.0284194757370306,0.3704017025660947
1687089282.921231,-0.5958284735679626,0.7905712723731995,0.14137138426303864,-0.16901838779449463,-0.2348918318748474,0.16806162893772125,-3.875582695007324,-1.8647652864456177,-2.2976579666137695,-1.8037570674894787,-0.9117413480772357,0.1552306016184536
1687089282.926258,-0.6839948296546936,0.6401177644729614,0.34985798597335815,-0.22057676315307617,-0.16541671752929688,0.013957291841506958,-6.2174530029296875,-0.20578289031982422,-2.7108302116394043,-2.0435953416659975,-0.6946515533521654,-0.1334845339827389
1687089282.981633,-0.7693115472793579,0.4184407591819763,0.48277029395103455,-0.43396610021591187,0.38862714171409607,-0.10339105129241943,-5.919919490814209,1.225812554359436,-2.629812717437744,-2.1312168634988495,-0.4317278772721841,-0.33109212067715227
1687089283.1037211,-0.8542270064353943,0.12978672981262207,0.5034404397010803,-0.4713652729988098,0.2299698144197464,0.530464768409729,-12.04023265838623,3.9872655868530273,-0.10132648050785065,-2.1033496752953758,-0.13015388645952494,-0.6921384583771062
1687089283.110203,-0.9497148990631104,-0.07705829292535782,0.3034863770008087,-0.014289796352386475,0.8080000877380371,0.6166338920593262,-11.058850288391113,4.254002094268799,2.015361785888672,-1.8800957662134996,0.07713476257714855,-1.2604562877721641
1687089283.194176,-0.9944644570350647,-0.03760711848735809,0.0981132760643959,0.0635562539100647,0.3461093604564667,0.32826316356658936,-5.992526531219482,2.9992177486419678,2.73087477684021,-1.6691374891842763,0.037615986871917036,-1.7095773900963118
1687089283.210157,-0.9975830316543579,0.06660868227481842,-0.019784439355134964,0.08342897891998291,0.21944786608219147,0.0010467171669006348,-2.215440034866333,1.9054157733917236,1.7179337739944458,-1.550966552677295,-0.0666580328999965,-1.9030732046850616
1687089283.2817101,-0.9870933294296265,0.13675551116466522,-0.08333557099103928,-0.08492821455001831,-0.16637277603149414,0.11794257164001465,-3.280050039291382,1.2147492170333862,1.206432580947876,-1.4865708342443058,-0.13718540851134622,-2.0184568791801665
1687089283.286814,-0.9729433655738831,0.21444936096668243,-0.08598227053880692,0.114010751247406,-0.024248480796813965,-0.069306381046772,-2.881361246109009,0.30217549204826355,1.2703803777694702,-1.4826519634803221,-0.21612804535149688,-2.182636984848498
1687089283.373661,-0.9613451957702637,0.26518696546554565,-0.07410404086112976,-0.12622499465942383,-0.13654005527496338,-0.054222285747528076,-1.2320847511291504,0.2707206606864929,0.4904991090297699,-1.4938647630212727,-0.26839781617328623,-2.286506930824072
1687089283.391234,-0.9552789330482483,0.28806832432746887,-0.06677592545747757,-0.007352352142333984,-0.2371649444103241,-0.05248671770095825,-1.1923621892929077,0.07090873271226883,0.4246695935726166,-1.5010078265995177,-0.2922090504894068,-2.3348824750153603
1687089283.429059,-0.9497677683830261,0.3086002767086029,-0.05203073471784592,-0.0027621984481811523,-0.08263283967971802,-0.03697371482849121,-1.2348676919937134,0.23993758857250214,0.24640408158302307,-1.516068442897239,-0.3137211319773942,-2.403280766180466
1687089283.5231562,-0.9463201761245728,0.3201960027217865,-0.044193509966135025,-0.05171167850494385,-0.050634145736694336,-0.04630626365542412,-0.8947924971580505,0.07299371808767319,0.17369407415390015,-1.5241298534572805,-0.32593638944785763,-2.4625449980516283
1687089283.541286,-0.9428777694702148,0.33183154463768005,-0.0294895488768816,-0.012932896614074707,-0.05296185612678528,-0.040532950311899185,-0.7694512605667114,-0.06622271239757538,0.1739681214094162,-1.5395304099628355,-0.33824447717310907,-2.5099897618625806
1687089283.577417,-0.9416090846061707,0.33571580052375793,-0.02582896314561367,-0.01360630989074707,0.03911638259887695,-0.06340432167053223,-0.2899493873119354,0.14786748588085175,-0.01754653826355934,-1.5433725396470404,-0.34236502386724643,-2.534504173302839
1687089283.673697,-0.940562903881073,0.33872559666633606,-0.02463056519627571,0.012309670448303223,0.035984545946121216,-0.01507270336151123,0.004622397478669882,-0.027708977460861206,0.07318298518657684,-1.5446152622492109,-0.3455620848769396,-2.546637637014764
1687089283.6910582,-0.9389927983283997,0.343136191368103,-0.02345126122236252,-0.025698304176330566,-0.008465170860290527,0.02644205465912819,-0.055312253534793854,-0.013298451900482178,0.09531567990779877,-1.5458266058743264,-0.3502537745675349,-2.54681066038848
1687089283.765383,-0.9378374218940735,0.3462490737438202,-0.023931367322802544,0.0007646083831787109,0.024264872074127197,0.025197982788085938,0.18658867478370667,-0.06156004220247269,-0.014021843671798706,-1.5452842544312548,-0.3535698946022142,-2.542459819897837
1687089283.854222,-0.9368274211883545,0.3492358922958374,-0.01971450075507164,0.0005786418914794922,-0.014854758977890015,0.0008547306060791016,0.051200926303863525,-0.1282464563846588,0.11024899035692215,-1.5497555342271847,-0.35675553297681367,-2.5361380206399526
1687089283.860165,-0.9345641136169434,0.3553611934185028,-0.01755422353744507,0.0007568597793579102,0.021851330995559692,-0.012581823393702507,0.3640974760055542,-0.08739254623651505,0.09717535972595215,-1.5520152078312877,-0.36330045687083923,-2.5277101481332753
1687089283.9439611,-0.9337493181228638,0.35743391513824463,-0.0188030656427145,-0.0033082962036132812,0.013400524854660034,-0.06837034225463867,0.5813055634498596,-0.23335035145282745,0.03188370540738106,-1.5506618822593046,-0.3655188373740283,-2.5022860878649467
1687089283.959367,-0.9343926906585693,0.35560935735702515,-0.021269075572490692,-0.025644540786743164,0.06292399764060974,-0.14999544620513916,1.8886090517044067,-0.5143717527389526,-0.13463295996189117,-1.5480377976048738,-0.36356595677199877,-2.445003657646891
1687089284.032351,-0.9415705800056458,0.33459386229515076,-0.03862542286515236,-0.023807227611541748,0.10643091797828674,-0.15816712379455566,4.243508338928223,-1.0435254573822021,-0.57686847448349,-1.5297969788931014,-0.34117422165757794,-2.2822857789685806
1687089284.0377278,-0.9589781761169434,0.278740257024765,-0.051622405648231506,-0.04729318618774414,0.03418704867362976,0.021989941596984863,5.7743353843688965,-1.5557609796524048,-1.2628072500228882,-1.5170175969309037,-0.2824821165452892,-2.0214962362868825
1687089284.152814,-0.9810100793838501,0.1899796575307846,-0.03908076882362366,-0.0051351189613342285,-0.026786834001541138,0.10634160041809082,6.821536064147949,-2.1570327281951904,-1.6836823225021362,-1.53098010686916,-0.19114142749430527,-1.6962410399949523
1687089284.160411,-0.9941336512565613,0.10130532085895538,0.03788672760128975,0.015908002853393555,-0.086046501994133,0.31192100048065186,5.675790786743164,-2.7772905826568604,-1.6269240379333496,-1.6088881902510543,-0.10147940784854632,-1.3736106685303762
1687089284.244843,-0.9813442826271057,0.08003385365009308,0.17480969429016113,0.0003412961959838867,0.0473008006811142,0.2750347852706909,7.26195764541626,-3.7131903171539307,-0.3789792060852051,-1.7470801751312257,-0.0801195450424164,-1.0716086871771573
1687089284.260344,-0.9272523522377014,0.18817175924777985,0.3237195312976837,-0.09160745143890381,0.5473171472549438,0.3201403319835663,7.80408239364624,-4.406477451324463,0.7590177655220032,-1.9066842551796865,-0.18930032584144804,-0.6753341105981486
1687089284.334875,-0.8356581330299377,0.3740958869457245,0.40215420722961426,-0.23407459259033203,0.2913399934768677,0.32004427909851074,5.799256324768066,-3.025092601776123,2.0011909008026123,-2.0193256418373258,-0.3834216705604224,-0.3927651252014583
1687089284.424865,-0.7411407232284546,0.5738853216171265,0.34837591648101807,-0.33858639001846313,0.062268733978271484,0.18664294481277466,4.049097061157227,-0.4998382329940796,2.9523355960845947,-2.010201175197568,-0.6112423433520255,-0.1780923129965285
1687089284.44271,-0.6428773999214172,0.7170937657356262,0.2692316472530365,-0.2769225239753723,-0.09697645902633667,-0.21744319796562195,1.5846126079559326,0.3966805040836334,2.8439078330993652,-1.9673966846090487,-0.7996235239180954,-0.1182675175955579
1687089284.446219,-0.5520261526107788,0.8123615384101868,0.18797768652439117,-0.19699722528457642,-0.4034413695335388,-0.04395000636577606,0.9869011640548706,0.9123400449752808,2.358247995376587,-1.8990037053757232,-0.9481903793431524,-0.07575943241676814
1687089284.4784,-0.46984291076660156,0.8730481863021851,0.1305168718099594,-0.19516563415527344,-0.3724988102912903,-0.0055931806564331055,0.8770479559898376,0.6195388436317444,1.7877452373504639,-1.8417529674956343,-1.0614187177025018,-0.05603469776598418
1687089284.637485,-0.4001174867153168,0.913343608379364,0.07556229084730148,-0.182005375623703,-0.31162840127944946,0.005538232624530792,0.6831729412078857,0.7430822849273682,1.5602798461914062,-1.7574483627742545,-1.1514213323383378,-0.0003796605021294912
1687089284.643258,-0.34638237953186035,0.9374368190765381,0.03509080782532692,-0.07131171226501465,-0.24900609254837036,-0.15978562831878662,0.6370723843574524,0.9702318906784058,0.8660202622413635,-1.6717584387777233,-1.215193637499607,0.04973698224362065
1687089284.694075,-0.31875717639923096,0.9478018879890442,0.008078962564468384,0.15557968616485596,-0.34697192907333374,0.23999834060668945,-0.29094767570495605,0.1812071055173874,0.5318755507469177,-1.596136097002215,-1.2462700328156786,0.08286094810401072
1687089284.7081819,-0.3073675334453583,0.9515848159790039,0.003411110257729888,0.23401856422424316,-0.0769052505493164,0.38167500495910645,0.2947533428668976,-0.3111264109611511,0.03806787729263306,-1.581893693402741,-1.2583512729701236,0.09009320578963509
1687089284.711385,-0.3156938850879669,0.9488533735275269,-0.0038397498428821564,-0.13436409831047058,0.07900917530059814,-0.09003233909606934,0.40073537826538086,-0.09332846105098724,-0.23295243084430695,-1.5586340369282767,-1.2495840897704646,0.13716543616559226
1687089284.748673,-0.3120781481266022,0.9500191807746887,-0.008421134203672409,-0.001993536949157715,0.06720805168151855,-0.07000905275344849,-0.1500517576932907,0.23729372024536133,0.3061051070690155,-1.5438188172328997,-1.2532973108879542,0.14630544389209096
1687089284.874063,-0.3001333773136139,0.9538527727127075,-0.009218599647283554,-0.0022653043270111084,-0.06377702951431274,-0.026700615882873535,0.14066599309444427,0.14476265013217926,0.033326297998428345,-1.5400909699007883,-1.2658158060238849,0.13550750999396452
1687089284.995185,-0.3041883707046509,0.9525033235549927,-0.01439505722373724,0.0018812119960784912,-0.0038184523582458496,0.024435339495539665,-0.0323701873421669,-0.06237225607037544,0.008177932351827621,-1.5235087656071216,-1.2613532179142213,0.15429293260555343
1687089285.0114388,-0.3011389374732971,0.9535176753997803,-0.01093488559126854,-0.04834839701652527,0.10261952877044678,-0.07805436849594116,0.02610153704881668,0.13638952374458313,-0.009647335857152939,-1.5345005124270863,-1.2647017400887521,0.13729007591640593
1687089285.12014,-0.30345577001571655,0.9526218771934509,-0.020649503916502,0.040241628885269165,-0.09291106462478638,0.1176801323890686,0.16549254953861237,-0.06478162109851837,-0.0663677379488945,-1.502853248059395,-1.2617429047799402,0.16681176048629381
1687089285.1253362,-0.30586785078048706,0.951805591583252,-0.022609204053878784,-0.01479560136795044,0.03646045923233032,-0.06901979446411133,0.06929667294025421,-0.028105948120355606,-0.05211261659860611,-1.4970123064311793,-1.259070240069728,0.1769806710966342
1687089285.1292748,-0.3079066872596741,0.9509768486022949,-0.028921738266944885,0.02447471022605896,0.022182941436767578,0.03671896457672119,0.24151884019374847,-0.06877359002828598,-0.058924246579408646,-1.4771409180356134,-1.2563793602950768,0.2005806778340346
1687089285.204885,-0.30914610624313354,0.9504265785217285,-0.033436164259910583,-0.016812145709991455,-0.024553775787353516,0.025761008262634277,-0.05594006925821304,-0.06385036557912827,-0.018827030435204506,-1.4630586083893824,-1.2546049678379285,0.21787725408969155
1687089285.2097611,-0.31375977396965027,0.9490913152694702,-0.027938345447182655,0.04593747854232788,-0.023386359214782715,0.02720588445663452,0.05217857286334038,-0.1961306929588318,-0.23008772730827332,-1.4819868050191334,-1.2503386265377088,0.20360909496366655
1687089285.294287,-0.3317612409591675,0.9429555535316467,-0.02773423120379448,0.07404032349586487,-0.138619065284729,0.11806625127792358,-0.1064741387963295,-0.32105594873428345,-0.4531545042991638,-1.4873932982215399,-1.2313992181083653,0.21099767502167333
1687089285.3105412,-0.36152419447898865,0.9323545098304749,-0.003944759257137775,0.12586742639541626,-0.2888760566711426,0.0861743688583374,-0.27600133419036865,-0.7130869626998901,-0.9358002543449402,-1.5598852923127375,-1.2008714195633763,0.16153855871026834
1687089285.383515,-0.42362141609191895,0.9053321480751038,0.030308885499835014,0.05834129452705383,-0.32482677698135376,0.07009398937225342,-0.5928815603256226,-1.1436351537704468,-1.7169334888458252,-1.6422217200830977,-1.1321610989927935,0.12014788058189821
1687089285.388629,-0.5035432577133179,0.8574327826499939,0.10608261078596115,0.07049882411956787,-0.4857743978500366,0.05019783973693848,-1.9853529930114746,-1.2251029014587402,-1.9463906288146973,-1.7784323297265232,-1.030259992379952,0.03315893009637206
1687089285.475271,-0.5819748044013977,0.7726648449897766,0.25356289744377136,-0.17183983325958252,-0.32759660482406616,-0.020790159702301025,-4.114823341369629,-0.4566592872142792,-2.322871685028076,-1.9816898691216007,-0.8830283481646067,-0.1644168550614324
1687089285.492213,-0.6796561479568481,0.6038004755973816,0.41652441024780273,-0.25161826610565186,-0.008982300758361816,-0.17940282821655273,-5.1248393058776855,0.6409270167350769,-3.091346025466919,-2.120607758868925,-0.648260183323915,-0.36345934149728815
1687089285.529676,-0.7799463272094727,0.35646724700927734,0.5144070386886597,-0.2919224500656128,0.031945228576660156,0.09319794178009033,-7.603674411773682,2.2006540298461914,-2.176215171813965,-2.1538499247934877,-0.3644840086649263,-0.5691958196744392
1687089285.624104,-0.8850900530815125,0.08287807554006577,0.4579818546772003,-0.4768029451370239,0.4451371431350708,0.5745195150375366,-10.834108352661133,4.968835353851318,0.449746698141098,-2.0482991608891825,-0.08297324659568224,-0.9477873106655222
1687089285.640971,-0.9755384922027588,-0.016183331608772278,0.21923284232616425,0.030836284160614014,0.49857473373413086,0.9009912014007568,-12.33084487915039,4.761233806610107,3.6524946689605713,-1.7918538405096458,0.016184038231054174,-1.5409590438034153
1687089285.679668,-0.9936254620552063,0.09999788552522659,0.052047207951545715,0.0845373272895813,0.6061636209487915,0.21846067905426025,-5.319645404815674,2.8330094814300537,2.704159736633301,-1.6231296093304612,-0.10016529424980032,-2.0321915052422312
1687089285.774936,-0.9779121279716492,0.2047203779220581,-0.04216032102704048,-0.07831650972366333,0.04950636625289917,-0.16839563846588135,-2.710172653198242,1.8774772882461548,1.874159574508667,-1.5277104231954375,-0.2061780206792696,-2.1740011058907327
1687089285.792027,-0.948356568813324,0.3078325390815735,-0.07654408365488052,-0.0008621811866760254,-0.1470201313495636,0.02411496639251709,-3.972659111022949,1.471979022026062,1.7920184135437012,-1.4902585666275006,-0.3129141159567705,-2.359113917695204
1687089285.8302078,-0.9195883274078369,0.38583359122276306,-0.07409310340881348,-0.08643889427185059,-0.11038196086883545,-0.033191315829753876,-3.007680892944336,0.7668589353561401,0.9912617802619934,-1.4903979713396573,-0.39611120888817014,-2.548112136135844
1687089285.9238849,-0.8984603881835938,0.43759340047836304,-0.03579055517911911,-0.03157806396484375,-0.20807069540023804,-0.027807947248220444,-2.440951347351074,0.24338111281394958,0.9139031767845154,-1.530981947988131,-0.45292045580372353,-2.6879652372444416
1687089285.94188,-0.8839754462242126,0.4674704670906067,-0.007668872829526663,-0.033428728580474854,-0.07808142900466919,-0.09534311294555664,-1.1689499616622925,0.10883799940347672,0.28767770528793335,-1.5621211080829167,-0.4864271622858782,-2.7887107818543098
1687089286.041836,-0.8786121606826782,0.47706732153892517,0.02115142159163952,-0.0670512318611145,-0.21952950954437256,-0.030672790482640266,-1.1167560815811157,-0.08933063596487045,0.21881258487701416,-1.5948653506443509,-0.4973148053804238,-2.8484001862393544
1687089286.107767,-0.8767056465148926,0.479570597410202,0.03740757331252098,-0.04590177536010742,0.017713338136672974,-0.100746750831604,-0.33416977524757385,-0.0331902951002121,-0.03307172656059265,-1.6134388019439216,-0.5001653080204642,-2.885305731658145
1687089286.125016,-0.8775851130485535,0.47707459330558777,0.04737645015120506,-0.032128751277923584,0.024115681648254395,-0.05117582529783249,-0.360233336687088,-0.08144864439964294,0.010476218536496162,-1.6247289920313852,-0.49732307196945547,-2.9046550155500155
1687089286.128602,-0.8791788220405579,0.4735410809516907,0.052949097007513046,0.015577077865600586,0.10740679502487183,-0.0648355484008789,0.15058936178684235,-0.06895206868648529,-0.0709892138838768,-1.6309492974551958,-0.4933068979226597,-2.909455939795636
1687089286.157676,-0.8811548948287964,0.47022467851638794,0.04954645410180092,0.030904650688171387,0.04750606417655945,-0.05615341663360596,-0.029689770191907883,0.1123405396938324,0.0035449652932584286,-1.626966174121196,-0.48954532963861586,-2.9102241039603576
1687089286.254037,-0.8801623582839966,0.4722866117954254,0.0475369356572628,-0.001200556755065918,0.04182779788970947,-0.016561508178710938,0.06705685704946518,-0.0979900062084198,0.03727039322257042,-1.6247531863547147,-0.4918831328517034,-2.911505321094357
1687089286.344074,-0.8807969689369202,0.4711473882198334,0.047087423503398895,0.00582730770111084,0.0023634135723114014,0.012147314846515656,0.34696483612060547,-0.1276393085718155,-0.09006008505821228,-1.6242055064249856,-0.4905911433570063,-2.9051650924668695
1687089286.359988,-0.8813056945800781,0.4702589213848114,0.046440865844488144,0.0006752610206604004,-0.0507642924785614,0.04076313599944115,0.09456843137741089,-0.10874209553003311,-0.009784444235265255,-1.6234431553129582,-0.48958415034664887,-2.8899551950042315
1687089286.4625401,-0.8808519840240479,0.47098487615585327,0.04767462611198425,-0.0361400842666626,-0.0015635490417480469,0.0007873699069023132,0.025610290467739105,0.014612540602684021,-0.026602283120155334,-1.6248668826999342,-0.4904069110583156,-2.889634013477189
1687089286.479371,-0.8818730115890503,0.4686507284641266,0.05164050683379173,0.008734464645385742,0.02271285653114319,-0.036778323352336884,0.15109023451805115,-0.14456523954868317,-0.05810543894767761,-1.629287287201868,-0.48776275992297147,-2.8862723930424834
1687089286.648732,-0.8823692202568054,0.4678002893924713,0.050869546830654144,-0.0056313276290893555,0.012851595878601074,0.005710124969482422,0.06942685693502426,-0.0432048961520195,0.010242858901619911,-1.6283836739219464,-0.4868003018840391,-2.8742932422280667
1687089286.655164,-0.881647527217865,0.4693070650100708,0.04948215186595917,0.0020088553428649902,0.01880630850791931,-0.014203790575265884,0.062478773295879364,-0.06769154220819473,0.02012420818209648,-1.6268621493466293,-0.4885058988117462,-2.8721464877129006
1687089286.7359428,-0.8813689351081848,0.4695240259170532,0.05230918526649475,0.006979227066040039,0.015232473611831665,0.012922286987304688,0.05717093124985695,-0.04094883054494858,-0.005625452380627394,-1.6300767208560634,-0.48875159300574356,-2.8701185104193208
1687089286.7409592,-0.8811144828796387,0.47020915150642395,0.05040298029780388,0.004939615726470947,0.004491716623306274,-0.008715871721506119,0.10254678130149841,-0.04892440885305405,0.040441662073135376,-1.627937720012462,-0.4895277614526774,-2.8637708383404674
1687089286.745372,-0.8799574971199036,0.4720413088798523,0.05340437963604927,0.004270792007446289,0.014805614948272705,-0.006849765777587891,0.1439976543188095,-0.10025279223918915,0.009036513976752758,-1.6314117055202477,-0.49160485534276177,-2.859638625516956
1687089286.749089,-0.8795837759971619,0.47269710898399353,0.05375482887029648,-0.0029691457748413086,-0.005793511867523193,-0.006147395819425583,0.10829286277294159,-0.08234399557113647,0.039042480289936066,-1.6318343512592088,-0.49234890589249225,-2.851627983500249
1687089286.818108,-0.8783941268920898,0.4747500717639923,0.05510416254401207,0.003958582878112793,0.025036394596099854,-0.012821905314922333,0.16589400172233582,-0.12867851555347443,0.028494123369455338,-1.6334470709333366,-0.49468005172222884,-2.8441247575304742
1687089286.915544,-0.8776584267616272,0.47592148184776306,0.056697264313697815,0.023074626922607422,0.06588760018348694,-0.04999852180480957,0.5759366154670715,-0.3206563889980316,0.028354285284876823,-1.6353072906989432,-0.49601149446719056,-2.825854462234488
1687089286.921098,-0.876617431640625,0.4782789647579193,0.05283347889780998,-0.016387999057769775,0.09709948301315308,-0.11632513999938965,1.6138616800308228,-0.6821591258049011,-0.054341502487659454,-1.6309932246949663,-0.49869395933301874,-2.7666849974330776
1687089287.003777,-0.8772211074829102,0.4783952534198761,0.04026130214333534,-0.03211104869842529,0.042051464319229126,-0.07419682294130325,2.3678603172302246,-0.927115797996521,-0.18581996858119965,-1.616660552553716,-0.4988263644231099,-2.655076133425402
1687089287.0103312,-0.8862115740776062,0.46307745575904846,0.013734049163758755,-0.046909213066101074,0.15548336505889893,-0.19708359241485596,5.2265095710754395,-1.8258260488510132,-0.819481372833252,-1.586292570227518,-0.48146425411776966,-2.4479504952990956
1687089287.096486,-0.9139400124549866,0.40494710206985474,-0.027045898139476776,-0.004532217979431152,0.17580240964889526,0.03371405601501465,7.924617290496826,-2.968452215194702,-1.6047135591506958,-1.5412123197724674,-0.41692097296484626,-2.0717672632521325
1687089287.1131968,-0.951765239238739,0.30680787563323975,-0.0034495966974645853,-0.10063344240188599,0.05612248182296753,0.31543081998825073,7.439004421234131,-3.9834275245666504,-2.2099735736846924,-1.567171923083859,-0.3118373339098845,-1.6527503508103711
1687089287.217124,-0.9691771864891052,0.21895572543144226,0.11293414980173111,0.02635180950164795,0.09110292792320251,0.4109001159667969,8.039802551269531,-4.920177936553955,-1.939163327217102,-1.6867989802096086,-0.2207440918375237,-1.2637914361762719
1687089287.2229981,-0.9336279034614563,0.25318190455436707,0.253452330827713,-0.008648216724395752,0.3569561243057251,0.5255088806152344,8.414542198181152,-4.922712802886963,-0.09693093597888947,-1.8358781222699956,-0.2559679017107933,-0.8092565999209296
1687089287.306848,-0.8568714261054993,0.37632429599761963,0.3523510694503784,-0.16145431995391846,0.04507768154144287,0.3410540521144867,3.424191951751709,-3.1202545166015625,1.684140682220459,-1.9609259589041232,-0.38582572876072363,-0.5333251471460542
1687089287.322828,-0.7694340348243713,0.5158076286315918,0.3767148554325104,-0.18019676208496094,0.3837437629699707,-0.10376560688018799,2.624290943145752,-1.4376065731048584,2.3525874614715576,-2.0260893389817243,-0.5419501309934601,-0.4243502584718882
1687089287.3264961,-0.6731757521629333,0.6496132016181946,0.3533231317996979,-0.09402090311050415,0.0699913501739502,-0.11633896827697754,1.543826937675476,-0.5712822675704956,3.0077590942382812,-2.0541336873667912,-0.7070755297845439,-0.3926103134883628
1687089287.3582978,-0.5531572103500366,0.7604134678840637,0.34027764201164246,-0.26779627799987793,-0.26526564359664917,-0.1356724202632904,0.25549960136413574,-0.14568397402763367,3.114712953567505,-2.1222850510694062,-0.8639495624751244,-0.4582931666207462
1687089287.419725,-0.442267507314682,0.8370916843414307,0.321989506483078,-0.30790039896965027,-0.36782270669937134,-0.1544022262096405,0.6543415784835815,-0.04397423565387726,2.369112968444824,-2.20009583021241,-0.9919451804850483,-0.5524700349678471
1687089287.483597,-0.3567284643650055,0.8803921341896057,0.3124968111515045,-0.41924193501472473,-0.49490946531295776,-0.1127135157585144,-0.19118331372737885,0.27024146914482117,1.762049913406372,-2.290196668374108,-1.0766884843107454,-0.6639315900613821
1687089287.605941,-0.30875080823898315,0.8986307382583618,0.3116663098335266,-0.21000227332115173,-0.5818582773208618,-0.2026575803756714,-0.13249780237674713,0.5289921760559082,0.7388697862625122,-2.3608937551585,-1.1166383950012144,-0.7718736096872751
1687089287.622398,-0.28963422775268555,0.9174368977546692,0.27280306816101074,-0.012001484632492065,-0.3355887532234192,0.46361657977104187,0.2915166914463043,-0.0308854877948761,-0.25794827938079834,-2.3262780543643364,-1.1615900131865582,-0.749729706442025
1687089287.730744,-0.2845659554004669,0.9131775498390198,0.29176872968673706,0.1249132752418518,-0.06532293558120728,0.07177194952964783,0.02115386351943016,0.003799094818532467,0.1301131695508957,-2.3686913584666107,-1.1510137315205096,-0.7742200423066927
1687089287.747231,-0.28607821464538574,0.921190619468689,0.2637559473514557,0.06256747245788574,0.08700340986251831,-0.0229264497756958,0.3997511863708496,0.5653770565986633,0.19555267691612244,-2.315618590747558,-1.1711292610008759,-0.7383271051947606
1687089287.809972,-0.28420373797416687,0.9261273145675659,0.24802544713020325,-0.012152493000030518,-0.07877618074417114,0.05878305435180664,0.02893034741282463,0.6804309487342834,0.2554721236228943,-2.288323909445705,-1.1840132366516314,-0.7454786049021613
1687089287.823964,-0.28189992904663086,0.9292986989021301,0.23861342668533325,-0.03011178970336914,0.029060065746307373,-0.051418691873550415,0.3009181320667267,0.25643986463546753,0.05712306126952171,-2.2732242364785873,-1.1925093888419684,-0.7523130344997083
1687089287.9337878,-0.28212395310401917,0.9331096410751343,0.22296357154846191,-0.032146066427230835,0.012889683246612549,0.007734090089797974,0.08122066408395767,0.18673935532569885,0.08218211680650711,-2.2395968009697977,-1.2029657596074612,-0.7287614613941416
1687089287.938865,-0.2825547158718109,0.9338552951812744,0.21926498413085938,-0.0149000883102417,-0.02256995439529419,0.021823972463607788,0.06604357063770294,0.10948504507541656,-0.07619991153478622,-2.230736396008717,-1.2050449718706715,-0.7266433041983918
1687089288.1102061,-0.28582292795181274,0.9325070381164551,0.22076299786567688,0.046198874711990356,-0.015392601490020752,0.014558106660842896,-0.19709539413452148,0.010688426904380322,-0.03846622258424759,-2.228465467258228,-1.201293494568795,-0.7289156946849614
1687089288.1277828,-0.28951942920684814,0.9273200035095215,0.23718468844890594,0.03387361764907837,-0.08887988328933716,0.059202104806900024,-0.4299241602420807,-0.09628745168447495,-0.14002446830272675,-2.2571569090133123,-1.187187421966358,-0.7601495878073422
1687089288.1314201,-0.30496999621391296,0.9251323342323303,0.22610493004322052,0.04874446988105774,0.0955737829208374,-0.08140578866004944,0.988853931427002,-0.22012613713741302,-0.7011944651603699,-2.208771017238868,-1.1813840729264087,-0.693711004461189
1687089288.1735358,-0.33773186802864075,0.9178744554519653,0.20843087136745453,0.06818541884422302,-0.2702152729034424,0.0996287614107132,-0.2274501919746399,-0.09137380868196487,-0.6549808382987976,-2.123730007820492,-1.1626911341714623,-0.590513084892533
1687089288.186178,-0.37402811646461487,0.8992158770561218,0.226966992020607,0.06911170482635498,-0.17274487018585205,0.0728834867477417,0.29885193705558777,-0.25084948539733887,-1.2340052127838135,-2.1162139976594205,-1.1179739082439129,-0.5766161689530764
1687089288.188638,-0.4375331699848175,0.8775160312652588,0.19629208743572235,0.06021374464035034,-0.24688541889190674,0.030117899179458618,1.2451198101043701,-0.6659752726554871,-2.0317697525024414,-1.992513385467285,-1.0706575694748426,-0.3993003741012403
1687089288.291657,-0.5205017328262329,0.8351759314537048,0.1776498258113861,0.06942129135131836,-0.4527904987335205,0.1009756475687027,-0.20754429697990417,-0.2117246687412262,-2.0158402919769287,-1.8997041304363582,-0.9884525981738956,-0.2681320924879087
1687089288.388979,-0.5989100933074951,0.7508516907691956,0.2784387171268463,0.1338375210762024,-0.45493805408477783,-0.13407573103904724,-4.418139934539795,-1.2287275791168213,-2.678126096725464,-2.0059791948335572,-0.849350689359285,-0.3729565052023238
1687089288.394796,-0.6628134846687317,0.5865099430084229,0.4654940962791443,-0.30261021852493286,0.2076643705368042,-0.1611270308494568,-3.4963626861572266,0.31180480122566223,-2.629939556121826,-2.1830644659316762,-0.6267430948889688,-0.5394062688739759
1687089288.3996758,-0.7683647871017456,0.3732195496559143,0.5199264287948608,-0.14368373155593872,-0.003056436777114868,0.15034663677215576,-7.47588586807251,2.715855360031128,-1.9693578481674194,-2.1656897064296214,-0.3824769134905453,-0.696869590141475
1687089288.503545,-0.8659305572509766,0.10593099147081375,0.4888177812099457,-0.4621943235397339,0.44883280992507935,0.17541256546974182,-8.442971229553223,3.31231951713562,-0.2399001270532608,-2.0847037598618257,-0.10613011062725922,-1.032951441257167
1687089288.509162,-0.9361401796340942,-0.014064084738492966,0.35134607553482056,-0.2228260636329651,0.47661906480789185,0.4711332619190216,-6.612362861633301,3.381226062774658,1.9998042583465576,-1.9298418508437087,0.014064548010675316,-1.4004085874659151
1687089288.593246,-0.9752100706100464,0.019842233508825302,0.22039097547531128,-0.08466559648513794,0.3444308936595917,0.06641331315040588,-3.7076776027679443,1.8225582838058472,2.0253875255584717,-1.7930560444091277,-0.019843535331058614,-1.6758748306625957
1687089288.6097589,-0.986505389213562,0.08262273669242859,0.14135317504405975,-0.050008952617645264,0.0009954720735549927,0.003880023956298828,-1.9212192296981812,2.0020482540130615,1.6419492959976196,-1.7131143953927457,-0.08271703336861495,-1.8276069233921721
1687089288.685761,-0.9875473976135254,0.14590984582901,0.058827128261327744,-0.03129720687866211,-0.10272741317749023,-0.002689957618713379,-1.7847177982330322,1.4932317733764648,1.2805482149124146,-1.630294932011068,-0.14643259501157657,-1.9151274020009867
1687089288.6906152,-0.9790341258049011,0.20271624624729156,0.019959673285484314,-0.017639517784118652,-0.05659805238246918,-0.001343846321105957,-2.736222743988037,0.9683700799942017,1.2231895923614502,-1.5911806104504644,-0.2041309627910265,-2.042613141383451
1687089288.8029919,-0.9657348990440369,0.25921398401260376,0.012828255072236061,-0.10798037052154541,-0.10107183456420898,-0.04053807258605957,-1.8874180316925049,0.4173499345779419,1.0829089879989624,-1.5840789578568082,-0.2622082689826483,-2.1599577845469335
1687089288.80864,-0.9519446492195129,0.3054444491863251,0.022479772567749023,-0.023458242416381836,-0.12905281782150269,-0.017596960067749023,-1.6253366470336914,0.2860510051250458,0.9327389001846313,-1.5944065189963534,-0.31040514418675175,-2.247503703110741
1687089288.8928509,-0.9374438524246216,0.3467620015144348,0.030906904488801956,-0.03905761241912842,-0.03433826565742493,-0.0228045005351305,-1.3820892572402954,0.4693070650100708,0.8314862251281738,-1.6037537280642573,-0.354116683790938,-2.3299801528143216
1687089288.909346,-0.9253634214401245,0.37743717432022095,0.03526810556650162,-0.07152384519577026,-0.08184391260147095,0.020914793014526367,-1.0937429666519165,0.2560414969921112,0.6246700286865234,-1.6088905952453012,-0.3870271962356426,-2.394933878190595
1687089289.011869,-0.9146838784217834,0.400514155626297,0.054239679127931595,-0.018024861812591553,-0.1498732566833496,0.025808095932006836,-1.3363397121429443,0.09211009740829468,0.4807397127151489,-1.6300257921830161,-0.41207789539417294,-2.467214259782284
1687089289.027699,-0.907258152961731,0.41507619619369507,0.06778399646282196,0.004120826721191406,-0.047201961278915405,-0.015247814357280731,-0.5393778681755066,0.1938774287700653,0.3002724349498749,-1.645370788515551,-0.42802655633633946,-2.5080399080764213
1687089289.10161,-0.9034277200698853,0.4231528341770172,0.06899504363536835,-0.016631603240966797,-0.02268579602241516,-0.02208947390317917,-0.7523782849311829,0.292267382144928,0.2124357968568802,-1.6470186666681905,-0.43692221381250596,-2.543280676568832
1687089289.106491,-0.9009352326393127,0.4282059073448181,0.07039567828178406,-0.009556710720062256,0.012086480855941772,-0.0072699785232543945,-0.7309507131576538,0.3277322053909302,0.1589638590812683,-1.6487741153661468,-0.44250653230239045,-2.5904253620389164
1687089289.1944308,-0.8982740640640259,0.4331999719142914,0.07376992702484131,0.0011028051376342773,-0.001833885908126831,-0.021020159125328064,-0.5399170517921448,0.24731884896755219,0.1527596414089203,-1.6527365205875018,-0.44804015873566305,-2.6322310293847053
1687089289.210308,-0.895941972732544,0.43811896443367004,0.07307511568069458,-0.00249558687210083,-0.0033197104930877686,0.010665178298950195,-0.5195522308349609,0.20833055675029755,0.1680295765399933,-1.6521785160680447,-0.45350504662712515,-2.657542754650938
1687089289.3127441,-0.8930912017822266,0.443403035402298,0.07603859901428223,0.009271621704101562,0.016481608152389526,-0.023761987686157227,-0.26416832208633423,0.09349814057350159,0.13827097415924072,-1.6557324026638776,-0.45939177427072186,-2.6836247173023557
1687089289.329719,-0.8902972936630249,0.44912877678871155,0.0751945748925209,-0.013312935829162598,-0.03793489933013916,0.027329325675964355,-0.3949565291404724,0.26190975308418274,0.19065415859222412,-1.6550564205201375,-0.46578998993199044,-2.701802889057017
1687089289.4031901,-0.8871318697929382,0.45593351125717163,0.07156551629304886,0.007539033889770508,0.008681297302246094,-4.745274782180786e-05,-0.03902004659175873,0.1524379402399063,0.13189677894115448,-1.6512926780502257,-0.4734208062429781,-2.717162909833233
1687089289.40817,-0.8857237100601196,0.4589309096336365,0.06982888281345367,0.001705765724182129,-0.010795503854751587,-0.00505518913269043,0.11854343116283417,-0.13400676846504211,0.009059949778020382,-1.649471817185773,-0.4767915334180529,-2.714916842398667
1687089289.495051,-0.8852563500404358,0.45957234501838684,0.07151529937982559,-0.033307433128356934,-0.04039815068244934,0.05528532713651657,0.006652632728219032,0.0956508219242096,0.012618422508239746,-1.6514061189044515,-0.4775136117086307,-2.712783185399652
1687089289.5116382,-0.8858586549758911,0.4589005410671234,0.06830018013715744,0.009378552436828613,-0.004325956106185913,-0.009111166000366211,0.012398295104503632,-0.004423361737281084,-0.026902977377176285,-1.647744635583118,-0.47675735640681677,-2.710744890889215
