Timestamp,gravityX,gravityY,gravityZ,accelerationX,accelerationY,accelerationZ,rotationRateX,rotationRateY,rotationRateZ,attitudeRoll,attitudePitch,attitudeYaw
1687098839.7651548,-0.7876696586608887,0.6045615077018738,0.11866515874862671,-0.006489098072052002,0.009894490242004395,-0.007596515119075775,-0.08181634545326233,-0.009263290092349052,0.05052996426820755,-1.7203252939747686,-0.6492152912308062,0.012248897287383743
1687098839.767108,-0.7856758832931519,0.6066287159919739,0.1213049367070198,-0.00924593210220337,-0.009781301021575928,-0.013455867767333984,-0.060610342770814896,-0.017416398972272873,0.043288454413414,-1.7239823987553335,-0.6518130256772959,0.00754354933716734
1687098839.825866,-0.7843564748764038,0.6079534292221069,0.1231967881321907,-0.010077059268951416,-0.013181149959564209,-0.020612001419067383,-0.05690391734242439,-0.00735012860968709,0.037130605429410934,-1.7265908261123442,-0.6534803794700139,0.0036399789591861054
1687098839.914679,-0.7839988470077515,0.6084122657775879,0.12320861220359802,-0.01542443037033081,-0.009199678897857666,-0.021539434790611267,-0.040522489696741104,0.055729664862155914,-0.006801677867770195,-1.7266754651230807,-0.6540584199053524,0.001602796962378444
1687098839.9161968,-0.7854248881340027,0.6069487929344177,0.1213279440999031,0.004754841327667236,-0.01260387897491455,-0.01382996141910553,-0.06463320553302765,0.08795641362667084,-0.030267588794231415,-1.724059198961667,-0.6522157263614631,-0.001450194643670446
1687098840.009952,-0.7875556945800781,0.6046962738037109,0.11873628944158554,0.0209541916847229,-0.0027676820755004883,-0.0032579973340034485,0.022315381094813347,0.0612015537917614,-0.06727556139230728,-1.7204349296006498,-0.6493844580391523,-0.002002549505741722
1687098840.095189,-0.7902287840843201,0.6018196940422058,0.11554722487926483,0.00032716989517211914,0.007784008979797363,0.010825857520103455,0.009481607005000114,0.04184463620185852,-0.06635144352912903,-1.715987393153074,-0.6457776893759692,0.000360533827065151
1687098840.0969849,-0.7914958000183105,0.6001273989677429,0.11567714810371399,0.026252329349517822,-0.01568537950515747,0.013595104217529297,-0.07101302593946457,-0.0022923597134649754,-0.018648415803909302,-1.71591892914135,-0.6436603985782289,-0.001484596502790514
1687098840.157854,-0.7924099564552307,0.59873366355896,0.1166369616985321,0.0038968920707702637,0.005651593208312988,0.01204025000333786,0.015842247754335403,0.00032020139042288065,-0.0570945180952549,-1.7169396181902747,-0.6419191203152003,-0.0023917516416266022
1687098840.160821,-0.794091522693634,0.5963348150253296,0.11748721450567245,-0.006231904029846191,0.009042322635650635,0.019094109535217285,-0.004398362245410681,-0.010747789405286312,-0.0670609325170517,-1.717682476443044,-0.6389274563286965,-0.0025371259651732884
1687098840.275228,-0.795654833316803,0.5941572189331055,0.11794163286685944,0.006607770919799805,0.02368628978729248,0.012261494994163513,0.07986666262149811,-0.04407741129398346,-0.05761081725358963,-1.7179568840219364,-0.6362174289253597,-1.133168748724864e-05
1687098840.279562,-0.7968074679374695,0.5925154685974121,0.11841949075460434,-0.0013034343719482422,0.01174771785736084,0.014728546142578125,0.05033295601606369,-0.0408487543463707,-0.030010882765054703,-1.7183338709702918,-0.6341778988242781,0.0035289075615078224
1687098840.3666,-0.7966728210449219,0.5925271511077881,0.11926499009132385,0.0036887526512145996,0.014848947525024414,0.008756175637245178,0.02228587120771408,-0.04502512142062187,0.00726720318198204,-1.7193966292232925,-0.6341924101481708,0.005753817353366782
1687098840.370389,-0.7954109907150269,0.5938049554824829,0.12131392955780029,0.00442582368850708,0.0030120015144348145,0.00502873957157135,-0.026973765343427658,-0.04228030890226364,0.051637064665555954,-1.72214725948905,-0.6357795889659251,0.005324533145787374
1687098840.424978,-0.7930985689163208,0.5964179635047913,0.12361320108175278,-0.015922367572784424,-0.00034868717193603516,0.0010051727294921875,-0.04554888606071472,-0.026027090847492218,0.07060522586107254,-1.7254133971240837,-0.6390310277359174,0.0029193158095641492
1687098840.515801,-0.7910810112953186,0.5984643697738647,0.12661334872245789,-0.017924606800079346,-0.011138498783111572,-0.003841295838356018,-0.04277994483709335,-0.027413105592131615,0.04963430017232895,-1.7295013647376107,-0.6415829703302273,-0.001549286074211878
1687098840.517714,-0.7900534272193909,0.5994839668273926,0.12819789350032806,-0.004563331604003906,-0.018597126007080078,-0.015801772475242615,0.00544649176299572,-0.03654199838638306,0.01718064397573471,-1.7316591159724914,-0.642856212189938,-0.0025218841183313324
1687098840.5763779,-0.7904096841812134,0.5988196730613708,0.12910236418247223,-0.006785750389099121,-0.0242806077003479,-0.014859914779663086,-0.004544517025351524,-0.007443178910762072,-0.020114731043577194,-1.7327026231294145,-0.6420265244926148,-0.003048336782866052
1687098840.665852,-0.7918616533279419,0.5972228646278381,0.12759265303611755,-0.015618205070495605,-0.009729087352752686,-0.017622709274291992,0.007530095987021923,0.04136861860752106,-0.05567130446434021,-1.730553172943091,-0.6400342085611616,-0.0010741115875508639
1687098840.667382,-0.794378936290741,0.5943880081176758,0.12515991926193237,-0.004159271717071533,-0.0021944642066955566,-0.0034253597259521484,-0.007843747735023499,0.06134328991174698,-0.06371656060218811,-1.7270686090923415,-0.636504391515043,-0.0007350099616769476
1687098840.7572122,-0.7963881492614746,0.5921202301979065,0.12312314659357071,-0.0016922354698181152,0.0033538341522216797,-0.0005189254879951477,-0.006886500399559736,0.03805506229400635,-0.04872766509652138,-1.724183877288114,-0.6336873533045061,-0.0002588059242048651
1687098840.878777,-0.7978828549385071,0.5904383659362793,0.12151353061199188,-0.0009911060333251953,0.0014500021934509277,0.007301107048988342,-0.008825920522212982,0.04360130801796913,-0.04341057687997818,-1.7219299661192313,-0.6316019052218622,0.0002241536187805937
1687098840.880166,-0.7991856336593628,0.5888826251029968,0.1204964891076088,0.0009984374046325684,0.004409492015838623,0.006670117378234863,-0.022825200110673904,0.03395049273967743,-0.029509741812944412,-1.7204432427709015,-0.629675627796342,-0.0005931653339761913
1687098840.966666,-0.7996079325675964,0.5882924199104309,0.12057837843894958,0.003907918930053711,0.0003458261489868164,0.0017054080963134766,-0.023299507796764374,0.019978484138846397,-0.01175094023346901,-1.7204655275873046,-0.6289455448067338,-0.0020996252488651034
1687098840.972993,-0.8001200556755066,0.5875105261802673,0.12099207937717438,-0.002415895462036133,-0.0028701424598693848,0.015131473541259766,-0.05286368727684021,0.021404128521680832,-0.012104252353310585,-1.7208766709320975,-0.627979009438535,-0.004666801220524377
1687098840.974416,-0.8005297183990479,0.586790919303894,0.12177184224128723,0.003349602222442627,-0.016356468200683594,0.008919477462768555,-0.04055796563625336,0.004759797360748053,-0.023227166384458542,-1.7217531868750486,-0.6270900447259143,-0.007220826188280952
1687098841.0262508,-0.8015729188919067,0.5851321220397949,0.12288787215948105,0.012922346591949463,-0.007663249969482422,0.011541977524757385,0.003918743226677179,-0.014090162701904774,-0.044308196753263474,-1.722920303473357,-0.6250429376770695,-0.008466357898368472
1687098841.115346,-0.8029772639274597,0.5831412076950073,0.12318210303783417,0.007353484630584717,0.010257720947265625,0.007936477661132812,0.013460795395076275,-0.028437571600079536,-0.0609428808093071,-1.7230163491339958,-0.622590045932513,-0.006406346645065836
1687098841.1168752,-0.8040047883987427,0.5816785097122192,0.123394675552845,0.008686244487762451,0.023713886737823486,0.0003540515899658203,0.040251292288303375,-0.025711078196763992,-0.028476567938923836,-1.723083107852049,-0.6207906891697222,-0.004091302302178403
1687098841.176254,-0.8038322329521179,0.5818371772766113,0.12377166002988815,0.006255209445953369,0.025660991668701172,-0.0008316934108734131,-0.006680690683424473,-0.02736085280776024,0.02045513316988945,-1.7235734573032226,-0.6209857372545827,-0.0021673642515795243
1687098841.2662048,-0.8024775385856628,0.5834493637084961,0.12496708333492279,-0.0019201040267944336,0.014069557189941406,-0.005673989653587341,7.143383845686913e-05,-0.022367054596543312,0.03398461267352104,-1.7252820901207266,-0.622969413188822,-0.0030359762275596423
1687098841.268794,-0.8010462522506714,0.5852289795875549,0.1258242279291153,0.0017146468162536621,0.0027378201484680176,-0.009216800332069397,0.03551970422267914,-0.05418170988559723,0.03095078282058239,-1.726598179962597,-0.6251623859405294,-0.001658901453513435
1687098841.3274841,-0.8000408411026001,0.5865072011947632,0.1262683868408203,-0.001320183277130127,-0.005788326263427734,-0.015031933784484863,0.08978134393692017,-0.05099896714091301,0.00027880212292075157,-1.7273325362263878,-0.6267396628701069,0.0019489323877786673
1687098841.416302,-0.8000045418739319,0.5866671800613403,0.12575405836105347,-0.0010360479354858398,-0.012479066848754883,-0.011236906051635742,0.056609541177749634,-0.017914248630404472,-0.006530368234962225,-1.7267121784589479,-0.6269372394462472,0.00584819059197591
1687098841.418706,-0.8008567690849304,0.5858660936355591,0.12405271083116531,-0.03402775526046753,-0.007313966751098633,-0.010252729058265686,0.037603843957185745,0.02864590287208557,-0.04193529859185219,-1.7244749717908898,-0.6259483709884155,0.009321237185702448
1687098841.4765959,-0.8023074865341187,0.584334135055542,0.12188562005758286,-0.0010982155799865723,-0.010847926139831543,-0.01319742202758789,0.025961514562368393,0.0352325402200222,-0.03876129910349846,-1.7215623594004232,-0.6240592766520534,0.011232370453107512
1687098841.5708098,-0.8042557835578918,0.5823603272438049,0.11844322830438614,0.011119306087493896,-0.012719333171844482,-0.005375750362873077,0.05059516802430153,0.05936967208981514,-0.053766101598739624,-1.717015868094103,-0.6216291622948853,0.014854760690851352
1687098841.577643,-0.80629563331604,0.5804086327552795,0.11407649517059326,-0.0027559995651245117,0.006200253963470459,0.009824767708778381,0.04106004163622856,0.06665890663862228,-0.042951736599206924,-1.711345698742425,-0.6192303854623452,0.018354916980721735
1687098841.625883,-0.8073660731315613,0.5795069336891174,0.11104730516672134,0.008400678634643555,0.004721522331237793,0.015600442886352539,-0.0775528997182846,0.05688084289431572,0.0030733461026102304,-1.707481383341893,-0.6181235492661855,0.018889472194301673
1687098841.7167048,-0.8064181208610535,0.5807799696922302,0.11128543317317963,0.007071256637573242,0.0386199951171875,-0.0019867420196533203,-0.2641051709651947,0.14762060344219208,0.1319272369146347,-1.707929859031273,-0.6196864586687321,0.011144290625812896
1687098841.723314,-0.7924936413764954,0.599096953868866,0.11417734622955322,-0.014589369297027588,0.42911648750305176,-0.05767416954040527,-0.865928590297699,0.4272676110267639,1.077954888343811,-1.7138852225360115,-0.6423727450505726,-0.02448656889207487
1687098841.7779222,-0.73670494556427,0.6641851663589478,0.12698031961917877,0.03647911548614502,0.82508784532547,-0.24413739144802094,-0.013212893158197403,0.053346507251262665,2.4923360347747803,-1.7414817407970176,-0.7264032847909048,-0.08650948873712613
1687098841.8948889,-0.6206763386726379,0.7785177230834961,0.09311757981777191,-0.12329638004302979,0.9574593305587769,-0.32183170318603516,1.998339056968689,0.03253960236907005,3.831263780593872,-1.7197116838663946,-0.8923006446118008,-0.05689564528487641
1687098841.897778,-0.4401816427707672,0.8977851867675781,-0.014891684986650944,-0.3190957009792328,0.7429922819137573,-0.07043558359146118,2.857422351837158,0.3612961173057556,4.640568733215332,-1.5369784518750487,-1.114714697677008,0.14595210378571
1687098842.016417,-0.20630468428134918,0.9642800688743591,-0.16613896191120148,-0.6449373960494995,0.5792989134788513,0.1568005234003067,2.6563713550567627,0.8998265266418457,5.120625019073486,-0.8928267299618687,-1.302711809885344,0.7949906550216743
1687098842.018649,0.05925419554114342,0.9501687288284302,-0.30605244636535645,-0.7163587808609009,0.612224280834198,0.16998979449272156,3.6346275806427,0.9688745141029358,5.335181713104248,0.19124189433964556,-1.2537767687572883,1.8685312390950974
1687098842.107914,0.3199365735054016,0.8210597038269043,-0.47275930643081665,-0.6788539290428162,0.5603183507919312,0.2194022834300995,3.8995344638824463,1.1359279155731201,5.364192485809326,0.5949461555016632,-0.9632648887064769,2.2545551085126987
1687098842.114907,0.5411041975021362,0.5954417586326599,-0.5938478708267212,-0.6378756165504456,0.5441761016845703,0.23993545770645142,4.375025749206543,1.4093858003616333,4.940557479858398,0.7389594548349495,-0.6378153813678418,2.3634705183196973
1687098842.198134,0.6890372037887573,0.3235662281513214,-0.6484848260879517,-0.4822807312011719,0.4319116771221161,0.2894759774208069,3.9112374782562256,1.2232279777526855,4.423053741455078,0.8157079401451948,-0.32949605389052694,2.3949909120201327
1687098842.200897,0.768034815788269,0.05761057510972023,-0.637811541557312,-0.5174856185913086,0.45519155263900757,0.30921339988708496,3.3916358947753906,1.2906776666641235,3.676917552947998,0.8777644325016856,-0.057642489146960685,2.3952002185378864
1687098842.2875528,0.796868622303009,-0.16757427155971527,-0.5804474949836731,-0.5117582082748413,0.33531415462493896,0.38858336210250854,2.4621973037719727,1.3217694759368896,3.099200487136841,0.9412562701971731,0.16836862656380752,2.38038212191289
1687098842.2945728,0.7959280014038086,-0.34065771102905273,-0.5004505515098572,-0.4336082339286804,0.3303580582141876,0.2756274938583374,1.805378794670105,1.1804866790771484,2.6535418033599854,1.0094952045176873,0.3476163480282158,2.37165933040521
1687098842.377604,0.7741137146949768,-0.4766066372394562,-0.416646271944046,-0.4559374451637268,0.25933676958084106,0.2668810486793518,1.6774778366088867,1.163494348526001,2.2216200828552246,1.0770394319340244,0.4967906963515004,2.3549298538841414
1687098842.3806791,0.7405125498771667,-0.581315815448761,-0.3372133672237396,-0.34469980001449585,0.15712159872055054,0.21309807896614075,0.9864227175712585,1.2392141819000244,2.0112478733062744,1.1434788060033174,0.6203448755136665,2.3429498625917855
1687098842.503665,0.6972637176513672,-0.6687121391296387,-0.2581614553928375,-0.25311094522476196,0.18915903568267822,0.06507658958435059,1.2251901626586914,0.9529300332069397,1.7872693538665771,1.2161970478838109,0.7324753593188015,2.311440960061537
1687098842.508799,0.6478151082992554,-0.735435426235199,-0.1986711621284485,-0.12726157903671265,0.07082366943359375,0.07672280073165894,0.5201953649520874,0.9121952056884766,1.6356406211853027,1.273223517655204,0.8263090730296266,2.302490252082527
1687098842.590663,0.5988121628761292,-0.786826491355896,-0.1494249552488327,-0.1256067156791687,0.026496410369873047,0.0018571168184280396,0.6787631511688232,0.7134458422660828,1.3016248941421509,1.3262547773371427,0.9056500510456219,2.2859395045601447
1687098842.593319,0.5580754280090332,-0.8226062059402466,-0.10895232856273651,-0.15327513217926025,-0.04479473829269409,0.13769973814487457,0.35733720660209656,0.5492523908615112,0.881500244140625,1.3779927643948962,0.9659793439379089,2.261312001512766
1687098842.6796808,0.5342196226119995,-0.8400203585624695,-0.09473574161529541,-0.18952369689941406,-0.10111105442047119,0.09351492673158646,-0.24470773339271545,0.3103982210159302,0.3435189127922058,1.3952861227030229,0.9973207843771825,2.2639148778792193
1687098842.682263,0.5358523726463318,-0.8385281562805176,-0.09865497797727585,-0.29873085021972656,-0.052295148372650146,0.20343691110610962,-0.31091228127479553,0.09866935759782791,-0.35498127341270447,1.3887266998593177,0.9945762284928998,2.285204197500807
1687098842.770365,0.5638800263404846,-0.8152816295623779,-0.13173823058605194,-0.38457411527633667,-0.03570091724395752,0.3072599768638611,-1.3060057163238525,-0.2050725817680359,-1.0306535959243774,1.3412848481501511,0.9532153872164055,2.3381798020376006
1687098842.7771602,0.6163604259490967,-0.7609261274337769,-0.20270945131778717,-0.44559937715530396,0.052796363830566406,0.2912102937698364,-1.555511236190796,-0.46220606565475464,-1.7189340591430664,1.2530578845022513,0.8647392870931883,2.4293350643493468
1687098842.827674,0.6794772148132324,-0.6803150177001953,-0.2747398316860199,-0.24907267093658447,0.0024739503860473633,0.21283477544784546,-1.4798022508621216,-0.6619176268577576,-2.102760076522827,1.1865541695087582,0.7481923742632899,2.4851572616505786
1687098842.921571,0.7380558252334595,-0.5765202641487122,-0.35056784749031067,-0.05748343467712402,0.056561827659606934,0.094632089138031,-1.9478005170822144,-0.7423245310783386,-2.329557180404663,1.1273575944163927,0.6144635233670116,2.5199314445965224
1687098842.928345,0.7887545824050903,-0.4449656307697296,-0.42411285638809204,-0.03535199165344238,0.04602468013763428,-0.047765254974365234,-1.9914939403533936,-0.49229007959365845,-2.362726926803589,1.0774459988182126,0.46113586998701783,2.5698400673069393
1687098843.011715,0.8229790329933167,-0.3051533102989197,-0.4791523218154907,-0.052562832832336426,0.05585527420043945,0.06919431686401367,-2.0873916149139404,-0.22179020941257477,-2.341823101043701,1.0435552577120901,0.31009940558281784,2.602518635063466
1687098843.130199,0.8442158102989197,-0.16035625338554382,-0.511454164981842,-0.05252891778945923,0.11920337378978729,0.015375673770904541,-2.0118374824523926,-0.05298680067062378,-2.19244647026062,1.026098563550827,0.1610515701581078,2.6279340921425383
1687098843.133256,0.8510335683822632,-0.02253188192844391,-0.5246275067329407,0.039820194244384766,0.0843299925327301,-0.0326693058013916,-1.527362585067749,-0.1750681847333908,-2.132075548171997,1.0183622672845103,0.02253378823720628,2.647088856635674
1687098843.219491,0.8446674346923828,0.11853790283203125,-0.5220016241073608,0.04443156719207764,-0.00850677490234375,-0.027345359325408936,-2.1688790321350098,-0.187874898314476,-2.1443586349487305,1.0172490006891435,-0.11881727449350249,2.6713570015876424
1687098843.226228,0.8231753706932068,0.2663693130016327,-0.5014275908470154,-0.09145551919937134,-0.021404683589935303,0.0935753583908081,-2.3500571250915527,0.1314774751663208,-2.2148964405059814,1.0236846145723701,-0.26962429446188946,2.7151001116672355
1687098843.22824,0.7872678637504578,0.4018484354019165,-0.46768268942832947,-0.052557289600372314,0.0983346700668335,-0.0682365894317627,-1.8557870388031006,0.19546152651309967,-2.1390647888183594,1.0347574859004334,-0.41353454708736465,2.7406873254910855
1687098843.276617,0.739870011806488,0.5407541394233704,-0.40022146701812744,0.015592515468597412,-0.09719645977020264,0.013502657413482666,-2.4009592533111572,0.287843257188797,-2.340315818786621,1.0749395764720562,-0.5713334047933524,2.7979679652852707
1687098843.370377,0.67710280418396,0.655674934387207,-0.33409881591796875,-0.029504716396331787,-0.008793890476226807,-0.06758889555931091,-1.4381349086761475,0.45282691717147827,-2.303175687789917,1.1124232911725491,-0.7150762006320155,2.827343577287414
1687098843.372489,0.5982025265693665,0.7583158016204834,-0.2590574324131012,-0.030636727809906006,-0.20088177919387817,0.06514859199523926,-1.7109239101409912,0.5630508065223694,-2.585597038269043,1.1621188898516133,-0.8607256640280513,2.865103514858301
1687098843.430677,0.5018593668937683,0.8432010412216187,-0.19274108111858368,0.0029012560844421387,0.010528147220611572,0.024085581302642822,-1.3969858884811401,0.5520002245903015,-2.5258359909057617,1.2041116498746467,-1.0032100364055239,2.877739306324231
1687098843.518754,0.3912872076034546,0.9160333871841431,-0.08818676322698593,-0.01839303970336914,-0.07654070854187012,-0.05222474783658981,-1.9818180799484253,0.9431329965591431,-2.6992874145507812,1.3491239878489114,-1.1580767161328298,2.9993757291821357
1687098843.526547,0.26710861921310425,0.9636256694793701,0.008844432421028614,-0.02305963635444641,0.03712183237075806,0.15254759788513184,-1.5404967069625854,0.8889763951301575,-2.661176919937134,1.603895977869738,-1.3002524057205835,-3.062188338447321
1687098843.579502,0.1419411301612854,0.9887105226516724,0.04800153523683548,-0.004001736640930176,0.13187962770462036,-0.13213860988616943,-0.016486451029777527,0.7228673696517944,-2.4475767612457275,1.8969017944875515,-1.4203916219594197,-2.8031395919120774
1687098843.6682792,0.016398277133703232,0.9973846077919006,0.07039089500904083,-0.0706585943698883,0.057897865772247314,0.21230852603912354,-0.9223312139511108,0.6223499774932861,-2.4505465030670166,2.9127146236266444,-1.4984560056915692,-1.8168031320612337
1687098843.6773062,-0.1021447628736496,0.9884970188140869,0.1115342229604721,-0.04054021090269089,0.13155901432037354,-0.08634210377931595,-0.7150623798370361,0.6059088706970215,-2.16286301612854,-2.400108140881432,-1.4189734073440354,-0.8761043017089503
1687098843.729306,-0.2121654450893402,0.9647489786148071,0.15570726990699768,-0.1486896574497223,0.10647881031036377,0.12423036992549896,-1.0674949884414673,0.4889329671859741,-2.1833460330963135,-2.203910671674666,-1.3044879817972368,-0.7035320461194445
1687098843.818393,-0.31447213888168335,0.9296113848686218,0.19217154383659363,-0.020336240530014038,0.05163544416427612,0.12316644191741943,-1.0233244895935059,0.24431027472019196,-1.9912362098693848,-2.1193321226454023,-1.1933569749837405,-0.6339950199581394
1687098843.827734,-0.40384209156036377,0.8882641196250916,0.21885664761066437,-0.01603400707244873,0.18992185592651367,-0.0346221923828125,-0.17319126427173615,0.27874240279197693,-1.763859748840332,-2.0674274537434125,-1.0935520609220495,-0.5943316908738455
1687098843.878504,-0.48175302147865295,0.8482269048690796,0.22005735337734222,0.010500520467758179,0.057855308055877686,0.04980948567390442,-0.40197113156318665,0.3673911988735199,-1.6523113250732422,-1.9992779859985252,-1.0126284365733256,-0.5346838117357733
1687098843.9690828,-0.550933301448822,0.8029646277427673,0.22742070257663727,0.02719062566757202,0.13888400793075562,-0.044620513916015625,-0.41525837779045105,0.33876025676727295,-1.5335333347320557,-1.9622811895338739,-0.9322526925247574,-0.5125093095303281
1687098843.978658,-0.6115149259567261,0.7583299279212952,0.22579865157604218,0.008014559745788574,0.20889407396316528,-0.023207902908325195,0.16433009505271912,0.24810980260372162,-1.3844586610794067,-1.9245117276628219,-0.8607472898558131,-0.48346552225461725
1687098844.027923,-0.6616031527519226,0.7203936576843262,0.20811964571475983,0.030804932117462158,0.18092763423919678,-0.06957009434700012,0.3868403434753418,0.21543985605239868,-1.2317956686019897,-1.8755647404071922,-0.8043697076809656,-0.43120275381814493
1687098844.148133,-0.704906165599823,0.6846646070480347,0.18531574308872223,0.04705387353897095,0.12888836860656738,0.014940544962882996,0.5442488789558411,0.11745816469192505,-1.1231340169906616,-1.8278734063961657,-0.7541434330853968,-0.37605640210403196
1687098844.152169,-0.7394351959228516,0.6529142260551453,0.16412825882434845,-0.013112843036651611,0.1529937982559204,-0.02199283242225647,0.3249473571777344,0.15550099313259125,-0.8693938851356506,-1.7892195270882254,-0.7114256267599183,-0.32696528911997136
1687098844.2419682,-0.7638087868690491,0.6271282434463501,0.15266373753547668,0.0349879264831543,0.12018615007400513,0.042724862694740295,0.265883207321167,0.02286076918244362,-0.5979352593421936,-1.7680684786888694,-0.6778608440593527,-0.3030321699869163
1687098844.2519588,-0.7790806889533997,0.6100418567657471,0.1445048451423645,-0.006762027740478516,0.07432985305786133,0.029735058546066284,0.20680059492588043,-0.12122055888175964,-0.4246179759502411,-1.7541933558874743,-0.656113435172804,-0.27722154682217254
1687098844.329475,-0.7888674139976501,0.596306324005127,0.14868396520614624,0.010058879852294922,0.043097853660583496,0.034665584564208984,0.2082589864730835,-0.323803573846817,-0.3409874439239502,-1.7570886578501508,-0.6388919736443582,-0.26280482037742653
1687098844.333095,-0.796355128288269,0.5852181315422058,0.15276837348937988,-0.0018625855445861816,-0.053601980209350586,0.013918519020080566,0.29484570026397705,-0.26837366819381714,-0.39763161540031433,-1.7603282300889855,-0.6251490272594181,-0.2422795359673242
1687098844.41854,-0.8083932399749756,0.5678947567939758,0.1549060344696045,-0.002001047134399414,-0.055382609367370605,-0.010817408561706543,-0.03893040120601654,-0.03951041027903557,-0.49524521827697754,-1.7601234170025393,-0.6039458911336693,-0.22581150778785034
1687098844.4289598,-0.8231514096260071,0.5453129410743713,0.15828874707221985,-0.0013876557350158691,-0.05521601438522339,0.007192716002464294,-0.1497756838798523,0.08398596197366714,-0.535883367061615,-1.760773374112092,-0.5767623835557463,-0.23067230375006126
1687098844.478421,-0.8388271927833557,0.5214949250221252,0.15624231100082397,-0.025506794452667236,0.03209376335144043,-0.021720901131629944,-0.22870171070098877,0.1515163779258728,-0.5678574442863464,-1.7549488370974602,-0.5486020663977259,-0.23129450108353777
1687098844.567607,-0.8525476455688477,0.49946025013923645,0.15395350754261017,0.04218399524688721,0.1551569402217865,-0.065773144364357,0.05207066610455513,0.13130757212638855,-0.4086645245552063,-1.7494515178453687,-0.5229756441493911,-0.23332265092574567
1687098844.57774,-0.8607677221298218,0.4873116910457611,0.1469893604516983,0.06041377782821655,0.16452836990356445,-0.014131322503089905,-0.06932836025953293,0.1787680685520172,-0.13653725385665894,-1.7399303097584375,-0.5090085227138118,-0.23113776900272376
1687098844.628037,-0.860901951789856,0.4891703724861145,0.1398562788963318,0.027238190174102783,0.24430423974990845,-0.050455108284950256,-0.22925309836864471,0.3093720078468323,0.33216622471809387,-1.7318426437293746,-0.5111382841441919,-0.2380354540415601
1687098844.7166219,-0.8445001840591431,0.5155110955238342,0.14514762163162231,0.08226263523101807,0.3573678731918335,-0.02519845962524414,-1.0959742069244385,0.13860909640789032,1.223494052886963,-1.741007279853265,-0.5416040293662604,-0.2829403985651656
1687098844.721414,-0.7968210577964783,0.5812063813209534,0.16515223681926727,-0.04320573806762695,0.6060494184494019,-0.08180880546569824,0.503908634185791,-0.358450323343277,2.1725103855133057,-1.7751665360597395,-0.6202103745945134,-0.3348659772307215
1687098844.778483,-0.7049004435539246,0.6953098177909851,0.1402132660150528,-0.09261548519134521,0.6825740933418274,-0.0004886239767074585,1.185326337814331,-0.4772011935710907,3.306798219680786,-1.7671456775525554,-0.768850875166534,-0.2879129768319932
1687098844.868279,-0.5636587142944336,0.8151212930679321,0.13366302847862244,-0.22506797313690186,0.503955066204071,-0.01589585840702057,0.7110480070114136,-0.43003740906715393,3.9705371856689453,-1.8036302823360386,-0.9529385409358514,-0.30362620478707464
1687098844.878079,-0.38148432970046997,0.9203220009803772,0.08646922558546066,-0.29364079236984253,0.36146193742752075,0.09819245338439941,1.394470453262329,-0.3511607050895691,4.205607891082764,-1.7936951801197996,-1.1689029095710335,-0.27041569256555426
1687098844.928567,-0.18304908275604248,0.9823575019836426,0.03830036148428917,-0.3975021243095398,0.1850467324256897,0.1284627914428711,1.0044728517532349,-0.16568538546562195,4.036158561706543,-1.7770561850084319,-1.3826759893707508,-0.23947477011923393
1687098845.0195951,0.008978175930678844,0.9996048808097839,-0.02663227915763855,-0.3470366895198822,0.036771953105926514,0.1619012951850891,1.9614671468734741,-0.27624502778053284,3.6810295581817627,0.32515137260644555,-1.5426840151565038,1.8745756983660742
1687098845.030182,0.18059152364730835,0.9741590619087219,-0.13564832508563995,-0.4176826477050781,0.06430816650390625,0.1694006472826004,1.69981050491333,-0.07698316127061844,3.2699735164642334,0.9265702505647679,-1.3429674662908275,2.4873005065204934
1687098845.079348,0.32633358240127563,0.9224695563316345,-0.20629076659679413,-0.3377014696598053,0.11070281267166138,0.13573405146598816,1.709031581878662,-0.0598924346268177,2.9724016189575195,1.0070741653375321,-1.1744290987906514,2.5735029921517314
1687098845.168781,0.4531208574771881,0.8420013785362244,-0.2927715480327606,-0.3255879580974579,0.16428524255752563,0.14141947031021118,2.0956199169158936,-0.0024230140261352062,2.7361271381378174,0.9971518205258563,-1.0009823980534094,2.565501655910415
1687098845.179393,0.5578927397727966,0.7412630915641785,-0.3732088506221771,-0.2657480239868164,0.17225009202957153,0.15212410688400269,1.7902235984802246,0.09731876105070114,2.5623245239257812,0.9812065735899563,-0.8349501815197916,2.54363747976563
1687098845.232748,0.6477782130241394,0.6284595727920532,-0.43060654401779175,-0.2550628185272217,0.18257558345794678,0.0890842080116272,2.051137685775757,0.18313710391521454,2.484213352203369,0.9841261015495423,-0.6795712289362945,2.5366547591433215
1687098845.31902,0.7219793796539307,0.4910504221916199,-0.48745790123939514,-0.17086255550384521,0.22748589515686035,0.10925346612930298,2.155811309814453,0.1835172474384308,2.4548141956329346,0.9769307616038956,-0.5132951740640471,2.505155682171281
1687098845.330196,0.7814257740974426,0.35051414370536804,-0.516249418258667,-0.20534557104110718,0.24294587969779968,0.08427309989929199,2.0650370121002197,0.3628648817539215,2.445230484008789,0.9869702273542369,-0.35812001524459786,2.4906113071072276
1687098845.379671,0.825410008430481,0.19387660920619965,-0.5301980972290039,-0.18371707201004028,0.28004610538482666,0.05825895071029663,2.0445218086242676,0.4608694612979889,2.5050957202911377,0.9998212222355345,-0.195112204525196,2.4665408579922916
1687098845.470247,0.8535193204879761,0.034105084836483,-0.5199437141418457,-0.2205696702003479,0.3078444004058838,0.04187053442001343,2.172351598739624,0.62111496925354,2.547872304916382,1.0236569065677181,-0.03411170171765212,2.446288396226138
1687098845.481267,0.8633638620376587,-0.13038979470729828,-0.48744359612464905,-0.15640902519226074,0.276340126991272,0.014207422733306885,2.107104539871216,0.7028474807739258,2.5536391735076904,1.0568232499633925,0.1307621133136216,2.41776655567163
1687098845.531973,0.8530189394950867,-0.2822791337966919,-0.4389500319957733,-0.04054957628250122,0.21115794777870178,0.0034793615341186523,1.6221529245376587,0.6638469696044922,2.483882427215576,1.095549567096524,0.28616901660754573,2.395133546958586
1687098845.620086,0.8233614563941956,-0.4210865795612335,-0.3804759979248047,-0.020123600959777832,0.2317555546760559,-0.03624165058135986,1.7305922508239746,0.7161234021186829,2.493459463119507,1.137925034905214,0.43464294146034077,2.3742975563680955
1687098845.630989,0.7766470313072205,-0.549528181552887,-0.30795761942863464,-0.15117418766021729,0.256696879863739,-0.027598470449447632,1.5228418111801147,0.9473618865013123,2.4662282466888428,1.1932918332627473,0.5817993881365987,2.3401307551529134
1687098845.711855,0.7160953283309937,-0.6594194173812866,-0.22885268926620483,-0.3099521994590759,0.3170579671859741,-0.007094085216522217,1.2073404788970947,1.1339118480682373,2.4621682167053223,1.2614706826146334,0.7200461890037126,2.3092935034438553
1687098845.800379,0.6408562660217285,-0.7537813782691956,-0.14531682431697845,-0.352083683013916,0.30558496713638306,0.015357539057731628,1.2482506036758423,1.1278387308120728,2.4401748180389404,1.347812870445704,0.8537976697202712,2.2722521803905713
1687098845.812082,0.5561103224754333,-0.8283487558364868,-0.0676705539226532,-0.2945900559425354,0.13311272859573364,0.13436657190322876,1.0194815397262573,0.9059657454490662,2.1049680709838867,1.4497061721799684,0.9761536743340112,2.2149257545268766
1687098845.8587542,0.4756084978580475,-0.8794643878936768,-0.01840272545814514,-0.23484015464782715,-0.03847372531890869,0.2196660041809082,0.33597928285598755,0.6774831414222717,1.7298270463943481,1.5321226082379653,1.0747356621930406,2.1706717318237447
1687098845.9529638,0.40644222497940063,-0.913496732711792,0.018109364435076714,-0.1602570116519928,-0.017640113830566406,0.14113116264343262,0.5541702508926392,0.3543604612350464,1.355340600013733,1.6153226919894241,1.1517975908632248,2.1061306156079715
1687098845.96491,0.35453087091445923,-0.9344265460968018,0.03398081287741661,-0.13927516341209412,-0.05339682102203369,0.22868382930755615,0.08344589918851852,0.046908795833587646,0.8537533283233643,1.6663516871049806,1.206645603380324,2.0615229252641956
1687098846.039662,0.32947832345962524,-0.943411111831665,0.037673380225896835,-0.20893394947052002,-0.1541687250137329,0.1763920783996582,0.11372311413288116,-0.18928563594818115,0.12363482266664505,1.684644404094064,1.2327701937596771,2.039428901653065
1687098846.0505872,0.33602941036224365,-0.9413847327232361,0.029650559648871422,-0.27926674485206604,-0.2313600778579712,0.08221149444580078,-0.09155318140983582,-0.12734481692314148,-0.40127435326576233,1.6588063739176593,1.2267119641937771,2.0616133143966286
1687098846.1643372,0.3661710321903229,-0.9302516579627991,0.023459041491150856,-0.20183393359184265,-0.1172182559967041,0.07570779323577881,-0.344593346118927,-0.1262078583240509,-0.853369951248169,1.634774695738751,1.1950981107821137,2.076806938283429
1687098846.16909,0.4139544665813446,-0.9102904796600342,-0.003574848873540759,-0.20034676790237427,-0.01292717456817627,0.063465416431427,-0.5948187708854675,-0.29942911863327026,-1.24306058883667,1.5621606912032089,1.143985196668884,2.1441542009139196
1687098846.2528129,0.47559019923210144,-0.8787897825241089,-0.03927136957645416,-0.2812848389148712,0.03621482849121094,0.13236510753631592,-0.7574648857116699,-0.5217958688735962,-1.5788989067077637,1.4884092693497555,1.0733201859798815,2.205627107567596
1687098846.263999,0.5491883158683777,-0.8290024995803833,-0.10557938367128372,-0.3898712992668152,0.0428239107131958,0.22313295304775238,-1.8383556604385376,-0.5960782170295715,-1.979781985282898,1.3808673092954096,0.9773216887485938,2.296879448687221
1687098846.342587,0.6347892880439758,-0.7447039484977722,-0.20605438947677612,-0.3466729521751404,0.06397897005081177,0.20898397266864777,-2.125361919403076,-0.7329811453819275,-2.5827150344848633,1.2569237237571453,0.8400911511930369,2.407100988504509
1687098846.3463578,0.722480833530426,-0.6177907586097717,-0.31041231751441956,-0.3032609820365906,0.03009861707687378,0.16411092877388,-2.5341973304748535,-0.636727511882782,-3.0826199054718018,1.1649955234389966,0.6659300582367939,2.490864550554137
1687098846.429887,0.8043561577796936,-0.44258058071136475,-0.39640048146247864,-0.29910731315612793,0.0888972282409668,0.272911012172699,-3.07238507270813,-0.2710399925708771,-3.4742016792297363,1.112911530827301,0.45847440761116687,2.5581611106813535
1687098846.433598,0.8628360629081726,-0.23021328449249268,-0.4500175416469574,-0.3844273090362549,0.13173308968544006,0.17600011825561523,-2.9775795936584473,0.26465949416160583,-3.6084225177764893,1.090052801226446,0.23229684263386627,2.613685697024034
1687098846.522232,0.8862236738204956,0.0006280795205384493,-0.4632571339607239,-0.22094058990478516,0.2038244605064392,0.09727495908737183,-2.669921398162842,0.2762150764465332,-3.689321756362915,1.0891292414064866,-0.000628079556735075,2.6575469998143006
1687098846.533643,0.8726701140403748,0.2282038927078247,-0.43170541524887085,-0.06445807218551636,0.1433781087398529,0.2706946134567261,-2.811763286590576,0.05406865105032921,-3.7271814346313477,1.1114018537533645,-0.23023249394110012,2.6962051467752284
1687098846.5826,0.8186898231506348,0.42788025736808777,-0.38296929001808167,-0.22158300876617432,0.20455074310302734,0.11424660682678223,-2.0960352420806885,0.37348583340644836,-3.590409755706787,1.1332527586859695,-0.4421461986058014,2.7236133104103684
1687098846.6441278,0.7229893207550049,0.6035310626029968,-0.3362090289592743,0.06399780511856079,0.2781827449798584,0.09333482384681702,-1.4779555797576904,-0.36617544293403625,-3.421285629272461,1.1355170621979334,-0.6479222579217814,2.7445463414952767
1687098846.736028,0.6043344736099243,0.7437611222267151,-0.28565528988838196,-0.09228014945983887,0.08814793825149536,0.2550766170024872,-2.644395351409912,-0.3661283254623413,-3.449345827102661,1.1292446432713208,-0.83867958917261,2.749534039262534
1687098846.748066,0.4662035405635834,0.867214560508728,-0.17490816116333008,-0.1308918297290802,0.31447166204452515,-0.12984047830104828,-2.430229663848877,0.0790683850646019,-3.1053428649902344,1.2118717873316875,-1.0495807833984363,2.8685720341260748
1687098846.792387,0.32000377774238586,0.9430974125862122,-0.09035778045654297,-0.08248555660247803,0.03073364496231079,0.11364257335662842,-1.1976346969604492,0.1844533383846283,-3.409377336502075,1.2955961704408938,-1.2318256683242628,2.9495255846020587
1687098846.880733,0.16236339509487152,0.9846161007881165,-0.06456808000802994,-0.037210896611213684,0.1299315094947815,-0.17766529321670532,-0.2919987738132477,0.589577317237854,-3.290341377258301,1.1922947451614314,-1.3951630289949986,2.823199114628341
1687098846.885961,-0.01239872071892023,0.9998791217803955,0.009392926469445229,-0.07071596384048462,0.13088881969451904,0.01665377803146839,-1.6811628341674805,0.6785243153572083,-3.5481841564178467,-2.2191260874077066,-1.5552473118964953,-0.6198391460626814
1687098846.9422898,-0.18467092514038086,0.9813783764839172,0.0528506301343441,0.030999615788459778,0.13469523191452026,-0.026666633784770966,-0.9098790884017944,0.1966460943222046,-3.4370059967041016,-1.849534038383871,-1.377510378543234,-0.27335396643771764
1687098847.002942,-0.33862489461898804,0.9370757937431335,0.08498292416334152,-0.20231443643569946,0.6008422374725342,-0.048651933670043945,-0.10264605283737183,0.30306464433670044,-2.894239664077759,-1.8166828202452305,-1.2141580393314009,-0.25025052709611384
1687098847.119848,-0.4647219181060791,0.8794415593147278,0.10303342342376709,-0.02928134799003601,0.16709762811660767,0.10709523409605026,-0.8900036811828613,0.15381991863250732,-2.677792549133301,-1.7889769435515974,-1.074687723544468,-0.22699545326879658
1687098847.1329489,-0.5707607865333557,0.8122396469116211,0.12041077762842178,0.03233915567398071,0.32420432567596436,-0.09419631958007812,-0.3214702606201172,0.38001906871795654,-2.247450113296509,-1.7787129711667073,-0.9479813796795188,-0.2355603022989108
1687098847.2130442,-0.660017192363739,0.7416050434112549,0.11999625712633133,-0.03181624412536621,0.20715582370758057,0.03867971897125244,-0.3149556815624237,0.36873534321784973,-2.167104721069336,-1.7506397511827856,-0.8354598392187149,-0.22376310135492009
1687098847.218309,-0.7272831797599792,0.6773489117622375,0.11071368306875229,-0.06513619422912598,0.3542367219924927,-0.14580905437469482,0.2291283756494522,0.4267965257167816,-1.5033189058303833,-1.7218656381078683,-0.7441529361319116,-0.2107428752747128
1687098847.30161,-0.7722502946853638,0.6273130178451538,0.10053690522909164,-0.047924816608428955,0.24503183364868164,0.004779092967510223,-0.48219776153564453,0.3466365337371826,-1.1552517414093018,-1.7002551658796439,-0.6780980938923844,-0.20710573172963806
1687098847.316028,-0.8042269349098206,0.5849609375,0.1050698533654213,0.03455841541290283,0.18937677145004272,-0.024183154106140137,0.05672725290060043,-0.058304816484451294,-0.8779595494270325,-1.7007075499932518,-0.6248318748366108,-0.22144644568886476
1687098847.392583,-0.8257818818092346,0.5559048652648926,0.09515096992254257,0.01184767484664917,0.1268036961555481,0.00610613077878952,0.4987489581108093,-0.08176683634519577,-0.6994789838790894,-1.6855157127786784,-0.5894511386176241,-0.1885319120732763
1687098847.407136,-0.8417967557907104,0.533603847026825,0.08151856809854507,0.06814557313919067,0.13079434633255005,-0.024725429713726044,0.692026674747467,-0.021040160208940506,-0.4947200417518616,-1.6673340889589954,-0.5628561015983095,-0.14849282383802753
1687098847.481358,-0.852952778339386,0.5170804262161255,0.0714091807603836,0.08546626567840576,0.06894856691360474,0.04800605773925781,0.2902827262878418,-0.030685171484947205,-0.28538888692855835,-1.6543215140637504,-0.5434364535942913,-0.12037024789330475
1687098847.4870381,-0.8581116795539856,0.5092650055885315,0.06552137434482574,0.025119304656982422,0.052548229694366455,0.0527188703417778,-0.1700826734304428,0.10195372253656387,-0.1175571084022522,-1.6470037574199348,-0.5343305591375528,-0.11444589153691367
1687098847.5403562,-0.8581556081771851,0.509375810623169,0.0640701949596405,0.032990872859954834,0.1662832498550415,-0.04424917697906494,-0.0234743170440197,0.13535775244235992,0.1273585706949234,-1.6453184160600267,-0.5344592689157304,-0.12019864149598843
1687098847.6632051,-0.8514949679374695,0.5207463502883911,0.06147824227809906,0.05677139759063721,0.1777551770210266,-0.04422067850828171,0.1499527543783188,-0.03338764235377312,0.40076762437820435,-1.6428716183414882,-0.5477249694663037,-0.12313645230061239
1687098847.66823,-0.832226574420929,0.5520951151847839,0.0508907251060009,0.03384089469909668,0.3931562900543213,-0.15271282196044922,0.26743826270103455,-0.017908604815602303,1.0768319368362427,-1.6318703581078253,-0.5848749716106539,-0.1012446287544138
1687098847.752341,-0.7879751324653625,0.6138224601745605,0.048135265707969666,-0.043781399726867676,0.5236743688583374,-0.1514068841934204,0.7569413781166077,-0.17283959686756134,1.9385427236557007,-1.6318078005532424,-0.6608935204565242,-0.09417738784576772
1687098847.767905,-0.7057966589927673,0.7082638740539551,0.01459962222725153,-0.10853433609008789,0.5282624959945679,-0.09055805206298828,1.0332008600234985,-0.26914259791374207,2.947873830795288,-1.5914786874055324,-0.7870359164036659,-0.014937937980496384
1687098847.842386,-0.5805442333221436,0.8139891624450684,-0.019742824137210846,-0.20714491605758667,0.4889586567878723,-0.052950143814086914,1.4988420009613037,-0.09750442206859589,3.5740838050842285,-1.5368019832891702,-0.9509869317207902,0.06694259467619244
1687098847.847104,-0.4149584472179413,0.905280351638794,-0.09097637981176376,-0.30348634719848633,0.38202720880508423,0.01713896542787552,1.275834560394287,0.20887814462184906,4.014394283294678,-1.35496900675583,-1.1320391747603409,0.270565605759471
1687098847.935868,-0.22075627744197845,0.9592797756195068,-0.17620748281478882,-0.425285667181015,0.5071508884429932,0.04557691514492035,2.3858261108398438,0.3733464181423187,4.1706156730651855,-0.8971543799135476,-1.2844412782555963,0.7436006233769221
1687098847.949682,-0.012863022275269032,0.9511300921440125,-0.30852213501930237,-0.3052675127983093,0.484752357006073,0.012699931859970093,2.861478090286255,0.43606865406036377,4.256842136383057,-0.04166824771296671,-1.2568751669756786,1.6095415957074055
1687098847.9889011,0.1949690729379654,0.8824731707572937,-0.42805129289627075,-0.4676894545555115,0.4892154932022095,0.12977245450019836,2.404872417449951,0.9314268231391907,4.173257827758789,0.4274022387405135,-1.0810946079068386,2.0748666741548414
1687098848.080467,0.39274609088897705,0.7564187049865723,-0.5230498313903809,-0.5354768633842468,0.6633352041244507,0.11889022588729858,2.967398166656494,1.0377285480499268,4.263398170471191,0.6440621363329144,-0.8578204256814418,2.2724015436284914
1687098848.086093,0.5675137042999268,0.565790593624115,-0.5981715321540833,-0.6129544973373413,0.5916495323181152,0.16709542274475098,3.380716323852539,1.24210524559021,4.098789215087891,0.7591039498399582,-0.6013917735522077,2.351925777922212
1687098848.1393728,0.6995181441307068,0.3442436158657074,-0.6262352466583252,-0.6291294693946838,0.3884682059288025,0.3282310366630554,2.7052195072174072,1.5164566040039062,3.776564598083496,0.8406183789293854,-0.35143303636606754,2.3810247434456873
1687098848.232006,0.7859540581703186,0.12455881386995316,-0.6056081056594849,-0.5786330699920654,0.43051016330718994,0.2217273712158203,2.844208240509033,1.4155491590499878,3.4165713787078857,0.9142794612946894,-0.12488316636584569,2.389127499836318
1687098848.237642,0.8309317231178284,-0.08788494020700455,-0.5493891835212708,-0.5213921070098877,0.33257490396499634,0.284771203994751,2.670686721801758,1.4259617328643799,3.0751266479492188,0.9866070374718457,0.0879984706102266,2.3692082193990522
1687098848.3230948,0.8407964706420898,-0.27882158756256104,-0.4640255272388458,-0.5327979326248169,0.3555275499820709,0.23264119029045105,2.615835428237915,1.4561411142349243,2.862144947052002,1.0665047100515095,0.2825668076365918,2.3330641207574696
1687098848.472038,0.8202739953994751,-0.44336679577827454,-0.36135315895080566,-0.4638594388961792,0.2607955038547516,0.230081707239151,2.267296314239502,1.4573312997817993,2.6591010093688965,1.1558476957536956,0.4593513541354105,2.2821447494612883
1687098848.487936,0.7744928598403931,-0.5773953199386597,-0.2584090232849121,-0.3218868374824524,0.19041723012924194,0.18313732743263245,1.566964030265808,1.2149477005004883,2.449841022491455,1.2487614021495785,0.615534865018871,2.2265032551241912
1687098848.5662432,0.7156091928482056,-0.6764342784881592,-0.17418396472930908,-0.21081805229187012,0.07604676485061646,0.19063276052474976,1.4362351894378662,0.7678012847900391,2.0174269676208496,1.3320328344034071,0.742910344628794,2.174673410922267
1687098848.571124,0.6573963761329651,-0.7452389001846313,-0.11157479882240295,-0.25776875019073486,-0.03466826677322388,0.17178583145141602,0.7463418841362,0.640464186668396,1.531612515449524,1.4026761143601463,0.8408930567904014,2.1265701825567107
1687098848.5751839,0.6129941940307617,-0.78678297996521,-0.07218442112207413,-0.286776602268219,-0.08978855609893799,0.1840464472770691,0.4329281151294708,0.4515567421913147,0.9370891451835632,1.4535790439685503,0.9055795606852072,2.0944466110811604
1687098848.654457,0.5880349278450012,-0.807033121585846,-0.053964752703905106,-0.25562232732772827,-0.121052086353302,0.2277469038963318,0.012382375076413155,0.12309331446886063,0.3627903163433075,1.4792813235507274,0.9391104013071331,2.0788241674748917
1687098848.6685472,0.5835312604904175,-0.8100103735923767,-0.0580882802605629,-0.25464338064193726,-0.08259814977645874,0.18879497051239014,-0.17586369812488556,-0.2112380713224411,-0.13820748031139374,1.471577072915803,0.944169795055398,2.085966111655604
1687098848.746728,0.5972532033920288,-0.7982084155082703,-0.07843335717916489,-0.2584318518638611,-0.11100167036056519,0.21506041288375854,-0.3817151188850403,-0.46370306611061096,-0.6312195658683777,1.4402200727393666,0.924315178301151,2.1051476425580478
1687098848.751193,0.6289951205253601,-0.7689163684844971,-0.1145983412861824,-0.2882969379425049,-0.07274317741394043,0.13049785792827606,-0.7625229358673096,-0.6225674152374268,-1.1242057085037231,1.3905802863640535,0.8771445614668132,2.1337901109584414
1687098848.8661551,0.6745080351829529,-0.716031551361084,-0.1798262894153595,-0.42322641611099243,0.002256035804748535,0.25680673122406006,-1.203246831893921,-0.810745894908905,-1.6139951944351196,1.3102527869754217,0.798100715415617,2.193353082180988
1687098848.870774,0.7276008725166321,-0.6342593431472778,-0.26136597990989685,-0.42456138134002686,0.006894290447235107,0.3295268416404724,-2.1177737712860107,-1.0031239986419678,-2.115445375442505,1.225934852649075,0.6870501471550621,2.252605260477575
1687098848.953479,0.7826787233352661,-0.4934163987636566,-0.3794127106666565,-0.40629035234451294,-0.026435166597366333,0.32191750407218933,-3.261791944503784,-0.721542477607727,-2.795820713043213,1.1194134550940724,0.516013232670013,2.3620435310299666
1687098848.96939,0.8230645060539246,-0.31403008103370667,-0.4732332229614258,-0.2315272092819214,0.09375426173210144,0.18363657593727112,-2.7068769931793213,-1.1525903940200806,-3.1609184741973877,1.0489884225663704,0.31943488635810857,2.416747713376288
1687098849.044732,0.8359206914901733,-0.08008097112178802,-0.5429766178131104,-0.2644028663635254,0.09430218487977982,0.3644792437553406,-4.614083290100098,-0.5953742861747742,-3.4902780055999756,0.994733871789899,0.0801668101242845,2.4920650841931553
1687098849.0499182,0.8122273683547974,0.17158196866512299,-0.5575359463691711,-0.2583792209625244,0.3395569622516632,0.05514019727706909,-3.2127768993377686,-0.2785821259021759,-3.3896710872650146,0.9692370199323606,-0.1724352317090787,2.554846765861086
1687098849.101546,0.7567552924156189,0.40029117465019226,-0.5168059468269348,-0.03715085983276367,0.26178765296936035,0.26836228370666504,-4.151788711547852,-0.3615233302116394,-3.1993963718414307,0.9716233147405438,-0.4118345783358613,2.616170252846716
1687098849.194032,0.6767442226409912,0.6062597632408142,-0.41769173741340637,-0.10809499025344849,0.2558770179748535,0.04517883062362671,-3.430516481399536,-0.04613044112920761,-3.1666853427886963,1.0178200779991615,-0.6513490072673629,2.697247001546662
1687098849.1985679,0.5663776397705078,0.7754476070404053,-0.2791009843349457,-0.2325306534767151,0.07289528846740723,0.22001886367797852,-3.9102261066436768,0.42124947905540466,-3.4177405834198,1.1129393751404746,-0.8874236477245318,2.826133281500224
1687098849.25301,0.4334694445133209,0.885230541229248,-0.16873326897621155,-0.009961873292922974,0.3580554723739624,0.013963237404823303,-2.4894521236419678,0.1241917610168457,-3.1154940128326416,1.1995808320207535,-1.0869894002550669,2.9187452498617708
1687098849.3449101,0.2763197422027588,0.9610500931739807,0.005487021524459124,-0.11358478665351868,0.14815711975097656,-0.04779982566833496,-2.5186245441436768,0.5458236932754517,-3.324472665786743,1.5906512253755694,-1.2907769503375943,-2.9676386738935183
1687098849.3503098,0.12486442923545837,0.9885886907577515,0.08426689356565475,-0.09271423518657684,0.1925787329673767,0.1981731653213501,-2.53262996673584,0.5449019074440002,-3.157736301422119,2.16445467772633,-1.4195806454508595,-2.4082508006013263
1687098849.400401,-0.03621989116072655,0.9795637726783752,0.19784481823444366,0.06832432746887207,0.46178126335144043,-0.22651615738868713,-1.0928634405136108,0.46739277243614197,-2.9153528213500977,-2.9605254967493058,-1.368281093378263,-1.2634594248098152
1687098849.494178,-0.17662960290908813,0.9431850910186768,0.2814318537712097,-0.17209480702877045,0.19686007499694824,0.1481488049030304,-2.2463231086730957,0.7187017798423767,-2.666539430618286,-2.581118248611458,-1.2320894046323516,-0.897220259661218
1687098849.500077,-0.2990238070487976,0.8976385593414307,0.32377389073371887,0.06632727384567261,0.3258110284805298,-0.14149251580238342,-0.6713658571243286,0.766114354133606,-2.189748764038086,-2.3959137686132337,-1.1143818718237228,-0.7383983070415252
1687098849.551149,-0.4057330787181854,0.8376809358596802,0.36561042070388794,-0.039106398820877075,0.3128163814544678,-0.026178836822509766,-0.9019468426704407,0.6892067790031433,-2.0110747814178467,-2.3042247226921426,-0.9930231856602988,-0.6739489905823967
1687098849.643554,-0.494925320148468,0.7928364276885986,0.35561102628707886,0.05885964632034302,0.18354284763336182,-0.022389650344848633,0.16659170389175415,0.5537812113761902,-1.9291492700576782,-2.1938403837418585,-0.9154492403728556,-0.5749646671274977
1687098849.648837,-0.5749151706695557,0.7471165060997009,0.3336006999015808,-0.023381948471069336,0.3036341667175293,-0.07385051250457764,0.061562225222587585,0.7418006658554077,-1.6054458618164062,-2.0965752013322394,-0.8437133124622651,-0.4888537816200549
1687098849.7344708,-0.6421289443969727,0.7025277018547058,0.30679750442504883,-0.011557459831237793,0.18290913105010986,-0.050327956676483154,0.09539230167865753,0.9282729029655457,-1.3947519063949585,-2.0165118919112817,-0.7789431388633496,-0.4374006605958535
1687098849.750809,-0.7007197737693787,0.6607738137245178,0.26901566982269287,0.0018062591552734375,0.12137633562088013,-0.005679607391357422,0.4372991621494293,0.7864077091217041,-1.3082053661346436,-1.9373584144715157,-0.7218492584045025,-0.38672967219380566
1687098849.788471,-0.74710613489151,0.6247249245643616,0.22704923152923584,-0.04610687494277954,0.20495647192001343,-0.016004979610443115,0.36364126205444336,0.7158589959144592,-0.9652239084243774,-1.8658317601231447,-0.6747792155954038,-0.33287940445369485
1687098849.8814878,-0.7768735885620117,0.5973978042602539,0.19895508885383606,-0.003811776638031006,0.14723104238510132,0.06746315956115723,0.13352195918560028,0.46682196855545044,-0.5625535845756531,-1.821505176635632,-0.6402523155193339,-0.30943651040637515
1687098849.8878279,-0.7918058037757874,0.5821240544319153,0.18486425280570984,-0.015292465686798096,0.1295609474182129,0.04420052468776703,-0.12136807292699814,0.21156667172908783,-0.2545969784259796,-1.8001594990464256,-0.6213385639405047,-0.3014865466579201
1687098849.941093,-0.7972840070724487,0.575706958770752,0.1813824325799942,0.006421029567718506,0.12525129318237305,0.03353738784790039,0.16240154206752777,0.0010742488084360957,-0.12336637079715729,-1.7944894084973015,-0.613468474772667,-0.2984766056820326
1687098850.0321321,-0.8015438914299011,0.5710166096687317,0.17738978564739227,0.06668078899383545,0.05183178186416626,0.044076189398765564,0.1530788242816925,0.0065170577727258205,-0.1591307520866394,-1.7885959473644817,-0.6077436448890662,-0.28883407514460835
1687098850.037853,-0.8049735426902771,0.5686770081520081,0.16918520629405975,0.06255733966827393,0.06135827302932739,0.010059580206871033,0.18416297435760498,0.11039312183856964,-0.0664844959974289,-1.7779559844096813,-0.604896610145783,-0.27320650828887955
1687098850.090403,-0.8050793409347534,0.5696187615394592,0.1654737889766693,0.030070185661315918,0.0077432990074157715,0.056724563241004944,-0.14868220686912537,0.11740783601999283,0.050846926867961884,-1.773510439051344,-0.6060419490421025,-0.2751361852216557
1687098850.182744,-0.803123950958252,0.5725432634353638,0.16488222777843475,-0.008872509002685547,0.029660046100616455,0.015369653701782227,-0.00019775796681642532,0.026625946164131165,0.024639558047056198,-1.7732838636363843,-0.6096045475784381,-0.27901299634974314
1687098850.1884742,-0.8021689653396606,0.5738338828086853,0.16504447162151337,-0.0063637495040893555,-0.0017971992492675781,0.006433725357055664,0.06572645157575607,-0.01674293726682663,0.01247350499033928,-1.7737124372752218,-0.6111795450343047,-0.2774148936898895
1687098850.244707,-0.8012123703956604,0.5747191905975342,0.16660286486148834,-0.0102195143699646,-0.03207099437713623,-0.00136566162109375,-0.06658428907394409,0.002942829392850399,0.02778468281030655,-1.7758132434408558,-0.6122609838281302,-0.2793274046347827
1687098850.3336601,-0.8006433248519897,0.5750707983970642,0.16811706125736237,0.012298166751861572,-0.02210766077041626,-0.013835683465003967,0.07600896805524826,-0.025536801666021347,-0.002846794668585062,-1.7777669406572616,-0.6126906573968279,-0.2813365585546208
1687098850.338902,-0.8020033240318298,0.5734173655509949,0.16728094220161438,-0.0013412833213806152,-0.013496220111846924,0.015641316771507263,0.039273325353860855,-0.026124827563762665,-0.03813101723790169,-1.7764270351426736,-0.6106710865284269,-0.2771734603892718
1687098850.391059,-0.8029794692993164,0.572097659111023,0.16711655259132385,-0.02087301015853882,0.0047149658203125,-0.004076480865478516,-0.025807887315750122,0.0034886174835264683,-0.023255685344338417,-1.7759878001653813,-0.6090611077935232,-0.2754568947954719
1687098850.478444,-0.8038827776908875,0.5702412128448486,0.16910745203495026,-0.0049092769622802734,0.016657471656799316,-0.008203625679016113,0.07865998148918152,-0.04430351406335831,-0.038842324167490005,-1.7781364757081246,-0.6067994424244625,-0.27695899846117755
1687098850.483129,-0.8039245009422302,0.5702608823776245,0.1688423454761505,-0.0165557861328125,0.008825361728668213,-0.0013163089752197266,0.00978211872279644,-0.018654074519872665,-0.0003237603232264519,-1.777810205768461,-0.6068233678449497,-0.2723904774519766
1687098850.5410419,-0.8038061261177063,0.5703586339950562,0.16907604038715363,0.0044286251068115234,0.023131906986236572,-0.022668108344078064,0.06297104060649872,-0.009727692231535912,-0.006018397863954306,-1.7781182647965321,-0.6069424045799365,-0.2716620958305262
1687098850.666059,-0.8034855723381042,0.571206271648407,0.16773222386837006,-0.0045588016510009766,-0.006463289260864258,-0.0157548189163208,0.01313269417732954,0.006871418096125126,0.009116258472204208,-1.7765965130847186,-0.6079746937191612,-0.2695187541469169
1687098850.671689,-0.8036711812019348,0.5717601180076599,0.16493313014507294,0.01254880428314209,-0.0022716522216796875,-0.009095191955566406,0.0447617806494236,0.02513660117983818,-0.0009135836735367775,-1.7732104943911062,-0.6086496547346566,-0.2658064763425031
1687098850.7532191,-0.8035390377044678,0.5726396441459656,0.16250687837600708,0.0036276578903198242,-0.001320183277130127,-0.007126808166503906,0.026668371632695198,0.034930694848299026,0.020686673000454903,-1.7703437765664125,-0.6097221147557614,-0.2644618263078166
1687098850.770555,-0.8032090663909912,0.5732358694076538,0.16203582286834717,-0.012480020523071289,-0.02250051498413086,0.005093574523925781,-0.09002634137868881,0.033140625804662704,0.018050719052553177,-1.7698601335098454,-0.6104495767519919,-0.26685226604790674
1687098850.841121,-0.8030321598052979,0.5735461115837097,0.16181503236293793,-0.010764777660369873,-0.006010830402374268,-0.010814204812049866,0.030580658465623856,0.022259961813688278,-0.004370078444480896,-1.7696386304197327,-0.6108281955706303,-0.2682513365813325
1687098850.845969,-0.8043783903121948,0.5717690587043762,0.16141724586486816,0.0004996061325073242,-0.016929030418395996,0.009587883949279785,-0.03505997359752655,0.04144558683037758,-0.03317287564277649,-1.7688391960246375,-0.6086605274082622,-0.2698627722390287
1687098850.933649,-0.8055902123451233,0.5703778266906738,0.1602916121482849,0.013064026832580566,-0.0039868950843811035,-0.010419845581054688,0.006686832290142775,0.02007206715643406,-0.02078329585492611,-1.7672052869317112,-0.6069657351179863,-0.2696814000099153
1687098850.940036,-0.8068706393241882,0.5687558650970459,0.15961386263370514,0.004487156867980957,0.0065767765045166016,0.006996765732765198,-4.531862214207649e-05,0.015325410291552544,-0.03157671168446541,-1.7660933063364206,-0.6049924709463066,-0.26939808794501263
1687098850.989194,-0.8069661855697632,0.5686399340629578,0.15954351425170898,-0.0008952021598815918,0.011651754379272461,0.010271444916725159,-0.0029145022854208946,-0.019088435918092728,0.0028244731947779655,-1.765986883416162,-0.6048515271666777,-0.26925881091401876
1687098851.081779,-0.8058162331581116,0.5700021386146545,0.16049186885356903,-0.022034049034118652,-0.0020700693130493164,-0.00787353515625,-0.01651015318930149,-0.014660505577921867,0.013157738372683525,-1.7673906398701866,-0.6065084717535475,-0.26899314327449453
1687098851.087558,-0.8072132468223572,0.5681180357933044,0.16015060245990753,-0.004859328269958496,0.0053833723068237305,-0.016550317406654358,0.13433720171451569,-0.018473459407687187,-0.10002227872610092,-1.7666523536342433,-0.6042171871865712,-0.2663709971998506
1687098851.139931,-0.8094027042388916,0.5658761262893677,0.15700681507587433,0.021591544151306152,0.0042989253997802734,-0.004129186272621155,0.12063001841306686,-0.01571064256131649,-0.03846180438995361,-1.7623954445752017,-0.6014955078314316,-0.257202855026844
1687098851.268035,-0.8098614811897278,0.5659578442573547,0.15432371199131012,-0.008879303932189941,-0.0044803619384765625,0.0016057342290878296,0.061712056398391724,0.017094014212489128,-0.03093302622437477,-1.759094557189399,-0.6015946238011834,-0.251241626538673
1687098851.2833881,-0.8113318681716919,0.5646204352378845,0.15147319436073303,0.00200575590133667,0.014557242393493652,0.004807218909263611,0.1111658364534378,-0.004432742018252611,-0.05273031070828438,-1.7553684045545521,-0.5999733275089019,-0.24599153561770382
1687098851.3505921,-0.8119801878929138,0.5644633173942566,0.14855623245239258,0.02012544870376587,-0.00020873546600341797,-0.0015684515237808228,0.016983678564429283,0.036282729357481,0.010653368197381496,-1.7517505189919707,-0.5997829582090557,-0.2399883319191015
1687098851.365601,-0.8114995360374451,0.5656086206436157,0.14681744575500488,0.02402395009994507,-0.00042319297790527344,0.0032984018325805664,-0.023378124460577965,0.05461673066020012,0.03671130910515785,-1.7497813911964168,-0.6011710595341544,-0.24140763864675066
1687098851.441257,-0.8109992146492004,0.566670835018158,0.14547821879386902,-0.010381221771240234,0.010645270347595215,0.008879512548446655,0.03807937726378441,0.015639502555131912,0.011373842135071754,-1.7482900670505064,-0.6024596651340982,-0.24150593050755326
1687098851.455895,-0.8103944659233093,0.567529559135437,0.14550165832042694,-0.001769721508026123,-0.020822525024414062,0.004995569586753845,-0.005031022243201733,-0.019454142078757286,0.007339375093579292,-1.7484477802790306,-0.6035022590531014,-0.2407885007156936
1687098851.531374,-0.8106232285499573,0.5670932531356812,0.14592675864696503,-0.002792060375213623,-0.02710014581680298,0.005211323499679565,0.0023940308019518852,0.013974602334201336,-0.023623356595635414,-1.7489066765721326,-0.6029724422746997,-0.24113698487347232
1687098851.536118,-0.8118263483047485,0.5655340552330017,0.14528919756412506,0.01905602216720581,-0.01061779260635376,-0.0026655197143554688,0.05322546511888504,-0.021538011729717255,-0.0409361906349659,-1.7478874040510783,-0.6010806943349067,-0.23853801070972802
1687098851.5909228,-0.8128582239151001,0.5641523599624634,0.14489179849624634,-0.0009235143661499023,-0.0011946558952331543,0.018132925033569336,-0.10617920756340027,0.002096956130117178,-0.008336413651704788,-1.7471934480808506,-0.5994062594613374,-0.23715127781663423
1687098851.682709,-0.8129503130912781,0.5632306933403015,0.1479288935661316,0.006660640239715576,0.019990622997283936,0.001851201057434082,-0.007446562871336937,-0.032119229435920715,-0.012378448620438576,-1.750792408677373,-0.5982904754921725,-0.2420544990123563
1687098851.688426,-0.8125633001327515,0.5630170702934265,0.1508389413356781,0.01042407751083374,0.00914156436920166,0.011422857642173767,-0.0826912522315979,-0.05418272316455841,0.018887994810938835,-1.754340527632242,-0.5980319664714256,-0.24386419317283675
1687098851.742784,-0.8114948272705078,0.5633300542831421,0.1553545743227005,-0.015134692192077637,0.03322744369506836,-0.00040175020694732666,-0.03683369234204292,-0.0378991961479187,0.01966523937880993,-1.7599501149585446,-0.5984107112544312,-0.2488097094301221
1687098851.833085,-0.8103594779968262,0.5639883279800415,0.15885333716869354,-0.018299460411071777,0.019309282302856445,-0.008295074105262756,0.0014828559942543507,-0.051964521408081055,0.0062123918905854225,-1.764369966356867,-0.5992076154954085,-0.25153707773218215
1687098851.83884,-0.809576153755188,0.5646443963050842,0.16050942242145538,-0.0003604292869567871,0.0004648566246032715,-0.012209400534629822,-0.00023397710174322128,-0.0312940776348114,0.01824308931827545,-1.7665216390548304,-0.6000023205258993,-0.2517473526759868
1687098851.890815,-0.8087935447692871,0.5658110976219177,0.16034606099128723,0.003953397274017334,-0.0025482177734375,-0.0309973806142807,0.023332443088293076,-0.006813981104642153,0.01038276869803667,-1.766511885816678,-0.6014166186222539,-0.25003379904780765
1687098851.981186,-0.8090046644210815,0.5661705732345581,0.15799380838871002,-0.024949073791503906,0.012763023376464844,-0.011524811387062073,0.04781951382756233,0.03401925787329674,0.00845517311245203,-1.7636628816475783,-0.6018526632990719,-0.2478027403224477
1687098851.987596,-0.8096228241920471,0.5665175318717957,0.15352167189121246,-0.045327186584472656,0.020839035511016846,-0.010409578680992126,0.17834971845149994,0.018646636977791786,-0.0438770055770874,-1.758192659143043,-0.6022736109711819,-0.24149797594184866
1687098852.040632,-0.8106908798217773,0.5669252872467041,0.14620311558246613,0.009757280349731445,0.010345041751861572,-0.020882874727249146,0.2553625702857971,-0.02133960649371147,-0.00778522714972496,-1.7492223046833861,-0.6027685303639031,-0.22523973536248476
1687098852.1317859,-0.8107924461364746,0.5679660439491272,0.14152848720550537,0.047486722469329834,-0.0339542031288147,-0.001941189169883728,0.0727839320898056,0.05257440358400345,-0.007825551554560661,-1.743610909776657,-0.6040324749263947,-0.2167186132785542
1687098852.137475,-0.8117461800575256,0.5677072405815125,0.13702701032161713,0.00844728946685791,-0.007938683032989502,0.014813050627708435,0.040568046271800995,0.06124703958630562,0.0003478224389255047,-1.738025062967569,-0.6037180937398318,-0.2130910039097343
1687098852.191681,-0.8117045164108276,0.5681356191635132,0.13549022376537323,0.0011729598045349121,0.001841127872467041,0.02692413330078125,0.003901805728673935,0.010706848464906216,0.01705940254032612,-1.736192075500708,-0.6042385196092934,-0.21298354537605874
1687098852.2827601,-0.810692310333252,0.5694006085395813,0.1362372785806656,-0.003943800926208496,-0.017963409423828125,0.02283547818660736,-0.07081887871026993,0.00976163987070322,0.020325101912021637,-1.737291170135893,-0.6057765721463864,-0.21485932321253645
1687098852.288507,-0.8105745315551758,0.5692014694213867,0.13776183128356934,0.0012636780738830566,-0.01437675952911377,0.015985608100891113,-0.0035318234004080296,-0.009762313216924667,-0.010192880406975746,-1.7391435006532072,-0.6055342825255304,-0.2176544427930378
1687098852.341425,-0.8113248348236084,0.5680339336395264,0.13816261291503906,-0.006362974643707275,-0.010355949401855469,0.012258380651473999,0.02068142592906952,-0.007510450668632984,-0.03510397672653198,-1.7394708448755813,-0.60411499883114,-0.21643468605261504
1687098852.432551,-0.8120298385620117,0.5666671991348267,0.1396276205778122,0.006091058254241943,-0.007936179637908936,0.003316536545753479,-0.0035767240915447474,-0.04351702705025673,-0.023928487673401833,-1.7410800177572667,-0.6024552915310779,-0.21650887501235558
1687098852.438503,-0.8122761845588684,0.5657973289489746,0.14170576632022858,-0.007532715797424316,-0.0007797479629516602,-0.006726622581481934,-0.020378660410642624,-0.05564521998167038,-0.017324604094028473,-1.7435132845756183,-0.6013999598676668,-0.2163692982185858
1687098852.491125,-0.8129810690879822,0.5645139813423157,0.1427784264087677,-0.004294872283935547,0.01757824420928955,-0.017198681831359863,0.04227161779999733,-0.03867598623037338,-0.03062702715396881,-1.7446467147843276,-0.599844357577039,-0.21465944800840456
1687098852.578339,-0.8129908442497253,0.5644252896308899,0.14307373762130737,0.014483094215393066,0.015011906623840332,-0.015495046973228455,0.0008200486190617085,-0.023337243124842644,0.02505398914217949,-1.7449970134978179,-0.5997368712230445,-0.21276507161617425
1687098852.582731,-0.8122221827507019,0.5652142763137817,0.14431919157505035,-0.006869673728942871,-0.004163861274719238,0.002943292260169983,-0.0824495404958725,0.02090585231781006,0.005145440809428692,-1.7466454072522095,-0.6006929713226747,-0.21677192658281275
1687098852.6426601,-0.8120013475418091,0.565493106842041,0.14446814358234406,0.019398927688598633,0.002652466297149658,-0.0029430538415908813,0.026415474712848663,-0.03081604093313217,-0.012500088661909103,-1.746870071328291,-0.6010310492818558,-0.21714466516321876
1687098852.7339458,-0.8123080134391785,0.5651436448097229,0.14411155879497528,-0.006509065628051758,0.0064656734466552734,-0.0009232908487319946,0.042174093425273895,-0.01540864072740078,-0.0014798827469348907,-1.746379420737729,-0.600607377718899,-0.21456396427829094
1687098852.751152,-0.8122945427894592,0.5651246905326843,0.14426112174987793,-0.017432451248168945,-0.001190483570098877,0.0022231191396713257,-0.029962418600916862,0.0101060401648283,-0.010098670609295368,-1.746560771240897,-0.6005843599198418,-0.2145871871027213
1687098852.787328,-0.8123191595077515,0.5650250315666199,0.14451326429843903,0.0014671683311462402,-0.007087528705596924,-0.012601137161254883,0.0037562367506325245,-0.015580360777676105,-0.009097499772906303,-1.7468564432030087,-0.6004636220822435,-0.21522732512200868
1687098852.882412,-0.8128048181533813,0.5645002722740173,0.14383138716220856,-0.009430170059204102,-0.0027328133583068848,-0.004656091332435608,0.022827133536338806,0.006908435840159655,-0.01901857554912567,-1.7459400660449043,-0.5998276940622368,-0.21332162765045232
1687098852.888304,-0.813670814037323,0.563474178314209,0.14295612275600433,-0.009113490581512451,-0.00785595178604126,-0.004803195595741272,0.01689302548766136,0.0043598972260952,-0.025386903434991837,-1.7447141544016505,-0.598585111561918,-0.2124418713015454
1687098852.9408941,-0.8145592212677002,0.5624837875366211,0.1417916864156723,-0.003067612648010254,-0.0034018754959106445,-0.0008158832788467407,0.008130958303809166,0.005759920924901962,-0.029851913452148438,-1.7431411120635736,-0.5973867909260998,-0.2101621451916728
1687098853.033369,-0.8154646754264832,0.5613973140716553,0.14089177548885345,0.005375504493713379,0.006702601909637451,0.00017561018466949463,0.05423267185688019,0.002067714463919401,-0.04090296849608421,-1.7418821304688161,-0.5960733225449855,-0.20799903698789468
1687098853.039297,-0.8162794709205627,0.5604705214500427,0.1398588865995407,-0.0047806501388549805,0.001434326171875,-0.0002715587615966797,0.043919529765844345,-0.0026568928733468056,-0.019313853234052658,-1.7404856469866268,-0.5949538362474746,-0.20527050562171537
1687098853.125475,-0.817164421081543,0.5597661137580872,0.13749179244041443,0.003474295139312744,0.005541384220123291,0.005574449896812439,0.010623943991959095,0.024535207077860832,-0.0360371470451355,-1.737489764658508,-0.5941035460247072,-0.20074259808614872
1687098853.212364,-0.8175801634788513,0.5592615008354187,0.1370735466480255,0.01690572500228882,0.000720679759979248,-0.0072214603424072266,0.040609218180179596,-0.00313439778983593,0.003718629712238908,-1.7369090334883144,-0.5934946752401811,-0.20127959396842446
1687098853.21785,-0.8177818059921265,0.5591928958892822,0.13614757359027863,0.0013602972030639648,-0.011295676231384277,0.010489225387573242,-0.037993982434272766,0.005233787000179291,-0.012483043596148491,-1.7357672523067542,-0.5934119575193738,-0.19907260639546726
1687098853.303427,-0.8179962635040283,0.5586449503898621,0.13710445165634155,-0.004711747169494629,-0.002813100814819336,0.004527449607849121,-0.018745290115475655,-0.00814465619623661,-0.023484472185373306,-1.7368628055572557,-0.5927511358459128,-0.2014883832497586
1687098853.320037,-0.8190962672233582,0.5570845603942871,0.136886864900589,-0.00576329231262207,0.0012955069541931152,0.0009303092956542969,0.019836297258734703,0.01386615727096796,-0.05669775232672691,-1.7363854475603588,-0.5908710222976421,-0.19991009626848832
1687098853.391255,-0.8204160332679749,0.5551850199699402,0.13670071959495544,0.0041318535804748535,0.002783060073852539,-0.005368471145629883,0.0005879807285964489,-0.007958874106407166,-0.030187806114554405,-1.7359031653879344,-0.5885853984573879,-0.1992204431563191
1687098853.395973,-0.8208049535751343,0.5542439222335815,0.1381775438785553,0.0019114017486572266,-0.006758570671081543,0.003195062279701233,-0.0662015974521637,-0.005288469139486551,-0.002084841951727867,-1.737576500431257,-0.5874543272242178,-0.20084110267402616
1687098853.483615,-0.8208269476890564,0.553625762462616,0.14050382375717163,-0.00020259618759155273,-0.006201624870300293,0.0005177110433578491,-0.07934930175542831,0.0017570835771039128,0.0019070366397500038,-1.7403267921131953,-0.5867118768191926,-0.20601240083377362
1687098853.4893022,-0.8212530612945557,0.5523775219917297,0.14290697872638702,-0.008352041244506836,0.0008909106254577637,0.0003881603479385376,-0.024484775960445404,-0.021256515756249428,-0.039731062948703766,-1.743082109542864,-0.5852136684574307,-0.21022417958559173
1687098853.5417252,-0.8223641514778137,0.5506522059440613,0.1431763619184494,0.0015938282012939453,0.00977259874343872,-0.004397854208946228,0.05455992370843887,-0.032586563378572464,-0.04774877801537514,-1.7431718666028424,-0.5831453574636329,-0.20755116432142626
