Timestamp,gravityX,gravityY,gravityZ,accelerationX,accelerationY,accelerationZ,rotationRateX,rotationRateY,rotationRateZ,attitudeRoll,attitudePitch,attitudeYaw
1687104071.943396,-0.15803878009319305,0.9623181223869324,-0.22128605842590332,-0.017788365483283997,-0.026634037494659424,0.010058537125587463,0.0004171794280409813,0.008700257167220116,-0.015573875978589058,-0.6201815939057892,-1.2954021933034592,-2.560973407924205
1687104072.039205,-0.15824736654758453,0.9619216322898865,-0.2228551059961319,0.004728525876998901,-0.006660521030426025,0.005844533443450928,-0.015614038333296776,0.008566141128540039,-0.002577937673777342,-0.6174662635967341,-1.293947878997457,-2.5591269319474206
1687104072.044077,-0.15846920013427734,0.9619837403297424,-0.22242926061153412,-0.007912814617156982,0.019430994987487793,-0.005888104438781738,-0.010105183348059654,0.013981731608510017,0.013826623558998108,-0.6190313235008904,-1.2941753123285533,-2.5616642464234554
1687104072.091652,-0.15814943611621857,0.9620702266693115,-0.22228318452835083,0.004661098122596741,-0.0073430538177490234,-0.007239609956741333,-0.02412368915975094,0.011468027718365192,0.003150898963212967,-0.6183873771982141,-1.2944920741494002,-2.5618792385101954
1687104072.18678,-0.15827436745166779,0.9621636271476746,-0.22178862988948822,0.007669970393180847,-0.019414782524108887,0.006960064172744751,-0.0305564496666193,0.016837013885378838,-0.002008154522627592,-0.6198132096053751,-1.2948346982760943,-2.5642140653136685
1687104072.192544,-0.15836787223815918,0.9619647860527039,-0.22258330881595612,0.0011106133460998535,-0.025655031204223633,0.0030855536460876465,0.019059360027313232,0.006780277471989393,-0.006131504196673632,-0.6184019917737495,-1.2941057996781509,-2.5633174068206173
1687104072.275281,-0.1578868180513382,0.9619238376617432,-0.2231014519929886,0.0012551844120025635,0.004308342933654785,-0.0018894672393798828,0.03213515877723694,0.007070935331285,0.0010333310347050428,-0.6158688914792296,-1.2939560119010411,-2.560983829965856
1687104072.366528,-0.1576722115278244,0.9618485569953918,-0.22357673943042755,-0.013012722134590149,0.013142108917236328,-0.0040692538022994995,0.030683789402246475,-0.003869969630613923,0.005759132094681263,-0.6142249785537798,-1.2936808145438654,-2.559189849019354
1687104072.384383,-0.15697328746318817,0.9619539380073547,-0.2236156165599823,-0.005517691373825073,0.0008755326271057129,-0.004182934761047363,-0.0217270590364933,-0.0023203296586871147,0.028028439730405807,-0.6120524020197802,-1.2940662100293814,-2.5569087358429967
1687104072.451525,-0.1567986160516739,0.961998701095581,-0.2235453724861145,0.015807271003723145,-0.012200236320495605,0.004902064800262451,-0.016665667295455933,0.00021382805425673723,0.012929738499224186,-0.6116766145029728,-1.2942300753648652,-2.556459036692032
1687104072.4562712,-0.15689875185489655,0.9619601964950562,-0.22364114224910736,0.007698178291320801,-0.010284900665283203,-0.001502394676208496,-0.007968742400407791,-0.0061697158962488174,-0.0057348934933543205,-0.6117753933579086,-1.2940890584224722,-2.5563832524539776
1687104072.546669,-0.15721392631530762,0.9617769122123718,-0.22420677542686462,-0.01290641725063324,0.005874276161193848,-0.006048426032066345,0.1091083437204361,0.00691918795928359,-0.05349021032452583,-0.6115312954084209,-1.2934189666059706,-2.555775214452772
1687104072.5623689,-0.15729570388793945,0.9616920948028564,-0.22451362013816833,-0.012580543756484985,0.045967698097229004,-0.014423847198486328,0.03041215054690838,-0.0019724671728909016,-0.006727852858603001,-0.6111329107840242,-1.29310939330869,-2.555117493652997
1687104072.635178,-0.1572740525007248,0.9616879820823669,-0.22454604506492615,-0.007459953427314758,0.016690194606781006,-0.013582691550254822,0.012611741200089455,-0.0008286929805763066,0.005736695136874914,-0.6110003686601809,-1.2930942927079474,-2.554803937097751
1687104072.6399322,-0.15694352984428406,0.9617806673049927,-0.22438077628612518,0.004294410347938538,0.00011813640594482422,-0.0003355443477630615,-0.022657619789242744,-0.008816471323370934,0.01548038050532341,-0.6103579272329545,-1.2934327053454269,-2.554017755141599
1687104072.6941419,-0.15694357454776764,0.9617260098457336,-0.22461453080177307,0.0051032304763793945,-0.03910344839096069,0.003148376941680908,-0.027227018028497696,0.005750379990786314,0.01006366591900587,-0.6098691072219541,-1.293233227729669,-2.5534693217927344
1687104072.7872782,-0.15665225684642792,0.961842954158783,-0.22431719303131104,0.01376885175704956,-0.01431804895401001,0.0030035972595214844,-0.012780221179127693,0.012508790008723736,0.001775509212166071,-0.6096187590150745,-1.2936603414956984,-2.5542088525824598
1687104072.792602,-0.15681789815425873,0.9613867998123169,-0.22614946961402893,0.009509384632110596,-0.045447587966918945,0.020277738571166992,0.033608850091695786,0.02411457896232605,-0.007618235889822245,-0.6063001667663599,-1.291997888411101,-2.551903727318429
1687104072.845398,-0.15377435088157654,0.9606896042823792,-0.2311466783285141,-0.03467181324958801,0.0700872540473938,-0.0008175373077392578,0.3845983147621155,0.037453554570674896,-0.031650714576244354,-0.5870332291686505,-1.2894755405491969,-2.534256083606253
1687104072.936815,-0.15096800029277802,0.9594141244888306,-0.2381868213415146,-0.0007502585649490356,-0.013277828693389893,-0.0033293813467025757,0.21146661043167114,0.020349083468317986,0.11429280042648315,-0.5649179295991166,-1.2849173386255899,-2.513097551253447
1687104072.942723,-0.14518208801746368,0.9557159543037415,-0.2559867799282074,0.02837592363357544,0.05653679370880127,-0.0010933876037597656,0.4696838855743408,0.017900094389915466,0.09050950407981873,-0.5159123941354194,-1.2720829813766013,-2.463025469671112
1687104072.993586,-0.14405511319637299,0.953052818775177,-0.2663424611091614,0.008328065276145935,-0.11627620458602905,-0.028350621461868286,0.04120839014649391,0.016726812347769737,-0.02310394123196602,-0.49580214836941794,-1.2631627591756065,-2.4435614683637277
1687104073.057225,-0.14274275302886963,0.9509288668632507,-0.2745151221752167,-0.00020171701908111572,0.000731050968170166,0.014474719762802124,0.24598048627376556,0.010768148116767406,0.05823305994272232,-0.479504652595378,-1.2562242889606219,-2.4278273792450444
1687104073.062928,-0.14337249100208282,0.9471896886825562,-0.28683793544769287,0.02937394380569458,0.016875743865966797,-0.02702021598815918,0.11862243711948395,0.028599290177226067,-0.12300655245780945,-0.46351798940253575,-1.2443554651588458,-2.410903163072016
1687104073.1118731,-0.14478842914104462,0.9443715214729309,-0.29529398679733276,-0.01689380407333374,0.13155603408813477,0.03449064493179321,0.5052410960197449,-0.046728700399398804,0.055566392838954926,-0.45587332383362666,-1.2356784347853413,-2.4025047266009616
1687104073.1744661,-0.1461247056722641,0.938820481300354,-0.3118710219860077,0.023672789335250854,-0.09166789054870605,-0.005450844764709473,0.023642661049962044,-0.07792609184980392,-0.0669398158788681,-0.43816609682700586,-1.2191893448043127,-2.379896720200851
1687104073.2381802,-0.14850357174873352,0.9351853728294373,-0.32151979207992554,-0.004450678825378418,0.05692571401596069,0.02795588970184326,0.48412811756134033,-0.08323302119970322,0.042408090084791183,-0.4326893100810263,-1.2087821651758215,-2.370968217270658
1687104073.294477,-0.1483231782913208,0.9281945824623108,-0.3412550687789917,0.012199416756629944,-0.021547973155975342,-0.017540186643600464,0.23941314220428467,-0.11582468450069427,-0.04331504553556442,-0.4100075845953025,-1.1895310165564368,-2.341172086059945
1687104073.38588,-0.15201488137245178,0.9255085587501526,-0.3468795120716095,-0.002312690019607544,-0.04912012815475464,0.033006131649017334,0.11754896491765976,-0.010124243795871735,0.00990469753742218,-0.41302752748484495,-1.1823762440956431,-2.341548317406227
1687104073.3918529,-0.15203964710235596,0.9225428700447083,-0.3546810448169708,0.008316993713378906,-0.05514180660247803,-0.003564894199371338,0.025335898622870445,-0.02565702423453331,-0.01926208660006523,-0.40497153658125234,-1.1746189465046446,-2.3315880847973878
1687104073.443269,-0.15360435843467712,0.9218114614486694,-0.35590633749961853,0.005258291959762573,0.010088443756103516,-0.005894899368286133,0.04619015380740166,0.01979253627359867,-0.04245533421635628,-0.40743617357488787,-1.1727279554559082,-2.3342365369660807
1687104073.566661,-0.15178929269313812,0.9205178618431091,-0.3600096106529236,-0.028310373425483704,0.060271263122558594,0.004449218511581421,0.16926692426204681,-0.002603529952466488,0.060243990272283554,-0.3990090857839109,-1.1694038869049397,-2.325601913471553
1687104073.583005,-0.15168553590774536,0.9197989106178284,-0.3618857264518738,-0.006456688046455383,-0.051741838455200195,-0.007895857095718384,-0.11689772456884384,0.017707068473100662,-0.03190832585096359,-0.3969078946701265,-1.1675676608659393,-2.3232297529469226
1687104073.65288,-0.15030437707901,0.9207949042320251,-0.3599240481853485,-0.002375185489654541,0.017132282257080078,0.0037075281143188477,0.02480395697057247,0.021229203790426254,0.0211387537419796,-0.3955863492292782,-1.170113519443916,-2.323462417334234
1687104073.6577458,-0.1497696191072464,0.9203627705574036,-0.361249715089798,0.002018645405769348,0.0037398934364318848,-0.0008108913898468018,-0.0634719505906105,-0.00015549920499324799,0.011679738759994507,-0.3930182124059743,-1.169007122371144,-2.3212584424540066
1687104073.7452378,-0.15023981034755707,0.9205319881439209,-0.3606226146221161,0.026246726512908936,-0.005859255790710449,-0.022128939628601074,0.1338992416858673,-0.007240679115056992,-0.03294367715716362,-0.39474477941702224,-1.1694399943695766,-2.322980811092367
1687104073.7612128,-0.15143157541751862,0.9198284149169922,-0.3619171679019928,-0.004940658807754517,0.014131426811218262,-0.019049108028411865,-0.09238524734973907,-0.03339622542262077,-0.05030764266848564,-0.39627991758228526,-1.1676429378581596,-2.3233720595197456
1687104073.835781,-0.15328659117221832,0.9206557869911194,-0.3590208888053894,0.0035061538219451904,-0.0059677958488464355,-0.0016512274742126465,0.07288152724504471,-0.018078360706567764,0.032117124646902084,-0.403527339974747,-1.1697571349050468,-2.329797772390494
1687104073.840784,-0.155104398727417,0.9196479320526123,-0.3608185946941376,0.011519089341163635,-0.04129117727279663,-0.027822822332382202,-0.07457578927278519,-0.06229120120406151,-0.1033698171377182,-0.40598671569932515,-1.1671831797433814,-2.32971043637967
1687104073.8929229,-0.15703371167182922,0.9197666645050049,-0.3596801161766052,-0.014109015464782715,0.060015320777893066,0.006255924701690674,0.18224695324897766,-0.06265445798635483,0.012764399871230125,-0.4116486676757014,-1.1674854892489883,-2.332876057549352
1687104073.985281,-0.1601063460111618,0.9195581674575806,-0.35885733366012573,0.006419658660888672,-0.03792071342468262,-0.021895289421081543,-0.19083859026432037,-0.049113932996988297,-0.13205501437187195,-0.41965263408979153,-1.166954607559235,-2.3377030038927207
1687104073.9906511,-0.16105632483959198,0.9196919202804565,-0.35808882117271423,-0.04284703731536865,0.08776956796646118,0.04563450813293457,0.17349298298358917,-0.03850459307432175,0.049487702548503876,-0.4226596790811197,-1.1672950780748894,-2.3390980427993684
1687104074.0446239,-0.1632651686668396,0.9205131530761719,-0.35496464371681213,0.03068143129348755,-0.051677823066711426,-0.03805607557296753,-0.23092511296272278,-0.052974771708250046,-0.12374914437532425,-0.43109558121989594,-1.1693918522519062,-2.3457070144818806
1687104074.136962,-0.1665676087141037,0.922768235206604,-0.34749647974967957,0.008303329348564148,0.09503859281539917,0.00608101487159729,0.07581867277622223,0.024422600865364075,-0.06839636713266373,-0.4469802406892093,-1.175203357916691,-2.362140023748667
1687104074.143303,-0.16941095888614655,0.9248920679092407,-0.34040355682373047,0.006889462471008301,-0.027766942977905273,-0.05095398426055908,-0.23026832938194275,-0.016465336084365845,-0.16099268198013306,-0.4617873340694848,-1.1807516432120468,-2.3782248382487774
1687104074.1938639,-0.1749165654182434,0.9293703436851501,-0.325076699256897,0.01604194939136505,0.1507992148399353,-0.040127187967300415,-0.25775253772735596,-0.02626981772482395,-0.19546151161193848,-0.49364385844085973,-1.192703443672095,-2.409581584148279
1687104074.285874,-0.17512135207653046,0.9318743348121643,-0.31771451234817505,0.04000462591648102,0.42441821098327637,0.23217371106147766,1.2966252565383911,0.252481609582901,-0.2324465662240982,-0.5037570966490997,-1.1995455428398136,-2.4179626286601184
1687104074.292038,-0.17661333084106445,0.9365924596786499,-0.30265840888023376,0.04875977337360382,-0.12874656915664673,0.03373745083808899,-0.312739759683609,-0.04578940197825432,0.017653297632932663,-0.5282287506241092,-1.212776210416676,-2.4395682602373823
1687104074.3417702,-0.17553582787513733,0.933026909828186,-0.3140825033187866,-0.03146505355834961,-0.3448617458343506,0.08603984117507935,-0.4347533583641052,-0.08212786167860031,-0.0010599358938634396,-0.5096386572882459,-1.2027357322320074,-2.4212553029701387
1687104074.436975,-0.17343007028102875,0.9370622634887695,-0.3030450642108917,-0.02421712875366211,0.23926818370819092,0.0067955851554870605,0.0151948481798172,-0.016171909868717194,0.10777979344129562,-0.5197962835340081,-1.2141192591645962,-2.429997690868322
1687104074.443128,-0.17126256227493286,0.9375241994857788,-0.302848756313324,-0.02655254304409027,-0.015145838260650635,-0.02602401375770569,-0.06107686087489128,-0.006986454129219055,0.029860740527510643,-0.5146694492310492,-1.2154445900240662,-2.4241668457945647
1687104074.494506,-0.1704566925764084,0.9395282864570618,-0.2970370948314667,0.002335190773010254,0.06590372323989868,0.004739642143249512,-0.060986366122961044,-0.014233075082302094,0.02505437843501568,-0.5209745628892772,-1.221250309413451,-2.429955761923244
1687104074.58773,-0.16865137219429016,0.9399772882461548,-0.2966468036174774,-0.007862478494644165,0.000986337661743164,-0.022979140281677246,-0.009107350371778011,0.02400118298828602,0.012270472943782806,-0.5169551534443316,-1.222563711376309,-2.426029524826842
1687104074.592898,-0.1678939312696457,0.941910445690155,-0.29088860750198364,0.015321165323257446,-0.00932389497756958,-0.004460632801055908,-0.0936938151717186,0.007403723895549774,0.028697606176137924,-0.5234680671506505,-1.228273879760442,-2.433442062133003
1687104074.6449652,-0.16671760380268097,0.9427734613418579,-0.2887617349624634,-0.007614225149154663,0.005911111831665039,-0.003123760223388672,-0.02886214666068554,-0.003165723290294409,0.00670202448964119,-0.523601222842266,-1.2308526877213573,-2.433918969393562
1687104074.737664,-0.16625723242759705,0.9434031844139099,-0.2869648337364197,-0.0035579800605773926,-0.004911482334136963,-0.008063912391662598,-0.036813706159591675,-0.00883021391928196,-0.015704702585935593,-0.5251080958690052,-1.2327464396561538,-2.4355039826054354
1687104074.742725,-0.16575998067855835,0.943794846534729,-0.2859630286693573,-0.003109186887741089,0.012976884841918945,-0.004305005073547363,-0.004266361705958843,0.0008063283748924732,0.0072945114225149155,-0.5253258409823937,-1.2339293805539375,-2.4352518499671945
1687104074.79172,-0.16533263027668,0.9444702863693237,-0.2839736342430115,0.00944867730140686,0.02946758270263672,-0.007698237895965576,-0.033998265862464905,0.0046686576679348946,0.015459252521395683,-0.5272367914519266,-1.2359787621360996,-2.437122475871678
1687104074.888165,-0.16520559787750244,0.9451338648796082,-0.2818314731121063,-0.004991114139556885,-0.025990307331085205,0.01005709171295166,-0.10791350156068802,-0.01952376402914524,0.03299195319414139,-0.530200034144262,-1.2380041869568923,-2.4398956927733804
1687104074.893686,-0.16513991355895996,0.9459733963012695,-0.2790391445159912,-0.020162954926490784,-0.06653332710266113,0.004640251398086548,-0.19974340498447418,0.026766715571284294,0.013388246297836304,-0.5343803328446598,-1.2405835801992244,-2.445501622583628
1687104074.944772,-0.16528019309043884,0.9474197030067444,-0.2740042805671692,0.029507339000701904,0.09846329689025879,0.010179698467254639,0.0718112513422966,0.0492534339427948,-0.02385275438427925,-0.5427713102922678,-1.2450736328283911,-2.4562632388431345
1687104075.0388079,-0.16432514786720276,0.9471888542175293,-0.2753731310367584,-0.00974726676940918,0.06803929805755615,-0.03692859411239624,0.2510449290275574,0.05462796241044998,-0.13510285317897797,-0.5380162715315991,-1.2443529607680863,-2.4516991612560743
1687104075.043926,-0.16453401744365692,0.9446952939033508,-0.28368833661079407,-0.012956365942955017,-0.037713050842285156,0.016689985990524292,0.10294158011674881,-0.044686853885650635,-0.03244753181934357,-0.525570032651614,-1.2366642983130565,-2.437654618062033
1687104075.09358,-0.16627036035060883,0.9435816407203674,-0.28636956214904785,-0.012211844325065613,-0.03661471605300903,0.02017989754676819,0.16471722722053528,-0.04291963204741478,0.020826321095228195,-0.5260436219356738,-1.2332849054341137,-2.4357200602132725
1687104075.187447,-0.16464972496032715,0.9400689005851746,-0.2985977530479431,-0.0394061803817749,0.07952314615249634,0.0018600821495056152,0.33223751187324524,-0.10197123885154724,0.009809578768908978,-0.5039249618741709,-1.2228323689283236,-2.4075776974005905
1687104075.193097,-0.1655360609292984,0.9368551969528198,-0.30805858969688416,0.01937195658683777,-0.002925872802734375,0.04389834403991699,0.3125283122062683,-0.09454511851072311,0.0924137607216835,-0.49308123848295643,-1.2135267490536543,-2.3896482276374424
1687104075.242018,-0.16162064671516418,0.9300515055656433,-0.3299737274646759,-0.020004823803901672,0.04980665445327759,-0.018064051866531372,0.33246639370918274,-0.052813492715358734,0.07924948632717133,-0.4554531903999076,-1.1945530727705764,-2.344923014357849
1687104075.336812,-0.16107243299484253,0.9275491833686829,-0.3372061252593994,-0.020217344164848328,-0.030164718627929688,0.002977520227432251,0.26718980073928833,-0.04322882741689682,0.04260915890336037,-0.4456225835901403,-1.187800304728983,-2.331798798399085
1687104075.341868,-0.16022172570228577,0.9238632917404175,-0.34757065773010254,0.01147894561290741,-0.016591191291809082,0.014074474573135376,0.07535804808139801,-0.05743199959397316,-0.03263790160417557,-0.431943991372449,-1.1780547814053675,-2.315071948037653
1687104075.3939981,-0.15929967164993286,0.9212009906768799,-0.3549819886684418,-0.010469779372215271,0.03045898675918579,0.0359359085559845,0.28835710883140564,-0.01739312894642353,0.11205143481492996,-0.4218174393536561,-1.1711559676794092,-2.3026768866225114
1687104075.4874191,-0.15931107103824615,0.9196412563323975,-0.3589983284473419,0.030847206711769104,-0.04499238729476929,-0.024302512407302856,-0.2300649881362915,-0.01663503423333168,-0.05328412726521492,-0.4176572059656948,-1.1671660451978598,-2.2968714495989904
1687104075.492696,-0.156100332736969,0.9190160632133484,-0.3619973659515381,-0.05343353748321533,0.09135979413986206,0.0076729655265808105,0.09013726562261581,0.005734720267355442,0.08840978145599365,-0.40712680887482944,-1.165577261188176,-2.2860857552318024
1687104075.5435781,-0.15770815312862396,0.920045018196106,-0.35867148637771606,0.05057606101036072,-0.04803586006164551,0.012800455093383789,0.010636366903781891,0.03149590268731117,-0.0004814085550606251,-0.41425620251721684,-1.16819541682432,-2.2934800480893234
1687104075.636821,-0.1557908058166504,0.9177998304367065,-0.36520251631736755,-0.013719230890274048,0.03219705820083618,-0.05032491683959961,-0.11793892085552216,-0.04269710183143616,-0.03830069303512573,-0.4032144749515952,-1.1625030462412824,-2.2812359637433746
1687104075.642785,-0.15749259293079376,0.9195863008499146,-0.3599401116371155,0.018606945872306824,0.09545868635177612,0.007370442152023315,0.2683972418308258,-0.02057746984064579,0.012538963928818703,-0.4124542819134591,-1.1670261708416254,-2.290311494353755
1687104075.693221,-0.15798261761665344,0.9189608693122864,-0.3613201677799225,0.0019918829202651978,-0.0728306770324707,-0.02231636643409729,-0.09297194331884384,-0.014157814905047417,-0.04456506669521332,-0.4121898365552443,-1.1654372836234708,-2.2893126238076302
1687104075.787942,-0.15775185823440552,0.9187991619110107,-0.361831933259964,-0.04244360327720642,0.024926304817199707,0.0008699297904968262,-0.016396261751651764,0.008909528143703938,-0.008823694661259651,-0.4111347888339524,-1.1650273981376902,-2.287415910204216
1687104075.793418,-0.15938757359981537,0.9212656617164612,-0.35477498173713684,0.016046375036239624,-0.06347763538360596,0.03401988744735718,-0.03398558869957924,0.002327419351786375,0.059190042316913605,-0.42224158008497575,-1.1713221544226142,-2.299850618492154
1687104075.843663,-0.1598634421825409,0.9204816818237305,-0.35659071803092957,0.02511294186115265,-0.021952807903289795,-0.02867850661277771,-0.14339947700500488,-0.05717681348323822,-0.0984189361333847,-0.4214482165391943,-1.169311328950246,-2.2974977681872266
1687104075.937624,-0.16327252984046936,0.9220535159111023,-0.3509405553340912,0.0010409653186798096,0.06432026624679565,0.015903234481811523,-0.013917124830186367,-0.024586115032434464,-0.000178496353328228,-0.43545721425985084,-1.1733527287577583,-2.3110518240305504
1687104075.943304,-0.16419366002082825,0.921023964881897,-0.35320693254470825,0.0060209184885025024,0.0006524920463562012,-0.030185431241989136,0.15482667088508606,-0.06110934540629387,-0.05078164115548134,-0.4351469404960844,-1.1707012746776655,-2.308991321426803
1687104075.993455,-0.16915740072727203,0.9222385883331299,-0.347651869058609,0.07784867286682129,0.08493298292160034,-0.044254958629608154,-0.15914936363697052,-0.07635540515184402,-0.1603734791278839,-0.4528470191699533,-1.1738311341601897,-2.322084703538802
1687104076.0882568,-0.17156872153282166,0.9289618730545044,-0.32801514863967896,0.12798944115638733,0.12224650382995605,-0.02237248420715332,0.854786217212677,0.029569478705525398,0.015367351472377777,-0.481918038108572,-1.1915984468108318,-2.3527737000701205
1687104076.093107,-0.1796448826789856,0.928358793258667,-0.3253884017467499,0.14413750171661377,-0.35787856578826904,-0.012242913246154785,-0.9669455885887146,-0.311923086643219,-0.20030133426189423,-0.5044492364670945,-1.1899725936208894,-2.374109794812621
1687104076.143231,-0.18052278459072113,0.9279000759124756,-0.32620978355407715,-0.09846906363964081,0.1384754776954651,0.08046689629554749,0.3215700685977936,0.013632911257445812,-0.13256652653217316,-0.5054458004563918,-1.188740405299419,-2.3703509087933474
1687104076.236599,-0.18068338930606842,0.9299081563949585,-0.32034987211227417,0.003193005919456482,0.0796283483505249,0.003729909658432007,0.14164583384990692,-0.003661390859633684,-0.014012707397341728,-0.5135425451878785,-1.1941629993288443,-2.3757523872912945
1687104076.242491,-0.17906434834003448,0.9296666979789734,-0.32195600867271423,-0.0011573731899261475,-0.06672126054763794,-0.03894495964050293,-0.1011120080947876,-0.003085242584347725,0.0074141318909823895,-0.507572839982131,-1.1935071351083584,-2.3702969246408956
1687104076.294677,-0.17868740856647491,0.9321543574333191,-0.3148950934410095,0.011359378695487976,-0.024210810661315918,-0.01760926842689514,-0.27922382950782776,0.08046536892652512,-0.02641615830361843,-0.5161422161499966,-1.2003182663969352,-2.3816579817779506
1687104076.4164538,-0.17670758068561554,0.9359889626502991,-0.304465115070343,-0.014851376414299011,0.04507476091384888,-0.03785058856010437,-0.09410958737134933,0.05853625759482384,-0.00939423218369484,-0.5258732868415944,-1.2110579898514424,-2.3981222043407993
1687104076.432173,-0.1762465089559555,0.9380037784576416,-0.2984728217124939,0.03112003207206726,0.09530609846115112,-0.004459977149963379,0.057755306363105774,0.05625073239207268,0.02591533400118351,-0.5334007233774891,-1.216825633892421,-2.4076300103592985
1687104076.504545,-0.17488199472427368,0.9379169940948486,-0.29954567551612854,-0.009383246302604675,-0.034902095794677734,-0.010192543268203735,0.011524106375873089,-0.0007541246013715863,0.02308683469891548,-0.5284405470524225,-1.2165754114449159,-2.4035364775848564
1687104076.509695,-0.17426887154579163,0.9379107356071472,-0.29992249608039856,0.003553420305252075,-0.01980489492416382,0.0005297064781188965,-0.016447819769382477,-0.018006455153226852,0.027973800897598267,-0.526366417367597,-1.2165573403174976,-2.4007674644238834
1687104076.5968208,-0.17375260591506958,0.9378185272216797,-0.3005099296569824,-0.0057976990938186646,-0.057233989238739014,0.019549816846847534,-0.13115768134593964,0.0499119833111763,-0.05894256755709648,-0.5242302661870216,-1.2162916436095066,-2.3996599897990523
1687104076.6113338,-0.17396044731140137,0.9426018595695496,-0.2850256562232971,0.000849306583404541,0.11965394020080566,-0.011178016662597656,0.28368932008743286,0.03548111021518707,0.1376572549343109,-0.5479823836302868,-1.2303383794690428,-2.4261316321480755
1687104076.684432,-0.17140482366085052,0.9396629333496094,-0.29606395959854126,0.09431725740432739,-0.11574947834014893,0.001676023006439209,-0.2056989222764969,-0.04623260721564293,0.062206629663705826,-0.5247942085700872,-1.2216437080878007,-2.4039877671695455
1687104076.689478,-0.16974925994873047,0.9379172325134277,-0.3024834990501404,-0.03795348107814789,0.08552008867263794,0.008354991674423218,0.22266648709774017,-0.052072811871767044,0.07787862420082092,-0.5113901381360612,-1.2165759908605227,-2.3890075587482076
1687104076.746986,-0.16852757334709167,0.9349130988121033,-0.31230685114860535,-0.026174679398536682,-0.0064923763275146484,0.001134335994720459,0.15003281831741333,-0.045799046754837036,0.0078003788366913795,-0.49484037721250224,-1.208014144295535,-2.3680255109169552
1687104076.834034,-0.16636954247951508,0.9323012232780457,-0.3211468756198883,0.006686165928840637,0.08396446704864502,0.02793392539024353,0.40443655848503113,0.007629666477441788,0.10578258335590363,-0.47798165962735806,-1.200724139595424,-2.3485138942405572
1687104076.850564,-0.16224129498004913,0.9265999794006348,-0.3392494022846222,0.008127361536026001,-0.015375733375549316,-0.00884944200515747,0.3236330449581146,-0.023905357345938683,0.06620033085346222,-0.4460853311874547,-1.185268245179872,-2.3133675418507713
1687104076.892009,-0.16057553887367249,0.9216306805610657,-0.3532879650592804,0.0035166889429092407,0.017028868198394775,0.00540277361869812,0.2771281898021698,-0.029834458604454994,0.033124689012765884,-0.42660429741773664,-1.172261772757974,-2.2911336806816953
1687104076.955782,-0.16029253602027893,0.9175817370414734,-0.3637993633747101,0.0229480117559433,-0.01757270097732544,-0.018036633729934692,0.1280040591955185,-0.05316049978137016,0.007703129202127457,-0.4150152732195231,-1.161954134873072,-2.2766430082945734
1687104077.047271,-0.16094495356082916,0.9150722622871399,-0.3697827160358429,0.015284419059753418,0.03889179229736328,0.008668124675750732,0.25055745244026184,-0.020158449187874794,-0.003098186105489731,-0.41051359575554836,-1.1556871186449806,-2.2693851073155296
1687104077.0616322,-0.15971937775611877,0.9120458364486694,-0.3777064383029938,-0.036737650632858276,0.0007653236389160156,0.01674443483352661,0.11747685074806213,-0.03563982993364334,0.00014689797535538673,-0.40006211641939704,-1.1482454325153935,-2.2568295750346077
1687104077.1378999,-0.1617698073387146,0.911654531955719,-0.37777847051620483,0.004680424928665161,0.01592719554901123,0.0007947683334350586,-0.02002742886543274,-0.007609101012349129,0.005203596781939268,-0.40458928056387944,-1.1472922671023835,-2.2599608798523074
1687104077.143499,-0.16074077785015106,0.9091816544532776,-0.3841235041618347,-0.024974092841148376,0.033887624740600586,-0.028641998767852783,0.09518640488386154,-0.05307544022798538,0.022871585562825203,-0.3963191950101856,-1.1413145092694355,-2.249364371053202
1687104077.1962109,-0.16247813403606415,0.9085314273834229,-0.38493025302886963,0.0320306271314621,-0.021141469478607178,0.0008054673671722412,0.11894377321004868,-0.0358271561563015,0.009665723890066147,-0.3994097330749692,-1.1397556401103117,-2.250584234406296
1687104077.287119,-0.1616218537092209,0.9062690734863281,-0.3905823528766632,-0.00938349962234497,0.022930026054382324,-0.007580578327178955,0.037319377064704895,-0.022412601858377457,-0.0101395845413208,-0.3923435817808149,-1.134372476969033,-2.240841129730609
1687104077.292642,-0.16243065893650055,0.9069696664810181,-0.38861584663391113,-0.023741960525512695,-0.027544736862182617,0.020268619060516357,-0.006040187552571297,0.017180027440190315,0.03410908207297325,-0.3959030795198945,-1.1360327687579503,-2.2444362661189277
1687104077.344537,-0.16242799162864685,0.9077053070068359,-0.3868955373764038,0.032361894845962524,-0.02240574359893799,-0.003149747848510742,-0.12445082515478134,0.005146747920662165,0.0013432339765131474,-0.397478286601935,-1.1377826290376725,-2.2468354753892834
1687104077.436511,-0.1630035787820816,0.9086599946022034,-0.3844046890735626,-0.0018525123596191406,-0.017134785652160645,0.002965390682220459,-0.08801702409982681,-0.0006760405376553535,0.004133339039981365,-0.4010585913187446,-1.1400634138628263,-2.2509244109253843
1687104077.442534,-0.16335566341876984,0.9083448648452759,-0.38499948382377625,0.018992125988006592,0.028437912464141846,-0.005442500114440918,-0.06764203310012817,-0.016688989475369453,-0.037428420037031174,-0.40127841131355085,-1.1393092790955175,-2.2505502557728687
1687104077.493767,-0.16566185653209686,0.9104512333869934,-0.3789914548397064,-0.0025054216384887695,0.037363529205322266,-0.027807950973510742,-0.07954961061477661,0.037908583879470825,-0.06634386628866196,-0.4120850224142617,-1.1443737722370437,-2.260793958986159
1687104077.585787,-0.16609041392803192,0.9104222655296326,-0.3788738250732422,-0.024919256567955017,0.18583017587661743,0.01679784059524536,0.20412497222423553,-0.052594684064388275,-0.07477809488773346,-0.41314819368503697,-1.1443036466759164,-2.260809980341799
1687104077.591762,-0.1703989952802658,0.9109463691711426,-0.37568703293800354,0.054508402943611145,-0.02079451084136963,-0.02125510573387146,-0.2835870385169983,0.058438412845134735,-0.20387743413448334,-0.4258157420474553,-1.1455723113736842,-2.274456493080022
1687104077.644212,-0.17096801102161407,0.9133544564247131,-0.369531512260437,-0.21866530179977417,0.10317063331604004,0.02295851707458496,0.22128863632678986,-0.03379032015800476,-0.05202935263514519,-0.43333322623450643,-1.1514480190310346,-2.28137131254447
1687104077.732016,-0.17338798940181732,0.914366602897644,-0.36588266491889954,-0.011106178164482117,0.01104825735092163,-0.01519039273262024,-0.22270123660564423,-0.027784569188952446,-0.06856032460927963,-0.44254196947134283,-1.153940726576963,-2.288154330664432
1687104077.746601,-0.1840570867061615,0.926429808139801,-0.3284064531326294,0.06512993574142456,-0.36153435707092285,-0.052025794982910156,-1.8196393251419067,0.006827895529568195,-0.21612809598445892,-0.51083472727304,-1.184816015775129,-2.366524140898433
1687104077.7919621,-0.1832280158996582,0.9247727990150452,-0.3335006535053253,-0.31541407108306885,0.3670666217803955,-0.07381755113601685,0.5486356616020203,-0.001965117175132036,-0.4233796298503876,-0.5023887789472494,-1.1804381501710524,-2.357048535977059
1687104077.8873072,-0.1836714744567871,0.9295805096626282,-0.3196006715297699,-0.042082443833351135,0.047897279262542725,-0.05146262049674988,0.15023250877857208,0.10162540525197983,-0.1394529640674591,-0.5216016746019952,-1.193273277762349,-2.374528271023954
1687104077.892717,-0.18349803984165192,0.9310535192489624,-0.3153848648071289,0.025645747780799866,-0.04125267267227173,0.01719757914543152,-0.05068344995379448,-0.0011467277072370052,0.006745345424860716,-0.5269465159290838,-1.1972896424223338,-2.381803670751335
1687104077.945678,-0.18395444750785828,0.9312435388565063,-0.3145570456981659,-0.022588640451431274,-0.0797727108001709,0.013958871364593506,-0.1649402529001236,-0.030292095616459846,-0.0173784326761961,-0.5291715664350807,-1.197810762924813,-2.3839408326951537
1687104078.0357099,-0.18369156122207642,0.9319665431976318,-0.3125635087490082,0.004782125353813171,0.034250497817993164,-0.001538783311843872,0.019382454454898834,0.006200134754180908,0.029304761439561844,-0.5313214958772737,-1.199799814846091,-2.386334634733246
1687104078.0419369,-0.18370512127876282,0.9319167137145996,-0.3127034306526184,0.006962403655052185,0.012769997119903564,0.0012562572956085205,0.005484482739120722,-0.006228305399417877,0.015337501652538776,-0.5311582485782782,-1.1996624289519053,-2.3858623223409454
1687104078.099608,-0.18368731439113617,0.931887149810791,-0.3128022849559784,0.005662888288497925,-0.012484192848205566,-0.0032073259353637695,0.022018665447831154,0.003003116464242339,0.001953297760337591,-0.5309778655251212,-1.1995809598004636,-2.38555365793716
1687104078.190562,-0.1837642788887024,0.9322096109390259,-0.31179454922676086,0.0026575326919555664,-0.00648951530456543,0.008571803569793701,-0.07863902300596237,0.0111623490229249,-0.019453324377536774,-0.5325712281738804,-1.2004709257476147,-2.387255634882784
1687104078.1969008,-0.1835242062807083,0.9329655766487122,-0.3096672296524048,-0.008767202496528625,0.02127307653427124,0.0008902847766876221,-0.04832117259502411,0.019328348338603973,-0.02541465498507023,-0.5349973715603612,-1.2025653832756662,-2.3908244252814446
1687104078.244794,-0.18376471102237701,0.9353824257850647,-0.302142471075058,0.0007353723049163818,-0.0027806758880615234,0.0029022693634033203,-0.062188196927309036,0.00633015064522624,0.004532924387603998,-0.5464311282176297,-1.2093389424877916,-2.402991508099426
1687104078.3379688,-0.18311306834220886,0.9362768530845642,-0.29975879192352295,0.0006025582551956177,-0.02406066656112671,0.013168126344680786,-0.07135261595249176,0.018210405483841896,0.02258804813027382,-0.5483724309193854,-1.2118766972236104,-2.406165881247598
1687104078.343585,-0.18324466049671173,0.9373176693916321,-0.29640665650367737,-0.0003187209367752075,-0.02011197805404663,-0.0011397898197174072,-0.07919029891490936,-0.028134988620877266,0.05045647546648979,-0.5537092721835115,-1.2148514740264562,-2.4115027787981447
1687104078.3934221,-0.1830080896615982,0.937293529510498,-0.2966291904449463,0.003869771957397461,-0.013145089149475098,0.008344769477844238,-0.04797773063182831,-0.022016482427716255,0.013719387352466583,-0.5527962132613977,-1.2147822597766051,-2.409842329258687
1687104078.4879088,-0.18309146165847778,0.9379484057426453,-0.2944999933242798,-0.0010669827461242676,-0.0024779438972473145,0.00960308313369751,-0.046266596764326096,-0.004874886944890022,0.006116173695772886,-0.5562247880673323,-1.2166660245174208,-2.412864485931309
1687104078.4937248,-0.18246744573116302,0.9383800029754639,-0.2935105860233307,-0.001980915665626526,0.016240239143371582,-0.009498506784439087,0.02074173279106617,-0.0035212021321058273,-0.0004576840437948704,-0.5562028889441141,-1.217912572398184,-2.41268312801955
1687104078.543624,-0.18246108293533325,0.9382221698760986,-0.29401859641075134,-0.0020483285188674927,-0.003529965877532959,0.0035674870014190674,0.03176892548799515,-0.004083341918885708,-0.017969321459531784,-0.5554121725243508,-1.217456249607068,-2.411340152015739
1687104078.636442,-0.18272972106933594,0.9382809400558472,-0.2936643958091736,0.0014551728963851929,-0.007052302360534668,-0.002081543207168579,-0.027879545465111732,-0.001521274563856423,0.0031887604855000973,-0.5566120876853327,-1.217626081249168,-2.412310539731368
1687104078.642229,-0.18285702168941498,0.9381396174430847,-0.2940361797809601,-0.0029951781034469604,-0.018050014972686768,-0.0035713016986846924,-0.05028482526540756,-0.014991063624620438,0.022241724655032158,-0.556357017748512,-1.2172177927368113,-2.411636106926032
1687104078.695891,-0.18312594294548035,0.9380407929420471,-0.2941841185092926,0.006459563970565796,0.00852280855178833,-0.0037896037101745605,-0.013007815927267075,-0.006033947691321373,0.005579701624810696,-0.5567905506671881,-1.216932437055505,-2.411934812580814
1687104078.788028,-0.18372145295143127,0.9381186962127686,-0.29356369376182556,0.001622915267944336,0.0018225908279418945,0.0034177303314208984,-0.008947986178100109,-0.004944128915667534,-0.013085106387734413,-0.5591971187130677,-1.2171574145719004,-2.4141448442774984
1687104078.793715,-0.18471474945545197,0.9377755522727966,-0.29403650760650635,-0.004234969615936279,-0.00012308359146118164,-0.002823352813720703,0.03127746284008026,-0.004912437871098518,-0.048483557999134064,-0.5608996295560016,-1.2161678969207246,-2.4159495626051304
1687104078.84511,-0.18595311045646667,0.9372181296348572,-0.2950311601161957,-0.004568308591842651,0.011908888816833496,0.0030694007873535156,0.023250004276633263,-0.0019578731153160334,-0.052742261439561844,-0.5623892776729702,-1.2145660529163762,-2.41723430398697
1687104078.9375172,-0.18714918196201324,0.9367027282714844,-0.2959105372428894,-0.020996078848838806,-0.007274806499481201,-0.006930738687515259,0.015030531212687492,-0.00535042118281126,-0.02839890494942665,-0.5639400477486118,-1.2130910587241153,-2.418664893435593
1687104078.9432569,-0.1881769448518753,0.9361183643341064,-0.2971056401729584,0.006612494587898254,0.002709031105041504,0.0010240375995635986,0.0014081415720283985,-0.005366027355194092,0.003571456763893366,-0.5645935096607829,-1.2114256678854665,-2.4191838642146823
1687104078.9932408,-0.1893664002418518,0.9358527660369873,-0.2971864938735962,0.004399210214614868,-0.015457987785339355,0.002020418643951416,-0.037628792226314545,-0.004597598686814308,0.005872627720236778,-0.5673222851108186,-1.2106713149761523,-2.4219335080219953
