Timestamp,gravityX,gravityY,gravityZ,accelerationX,accelerationY,accelerationZ,rotationRateX,rotationRateY,rotationRateZ,attitudeRoll,attitudePitch,attitudeYaw
1686938903.264194,-0.8797789812088013,0.4753812849521637,-0.001249036518856883,0.0020629167556762695,0.000311434268951416,0.0018593668937683105,0.069768026471138,-0.02709243819117546,0.014932160265743732,-1.5693766114979315,-0.4953973757491852,2.9456966373267517
1686938903.279089,-0.879511296749115,0.47587528824806213,-0.0015824659494683146,-0.008290767669677734,-0.015197187662124634,0.0019333958625793457,-0.0017609621863812208,-0.004940183833241463,-0.0006432710215449333,-1.5689970728879195,-0.49595896218874524,2.948364446183485
1686938903.3917232,-0.8795775175094604,0.4757523834705353,-0.0017262446926906705,0.0023650527000427246,0.00012347102165222168,-0.003202378749847412,0.04207511618733406,-0.01981309987604618,0.0023411675356328487,-1.5688337454280412,-0.49581922146906005,2.9500103411658185
1686938903.397311,-0.8794406056404114,0.4760071933269501,-0.0012646651593968272,0.0011141300201416016,-0.0046326518058776855,-0.0025194883346557617,0.02693714015185833,-0.010622890666127205,0.004891443531960249,-1.5693582941748645,-0.49610895055979576,2.950815869044786
1686938903.475966,-0.879423975944519,0.47603705525398254,-0.001511975540779531,-0.006669223308563232,-0.006402015686035156,-0.007734894752502441,-0.012517518363893032,-0.002836872823536396,-0.001611063489690423,-1.5690770491272574,-0.49614289772412973,2.952212453333985
1686938903.489773,-0.8793819546699524,0.4761143922805786,-0.001535181188955903,-0.000729680061340332,-0.0010625123977661133,-0.0073760151863098145,0.027592675760388374,-0.004273368511348963,0.0005474616773426533,-1.5690505784837203,-0.4962308561150744,2.952659146746425
1686938903.564621,-0.8794546127319336,0.4759780168533325,-0.0021028772462159395,-0.0030525922775268555,-0.008494526147842407,-0.0020933151245117188,0.0004035825841128826,0.0026274544652551413,-0.0003568478859961033,-1.568405216402043,-0.4960757739585034,2.9533179549461286
1686938903.577917,-0.8794373869895935,0.47600579261779785,-0.0029143255669623613,0.0005769729614257812,-0.006736963987350464,-0.006301999092102051,-0.008527195081114769,0.011329373344779015,0.0019137300550937653,-1.5674824867459336,-0.49610734105265064,2.954287739613605
1686938903.6555572,-0.879418671131134,0.47603484988212585,-0.0036594748962670565,0.000634610652923584,-0.0001284778118133545,0.00047040008939802647,0.025298254564404488,0.010527295060455799,0.002229614183306694,-1.566635107735819,-0.49614038383657716,2.9541322542309625
1686938903.7452378,-0.879321813583374,0.4762083888053894,-0.004346065688878298,-0.002605736255645752,-0.002071976661682129,0.004346012603491545,-0.010902419686317444,0.008406074717640877,0.010403887368738651,-1.565853847023585,-0.49633773547216886,2.9547209621081327
1686938903.758769,-0.879138171672821,0.47654393315315247,-0.004662582650780678,-0.0002714991569519043,0.0024141669273376465,0.008141517639160156,0.017422126606106758,0.00018424377776682377,0.008157477714121342,-1.565492792992137,-0.4967193728288656,2.9547994829403037
1686938903.836494,-0.8789020776748657,0.4769832193851471,-0.004283758345991373,-0.00043147802352905273,-0.004662632942199707,0.006633638869971037,-0.0029622293077409267,-0.01135343499481678,0.014463277533650398,-1.5659223773909114,-0.497219110013676,2.9548688451886433
1686938903.8424711,-0.8785731196403503,0.47759369015693665,-0.0036615286953747272,0.0013759732246398926,0.0008913874626159668,0.006224930286407471,0.017205659300088882,-0.01911373995244503,0.018293002620339394,-1.5666287652470081,-0.4979137919899785,2.9559163641568396
1686938903.9228501,-0.8782204985618591,0.47824984788894653,-0.0024226466193795204,0.005143165588378906,-0.0019314885139465332,0.0015680789947509766,0.015796557068824768,-0.018570641055703163,0.017342720180749893,-1.5680377479749477,-0.4986608017155353,2.9554154320399015
1686938903.934948,-0.8779123425483704,0.47881829738616943,-0.0017346536042168736,-0.005953013896942139,-0.010236144065856934,-0.001240849494934082,-0.026602832600474358,-0.0031762125436216593,0.006641406565904617,-1.5688204446182206,-0.49930817910149905,2.9553120435338047
1686938904.017103,-0.8778263330459595,0.4789772033691406,-0.0013580467784777284,-0.0008815526962280273,0.000896453857421875,-0.007171630859375,-0.010828820057213306,-0.007538937032222748,0.0060518160462379456,-1.5692492715956972,-0.4994891915112506,2.954665473315173
1686938904.021862,-0.8776408433914185,0.47931694984436035,-0.0012467697961255908,0.003419220447540283,-0.001015007495880127,-0.010456740856170654,-0.002147992141544819,0.004846426658332348,0.013179267756640911,-1.569375735501967,-0.49987626391011264,2.9540310135612238
1686938904.072273,-0.8773097991943359,0.479922354221344,-0.0014284044736996293,-0.0012607574462890625,0.00040909647941589355,-0.006750345230102539,-0.03456493467092514,-0.0008066120790317655,0.014710984192788601,-1.5691681639294035,-0.5005662046394108,2.9540762753691983
1686938904.1654758,-0.877072274684906,0.48035573959350586,-0.0016489566769450903,0.0065125226974487305,0.002371370792388916,0.0012216565664857626,0.016126122325658798,-0.0029482594691216946,0.008660448715090752,-1.5689162596844075,-0.5010602724934425,2.9538848856838427
1686938904.171284,-0.8768426179885864,0.4807758331298828,-0.00122015958186239,0.0024378299713134766,-0.0082111656665802,0.006652235984802246,-0.011546081863343716,-0.006230978295207024,0.010841311886906624,-1.5694047899630235,-0.5015392914521724,2.9529311944431145
1686938904.223937,-0.8768275380134583,0.4808042347431183,-0.0009314763592556119,-0.0014684200286865234,-0.008788824081420898,0.00872868299484253,-0.02989533543586731,-0.0075545962899923325,-0.0004975625779479742,-1.5697340015745875,-0.501571704807017,2.952945460264055
1686938904.315871,-0.8767857551574707,0.4808810353279114,0.0006459130672737956,0.0036777257919311523,6.079673767089844e-05,0.003535032272338867,-0.005039701238274574,-0.020993240177631378,0.004601958207786083,-1.571533009604748,-0.5016592710864924,2.950928159930924
1686938904.321785,-0.8767997622489929,0.4808507263660431,0.002116101561114192,-0.001022934913635254,-0.0061040520668029785,-0.0025892260018736124,-0.07948863506317139,-0.0010123413521796465,0.004118061624467373,-1.5732097597603887,-0.5016247193609888,2.949081781242036
1686938904.372014,-0.876603364944458,0.48119762539863586,0.0039312224835157394,0.0006420016288757324,0.005267888307571411,-0.008493661880493164,-0.06448505073785782,-0.0022917368914932013,0.013531371019780636,-1.575280904961501,-0.5020204108693644,2.944900936332506
1686938904.4655771,-0.8763560056686401,0.481633722782135,0.005410045851022005,-0.0007650256156921387,0.0008950531482696533,-0.013680338859558105,-0.07851194590330124,0.02219589427113533,0.012626495212316513,-1.5769695907618544,-0.5025179313026775,2.9399680501632046
1686938904.471953,-0.8759332299232483,0.4823981523513794,0.005756695289164782,-0.0014777183532714844,0.0017633140087127686,-0.009235739707946777,-0.060456257313489914,0.02548704296350479,0.015347613021731377,-1.577368303178945,-0.5033904207463742,2.935597933903833
1686938904.522929,-0.8754175305366516,0.4833371937274933,0.005399892572313547,-0.006143629550933838,-0.0066984593868255615,-0.012006998062133789,-0.11013176292181015,0.052005868405103683,0.019875720143318176,-1.5769646111982443,-0.5044627692514866,2.9313011149791346
1686938904.6757212,-0.8748208284378052,0.48442476987838745,0.004566228948533535,0.002582848072052002,-0.0014535784721374512,-0.004627228248864412,-0.08046804368495941,0.05672698840498924,0.02409183606505394,-1.5760158952541372,-0.505705501203506,2.9261501523583933
1686938904.689489,-0.8739494681358337,0.48600050806999207,0.0039809816516935825,-0.005780696868896484,-0.006782978773117065,-0.00651395320892334,-0.23870819807052612,0.108257956802845,0.04878872632980347,-1.575351457394459,-0.5075076071115407,2.918928965754477
1686938904.798077,-0.8726069927215576,0.48839887976646423,0.004819490946829319,0.0022458434104919434,0.009052813053131104,-0.017911553382873535,-0.34780269861221313,0.17217756807804108,0.06073769927024841,-1.5763193655246235,-0.5102539805323856,2.901177498001524
1686938904.810484,-0.870564341545105,0.4920204281806946,0.005773025099188089,-0.0021161437034606934,0.021071553230285645,-0.038991451263427734,-0.555535078048706,0.268964946269989,0.11238198727369308,-1.5774275889103389,-0.5144089947101689,2.876895226007663
1686938904.8140578,-0.8673394322395325,0.4976814389228821,0.005969271995127201,0.011733293533325195,0.046324968338012695,-0.08136296272277832,-0.6995442509651184,0.45421457290649414,0.15765446424484253,-1.5776784972247349,-0.5209236012158559,2.8407979597506996
1686938904.885549,-0.861998438835144,0.5069057941436768,0.00219594850204885,0.012190937995910645,0.12221395969390869,-0.11317312717437744,-0.8430010080337524,0.5856730341911316,0.3141098618507385,-1.5733438299795026,-0.5315914032475474,2.7967500881868568
1686938904.890396,-0.8505460023880005,0.5259008407592773,-6.287800351856276e-05,0.006246626377105713,0.16158396005630493,-0.12739384174346924,-1.0526336431503296,0.7025629281997681,0.5693269968032837,-1.5707224001596751,-0.5537738862974517,2.7385918432083747
1686938905.006125,-0.8320448994636536,0.5546978712081909,-0.0033542357850819826,-0.010118067264556885,0.19788074493408203,-0.12822234630584717,-1.0793797969818115,0.8178786635398865,0.7840679287910461,-1.5667650326950326,-0.5879998356226648,2.6749173975659337
1686938905.0179381,-0.8059850335121155,0.5918797254562378,-0.00814664363861084,-0.01286250352859497,0.25499826669692993,-0.11399996280670166,-1.0005714893341064,0.865098774433136,1.0226801633834839,-1.5606889844675482,-0.6333889207853798,2.6113485170460367
1686938905.09543,-0.7700771689414978,0.637811541557312,-0.0133171072229743,-0.023944318294525146,0.26956748962402344,-0.08253860473632812,-0.8186061978340149,0.8178092837333679,1.284918189048767,-1.5535048388488193,-0.6916534898442075,2.5542242811610665
1686938905.108718,-0.7223954796791077,0.6912674903869629,-0.017146706581115723,-0.09651321172714233,0.2707991600036621,-0.05321156978607178,-0.772357702255249,0.7736536860466003,1.5307703018188477,-1.5470648818890016,-0.7632416280141111,2.5039261880687143
1686938905.1865911,-0.6618821620941162,0.7494552135467529,-0.015135456807911396,-0.11959671974182129,0.22901469469070435,-0.013993620872497559,-0.8007636666297913,0.7207373976707458,1.773943543434143,-1.5479330137140208,-0.8472387825767731,2.4502682118211307
1686938905.192575,-0.587600827217102,0.8091224431991577,-0.006790271494537592,-0.18780499696731567,0.23607409000396729,0.0017701387405395508,-0.704057514667511,0.57320237159729,2.006082534790039,-1.5592409158591,-0.9426571707177799,2.3942092919391498
1686938905.276902,-0.4995448589324951,0.8662724494934082,0.005216188728809357,-0.20521283149719238,0.22155725955963135,0.026003360748291016,-0.5587412714958191,0.4417736828327179,2.185354709625244,-1.5812378298375596,-1.0476918356090192,2.337752098530378
1686938905.289246,-0.3981809616088867,0.9170271158218384,0.022650981321930885,-0.282193124294281,0.15166789293289185,0.047875046730041504,-0.6047199964523315,0.2602868974208832,2.34244966506958,-1.627621232636818,-1.1605612692818417,2.2659964486143696
1686938905.3649158,-0.2858889698982239,0.9573252201080322,0.04238029569387436,-0.32521024346351624,0.08971762657165527,0.06687271595001221,-0.33241814374923706,0.02415555529296398,2.431195020675659,-1.717964942438689,-1.277600911134648,2.1625639495259708
1686938905.3781018,-0.16709254682064056,0.9842274188995361,0.05810714140534401,-0.33727145195007324,-0.009022951126098633,0.10037064552307129,-0.3575635552406311,-0.13311728835105896,2.4268548488616943,-1.9054690704205282,-1.392952367913097,1.9731867268117262
1686938905.421558,-0.04673780873417854,0.9962598085403442,0.0726747065782547,-0.30895981192588806,0.0015122294425964355,0.06633280217647552,-0.1264358013868332,-0.26042041182518005,2.4013779163360596,-2.5700764587567484,-1.4842798426079185,1.3137934082162328
1686938905.4859328,0.07365545630455017,0.9945128560066223,0.07428896427154541,-0.30162176489830017,-0.026312291622161865,0.07002865523099899,-0.07241134345531464,-0.360029935836792,2.372370481491089,2.360476532809191,-1.4659899336287705,-0.027292844806549282
1686938905.576343,0.19211439788341522,0.9780026078224182,0.08125846087932587,-0.2979188561439514,-0.0005093812942504883,0.05060803145170212,-0.14495867490768433,-0.4603537619113922,2.3898746967315674,1.970945555474395,-1.3606605458026053,-0.40070506817165336
1686938905.589194,0.3117257356643677,0.9474848508834839,0.07141081988811493,-0.2850075960159302,0.008340954780578613,0.0446321964263916,0.164777472615242,-0.5328564643859863,2.455444097518921,1.7959928577356081,-1.2452772085888506,-0.5559924577160841
1686938905.631493,0.4268006384372711,0.9020229578018188,0.06477367132902145,-0.2742128074169159,0.0271303653717041,0.020004145801067352,-0.3205796182155609,-0.482058584690094,2.4320058822631836,1.7214126098662468,-1.124432962999485,-0.6089874574566405
1686938905.723425,0.5351847410202026,0.8420838117599487,0.06687366217374802,-0.2704753279685974,0.052950918674468994,-0.01160634309053421,-0.14455804228782654,-0.46731558442115784,2.464322328567505,1.6951063739195416,-1.0011351972237905,-0.6118514562491095
1686938905.7377682,0.6363919973373413,0.7693079113960266,0.056305550038814545,-0.2524961829185486,0.06907087564468384,-0.0014045313000679016,-0.16456595063209534,-0.44464048743247986,2.449244499206543,1.6590427482745291,-0.8777571135055768,-0.6281922182302528
1686938905.783475,0.7276250123977661,0.6842037439346313,0.04926855489611626,-0.25338178873062134,0.08299291133880615,-0.001416914165019989,-0.10902564227581024,-0.466005802154541,2.512929677963257,1.6384045928993904,-0.7535113078630424,-0.6258643803514832
1686938905.904626,0.8096389770507812,0.5860146284103394,0.0327330008149147,-0.254005491733551,0.09084993600845337,0.03368842229247093,-0.16631187498569489,-0.5271549820899963,2.576292037963867,1.6112034529827188,-0.6261316566635862,-0.6287556686831304
1686938905.9103432,0.8800897002220154,0.47453925013542175,0.01595517434179783,-0.29297733306884766,0.10251760482788086,0.023565053939819336,-0.27103322744369507,-0.5644717812538147,2.6753175258636475,1.5889233726504965,-0.4944405144270012,-0.6191777823101259
1686938906.0245872,0.9369543194770813,0.34936684370040894,-0.007699680048972368,-0.2895087003707886,0.13883811235427856,0.040628135204315186,-0.11158885806798935,-0.6390413045883179,2.8200809955596924,1.5625787367275719,-0.35689527878337507,-0.6095040611707717
1686938906.037221,0.9767229557037354,0.21105240285396576,-0.03832732141017914,-0.2878803014755249,0.15857642889022827,0.05482209101319313,-0.097388356924057,-0.7080714106559753,2.9352848529815674,1.5315757187674877,-0.21265148348586663,-0.6008885622053894
1686938906.116317,0.9953468441963196,0.06206360459327698,-0.07370593398809433,-0.25901883840560913,0.19533687829971313,0.051382310688495636,-0.11756131798028946,-0.7895418405532837,3.051912307739258,1.496880727359848,-0.062103518697879646,-0.5870478617221956
1686938906.122057,0.9890824556350708,-0.09495698660612106,-0.11268891394138336,-0.23941832780838013,0.22445832192897797,0.05584993213415146,-0.16204552352428436,-0.8082153797149658,3.2608582973480225,1.4573527139325098,0.0951002708813965,-0.5631369647684417
1686938906.20737,0.9536769390106201,-0.25883254408836365,-0.1533169150352478,-0.2495906949043274,0.24288704991340637,0.05511128902435303,0.006020891480147839,-0.8584464192390442,3.4707634449005127,1.4113962358706214,0.26181334975814124,-0.5376784975581266
1686938906.22078,0.8852246999740601,-0.4230695366859436,-0.19336308538913727,-0.2568068504333496,0.2240338921546936,0.026630297303199768,0.034952834248542786,-0.8044498562812805,3.6468605995178223,1.3557403177609466,0.43683028697187676,-0.5018141150764331
1686938906.295006,0.7853794097900391,-0.5767211318016052,-0.22488167881965637,-0.23884016275405884,0.0854339599609375,-0.014650821685791016,-0.15613380074501038,-0.6320367455482483,3.656759738922119,1.291922812183009,0.6147094176628416,-0.448622801924494
1686938906.308501,0.6617394089698792,-0.7052897810935974,-0.2542974352836609,-0.2110254168510437,0.05167961120605469,0.027246683835983276,-0.25227922201156616,-0.5627200603485107,3.497987985610962,1.2039091434756894,0.782831832095226,-0.3590020131927128
1686938906.386543,0.5283973217010498,-0.8015527725219727,-0.2798382341861725,-0.22743302583694458,-0.016455650329589844,-0.04032164812088013,0.19940133392810822,-0.5529397130012512,3.1148908138275146,1.0837515438044218,0.9298876464141411,-0.23720451483263333
1686938906.3915648,0.40171828866004944,-0.8774915933609009,-0.2619749903678894,-0.2511446177959442,-0.22060716152191162,-0.1341736912727356,0.8752567768096924,-0.26290571689605713,2.597823143005371,0.9929209248634382,1.0706066076853977,-0.150423504184853
1686938906.4421449,0.29813510179519653,-0.9287554621696472,-0.22029252350330353,-0.17929968237876892,-0.20712405443191528,0.014451444149017334,0.7892699241638184,-0.2947664260864258,1.8986819982528687,0.9344360513804374,1.1910412377560387,-0.09892063201842001
1686938906.536485,0.21259260177612305,-0.9602378606796265,-0.18096241354942322,-0.09775501489639282,-0.042432308197021484,-0.08949963748455048,1.082030177116394,-0.15080006420612335,1.6615136861801147,0.8655962085291607,1.2878529664377756,-0.03924111505024303
1686938906.542388,0.1419960856437683,-0.979256272315979,-0.14454899728298187,-0.1146828830242157,-0.113730788230896,0.051714539527893066,0.27891334891319275,-0.1538853645324707,1.1473453044891357,0.7764891283688549,1.3667578192207177,0.043583212421310025
1686938906.6234689,0.0972316563129425,-0.9859314560890198,-0.13596045970916748,-0.0926998108625412,-0.1612091064453125,-0.07242883741855621,0.33391374349594116,-0.09846837818622589,0.6042445302009583,0.6208192516250899,1.4028580886860929,0.19625985974485838
1686938906.637124,0.08378144353628159,-0.9891456365585327,-0.12071265280246735,-0.08748935163021088,-0.248357355594635,0.05110204219818115,0.15342210233211517,-0.17751573026180267,0.06787334382534027,0.6067261467791377,1.4233240827102374,0.20375708735493905
1686938906.7204819,0.08484109491109848,-0.9899254441261292,-0.11335602402687073,0.01626361906528473,0.02157217264175415,0.01203763484954834,0.119202621281147,-0.18155495822429657,-0.041575126349925995,0.6425071464871415,1.428729111303772,0.15851549094497944
1686938906.8067799,0.08496555685997009,-0.9900896549224854,-0.11181847006082535,0.02463829517364502,0.021095573902130127,0.006120860576629639,-0.008457141928374767,-0.17924782633781433,-0.02522418089210987,0.6497770144995876,1.4298936547754326,0.14186275267508408
1686938906.820403,0.09055226296186447,-0.9894351363182068,-0.11321788281202316,-0.02092643827199936,-0.12337303161621094,0.02583075314760208,-0.15387845039367676,-0.135864719748497,-0.18804505467414856,0.6746222004174602,1.4253073129547562,0.10953202304652948
1686938906.897338,0.09548794478178024,-0.9882383346557617,-0.1194441020488739,0.03251799941062927,-0.020260751247406006,0.024900615215301514,-0.1862274408340454,-0.022942766547203064,-0.07559763640165329,0.6743970793686132,1.4172726138801623,0.10631205903369025
1686938906.909974,0.0983676090836525,-0.9871143102645874,-0.1262093037366867,0.004568129777908325,-0.013434827327728271,-0.0010337680578231812,-0.11388439685106277,-0.05587942525744438,-0.03992023691534996,0.6620535052009625,1.4100888945406962,0.11667719112208895
1686938907.0193071,0.09921856969594955,-0.9865904450416565,-0.12959618866443634,0.008126989006996155,0.03013896942138672,-0.014401033520698547,-0.07084790617227554,-0.025971660390496254,-0.006821038667112589,0.6534092815616882,1.4068472925136035,0.12349024943889997
1686938907.0244641,0.09921205043792725,-0.986280083656311,-0.13194146752357483,-0.0005945116281509399,-0.01881629228591919,0.007338166236877441,-0.03189169988036156,-0.017767032608389854,0.0065826838836073875,0.6447414928410278,1.4049566605982136,0.13136658875458007
1686938907.10569,0.09919564425945282,-0.9859113693237305,-0.1346806436777115,0.017183110117912292,0.014994680881500244,-0.007134556770324707,-0.04011151194572449,-0.005049520172178745,0.00456191087141633,0.6348211156794614,1.4027378853705215,0.14097779591532547
1686938907.111247,0.09913292527198792,-0.9859169125556946,-0.13468721508979797,0.006351053714752197,-0.02038496732711792,0.0033090710639953613,-0.020685916766524315,0.00873594731092453,0.011882906779646873,0.634495836132805,1.4027707718789815,0.14109762852048344
1686938907.227313,0.09888170659542084,-0.9857244491577148,-0.13627132773399353,0.004633888602256775,0.028250694274902344,-0.010319888591766357,-0.0035479916259646416,0.03856247290968895,0.01521765161305666,0.6277168561814083,1.4016240212423576,0.14917566883767397
1686938907.241105,0.09829520434141159,-0.98558509349823,-0.1376957893371582,0.005937561392784119,-0.01378929615020752,0.008728504180908203,-0.044484712183475494,0.014494460076093674,0.020054051652550697,0.6199660245629478,1.4007981296316154,0.15816021757158988
1686938907.317265,0.09758367389440536,-0.9853653311729431,-0.13975860178470612,0.005138464272022247,0.010038912296295166,-0.018978580832481384,-0.02379254251718521,0.026716971769928932,0.023345286026597023,0.6095371849678769,1.3995041577198002,0.16992256002661202
1686938907.3227181,0.09705829620361328,-0.9853067994117737,-0.14053577184677124,-0.0008821636438369751,-0.011794090270996094,6.334483623504639e-05,-0.0657481849193573,0.003369903890416026,-0.009606638923287392,0.6044100245299617,1.399161005862936,0.17589800293083374
1686938907.406849,0.10008573532104492,-0.983870804309845,-0.14825983345508575,-0.02356293797492981,-0.053604722023010254,-0.0053809285163879395,-0.2255427986383438,0.07290054112672806,-0.11393271386623383,0.5937976025578935,1.3909477989073007,0.18784411772662127
1686938907.420213,0.11407678574323654,-0.9797330498695374,-0.16464932262897491,-0.06355496495962143,-0.1143372654914856,-0.043648406863212585,-0.37527087330818176,0.40725624561309814,-0.464023232460022,0.6059091448198819,1.3691243772695638,0.18610409429777022
1686938907.501042,0.1582595705986023,-0.9708982706069946,-0.17975082993507385,-0.16324923932552338,-0.3016999363899231,-0.11764298379421234,-0.7670997381210327,0.8127989768981934,-1.129808783531189,0.7219019674291647,1.3289533662847852,0.09984942548604564
1686938907.506639,0.23988205194473267,-0.9435101747512817,-0.22857187688350677,-0.23011647164821625,-0.2854631543159485,-0.04010486602783203,-1.2613571882247925,1.0156629085540771,-1.7977358102798462,0.8095371086344457,1.2330691506523808,0.05674342003172325
1686938907.587335,0.35063889622688293,-0.8977123498916626,-0.26676762104034424,-0.22046619653701782,-0.2783740758895874,-0.02734553813934326,-1.0662473440170288,0.953259289264679,-2.4320011138916016,0.9204161875715845,1.114549417728346,-0.010053561184567454
1686938907.592479,0.4801516830921173,-0.8286510705947876,-0.2877357602119446,-0.2554812431335449,-0.26557207107543945,-0.026442736387252808,-0.7997285723686218,0.964095950126648,-2.850116491317749,1.0309210143490435,0.9766935686608319,-0.0827998728588632
1686938907.676307,0.6117613911628723,-0.7369616031646729,-0.28746381402015686,-0.25867313146591187,-0.16991394758224487,-0.011165887117385864,-0.5865013003349304,1.0689877271652222,-3.0848586559295654,1.1315211734785995,0.8285641748432488,-0.14743387116901732
1686938907.689907,0.7347761988639832,-0.6249452233314514,-0.26371875405311584,-0.28624415397644043,-0.09864187240600586,-0.08058059215545654,-0.5023565888404846,1.2875027656555176,-3.1509957313537598,1.2262057605154488,0.6750613333764693,-0.19884764980200625
1686938907.733916,0.8401433229446411,-0.49336111545562744,-0.22528645396232605,-0.2859136462211609,-0.05272039771080017,0.020498216152191162,-0.4117576479911804,1.399903416633606,-3.1868321895599365,1.3088073528845592,0.5159496787253246,-0.22653014624555565
1686938907.859426,0.9222018122673035,-0.35141807794570923,-0.16139739751815796,-0.34999722242355347,0.03177696466445923,-0.08243805170059204,0.04269075393676758,1.6066380739212036,-3.1901309490203857,1.3975379443212135,0.35908537559026177,-0.2579344750618526
1686938907.872515,0.9754565358161926,-0.2022111862897873,-0.08715017884969711,-0.3768237829208374,0.0414598286151886,0.03173023462295532,0.3464335799217224,1.490767002105713,-3.094609022140503,1.4816899486240795,0.20361522060710702,-0.2843161672731424
1686938907.9498038,0.9986004829406738,-0.051878154277801514,-0.010276570916175842,-0.3637128472328186,-0.053651656955480576,-0.04273247718811035,0.46448007225990295,1.504843831062317,-3.011446714401245,1.5605057169066072,0.05190145339656589,-0.31069236152174723
1686938907.954527,0.9932928085327148,0.09905518591403961,0.05964479595422745,-0.37457942962646484,0.02122977375984192,0.02557551860809326,0.7683244943618774,1.3196462392807007,-2.9849820137023926,1.6307718592658007,-0.09921789551031224,-0.3396155241538588
1686938908.035987,0.9617810249328613,0.24917754530906677,0.1135241761803627,-0.3678022027015686,-0.10331885516643524,-0.02357364445924759,0.9142155647277832,1.1659475564956665,-2.9421582221984863,1.6882880615585358,-0.25183092674730323,-0.3698449921305127
1686938908.0415878,0.906319797039032,0.39248672127723694,0.15664760768413544,-0.3528072237968445,-0.11059588193893433,0.007277488708496094,0.16228990256786346,1.0480071306228638,-2.9976260662078857,1.741944653165129,-0.4033336964883282,-0.3795313753692388
1686938908.124804,0.8317716717720032,0.5177006721496582,0.20035375654697418,-0.3684386610984802,0.022811293601989746,0.018945559859275818,0.23754215240478516,1.057187557220459,-2.682720899581909,1.8071693460513911,-0.5441612534272687,-0.352346977055233
1686938908.137502,0.7465570569038391,0.624253511428833,0.23013050854206085,-0.2461146116256714,-0.05066037178039551,0.039888978004455566,0.36849963665008545,0.9228947758674622,-2.556182861328125,1.8698098768162177,-0.6741756058580125,-0.3313110836997973
1686938908.183357,0.6480575799942017,0.7209344506263733,0.24550983309745789,-0.2739272713661194,-0.03776794672012329,0.0024607479572296143,0.5485146641731262,0.8242067694664001,-2.624912977218628,1.9329289130673881,-0.8051497777428592,-0.30106830738354856
1686938908.303759,0.5353476405143738,0.8079884052276611,0.2460852861404419,-0.23993748426437378,-0.05795776844024658,0.04067316651344299,0.7528518438339233,0.8189334869384766,-2.772463798522949,2.0016657908071553,-0.9407299086369239,-0.26572456120020643
1686938908.395327,0.4098508059978485,0.8845726251602173,0.22260567545890808,-0.2848661243915558,0.09499567747116089,0.0008134543895721436,0.8973848819732666,0.6107791066169739,-2.595200538635254,2.068356202305528,-1.0855769535202817,-0.22699133752358996
1686938908.408674,0.29109349846839905,0.9348774552345276,0.20314660668373108,-0.24347081780433655,-0.02116602659225464,0.11887487769126892,0.4288487136363983,0.407545268535614,-2.429370403289795,2.1800940722693007,-1.2079136133860593,-0.13311360949788745
1686938908.45752,0.17101122438907623,0.9700007438659668,0.17278189957141876,-0.06618332862854004,0.18756145238876343,-0.0006475448608398438,0.9250401854515076,0.3100765645503998,-2.4266040325164795,2.361344854146649,-1.3252338025967245,0.03739364187946251
1686938908.467455,0.05021611973643303,0.9888612031936646,0.14011314511299133,-0.23541203141212463,0.1338498592376709,0.04718850553035736,0.4296312928199768,0.31863513588905334,-2.329347848892212,2.797456931468651,-1.4214004885266451,0.46691667656194896
1686938908.470478,-0.06237209215760231,0.9907979965209961,0.12012074142694473,-0.1329556405544281,0.18675321340560913,0.015590906143188477,0.3606082797050476,0.24520213901996613,-2.115692377090454,-2.662667866890647,-1.4350306699930606,1.2847587951034833
1686938908.510828,-0.16726122796535492,0.9801153540611267,0.10675989091396332,-0.04259286820888519,0.14767706394195557,0.09003271162509918,0.34674274921417236,0.08480323106050491,-2.071794033050537,-2.1388900345381128,-1.3710419721613294,1.8046295467439724
1686938908.574431,-0.26203981041908264,0.9617377519607544,0.07997201383113861,-0.14045649766921997,0.24575120210647583,-0.058670759201049805,0.4986647665500641,0.038417208939790726,-1.8358569145202637,-1.8670080468987997,-1.2932760684492048,2.0822649693627175
1686938908.63662,-0.3480798006057739,0.9352265000343323,0.06474541127681732,-0.10599121451377869,0.10862737894058228,0.04742193967103958,0.6991592645645142,-0.16647428274154663,-1.7788331508636475,-1.754701952455453,-1.2088982393676289,2.2029497757299548
1686938908.7259421,-0.4245002865791321,0.9050770998001099,0.0251949280500412,-0.021803975105285645,0.22038060426712036,-0.08359026908874512,0.5991505980491638,-0.11335986852645874,-1.513161063194275,-1.6300787530177339,-1.1315609785161906,2.347660488128472
1686938908.740334,-0.4929203391075134,0.8700169324874878,0.010010353289544582,-0.11431846022605896,0.27573513984680176,0.024779677391052246,0.7819425463676453,-0.17115287482738495,-1.4799046516418457,-1.5911017941312426,-1.0552366038832586,2.39966424383952
1686938908.784425,-0.5490636825561523,0.8357689380645752,-0.004383066203445196,0.030676960945129395,0.11052006483078003,0.05263131856918335,0.021428463980555534,-0.10867039114236832,-1.2637289762496948,-1.5628136952707758,-0.9895317103362845,2.4390907322937716
1686938908.875595,-0.5990857481956482,0.8005424737930298,-0.015107791870832443,-0.05713379383087158,0.30785608291625977,0.014085467904806137,0.687441349029541,-0.28677424788475037,-1.1052736043930054,-1.5455835914593121,-0.9281998852984749,2.473617964657419
1686938908.88976,-0.6404796838760376,0.7676095962524414,-0.02369455061852932,-0.012245595455169678,0.049605488777160645,0.046887870877981186,0.31439274549484253,-0.28100836277008057,-1.0574464797973633,-1.533818183600566,-0.8751031502022332,2.5074368057000522
1686938908.931531,-0.6814751625061035,0.7312920093536377,-0.028342530131340027,-0.037732481956481934,0.039871811866760254,0.02562648430466652,0.4133600890636444,-0.3332708179950714,-1.0971266031265259,-1.5292303123473556,-0.8202143341279938,2.533641326070905
1686938908.9962091,-0.721018373966217,0.6922248601913452,-0.03093758597970009,-0.026372313499450684,0.049932122230529785,0.019173085689544678,0.6628340482711792,-0.47823530435562134,-1.0774022340774536,-1.5279144513907792,-0.7645674250344706,2.5646376297745563
1686938909.0864859,-0.7585238218307495,0.6506191492080688,-0.03655591234564781,-0.01611912250518799,0.07601964473724365,0.024028420448303223,0.789184033870697,-0.5779956579208374,-1.08317232131958,-1.5226400902776498,-0.708399440384312,2.612536695824371
1686938909.091731,-0.7926895022392273,0.6084365248680115,-0.03805800899863243,0.00960850715637207,0.12725073099136353,-0.024472534656524658,0.8441277742385864,-0.6282429695129395,-0.9828458428382874,-1.5228219232111846,-0.6540890380148434,2.660494168652856
1686938909.1695008,-0.8208041191101074,0.5698871612548828,-0.038847677409648895,0.03334391117095947,0.1833782196044922,-0.05203366279602051,0.8649194240570068,-0.6296886205673218,-0.8370994329452515,-1.523502813554914,-0.6063685511379358,2.7130628078944907
1686938909.172536,-0.8419798612594604,0.5382811427116394,-0.03637723997235298,0.00834643840789795,0.22824406623840332,-0.0857083797454834,0.6110432147979736,-0.49024611711502075,-0.6133731603622437,-1.5276187716884264,-0.5683962639249507,2.7570030891903703
1686938909.231379,-0.8559399843215942,0.5160467028617859,-0.03259406238794327,0.01841568946838379,0.24818968772888184,-0.11645382642745972,0.6170318722724915,-0.4380931854248047,-0.3425176739692688,-1.5327348707212327,-0.5422291937511395,2.7919109190164777
1686938909.326798,-0.8629770278930664,0.5043968558311462,-0.029228325933218002,0.022309422492980957,0.13010936975479126,-0.0849226713180542,0.30415910482406616,-0.28006720542907715,-0.18611453473567963,-1.5369400878014703,-0.5286832967231408,2.819675904607997
1686938909.414705,-0.8664147257804871,0.4986168146133423,-0.02658412605524063,0.013860464096069336,0.07374036312103271,-0.08047151565551758,0.18591992557048798,-0.1494968831539154,-0.07611575722694397,-1.5401230381533917,-0.5220023515802588,2.832946607612757
1686938909.420496,-0.8668151497840881,0.49811694025993347,-0.022607216611504555,-0.00993955135345459,0.006308108568191528,-0.04302084445953369,-0.22375953197479248,-0.0524156354367733,0.012400958687067032,-1.5447214570700445,-0.5214257558322055,2.8328770850570093
1686938909.533163,-0.8658512234687805,0.4999558627605438,-0.018591376021504402,0.004294335842132568,0.03196549415588379,-0.06452322006225586,-0.0371655598282814,-0.01587379164993763,0.0595787912607193,-1.5493278356957336,-0.5235477998778209,2.8265815401875294
1686938909.5393782,-0.8649239540100098,0.5015280246734619,-0.019392240792512894,0.006601929664611816,0.00785607099533081,-0.02298140339553356,-0.06386587768793106,0.022037876769900322,0.038016438484191895,-1.5483793347896848,-0.5253640832659344,2.8246952719021565
1686938909.625022,-0.8642020225524902,0.5026083588600159,-0.02323111519217491,-0.00425189733505249,-0.0012808442115783691,0.004355907440185547,-0.051528360694646835,0.036444418132305145,0.02409093640744686,-1.5439212202123542,-0.5266132925675141,2.8220049109897913
1686938909.639096,-0.863580584526062,0.503543496131897,-0.025930039584636688,-0.013616561889648438,-0.010425269603729248,0.011861447244882584,-0.10239578783512115,0.04389031231403351,0.02842819318175316,-1.5407791490904448,-0.5276952863580342,2.8209188429701344
1686938909.715987,-0.8631309270858765,0.5042762756347656,-0.026655860245227814,0.003832221031188965,0.02106863260269165,0.012587185949087143,0.03866775706410408,0.024993959814310074,0.024694841355085373,-1.5399233870817362,-0.5285436973142226,2.82007808320715
1686938909.7215018,-0.8627331852912903,0.5050082802772522,-0.025657672435045242,0.0012676715850830078,0.004879474639892578,0.02561187371611595,0.052637044340372086,-0.002015327336266637,0.021222244948148727,-1.5410651046432098,-0.5293915536816955,2.8187059665862297
1686938909.804185,-0.8619047403335571,0.5065076947212219,-0.023879418149590492,-0.012194991111755371,-0.0006025433540344238,0.020629286766052246,0.01042503397911787,-0.0372178815305233,0.03753693774342537,-1.543098008392112,-0.5311296538312459,2.8203419224190154
1686938909.810283,-0.8613522052764893,0.5075870156288147,-0.020684808492660522,0.017602205276489258,0.008312702178955078,0.01406240276992321,0.04779661446809769,-0.03586752712726593,0.014747003093361855,-1.5467865975227069,-0.5323819067600583,2.8209346485407445
1686938909.8953981,-0.861116886138916,0.5081039667129517,-0.017552752047777176,0.006807863712310791,0.0012801885604858398,0.008641600608825684,0.044783927500247955,-0.07488264888525009,0.016670938581228256,-1.5504154440327467,-0.5329820177748602,2.820911593236911
1686938909.9096441,-0.8604930639266968,0.5092724561691284,-0.013898375444114208,-0.006862163543701172,-0.016505122184753418,0.007367612794041634,-0.013930301181972027,-0.07577326148748398,0.01771329902112484,-1.5546460897820455,-0.5343391769860422,2.8211148251868616
1686938910.015146,-0.8601177334785461,0.5099789500236511,-0.010913543403148651,-0.001973390579223633,0.0009464025497436523,-0.013592124916613102,-0.06113066524267197,-0.05621516704559326,0.01871291734278202,-1.5581085775230588,-0.5351603383547523,2.821230800566599
1686938910.019669,-0.8598780035972595,0.5104302167892456,-0.00838522706180811,0.012618720531463623,0.014197349548339844,-0.025001047179102898,0.07661262154579163,-0.05874384194612503,0.0178922638297081,-1.5610449892455003,-0.5356850030087912,2.8210722017892227
1686938910.134918,-0.8597586154937744,0.510644257068634,-0.007575712166726589,-0.012418389320373535,-0.021951019763946533,-0.006203055381774902,-0.035830963402986526,-0.015190545469522476,-0.0030231052078306675,-1.5619851142431114,-0.5359339565260632,2.8208955108395832
1686938910.1402469,-0.8596823811531067,0.5107611417770386,-0.00831795483827591,-0.003812432289123535,-0.0023382902145385742,-0.008420944213867188,-0.02051582746207714,-0.017241045832633972,0.005591222085058689,-1.5611210152205444,-0.5360698870157885,2.822681769307878
1686938910.2242398,-0.8598071932792664,0.5105525851249695,-0.008225950412452221,0.006734132766723633,0.000967860221862793,-0.004911899566650391,0.0320516936480999,0.0008464655838906765,0.0012111547403037548,-1.5612294148454593,-0.5358273145521231,2.821555518075513
1686938910.237608,-0.8596814870834351,0.5107582211494446,-0.0086054103448987,-0.011061370372772217,-0.01904362440109253,-0.0011144885793328285,-0.07228151708841324,0.013859734870493412,0.013123208656907082,-1.5607866621662927,-0.5360664704382389,2.821121624626896
1686938910.318933,-0.8595319986343384,0.5110036134719849,-0.008947264403104782,0.0019881129264831543,0.007703661918640137,-0.003976941108703613,0.0327276885509491,0.00540543720126152,0.008587079122662544,-1.560387242650444,-0.5363519405914272,2.8206727813400168
1686938910.324963,-0.8594403862953186,0.5111606121063232,-0.008777322247624397,0.003300309181213379,-0.005270719528198242,0.001315772533416748,-0.01990823820233345,0.01780223846435547,0.008722234517335892,-1.56058384811502,-0.5365345764854876,2.8188187896795314
1686938910.3298779,-0.859209418296814,0.5115386843681335,-0.00934462808072567,-0.011441707611083984,0.002590954303741455,0.004614354111254215,-0.042463891208171844,0.019496049731969833,0.011438891291618347,-1.5599209108058865,-0.5369745262763498,2.818478498234849
1686938910.3706641,-0.8589946627616882,0.5119055509567261,-0.008993016555905342,0.005570650100708008,0.004757046699523926,0.0009973645210266113,-0.06639464944601059,0.036457136273384094,0.006198722869157791,-1.5603274747624551,-0.5374015604902291,2.815042552433841
1686938910.4355202,-0.8587191104888916,0.5123680233955383,-0.008969427086412907,0.014801323413848877,0.01219862699508667,0.0028506526723504066,-0.07447903603315353,0.046170059591531754,0.02975052036345005,-1.560351582600626,-0.537939997370207,2.8120567491130743
1686938910.52339,-0.8574987649917603,0.5144403576850891,-0.0068381428718566895,0.009613752365112305,0.006601452827453613,-0.01139611005783081,-0.26162177324295044,0.1266268491744995,0.05590309575200081,-1.5628219737650946,-0.5403549303732066,2.798529643883876
1686938910.616471,-0.8543639779090881,0.519652783870697,-0.004808122757822275,0.00704348087310791,0.04057365655899048,-0.044752418994903564,-0.5662021040916443,0.21654514968395233,0.18621909618377686,-1.565168664333422,-0.5464444877570764,2.778350385251013
1686938910.622164,-0.8473677635192871,0.5310044884681702,0.0014452524483203888,0.030641138553619385,0.1323103904724121,-0.08478879928588867,-0.8185664415359497,0.38518646359443665,0.36318933963775635,-1.5725019038357113,-0.5597855233844204,2.7332058649862754
1686938910.704818,-0.8323094248771667,0.5543001890182495,0.0034823522437363863,0.0241582989692688,0.3035641312599182,-0.21048307418823242,-1.050957202911377,0.6269700527191162,0.7508109211921692,-1.574980266035999,-0.5875219372656849,2.6844566432989914
1686938910.710571,-0.8062674403190613,0.591489315032959,0.008553008548915386,0.013420820236206055,0.426455020904541,-0.17455339431762695,-1.1766419410705566,0.7744580507278442,1.1137456893920898,-1.5814040814968129,-0.6329046688281486,2.610146548113118
1686938910.822836,-0.7643429040908813,0.644711434841156,0.011272852309048176,-0.0071413516998291016,0.5135069489479065,-0.16602754592895508,-1.1126768589019775,0.8309221863746643,1.6176437139511108,-1.5855436794003732,-0.7006457568812764,2.538795843880786
1686938910.83745,-0.7020285725593567,0.7119014263153076,0.018762867897748947,-0.06609880924224854,0.4854404330253601,-0.10035169124603271,-1.108204960823059,0.8290362358093262,2.084531307220459,-1.5975166107793954,-0.7922019868052786,2.45836359508013
1686938910.913609,-0.6169040203094482,0.7863256931304932,0.033489685505628586,-0.20292019844055176,0.44128966331481934,-0.030865192413330078,-0.9396790862083435,0.6265727281570435,2.4862825870513916,-1.6250297982731876,-0.9048389802008547,2.3725286436564805
1686938910.928395,-0.5078897476196289,0.8595730066299438,0.056412603706121445,-0.3381338119506836,0.35411107540130615,0.0066214799880981445,-0.9134881496429443,0.4488013982772827,2.826409101486206,-1.6814154488270001,-1.0344334869271918,2.271928430985527
1686938911.065377,-0.37788206338882446,0.9217334985733032,0.08724962919950485,-0.42636290192604065,0.2744640111923218,0.06600964069366455,-0.7953548431396484,0.18078094720840454,3.0364949703216553,-1.797710948074761,-1.1725267392325824,2.1243685298825303
1686938911.0801091,-0.22986890375614166,0.9654728770256042,0.12256573885679245,-0.511815071105957,0.16590523719787598,0.05820512771606445,-0.6390355825424194,-0.14154165983200073,3.174387216567993,-2.060648636143664,-1.3072525774467907,1.8467381756631436
1686938911.124642,-0.07445856928825378,0.9857432246208191,0.1508849412202835,-0.5345959663391113,0.03937268257141113,0.06273806095123291,-0.5291755795478821,-0.3198211193084717,3.080995559692383,-2.6831753357288393,-1.4017354202284853,1.222441193484472
1686938911.135534,0.07986123114824295,0.9818515181541443,0.17201748490333557,-0.5254483819007874,-0.015359759330749512,0.02434791624546051,-0.2759385108947754,-0.48139452934265137,3.042607307434082,2.7069416942951303,-1.3799892960516669,0.3368939839937535
1686938911.13852,0.23191428184509277,0.9555448293685913,0.18206988275051117,-0.501186192035675,-0.05465090274810791,0.050428226590156555,-0.34182366728782654,-0.5836650729179382,3.0129189491271973,2.2363695946210576,-1.2715021205990424,-0.11910759219833769
1686938911.2124581,0.37829479575157166,0.9063190221786499,0.18835751712322235,-0.47167864441871643,-0.02990013360977173,0.029156416654586792,-0.3030402660369873,-0.674658477306366,3.0177433490753174,2.032772130621832,-1.1344905994505865,-0.30326983889733833
1686938911.306728,0.5188929438591003,0.8343257308006287,0.18614664673805237,-0.43402355909347534,0.006631791591644287,0.045908913016319275,-0.3890202045440674,-0.7560408115386963,3.090472936630249,1.9152343293856327,-0.9869085324240503,-0.39708150386118357
1686938911.31916,0.648751437664032,0.7405275702476501,0.1753304898738861,-0.4155818223953247,0.08443892002105713,0.022072449326515198,-0.22236475348472595,-0.8027032613754272,3.1305172443389893,1.8347489271086275,-0.8338550320772289,-0.44875208068544004
1686938911.394907,0.7630031108856201,0.6276262998580933,0.1546330600976944,-0.4199855923652649,0.08663755655288696,0.024947628378868103,-0.2528019845485687,-0.7683596014976501,3.1278467178344727,1.7707518590132805,-0.6785004209940367,-0.4838849341829814
1686938911.4098601,0.8579473495483398,0.4974896013736725,0.12818001210689545,-0.3939582109451294,0.11310598254203796,0.016976818442344666,-0.1226157695055008,-0.844251811504364,3.2123124599456787,1.7191024839770417,-0.5207024440890563,-0.5037475160543907
1686938911.487753,0.9329571723937988,0.34861016273498535,0.08978986740112305,-0.4334148168563843,0.15819525718688965,0.04445696622133255,0.006797299720346928,-0.874118447303772,3.396036148071289,1.66674304082127,-0.35608782551333973,-0.5259304377723643
1686938911.493324,0.9819018244743347,0.18320323526859283,0.04801274836063385,-0.43838387727737427,0.14241929352283478,0.041281696408987045,-0.05072777718305588,-0.8552957773208618,3.462862491607666,1.6196551183997883,-0.1842438468986645,-0.5374290276761787
1686938911.544002,0.9999035596847534,0.011684974655508995,0.007501452229917049,-0.4045208692550659,0.07156693935394287,0.04349339008331299,-0.1324196606874466,-0.7992657423019409,3.3982856273651123,1.578298361743036,-0.011685240617574614,-0.5396666506310607
1686938911.6332989,0.9873692989349365,-0.15503855049610138,-0.03263306990265846,-0.397205114364624,0.062234535813331604,0.047312017530202866,-0.3826225996017456,-0.7714585065841675,3.2689642906188965,1.5377578312111053,0.15566648231678476,-0.5222512697118347
1686938911.638929,0.948176920413971,-0.3095409870147705,-0.07172711938619614,-0.3142048716545105,0.016007691621780396,0.015147574245929718,-0.3177109956741333,-0.6956667304039001,3.130272626876831,1.4952927345615292,0.31471026778365974,-0.49821941433568034
1686938911.694374,0.8865770101547241,-0.4484609067440033,-0.11341939121484756,-0.3053087592124939,0.09557092189788818,0.05336082726716995,-0.7944241762161255,-0.6989336609840393,3.0480422973632812,1.4435579044405378,0.46504262229092674,-0.45019286237032596
1686938911.7873402,0.8041250109672546,-0.5728211402893066,-0.15893086791038513,-0.21600556373596191,0.13558053970336914,-0.037754952907562256,-0.3557126820087433,-0.747953474521637,3.019976854324341,1.375666707673013,0.6099434642009953,-0.3890568640348668
1686938911.792983,0.7019447088241577,-0.683953583240509,-0.19869831204414368,-0.19051593542099,0.09502542018890381,0.011640787124633789,-0.2573898434638977,-0.7330589890480042,2.960230827331543,1.2949446364146726,0.7531683744141482,-0.3219113747014192
1686938911.844129,0.5891283750534058,-0.7744739055633545,-0.23047330975532532,-0.12062257528305054,-0.10626339912414551,-0.01316380500793457,-0.3565509617328644,-0.6686491966247559,2.7772278785705566,1.1978898588511406,0.8858830720839928,-0.23585721868494794
1686938911.908772,0.4748809337615967,-0.8409693241119385,-0.2593422830104828,-0.11571967601776123,-0.06337320804595947,-0.037517398595809937,-0.18920160830020905,-0.6913921236991882,2.4349944591522217,1.0709363785587278,0.9990721688233586,-0.12078047778038714
1686938911.995373,0.3665943443775177,-0.886783242225647,-0.2814675271511078,-0.09555253386497498,-0.08468276262283325,-0.05897131562232971,-0.1309508979320526,-0.6357908844947815,2.11370587348938,0.9160063878224898,1.0903380941805292,0.017890623628934583
1686938912.009491,0.27073755860328674,-0.9284816980361938,-0.25421032309532166,-0.06660550832748413,-0.028534233570098877,-0.13722342252731323,1.913598895072937,-0.4181385040283203,1.7779929637908936,0.8168713891548959,1.19030345884422,0.09335862913538506
1686938912.086591,0.18288585543632507,-0.9708315134048462,-0.15504425764083862,-0.017968907952308655,-0.17580533027648926,0.010177329182624817,2.1458916664123535,-0.5300951600074768,1.584223985671997,0.867601153377642,1.3286749279174108,0.016613622092753928
1686938912.092171,0.12447332590818405,-0.9874898195266724,-0.09679849445819855,-0.06592538207769394,-0.2887246608734131,-0.0024294182658195496,0.480011910200119,-0.38855671882629395,0.7921760082244873,0.9098237002787787,1.412452718007152,-0.05308308801664401
1686938912.144154,0.0969088077545166,-0.9924010634422302,-0.07581935822963715,-0.11090116202831268,-0.2758788466453552,-0.028428666293621063,0.19535017013549805,-0.025860939174890518,0.34883594512939453,0.9068930057778649,1.4474384091022252,-0.0618512839837848
1686938912.2656488,0.08138413727283478,-0.9951949715614319,-0.054440565407276154,-0.02648302912712097,0.19441372156143188,-0.05589574575424194,0.458903044462204,-0.09173869341611862,0.13998784124851227,0.9812260960467827,1.4727258300135226,-0.13741135888378492
1686938912.270378,0.0799369364976883,-0.995634138584137,-0.04819367825984955,-0.056697823107242584,-0.19088923931121826,0.044424716383218765,0.02522437646985054,-0.06071208789944649,-0.0788046196103096,1.0282499473064344,1.477318290857209,-0.18940848802214216
1686938912.357545,0.08355769515037537,-0.9953480362892151,-0.04796246439218521,0.031035780906677246,0.010271191596984863,-0.032695472240448,0.0036639815662056208,-0.012853088788688183,-0.04196704179048538,1.049710758481289,1.4743021278975366,-0.2127617722985296
1686938912.3703752,0.08470142632722855,-0.9951785802841187,-0.04944726452231407,0.037551961839199066,-0.0572657585144043,0.06391257047653198,-0.12574739754199982,-0.04537483677268028,-0.002654856536537409,1.0423863418385946,1.472558585104653,-0.20678977724976247
1686938912.4441319,0.0842774361371994,-0.9949522018432617,-0.05447639524936676,0.0021635964512825012,0.008379817008972168,-0.0054143741726875305,-0.09254658222198486,-0.008868653327226639,0.01107693463563919,0.9969605361787206,1.4702770232039701,-0.16265456505547823
1686938912.4590058,0.08487685769796371,-0.9948468804359436,-0.05545523762702942,-0.020637385547161102,0.02245020866394043,-0.005869857966899872,-0.04255072399973869,0.021847128868103027,0.007594052702188492,0.9920619234241512,1.4692328080997363,-0.15665303391500743
1686938912.5691838,0.08495129644870758,-0.994744598865509,-0.057150810956954956,0.009149618446826935,-0.008902132511138916,-0.002724703401327133,-0.056844793260097504,0.020086046308279037,-0.014295900240540504,0.9785954013016087,1.4682294411087748,-0.14257284592029573
1686938912.5740628,0.08483834564685822,-0.9946694374084473,-0.058609962463378906,0.020798206329345703,0.0009560585021972656,0.003815591335296631,-0.004958474542945623,-0.009254851378500462,0.001517684431746602,0.9662425787600805,1.467497442625516,-0.12970531780270578
1686938912.657329,0.08470606803894043,-0.9945761561393738,-0.060357023030519485,0.0019485652446746826,-0.010535478591918945,0.010247111320495605,-0.022460926324129105,0.008774548768997192,0.005450940225273371,0.9516993533643052,1.4665969372731607,-0.11543943460644532
1686938912.672089,0.08544471859931946,-0.9945009350776672,-0.06055722385644913,-0.003032013773918152,0.0024507641792297363,0.001856684684753418,-0.004872974939644337,0.01251533254981041,-0.007650613319128752,0.9542353789074689,1.4658763683605125,-0.11701842439347773
1686938912.74612,0.08612889051437378,-0.9944505095481873,-0.06041332706809044,0.002341531217098236,0.004567205905914307,0.005039159208536148,-0.027500510215759277,0.03000485710799694,-0.01651424542069435,0.959111744416005,1.4653960650537368,-0.12095402999689563
1686938912.7598128,0.0864100530743599,-0.9943144917488098,-0.06222370266914368,0.0023045316338539124,0.009909093379974365,0.0015699900686740875,-0.019123174250125885,0.017950991168618202,-0.006049820221960545,0.9467087394967877,1.4641109201496125,-0.10703900224426714
1686938912.8025799,0.08685242384672165,-0.9942917823791504,-0.06197134777903557,-0.00138796865940094,-0.006684660911560059,0.005574822425842285,-0.035216569900512695,0.014748179353773594,0.013900751248002052,0.9510509530501828,1.4638979388129414,-0.1105328601136797
1686938912.8961549,0.0870669037103653,-0.9941838979721069,-0.06338316947221756,0.008285246789455414,-0.00673145055770874,-0.00401490181684494,-0.03746635094285011,0.020005006343126297,-0.007060423493385315,0.9415360853408239,1.4628913763081208,-0.10016133258186527
1686938912.910903,0.08750251680612564,-0.9938782453536987,-0.06744702905416489,0.0009831711649894714,-0.02469158172607422,0.006884880363941193,-0.19952605664730072,-0.02426776848733425,-0.01527218148112297,0.9141149490920472,1.460089171337316,-0.07261312446220917
1686938912.9510288,0.089361771941185,-0.9926828145980835,-0.08121121674776077,0.00013099610805511475,-0.02123314142227173,0.014362454414367676,-0.3274732232093811,-0.04653794690966606,-0.03728700429201126,0.8331452510013838,1.4497498833851534,0.00711389633356686
1686938913.049152,0.10022301971912384,-0.9898165464401245,-0.10108591616153717,-0.07599208503961563,-0.14420127868652344,-0.08209585398435593,-0.7583157420158386,0.40784886479377747,-0.4368037283420563,0.7811117434833291,1.4279623231437117,0.06767457646170151
1686938913.054332,0.14710718393325806,-0.9778022766113281,-0.14920495450496674,-0.17295561730861664,-0.3585776686668396,-0.06403660774230957,-1.2383232116699219,0.9526592493057251,-1.3078004121780396,0.7783186681533248,1.3597024398130606,0.1065111195721477
1686938913.1031919,0.2441641390323639,-0.9459396004676819,-0.21350015699863434,-0.2664267122745514,-0.49908310174942017,0.019682973623275757,-1.658808708190918,1.120881199836731,-2.2442779541015625,0.8522992193780162,1.2404794005882225,0.0837860106513063
1686938913.195873,0.377797931432724,-0.8870474100112915,-0.26535946130752563,-0.2975825071334839,-0.312247633934021,-0.051763951778411865,-1.2256032228469849,1.0863546133041382,-2.9059133529663086,0.9584717179933812,1.0909099689949777,0.027784287013576235
1686938913.210586,0.5237551927566528,-0.8081715703010559,-0.2693310081958771,-0.33033478260040283,-0.19689428806304932,-0.05015748739242554,-0.15462712943553925,0.9640250205993652,-3.257753849029541,1.0958290388401222,0.941040900308457,-0.07351029807844174
1686938913.255182,0.6646935939788818,-0.7091772556304932,-0.23505336046218872,-0.31427550315856934,-0.14891600608825684,-0.08492347598075867,0.21125689148902893,1.0664061307907104,-3.4472291469573975,1.2308943060568265,0.788330599682771,-0.18477893558065564
1686938913.3790169,0.7901511788368225,-0.5828850269317627,-0.18948858976364136,-0.34996575117111206,-0.07968205213546753,-0.04023246467113495,0.1617591828107834,1.167409896850586,-3.531827211380005,1.3354280961803313,0.6222747648162046,-0.2579727294458491
1686938913.3932319,0.8902214169502258,-0.4356929063796997,-0.1329563558101654,-0.3895196318626404,-0.014242976903915405,-0.04926411807537079,-0.011998504400253296,1.3074901103973389,-3.4634554386138916,1.4225401730997531,0.4508079547740758,-0.3058035615253715
1686938913.467514,0.9587211608886719,-0.2763396203517914,-0.06700844317674637,-0.41352468729019165,0.07266530394554138,-0.014198839664459229,0.6089061498641968,1.2999367713928223,-3.4547982215881348,1.5010162349818863,0.27998333708729206,-0.33975194018461213
1686938913.4724522,0.9942446947097778,-0.10701572149991989,0.0049815308302640915,-0.38407641649246216,-0.04815094172954559,-0.10454511642456055,0.7477765083312988,1.3569443225860596,-3.4252333641052246,1.5758066520794232,0.10722104699213138,-0.3835663350990013
1686938913.5571551,0.9955281019210815,0.06369005888700485,0.06976675987243652,-0.40052688121795654,0.03976449370384216,-0.03528189659118652,0.3054845929145813,1.288939356803894,-3.3864529132843018,1.6407620867250203,-0.0637331971682848,-0.4038979281391431
1686938913.572047,0.9648457169532776,0.22662070393562317,0.13309942185878754,-0.4107077121734619,0.030733972787857056,-0.029278650879859924,0.2661759853363037,1.2830798625946045,-3.168513536453247,1.707880041531759,-0.22860670978822284,-0.39547878347790777
1686938913.676846,0.9089476466178894,0.3755802810192108,0.18097929656505585,-0.3305785655975342,-0.003082752227783203,-0.008020997047424316,0.6200395822525024,1.1304248571395874,-2.9716265201568604,1.7673346247950346,-0.3850228101779863,-0.39783304780978634
1686938913.690906,0.8330658078193665,0.5075745582580566,0.21993067860603333,-0.3143432140350342,-0.02298593521118164,-0.06497761607170105,0.5462216138839722,1.2091537714004517,-2.870469093322754,1.8289089076451888,-0.5323674555403313,-0.3879690905324868
1686938913.7673001,0.7357005476951599,0.6287254095077515,0.25189098715782166,-0.2834758162498474,-0.07635724544525146,0.020768284797668457,0.28769373893737793,1.1776067018508911,-2.922529458999634,1.9006688815615855,-0.6799130188722814,-0.3682064238855568
1686938913.772795,0.6277241706848145,0.7245032787322998,0.2847059667110443,-0.3004841208457947,0.03312617540359497,0.0027391016483306885,0.25673139095306396,1.0550825595855713,-2.4971165657043457,1.996600691725098,-0.8103134395169299,-0.31081405305571713
1686938913.8900042,0.5247231125831604,0.7983274459838867,0.2955319285392761,-0.2683601379394531,-0.03651714324951172,0.04937770962715149,0.5902347564697266,0.7075666189193726,-2.277367115020752,2.0837287797516346,-0.9245128086770317,-0.2521545405183934
1686938913.904721,0.42315441370010376,0.8608469367027283,0.28263574838638306,-0.18385076522827148,-0.012320876121520996,0.042193442583084106,0.6760318875312805,0.4740248918533325,-2.1638450622558594,2.1596701357565267,-1.0369316780393207,-0.19659080202764453
1686938913.976077,0.3234986960887909,0.9087722897529602,0.2635933458805084,-0.2413453757762909,-0.08333289623260498,0.010103583335876465,0.4238549768924713,0.4645191729068756,-2.1671202182769775,2.2545089925484105,-1.1403325173606473,-0.11532279232170452
1686938913.989976,0.21448171138763428,0.9460433125495911,0.24289846420288086,-0.16437184810638428,0.01295626163482666,0.02904367446899414,0.7148478627204895,0.3236415982246399,-2.2626209259033203,2.418244108996231,-1.2407993603890142,0.038009321530077037
1686938914.064859,0.10125009715557098,0.9744605422019958,0.20043696463108063,-0.2226337492465973,0.0529288649559021,0.052752137184143066,0.987328290939331,0.1946101039648056,-2.3160464763641357,2.673836064342475,-1.3443062051642967,0.29054658622670937
1686938914.0795832,-0.014755143783986568,0.9879918098449707,0.15379992127418518,-0.23797616362571716,0.1641535758972168,0.02774907648563385,1.044743537902832,0.055685583502054214,-2.327148675918579,-3.045948113407242,-1.4156688103448842,0.858308781238017
1686938914.153226,-0.12586629390716553,0.9849988222122192,0.11804597824811935,-0.08380469679832458,0.08777022361755371,0.09276937693357468,0.5633858442306519,0.006964412517845631,-2.196051597595215,-2.324143509503238,-1.397367200559426,1.5842657229734227
1686938914.157953,-0.22729012370109558,0.9701437950134277,0.08461808413267136,-0.10713674128055573,0.26595544815063477,0.04433393478393555,0.21315313875675201,0.023916738107800484,-1.944343090057373,-1.9271899509352346,-1.3258229781209423,1.9882432157644694
1686938914.245908,-0.320547491312027,0.9447342157363892,0.06875129044055939,-0.06296691298484802,0.3023361563682556,0.007451064884662628,0.881332278251648,-0.13232100009918213,-1.8561135530471802,-1.782076192252744,-1.2367829842438534,2.1436699485433164
1686938914.2612782,-0.40364155173301697,0.9137773513793945,0.04565262049436569,-0.09815889596939087,0.04250609874725342,0.12400984764099121,0.14214736223220825,-0.206647127866745,-1.8124231100082397,-1.6834196131174737,-1.1524878143464672,2.2559441481362814
1686938914.3008041,-0.4813527464866638,0.8764591813087463,0.010888992808759212,-0.04725736379623413,0.4267175793647766,-0.04735743999481201,1.1820502281188965,-0.3614925146102905,-1.5476428270339966,-1.5934141184221438,-1.068458189854255,2.3741991618126894
1686938914.395379,-0.545844316482544,0.8378864526748657,-0.0004795199492946267,-0.06173008680343628,0.009144186973571777,0.09796792268753052,0.3456772267818451,-0.32837292551994324,-1.5452775955200195,-1.5699178348362532,-0.9933995288952708,2.418634267919702
1686938914.410922,-0.6044575572013855,0.7963587641716003,-0.021061984822154045,-0.10326027870178223,0.2575809955596924,-0.04609197378158569,0.3547196388244629,-0.2971630096435547,-1.3337348699569702,-1.5359659780821404,-0.921250858244168,2.4802206364367816
1686938914.45157,-0.6562939286231995,0.7542964816093445,-0.017745334655046463,-0.034791767597198486,0.16754788160324097,0.04214411973953247,0.5072158575057983,-0.36198773980140686,-1.2755687236785889,-1.543764212618054,-0.8545819151648745,2.4909708647693876
1686938914.545146,-0.7006083130836487,0.7129343152046204,-0.029543228447437286,0.04603677988052368,0.14308381080627441,0.04570227861404419,0.7005316615104675,-0.5150331258773804,-1.1129199266433716,-1.5286533237782776,-0.793673845346854,2.542225355399421
1686938914.5612001,-0.7378068566322327,0.6744912266731262,-0.02650991640985012,-0.036591947078704834,0.08004063367843628,0.04645317792892456,0.24447686970233917,-0.48746439814567566,-1.0313135385513306,-1.5348810768335681,-0.7402753168305098,2.568749010999448
1686938914.600148,-0.7694945335388184,0.6383937001228333,-0.018205953761935234,0.01336061954498291,0.1599155068397522,-0.02305382303893566,0.2834371030330658,-0.5027064085006714,-0.8763830065727234,-1.547141113829305,-0.6924095685979152,2.5870976267516466
1686938914.69503,-0.7957116365432739,0.6055869460105896,-0.010366772301495075,0.023571133613586426,0.2143898606300354,-0.08472603559494019,0.490353524684906,-0.5059382915496826,-0.7525820136070251,-1.5577687599892032,-0.6505032322619639,2.6114820658039752
1686938914.710335,-0.8170183300971985,0.5765841603279114,-0.005636816378682852,-0.0019513368606567383,0.18652313947677612,-0.1271299123764038,0.4788890480995178,-0.3800911605358124,-0.6218856573104858,-1.5638971833757915,-0.6145417203759977,2.6417896146864734
1686938914.752383,-0.8335907459259033,0.5523744225502014,-0.0029911750461906195,0.01474308967590332,0.1403898000717163,-0.0769190788269043,0.41479355096817017,-0.28396937251091003,-0.5245488286018372,-1.5672080404690096,-0.5852099973197141,2.6640389530423483
1686938914.843954,-0.844599723815918,0.5353718996047974,-0.0053222086280584335,0.03063488006591797,0.08653056621551514,-0.1190674901008606,0.2582847476005554,-0.15152712166309357,-0.33153316378593445,-1.564494953755733,-0.5649479744112664,2.6886078049439064
1686938914.859726,-0.8512614965438843,0.5247005820274353,-0.006565780844539404,0.014545857906341553,0.11542081832885742,-0.043559372425079346,0.09584102779626846,-0.06845901161432266,-0.18076734244823456,-1.563083478684445,-0.5523633819387033,2.700636257955838
1686938914.9031549,-0.854577362537384,0.5193114280700684,-0.003617598209530115,0.04195535182952881,0.08753061294555664,-0.03538388013839722,-0.017141154035925865,-0.07104695588350296,-0.05975832790136337,-1.5665631505512316,-0.5460450453021503,2.7008000729045367
1686938914.9951038,-0.854803740978241,0.5189491510391235,-0.0015213211299851537,0.010916471481323242,0.050066351890563965,-0.04477381706237793,-0.058599963784217834,-0.01184842362999916,0.022495204582810402,-1.5690165971546481,-0.5456211484885989,2.7002646691789867
1686938915.010267,-0.8538618683815002,0.5204994082450867,0.00028746621683239937,-0.01981043815612793,0.011498212814331055,-0.017117977142333984,-0.08100631088018417,-0.003914693836122751,0.021346747875213623,-1.5711329927582853,-0.5474357046079146,2.693445798206506
1686938915.084103,-0.8527613282203674,0.522300124168396,-0.0007122171809896827,-0.022635340690612793,-0.01889747381210327,-0.005589723587036133,-0.12117286771535873,0.01820273883640766,0.012005012482404709,-1.5699611376591949,-0.5495460197807971,2.691759525925434
1686938915.174996,-0.852515459060669,0.5227012634277344,-0.0007405099458992481,0.0009378790855407715,0.00902169942855835,0.0038380026817321777,-0.008452445268630981,-0.00245992885902524,0.03326209634542465,-1.5699277094523558,-0.5500164578370662,2.688624097075494
1686938915.190683,-0.8520603775978088,0.5234435200691223,0.0003335571091156453,0.017526626586914062,0.0064484477043151855,0.024217844009399414,0.06313027441501617,-0.016769707202911377,0.02355041541159153,-1.5711877980053701,-0.5508873785826262,2.6870348582380763
1686938915.261935,-0.8510151505470276,0.5251335501670837,0.0027961363084614277,-0.004697620868682861,-0.010118961334228516,0.038112640380859375,-0.08436858654022217,-0.039118871092796326,0.03930547460913658,-1.5740819632534928,-0.5528720264184132,2.685848588750223
1686938915.2765012,-0.8495369553565979,0.5274890661239624,0.0064956024289131165,-0.0025290846824645996,0.014670968055725098,0.02341163158416748,0.054895173758268356,-0.08676047623157501,0.049298856407403946,-1.5784422286613717,-0.5556422750230152,2.6860264231238635
1686938915.353757,-0.8483618497848511,0.5292797088623047,0.012042309157550335,-0.007228851318359375,-0.019132673740386963,0.009823559783399105,0.04618708789348602,-0.08031687140464783,0.00934261828660965,-1.5849901531276847,-0.5577514103023219,2.6854658215256486
1686938915.358455,-0.8477034568786621,0.5302716493606567,0.014510361477732658,0.0038010478019714355,-0.004850566387176514,-0.023467306047677994,0.10930296033620834,-0.09802673012018204,0.03322771191596985,-1.5879119171262934,-0.5589209099542312,2.69119036964746
1686938915.446996,-0.8476011157035828,0.5303986668586731,0.015801357105374336,0.0006619691848754883,-0.01581120491027832,-0.012383459135890007,0.08426272124052048,-0.053217992186546326,-0.012221695855259895,-1.58943661225126,-0.5590707694088831,2.6946884693247832
1686938915.462471,-0.8475629091262817,0.5304822325706482,0.015029572881758213,-0.010118365287780762,-0.023264825344085693,-0.0239102840423584,0.002055650344118476,-0.05253852903842926,0.003034188412129879,-1.5885271618335202,-0.5591693371248261,2.6991466748578405
1686938915.502229,-0.8482961058616638,0.529343843460083,0.013737591914832592,-0.005661964416503906,-0.0005199909210205078,-0.013783454895019531,0.05031505972146988,-0.022844310849905014,-0.02543080970644951,-1.5869892470344722,-0.5578269772620364,2.7036282740815754
1686938915.592894,-0.8490750789642334,0.5281261205673218,0.012420295737683773,0.003402531147003174,0.0024219155311584473,-0.014281868934631348,0.08501926809549332,-0.016910333186388016,-0.0202756617218256,-1.5854233134172484,-0.5563923300958716,2.706638477758774
1686938915.608501,-0.8500275611877441,0.5266135931015015,0.011449560523033142,-0.010110259056091309,-0.01327747106552124,0.0057165613397955894,-0.003887919941917062,-0.011161554604768753,-0.029408106580376625,-1.5842651464241955,-0.5546121299539093,2.708796796744655
1686938915.651715,-0.8507874608039856,0.5253884792327881,0.011285979300737381,0.004184246063232422,-0.005964159965515137,0.0024774055927991867,0.026922976598143578,-0.021490558981895447,-0.02453741990029812,-1.584060882170358,-0.5531716139492564,2.7091980416359798
1686938915.743387,-0.8514621257781982,0.5242820382118225,0.01184774562716484,-0.004784703254699707,-0.01311260461807251,0.0036551952362060547,-0.02369411662220955,-0.006198487710207701,-0.02306206151843071,-1.5847100172778539,-0.551871769466019,2.7096955231890076
1686938915.7578359,-0.8520833253860474,0.5232703685760498,0.011930402368307114,0.0014058351516723633,0.007170975208282471,-0.0039348602294921875,0.06275962293148041,-0.03376276418566704,-0.01609622873365879,-1.5847968622964677,-0.550684128601137,2.711072259317091
1686938915.802218,-0.8522560000419617,0.5229848027229309,0.012098627164959908,-0.005089461803436279,-0.0017598271369934082,0.006211875006556511,-0.025905398651957512,-0.007424620911478996,-0.009500744752585888,-1.5849913749925746,-0.550349057841959,2.7124026554051244
1686938915.9247131,-0.8524620532989502,0.5226606130599976,0.011586016044020653,-0.0009467005729675293,-7.76052474975586e-05,-0.0033463239669799805,0.05412363260984421,-0.02314065396785736,-0.005589959677308798,-1.5843867295627518,-0.5499687997433929,2.71432200090012
1686938915.940075,-0.8526282906532288,0.5223937630653381,0.01138234231621027,-0.0012992024421691895,-0.010491907596588135,-0.00178456399589777,0.03892010822892189,-0.007030365988612175,-0.014496168121695518,-1.5841452463051684,-0.5496557961784011,2.716496194641833
1686938916.015452,-0.8530285954475403,0.5217494964599609,0.010939759202301502,0.0002607107162475586,-0.018194198608398438,-0.0005027055740356445,-0.028559358790516853,0.0024598881136626005,-0.008216768503189087,-1.5836202337752123,-0.5489004265605764,2.7174720522048528
1686938916.031158,-0.8536470532417297,0.520746111869812,0.010497055016458035,0.0017031431198120117,0.011510968208312988,0.0011606216430664062,0.026817115023732185,0.010901988483965397,-0.016991782933473587,-1.5830924226490957,-0.5477247033235659,2.7179175400724738
1686938916.10466,-0.8540288209915161,0.5201022028923035,0.011331932619214058,0.0021764636039733887,0.006097078323364258,-0.0044959792867302895,-0.06898665428161621,0.036477431654930115,-0.012174425646662712,-1.5840643419874711,-0.5469706080802705,2.7136019831752902
1686938916.110316,-0.8537195920944214,0.520632266998291,0.01024796161800623,-0.010873973369598389,0.04365307092666626,-0.01722121238708496,-0.18585574626922607,0.060725487768650055,0.04730268195271492,-1.582799646529785,-0.5475913177748298,2.7118246825226446
1686938916.193687,-0.8510830998420715,0.5248515605926514,0.01372786145657301,0.02027261257171631,0.09230542182922363,-0.04564929008483887,-0.4353753924369812,0.14510494470596313,0.18903152644634247,-1.5869247996562554,-0.5525406874751535,2.6945909828129517
1686938916.208949,-0.8430494666099548,0.5374695658683777,0.01985260844230652,0.04507577419281006,0.23105460405349731,-0.1278696060180664,-0.8450759053230286,0.38248175382614136,0.46901124715805054,-1.5943405430998954,-0.5674335454821099,2.658015177058012
1686938916.285486,-0.8255277276039124,0.5636854767799377,0.027616145089268684,0.040142595767974854,0.39612293243408203,-0.18914568424224854,-1.0945937633514404,0.6080033779144287,0.860917329788208,-1.6042365716542473,-0.598840920061407,2.5942443877212296
1686938916.404212,-0.7935073971748352,0.6076116561889648,0.03396927937865257,-0.02125072479248047,0.5005883574485779,-0.17668473720550537,-1.3515105247497559,0.7781793475151062,1.3682547807693481,-1.6135792319471625,-0.6530499958028191,2.5182793544296214
1686938916.410252,-0.7429898381233215,0.6679115295410156,0.04312886297702789,-0.022574007511138916,0.5629233717918396,-0.1434248685836792,-1.142985463142395,0.7873358130455017,1.9059181213378906,-1.6287789748570052,-0.7313990508991743,2.432307319816367
1686938916.4976711,-0.668354868888855,0.7416362762451172,0.05724739655852318,-0.12235552072525024,0.5239276885986328,-0.04400289058685303,-1.0239263772964478,0.6210902333259583,2.405132293701172,-1.656241963887669,-0.8355063583228867,2.3426520076002806
1686938916.512846,-0.56789630651474,0.819487988948822,0.07702673226594925,-0.25597143173217773,0.4330296516418457,0.019271492958068848,-0.9489321112632751,0.41492319107055664,2.8021631240844727,-1.7056088407710828,-0.9605170200818521,2.2458921829448486
1686938916.5164108,-0.44365546107292175,0.8893788456916809,0.11034179478883743,-0.43119198083877563,0.38721728324890137,0.08837331831455231,-0.8633599877357483,0.12676000595092773,3.048957347869873,-1.8145610310468365,-1.0959847079775422,2.102949169031815
1686938916.547648,-0.2959217429161072,0.9433735013008118,0.14992296695709229,-0.4917522072792053,0.2832501530647278,0.11489321291446686,-0.7652228474617004,-0.27805227041244507,3.3092422485351562,-2.0397342448202145,-1.2326568447446347,1.8633192869882662
1686938916.672776,-0.1329590529203415,0.9737303853034973,0.1848537176847458,-0.5852873921394348,0.1667267084121704,0.08049654960632324,-0.55743807554245,-0.47433409094810486,3.2986979484558105,-2.5180529205903053,-1.3410772581802937,1.3868124367844956
1686938916.6791658,0.03357503190636635,0.9768383502960205,0.21132802963256836,-0.6113338470458984,0.05758541822433472,0.04573678970336914,-0.4224351644515991,-0.6482000350952148,3.2685279846191406,2.9840331652926113,-1.3551502370490214,0.6169221080765162
1686938916.7946038,0.19787700474262238,0.953883707523346,0.22572216391563416,-0.5911570191383362,-0.029368996620178223,0.018784642219543457,-0.45220932364463806,-0.6835291981697083,3.172502279281616,2.42183472372628,-1.2659186747830182,0.0710852844177947
1686938916.809865,0.35253673791885376,0.9061070680618286,0.23385481536388397,-0.563687801361084,0.002538621425628662,-0.012434452772140503,-0.24709655344486237,-0.7727282047271729,3.117130756378174,2.156498399015213,-1.1339893457182748,-0.1737211588552201
1686938916.8879561,0.4989243745803833,0.8354381918907166,0.23047228157520294,-0.5609055757522583,-0.04288148880004883,-0.0025365352630615234,-0.4204000234603882,-0.8199227452278137,3.1385929584503174,2.0035336783962525,-0.9889296110054963,-0.30230208259334784
1686938916.893313,0.6327791213989258,0.7416822910308838,0.22248207032680511,-0.5217407941818237,-0.007963299751281738,-0.03298312425613403,-0.28843700885772705,-0.9116296172142029,3.1281657218933105,1.9088914989021515,-0.8355749417272148,-0.3662487083799754
1686938916.9784222,0.7497018575668335,0.6317624449729919,0.19703559577465057,-0.47467756271362305,-0.00033861398696899414,-0.00958135724067688,-0.11523320525884628,-0.903774082660675,3.0806093215942383,1.8278027166152273,-0.6838247311883927,-0.4181154333644561
1686938916.994061,0.8454402089118958,0.5083606243133545,0.16370706260204315,-0.4300961494445801,0.05503958463668823,-0.012629881501197815,-0.0259440615773201,-0.9600874781608582,3.0330049991607666,1.762064553218905,-0.5332799683278732,-0.45137429585519256
1686938917.064937,0.9199580550193787,0.37347176671028137,0.1191456988453865,-0.3975430130958557,0.05815353989601135,0.03551732748746872,0.031722065061330795,-0.9741666316986084,3.0755064487457275,1.6995915015228542,-0.3827487920053733,-0.4821884929502108
1686938917.069631,0.9713285565376282,0.2264222502708435,0.07248218357563019,-0.39564502239227295,0.09002973139286041,0.059292666614055634,0.07701320201158524,-0.9909085035324097,3.121690034866333,1.6452799760621444,-0.2284029658283199,-0.49923828119384095
1686938917.127667,0.9971973299980164,0.07153023034334183,0.02193072810769081,-0.3702441453933716,0.08081347495317459,0.07049167156219482,0.27302369475364685,-1.006919264793396,3.155413866043091,1.592785147388519,-0.07159136679053972,-0.5168521522280375
1686938917.141953,0.9957467317581177,-0.08751378953456879,-0.028800837695598602,-0.3589365482330322,0.1008346751332283,0.0887526273727417,0.015514140948653221,-1.0030276775360107,3.2018747329711914,1.541880528808435,0.0876258790282842,-0.5266352473517414
1686938917.1800718,0.9662743806838989,-0.24568116664886475,-0.07716532796621323,-0.3492090702056885,0.11912477016448975,0.039003074169158936,-0.09124485403299332,-0.9467841386795044,3.2279398441314697,1.4911068351555679,0.2482223363160988,-0.5138827990787691
1686938917.3052568,0.9091325402259827,-0.3986586034297943,-0.12061922252178192,-0.296248197555542,0.11499777436256409,0.013868704438209534,-0.26776623725891113,-0.8010662794113159,3.268211841583252,1.4388916166455794,0.41005372186482386,-0.49002645155200614
1686938917.311005,0.8260937333106995,-0.5388360619544983,-0.16499876976013184,-0.2391340136528015,0.09170782566070557,0.02747131884098053,-0.3767234981060028,-0.7965540885925293,3.2479665279388428,1.3736568242920943,0.5690548113854796,-0.4352837316619448
1686938917.3633142,0.7245374917984009,-0.6609337329864502,-0.19547869265079498,-0.17734211683273315,-0.01574772596359253,-0.03915570676326752,-0.038687143474817276,-0.6472222805023193,3.052172899246216,1.3072728651992602,0.7220623076802972,-0.38474291578093944
1686938917.486242,0.6121277809143066,-0.7560870051383972,-0.2315855622291565,-0.1619631052017212,-0.002000153064727783,0.06096179783344269,-0.39983847737312317,-0.6980686783790588,2.7984259128570557,1.209110483914635,0.8573133888450303,-0.294741110671156
1686938917.4915318,0.49856966733932495,-0.8279728293418884,-0.25668883323669434,-0.15692543983459473,-0.0686488151550293,-0.09371402859687805,-0.1525564193725586,-0.4748336374759674,2.642026662826538,1.0953390473759759,0.9754829389899893,-0.18674258866872007
1686938917.574957,0.38629958033561707,-0.8812528848648071,-0.27233415842056274,-0.11588338017463684,-0.048739731311798096,-0.056752175092697144,-0.16702504456043243,-0.3516125977039337,2.3065731525421143,0.9567347211947733,1.0785065201385329,-0.04867049471662918
1686938917.589812,0.2825281322002411,-0.9249539375305176,-0.2542400360107422,-0.10801339149475098,-0.007068157196044922,-0.11203193664550781,1.5727328062057495,-0.3252192735671997,2.078781843185425,0.8380502127001431,1.1809143258203425,0.06376411588787462
1686938917.6670032,0.1877913773059845,-0.9695658087730408,-0.1570875495672226,-0.09514002501964569,-0.15532737970352173,0.00033396482467651367,2.068964719772339,-0.3842127025127411,1.7167552709579468,0.8741919088181239,1.3234509833714145,0.011027200301577935
1686938917.671801,0.12329041212797165,-0.9880489110946655,-0.09251340478658676,-0.08357181400060654,-0.3246341347694397,0.03727657347917557,0.5386437177658081,-0.5975102186203003,0.7715564370155334,0.9270585904121907,1.416038524686625,-0.06912967768042165
1686938917.756826,0.10204968601465225,-0.9916645288467407,-0.07865885645151138,-0.13352859020233154,-0.469105064868927,-0.09895342588424683,0.029917532578110695,-0.04411054402589798,0.15453992784023285,0.9141220079588868,1.4415904851496102,-0.07280940205032088
1686938917.771992,0.09991270303726196,-0.9928111433982849,-0.06590425223112106,0.04879942536354065,0.08405876159667969,-0.11704862117767334,0.2927224338054657,0.0028437431901693344,-0.0047943731769919395,0.98768921375546,1.450817469562876,-0.14334982279033123
1686938917.813534,0.09981273114681244,-0.9931864142417908,-0.060149405151605606,0.01650497317314148,-0.05516856908798218,0.08184743672609329,-0.009853013791143894,-0.09751663357019424,-0.045803193002939224,1.0284506746525017,1.4539943336755499,-0.1881654337998055
1686938917.904254,0.10043167322874069,-0.9929337501525879,-0.06321390718221664,0.017869681119918823,0.04669046401977539,-0.018542706966400146,-0.0624711811542511,-0.04712340608239174,-0.004966579843312502,1.0090234500982007,1.4518458550115245,-0.172054211391377
1686938917.910208,0.10105752944946289,-0.9928222298622131,-0.0639650821685791,-0.016844287514686584,-0.02268075942993164,-0.011581189930438995,0.0026551762130111456,-0.009353161789476871,-0.028645645827054977,1.0064954904213586,1.4509099172872748,-0.17048439612355082
1686938917.965275,0.10169447213411331,-0.9926230907440186,-0.06601215153932571,0.016927331686019897,0.02396470308303833,0.029131591320037842,-0.05901654064655304,-0.05975497514009476,0.006529520265758038,0.9950383315545264,1.449256055765179,-0.16076439428684572
1686938918.055125,0.10082384943962097,-0.9925917387008667,-0.0677950382232666,0.0049348026514053345,-0.015312254428863525,-0.0062711238861083984,-0.030113810673356056,-0.07485020160675049,0.014646036550402641,0.9788275822992687,1.4489981463387913,-0.14774869166230684
1686938918.0611,0.10102884471416473,-0.9923105835914612,-0.07150278985500336,0.006316713988780975,-0.005537807941436768,0.014358647167682648,-0.0925987958908081,-0.05213038623332977,-0.00799279659986496,0.9548904109026197,1.4467055370708441,-0.12693655307599352
1686938918.116076,0.1012367308139801,-0.9919618368148804,-0.07591263204813004,0.010610148310661316,0.009662091732025146,0.004119992256164551,-0.1044301688671112,-0.04773051291704178,-0.04571111500263214,0.9273895391925027,1.4439187554506652,-0.10195438593879574
1686938918.2039418,0.10265976935625076,-0.9914368987083435,-0.0807080864906311,0.018571265041828156,-0.01579570770263672,-0.0368150994181633,-0.14711615443229675,-0.016209149733185768,-0.058404870331287384,0.9045450489896212,1.4398354670705253,-0.08068751710930742
1686938918.209969,0.1064043715596199,-0.9898781776428223,-0.09391014277935028,0.015116579830646515,-0.053838133811950684,0.0016555264592170715,-0.34406474232673645,0.03264408931136131,-0.12067823112010956,0.8476905096946242,1.4283959698357673,-0.02315715296222087
1686938918.265737,0.12338446080684662,-0.9856510758399963,-0.1151881217956543,-0.06988716125488281,-0.21838945150375366,-0.05728203058242798,-0.6000638008117676,0.33583834767341614,-0.5313453078269958,0.8197404259013328,1.4011886604939983,0.013169873596527193
1686938918.418844,0.1696787029504776,-0.9740854501724243,-0.14955490827560425,-0.1463175266981125,-0.2989248037338257,-0.04790908098220825,-1.1739522218704224,0.7766485810279846,-1.280829668045044,0.8483526938465151,1.3426417327018438,0.013508714584214076
1686938918.42486,0.2589213252067566,-0.9408350586891174,-0.21860642731189728,-0.18689993023872375,-0.41824978590011597,0.045464977622032166,-1.9871934652328491,0.9834896922111511,-1.9266589879989624,0.8696226329131487,1.225086272784172,0.03820158137521198
1686938918.5076509,0.36851564049720764,-0.8900576829910278,-0.26831603050231934,-0.17056342959403992,-0.1472042202949524,-0.054849833250045776,-0.8331010341644287,0.9089052081108093,-2.3483920097351074,0.9414595439811341,1.0974716916021114,0.012708247840916257
1686938918.5222769,0.48789751529693604,-0.8282200694084167,-0.27569448947906494,-0.2291085422039032,-0.17516732215881348,0.013243287801742554,-0.14096251130104065,0.7385240197181702,-2.6421186923980713,1.0564594798912157,0.9759239888522447,-0.07379676829913036
1686938918.5261931,0.6059758067131042,-0.755990743637085,-0.24753013253211975,-0.24293875694274902,-0.13869303464889526,-0.04383647441864014,0.34379711747169495,0.7236161231994629,-2.8205487728118896,1.1829994478275978,0.8571663908576559,-0.18710473433248045
1686938918.561347,0.7180598974227905,-0.6621606349945068,-0.2143200784921646,-0.2686276435852051,-0.07860773801803589,-0.002598866820335388,0.17035236954689026,0.7786180973052979,-2.9749529361724854,1.2807428343072966,0.7236984192999115,-0.27194514791328755
1686938918.654265,0.8177371621131897,-0.5465328097343445,-0.18057668209075928,-0.3062014579772949,-0.06050759553909302,-0.09246410429477692,-0.07121004164218903,0.9907920360565186,-2.9817519187927246,1.3534593831887156,0.5782184011511626,-0.31830205548207074
1686938918.658224,0.8988205790519714,-0.4168849587440491,-0.13538195192813873,-0.32307612895965576,-0.00477638840675354,-0.04754041135311127,0.15408377349376678,1.0389131307601929,-3.0506503582000732,1.4212983392199685,0.4300155746270237,-0.3521657572338592
1686938918.715198,0.9573220014572144,-0.27801138162612915,-0.07901940494775772,-0.3287820816040039,-0.025272279977798462,-0.10071390122175217,0.3746488392353058,1.1559817790985107,-3.001950740814209,1.488440885362217,0.28172326194081043,-0.38705128811303513
1686938918.77605,0.9913504719734192,-0.1299590766429901,-0.018302038311958313,-0.34425580501556396,-0.005737394094467163,-0.053811073303222656,0.17528271675109863,1.1854605674743652,-3.1008925437927246,1.5523366999297699,0.13032770004565,-0.4128937218833758
1686938918.868143,0.9987662434577942,0.025256812572479248,0.042754869908094406,-0.36226117610931396,0.013485223054885864,-0.0041806697845458984,0.1009853333234787,1.2227730751037598,-3.009415864944458,1.6135778888610968,-0.025259498779273706,-0.41530218570262967
1686938918.873888,0.9794715642929077,0.17154446244239807,0.10586733371019363,-0.312372624874115,-0.020085737109184265,-0.06735420972108841,0.03966381773352623,1.2909990549087524,-2.9077603816986084,1.6784645151161386,-0.17239715878252304,-0.4065293671519541
1686938918.9561129,0.9361824989318848,0.31024253368377686,0.16526314616203308,-0.29854822158813477,-0.04876798391342163,-0.004099845886230469,0.1372368186712265,1.2603014707565308,-2.818627119064331,1.7455249496152718,-0.31544815095429474,-0.39268594236960963
1686938918.9616861,0.8715328574180603,0.4390828311443329,0.2182580977678299,-0.3278927803039551,-0.10824182629585266,-0.019710779190063477,0.2247881442308426,1.1901568174362183,-2.794565200805664,1.816179782602332,-0.4545775903102516,-0.368008652339022
1686938919.014813,0.7885962724685669,0.5604174733161926,0.2530767023563385,-0.2898781895637512,-0.07505077123641968,-0.018167763948440552,0.5327503085136414,1.0751572847366333,-2.737224817276001,1.8813340383325512,-0.5948898035195993,-0.35076600104671457
1686938919.106845,0.6920085549354553,0.6661621332168579,0.2781221568584442,-0.2739025354385376,-0.07808852195739746,-0.02058437466621399,0.41122013330459595,1.002241849899292,-2.617690086364746,1.952944463486633,-0.7290509715731268,-0.3193179592536947
1686938919.121561,0.5874667763710022,0.7532514929771423,0.2957955598831177,-0.2418857216835022,-0.060532987117767334,0.01676538586616516,0.17199227213859558,0.8653184175491333,-2.442584753036499,2.037248220871235,-0.8529917025760263,-0.2686000618076496
1686938919.226482,0.48728933930397034,0.8168685436248779,0.3086662292480469,-0.21362298727035522,0.01685643196105957,-0.018535614013671875,0.27236270904541016,0.6384360790252686,-2.08079195022583,2.135438416176079,-0.9559611320658075,-0.19144804784070016
1686938919.315717,0.39217332005500793,0.8686625957489014,0.30269700288772583,-0.15410563349723816,0.03545123338699341,0.012595325708389282,0.4291386306285858,0.4903826415538788,-2.04127836227417,2.2281322688909366,-1.052496332422661,-0.11577685035615963
1686938919.331356,0.293364018201828,0.9116872549057007,0.2876865267753601,-0.1829819679260254,0.06315082311630249,-0.08033493161201477,0.8288217186927795,0.4333077669143677,-2.080732583999634,2.346423739502805,-1.1473719876482513,-0.009530302700650709
1686938919.409816,0.19080379605293274,0.9465328454971313,0.26013338565826416,-0.23543573915958405,-0.0420224666595459,0.014875650405883789,0.5622615218162537,0.4024713933467865,-2.1489341259002686,2.508745592495123,-1.2423134286341528,0.14166371753392065
1686938919.424792,0.0816497877240181,0.9730874300003052,0.21548601984977722,-0.158294677734375,0.15499478578567505,-0.03859090805053711,1.3990668058395386,0.1982136368751526,-2.1616950035095215,2.7793985285515435,-1.3382704655702844,0.4087868843049989
1686938919.428553,-0.02868892252445221,0.9851987361907959,0.16899700462818146,-0.2465033233165741,-0.007049500942230225,0.05935069918632507,0.8314035534858704,0.19295081496238708,-2.2771596908569336,-2.973435816698916,-1.3985294199445306,0.9391822947736279
1686938919.458849,-0.13819746673107147,0.9829053282737732,0.121649831533432,-0.18379348516464233,0.18892395496368408,0.0426567941904068,0.5519912838935852,0.19038045406341553,-2.1425349712371826,-2.2925982500655153,-1.3856283670698852,1.620633828109203
1686938919.5558472,-0.24365845322608948,0.96555495262146,0.09129121154546738,-0.05549006164073944,0.31796854734420776,0.05832123011350632,0.9074857234954834,0.07159282267093658,-2.0171027183532715,-1.9292765669614076,-1.3075677850884748,1.9852159403086924
1686938919.561599,-0.3342347741127014,0.9406545162200928,0.05879156291484833,-0.15050643682479858,0.10788381099700928,0.0916295126080513,0.5181474089622498,-0.05870409309864044,-1.8643505573272705,-1.7449141430829627,-1.224553764981634,2.1780737818128495
1686938919.612196,-0.4176466166973114,0.90838623046875,0.020138045772910118,-0.015565603971481323,0.38656604290008545,0.08554434776306152,1.0113290548324585,-0.24119049310684204,-1.701319932937622,-1.6189769170632986,-1.139408307491753,2.321385793513483
1686938919.706687,-0.48779186606407166,0.8729593753814697,-0.0011140701826661825,-0.13868826627731323,0.057292819023132324,0.058807551860809326,0.2721555233001709,-0.25400906801223755,-1.5811480283737183,-1.5685124259710068,-1.0612366761947094,2.3922873924818817
1686938919.721705,-0.5571038722991943,0.8300540447235107,-0.025403814390301704,0.009710192680358887,0.3024684190750122,-0.00354212149977684,1.2078838348388672,-0.4374523162841797,-1.478833556175232,-1.5252281120794757,-0.9792045403202893,2.465511110596447
1686938919.760316,-0.6181800961494446,0.7847078442573547,-0.04568241164088249,-0.11326515674591064,-0.010125994682312012,0.044782161712646484,0.8439229726791382,-0.4986526072025299,-1.5291804075241089,-1.4970321804749291,-0.9022246657122381,2.529372785062908
1686938919.854591,-0.6744473576545715,0.7352914214134216,-0.06683624535799026,0.002557218074798584,0.17777913808822632,-0.02491491287946701,0.7490196228027344,-0.5080636143684387,-1.3945503234863281,-1.472021029574331,-0.8260965459724257,2.594333922439239
1686938919.8602939,-0.7219297885894775,0.6880251169204712,-0.07374771684408188,0.0020201802253723145,0.1684964895248413,0.010622084140777588,0.6231951117515564,-0.5418463349342346,-1.1973483562469482,-1.4689958646999168,-0.7587641047467826,2.6343100657386413
1686938919.977874,-0.7621252536773682,0.6437262892723083,-0.06914858520030975,-0.03601616621017456,0.12282949686050415,0.016826212406158447,0.2276887595653534,-0.5484936237335205,-1.082659363746643,-1.480312816210952,-0.6993576747815791,2.659436852419851
1686938920.0404968,-0.7969663739204407,0.601961076259613,-0.049875881522893906,-0.021301448345184326,0.14291203022003174,0.017222046852111816,0.1240043044090271,-0.5690242052078247,-1.0252602100372314,-1.5082956693489553,-0.6459546916848341,2.65806895762795
1686938920.0547218,-0.825791597366333,0.5628882050514221,-0.03499971702694893,0.0004284977912902832,0.21006101369857788,-0.061237454414367676,0.5625958442687988,-0.6821261048316956,-0.8752950429916382,-1.5284384460802725,-0.597876025989302,2.6765084679657076
1686938920.058172,-0.8459769487380981,0.5327556133270264,-0.022235063835978508,0.00451582670211792,0.24576306343078613,-0.08897101879119873,0.10186754912137985,-0.4933958947658539,-0.6131157279014587,-1.5445190805874198,-0.5618534381781062,2.7007482166536225
1686938920.1218262,-0.8579014539718628,0.513742208480835,-0.008603046648204327,0.05071157217025757,0.38442063331604004,-0.1920652985572815,0.07192248106002808,-0.2842801511287689,-0.2323521375656128,-1.5607686497808895,-0.539540928937089,2.7072070928941177
1686938920.2144089,-0.8609314560890198,0.5087208151817322,0.0003189266426488757,0.03837597370147705,0.2534862756729126,-0.1385788917541504,0.07315535843372345,-0.1452491581439972,0.025846725329756737,-1.5711667704864698,-0.533698290906866,2.7086916829527663
1686938920.2314548,-0.8592316508293152,0.5115715265274048,0.003931840881705284,0.009729206562042236,0.06354743242263794,-0.08245360851287842,-0.06622139364480972,-0.0321342796087265,0.10872216522693634,-1.5753722912082424,-0.5370127581167813,2.7090121083077445
1686938920.307173,-0.8565474152565002,0.5160312652587891,0.006180096883326769,0.0035506486892700195,-0.03775978088378906,-0.0396120548248291,-0.098581962287426,0.02191149815917015,0.09769857674837112,-1.5780113269802905,-0.5422111578306473,2.7043631840660862
1686938920.321718,-0.8551464676856995,0.5183347463607788,0.0073358528316020966,-0.014711380004882812,-0.08480197191238403,-0.022152185440063477,-0.06176556274294853,0.03182195872068405,0.015757206827402115,-1.5793745920851308,-0.5449025481333318,2.699297674620708
1686938920.36103,-0.8558435440063477,0.5171645283699036,0.008498730137944221,-0.021551907062530518,-0.06020975112915039,-0.0002437848597764969,-0.085502028465271,0.009127245284616947,-0.04532092809677124,-1.580726238630432,-0.5435347460225487,2.6932171251687143
1686938920.544845,-0.8576674461364746,0.5141682624816895,0.006126349791884422,0.0034651756286621094,-0.011253774166107178,-0.01607513427734375,-0.0008685248903930187,0.008018105290830135,-0.05297934636473656,-1.5779392412886535,-0.5400376463576188,2.6947540712752236
1686938920.56126,-0.8591591119766235,0.5116913318634033,0.004195491783320904,0.0026986002922058105,0.04766535758972168,-0.0018913745880126953,0.04393811896443367,0.008225725963711739,-0.0069479383528232574,-1.5756795417223448,-0.5371522060237284,2.6989659613049497
1686938920.604491,-0.8592760562896729,0.5115025639533997,0.0031553867738693953,0.015785396099090576,0.05113482475280762,0.007037520874291658,0.08957906067371368,0.01493095327168703,0.010640310123562813,-1.5744684559274096,-0.5369324978103945,2.6997558132336703
1686938920.6082292,-0.8580907583236694,0.5134945511817932,0.0018440645653754473,-0.00694507360458374,0.009897172451019287,0.016054391860961914,0.0008066517766565084,-0.006442246958613396,0.04550734534859657,-1.5729453554739108,-0.5392522829961661,2.7020957739254556
1686938920.6117449,-0.8562837839126587,0.5165024399757385,0.0017976656090468168,-0.0011227130889892578,-0.004020750522613525,0.011691093444824219,0.03994831442832947,-0.01571984775364399,0.04541346803307533,-1.5728957043533205,-0.542761296306747,2.705031720562247
1686938920.660153,-0.8550412654876709,0.5185451507568359,0.003931993618607521,-0.004120171070098877,-0.023687303066253662,0.014424324035644531,0.046700868755578995,-0.048744551837444305,0.032855432480573654,-1.5753948951983383,-0.5451485889950901,2.7037474323905863
