Timestamp,gravityX,gravityY,gravityZ,accelerationX,accelerationY,accelerationZ,rotationRateX,rotationRateY,rotationRateZ,attitudeRoll,attitudePitch,attitudeYaw
1686937625.016221,0.019635602831840515,0.5228670239448547,-0.8521881103515625,0.000719655305147171,-0.006082296371459961,0.00372314453125,0.0037352333310991526,0.00338862556964159,0.0030881641432642937,0.02303731951511022,-0.5502108846186964,-2.028138613329652
1686937625.022993,0.01980099081993103,0.522712230682373,-0.8522792458534241,0.002919379621744156,-0.007621169090270996,0.004653513431549072,0.0005841085221618414,0.0015681157819926739,0.0023410809226334095,0.023228807364916858,-0.5500293328480214,-2.0279439129371624
1686937625.073909,0.019952991977334023,0.5228521227836609,-0.852189838886261,0.0005853734910488129,-0.0033665895462036133,0.004793047904968262,-0.0021791511680930853,0.008590725250542164,0.005097219720482826,0.023409509506067044,-0.5501934103947487,-2.027851713770282
1686937625.16762,0.02015778236091137,0.5226985216140747,-0.8522792458534241,-0.004578523337841034,0.0021581053733825684,0.004287362098693848,0.003979796543717384,-0.0021955568809062243,0.0031694904901087284,0.023647207739927425,-0.5500132629894491,-2.027560410169944
1686937625.173588,0.02041441574692726,0.5226501822471619,-0.8523027896881104,-0.002149611711502075,0.00270998477935791,-0.004234015941619873,-0.003395307809114456,0.009837443940341473,0.008497110567986965,0.023947491322590983,-0.5499565473669885,-2.0273458420746833
1686937625.22196,0.020686591044068336,0.5229603052139282,-0.852105975151062,-0.001399446278810501,0.006611287593841553,-0.006918013095855713,-0.009901954792439938,0.0010852974373847246,-0.0038633851800113916,0.024272249671688086,-0.550320373132011,-2.027073429341014
1686937625.3177772,0.020469486713409424,0.5226733088493347,-0.8522872924804688,-6.845034658908844e-05,-0.004774689674377441,0.0020218491554260254,0.004827202297747135,-0.0070725902915000916,-0.006803348660469055,0.024012504716950035,-0.5499836898041666,-2.0271503714503476
1686937625.323668,0.020434042438864708,0.5224774479866028,-0.852408230304718,0.003247631713747978,-0.013566255569458008,0.007696926593780518,0.004119454883038998,0.005064846482127905,0.004434592090547085,0.023967542149815238,-0.5497539601650561,-2.0271723798725794
1686937625.373804,0.020388886332511902,0.5225355625152588,-0.8523736596107483,0.0015990640968084335,-0.0009290575981140137,0.006624817848205566,0.003750449512153864,-0.003227904438972473,-0.0007545442786067724,0.02391556720418721,-0.5498221293622588,-2.0270984576221878
1686937625.467243,0.02045191451907158,0.5222340226173401,-0.8525569438934326,0.0004374030977487564,-0.0012378692626953125,0.0008571743965148926,0.003324609948322177,0.003865451319143176,-0.0019361223094165325,0.02398431370355084,-0.5494685058820445,-2.0270439953018298
1686937625.473202,0.020328354090452194,0.5222399830818176,-0.8525562882423401,-0.0014837179332971573,0.0032422542572021484,-0.0016459226608276367,0.0035169024486094713,-0.0012723588151857257,-0.0030000219121575356,0.023839486139683366,-0.5494754457156281,-2.027094701179015
1686937625.5225492,0.020267050713300705,0.5221670866012573,-0.8526024222373962,-0.0006594713777303696,0.0044748783111572266,-0.00726085901260376,-0.006718182470649481,0.0004928642883896828,-0.0039881207048892975,0.023766334651175534,-0.549389993379369,-2.027140563312883
1686937625.645584,0.02025255747139454,0.5220809578895569,-0.8526554703712463,0.0040242113173007965,-0.0005812644958496094,-0.0005549192428588867,0.007280481513589621,-0.001581578399054706,-0.0024424223229289055,0.02374786953815181,-0.5492890373911402,-2.027254137472107
1686937625.651866,0.020467400550842285,0.5220862627029419,-0.852647066116333,0.0037788469344377518,-0.010840535163879395,0.005006134510040283,-0.002776243956759572,0.0012023572344332933,-0.0017732363194227219,0.023999930777669213,-0.5492952610924164,-2.027162042114721
1686937625.734631,0.020344268530607224,0.5220965147018433,-0.8526437878608704,0.001155402511358261,-0.0021684765815734863,0.004789233207702637,0.010294914245605469,-0.0041421810165047646,0.00012359977699816227,0.02385569377841053,-0.5493072418732539,-2.0273047769659365
1686937625.740088,0.02045494131743908,0.5217084884643555,-0.8528785705566406,0.001761890947818756,-0.000925898551940918,0.0049324631690979,0.0008240228053182364,0.0027485485188663006,0.0019228648161515594,0.02397881921605113,-0.548852328764234,-2.0271936938296116
1686937625.82745,0.020375173538923264,0.5216926336288452,-0.852890133857727,-0.0026596859097480774,0.0056816935539245605,-0.002914249897003174,0.006319310516119003,0.0013578988146036863,-0.0005044734571129084,0.02388502023956745,-0.5488337985671681,-2.027390543713084
1686937625.839839,0.02045006863772869,0.5214956402778625,-0.8530089259147644,0.0013852976262569427,0.005543053150177002,-0.005664229393005371,0.0002797574270516634,0.009781117551028728,-0.0022895566653460264,0.023969446720791248,-0.5486028616403075,-2.0273823483609568
1686937625.883435,0.020464003086090088,0.5212975740432739,-0.8531295657157898,0.0002879854291677475,0.0025214552879333496,-0.0002334117889404297,0.006805398501455784,-0.003632558975368738,-0.0076733361929655075,0.023982382891587325,-0.5483707724165484,-2.0275366899751055
1686937625.975668,0.02054283209145069,0.521331250667572,-0.8531070947647095,0.0031388457864522934,-0.007476150989532471,0.003497779369354248,-0.0002854138147085905,0.0014828946441411972,0.0033980896696448326,0.02407536111622521,-0.548410219348567,-2.027524301014513
1686937625.9881802,0.020772749558091164,0.5215015411376953,-0.8529974222183228,0.0033056549727916718,-0.004106462001800537,0.005478620529174805,-0.0016889480175450444,0.0025592639576643705,0.0052348049357533455,0.024347838803933985,-0.5486097693781666,-2.027375974311474
1686937626.034181,0.020808739587664604,0.5215007662773132,-0.8529970645904541,-0.00046874023973941803,0.0020589232444763184,0.002975761890411377,0.004497211892157793,-0.0024372520856559277,0.004307093098759651,0.024390016712342418,-0.5486088714153365,-2.0273019931239795
1686937626.126543,0.020817598327994347,0.5214271545410156,-0.8530418276786804,0.0021469146013259888,0.0005303025245666504,0.0030510425567626953,-0.003922964911907911,0.0009305679704993963,0.0016628073062747717,0.024399117372004925,-0.5485226513454701,-2.027260504268626
1686937626.138678,0.020995302125811577,0.5214698910713196,-0.8530113697052002,-4.4949352741241455e-05,0.007918596267700195,-0.007202863693237305,-0.0004957672208547592,0.0028484167996793985,0.005243959836661816,0.024608188169346523,-0.5485726957663717,-2.0270123414683763
1686937626.1819282,0.02114091068506241,0.5213063955307007,-0.8531076908111572,0.0006639361381530762,0.0013224482536315918,-0.00022476911544799805,0.0038305502384901047,0.0004810662940144539,-0.003122393973171711,0.0247759851814196,-0.5483810975165281,-2.0268241770921427
1686937626.27463,0.02111302874982357,0.521310567855835,-0.8531058430671692,0.0010885465890169144,-0.00534975528717041,0.005190253257751465,0.0008163845632225275,0.0013149287551641464,-0.0002559672575443983,0.024743377166700175,-0.5483859888366941,-2.026858387003421
1686937626.2873468,0.021209780126810074,0.521308958530426,-0.8531044125556946,-0.0001068413257598877,-0.009666383266448975,0.0075234174728393555,0.00464431568980217,-0.0012919065775349736,0.005615171045064926,0.024856759944271074,-0.5483841164559546,-2.0267396859776503
1686937626.334721,0.02142072096467018,0.521409273147583,-0.8530378341674805,-1.2608245015144348e-05,0.002211332321166992,-0.0006150603294372559,-0.006753928959369659,0.0012403735890984535,0.0058782584965229034,0.025105826756998104,-0.5485016880527563,-2.0264880724365146
1686937626.426929,0.021497638896107674,0.5214769244194031,-0.8529945611953735,-0.002729291096329689,0.0020827054977416992,0.006620049476623535,-0.0036836315412074327,0.0036164589691907167,-0.004464094527065754,0.025197217726942393,-0.5485809727987845,-2.026452794319651
1686937626.438075,0.02140212245285511,0.5212510824203491,-0.8531349897384644,-0.003228871151804924,0.00813746452331543,-0.005065023899078369,0.0023024282418191433,0.000451505184173584,-0.003153553232550621,0.02508118303956094,-0.5483162613229838,-2.0266134529918816
1686937626.483951,0.02131311595439911,0.521039605140686,-0.8532663583755493,-0.00024069473147392273,0.004320502281188965,0.0004069209098815918,0.007959455251693726,-0.004566169809550047,-0.0060897208750247955,0.024973076597341055,-0.5480685155199461,-2.026759728884551
1686937626.5753288,0.02114148437976837,0.5209223031997681,-0.8533422946929932,0.0010906066745519638,-0.011003971099853516,0.00905829668045044,-0.0014217603020370007,-0.004315952304750681,-0.005846475251019001,0.024769850219718875,-0.5479310560833424,-2.0269505756577666
1686937626.587266,0.020991457626223564,0.5205630660057068,-0.8535651564598083,0.0014237388968467712,-0.006494402885437012,0.005008697509765625,0.008338192477822304,-0.003971871919929981,0.0019901427440345287,0.02458772628514989,-0.5475102829068932,-2.0270866446320994
1686937626.633312,0.020983105525374413,0.5202836990356445,-0.8537356853485107,0.0005165636539459229,-0.005665719509124756,0.008261442184448242,0.014502320438623428,-0.000546727329492569,-0.002196745714172721,0.024573041661987552,-0.5471831318184626,-2.027117701040118
1686937626.756808,0.02096322737634182,0.5193787813186646,-0.8542869687080383,-0.0011267662048339844,-0.0034485459327697754,0.0036553144454956055,0.024704357609152794,0.0070182750932872295,0.000902974046766758,0.024533935800863896,-0.5461238575340461,-2.0271636585564647
1686937626.768564,0.021441766992211342,0.5176770687103271,-0.855307400226593,-0.0021241046488285065,0.0028613805770874023,0.003897547721862793,0.06811799854040146,0.0054576885886490345,-0.02019025944173336,0.02506382661311553,-0.544133660873605,-2.0275097457839633
1686937626.846943,0.017583031207323074,0.5128331184387207,-0.8583082556724548,0.002146618440747261,-0.025329947471618652,0.03158712387084961,0.14830459654331207,-0.03199943155050278,-0.14159318804740906,0.02048281857511212,-0.5384816446746744,-2.0321897624797636
1686937626.8526402,0.0212543997913599,0.4999481439590454,-0.8657944798469543,-0.044722385704517365,0.029653996229171753,-0.0052838921546936035,0.37064483761787415,0.3390015959739685,-0.10679911822080612,0.024544082736592317,-0.5235388815073005,-2.0426419445158053
1686937626.935153,0.04392380639910698,0.48572269082069397,-0.873008668422699,0.013052545487880707,0.0954388678073883,-0.01770782470703125,0.5243633985519409,0.43707960844039917,0.29083889722824097,0.05027074969628617,-0.5071897654385237,-2.0335017000788898
1686937626.941052,0.09779044985771179,0.4598451554775238,-0.8825981616973877,-0.02074877917766571,-0.0003876686096191406,0.015715837478637695,0.09316656738519669,1.0927040576934814,0.9669686555862427,0.11034829772228777,-0.4778208018867921,-1.9885429673994248
1686937627.025,0.14624768495559692,0.459568053483963,-0.876018762588501,-0.15068796277046204,-0.13814160227775574,0.17982131242752075,-0.12886808812618256,0.12651321291923523,0.24486936628818512,0.1654202993844625,-0.47750878526065815,-1.948471379657587
1686937627.035256,0.14016853272914886,0.4596787691116333,-0.8769539594650269,0.07717770338058472,-0.07489782571792603,-0.08772194385528564,0.2545287311077118,-0.1666647493839264,0.23455320298671722,0.15849504493580685,-0.47763346291347925,-1.9415053375667115
1686937627.084402,0.14820821583271027,0.4461776614189148,-0.8825870156288147,-0.027175456285476685,0.03264316916465759,-0.021831870079040527,0.1188589558005333,0.024850521236658096,0.18112318217754364,0.16637251720504218,-0.4624897340102774,-1.9263783348572665
1686937627.1729941,0.14584487676620483,0.4468405246734619,-0.8826453685760498,0.007231354713439941,-0.03291529417037964,0.014435529708862305,-0.09377968311309814,-0.026837985962629318,-0.053353141993284225,0.16375645141020145,-0.4632305407216904,-1.9280757053933664
1686937627.185923,0.14972913265228271,0.44774043560028076,-0.8815382719039917,0.0049340128898620605,0.053220927715301514,-0.0282670259475708,-0.02633592300117016,0.02501216158270836,0.1186407282948494,0.16824420706388474,-0.46423672784192427,-1.92343637117638
1686937627.231775,0.1471073031425476,0.447132408618927,-0.8822879791259766,0.002108439803123474,-0.04220983386039734,0.031061232089996338,-0.001955796731635928,-0.10567186772823334,-0.04123895615339279,0.16521407098883778,-0.46355682771871043,-1.9227119503749792
1686937627.326376,0.14435012638568878,0.4493683874607086,-0.8816071152687073,0.0029430240392684937,0.002978503704071045,-0.02130115032196045,-0.06573238223791122,-0.01061994768679142,-0.04392481595277786,0.16229509635017456,-0.4660581924726883,-1.9234624912371863
1686937627.338358,0.14199425280094147,0.45414867997169495,-0.8795377612113953,-0.010722845792770386,-0.02650579810142517,0.006582438945770264,-0.15211397409439087,0.02231290191411972,-0.07985702157020569,0.16006086707274747,-0.4714164415917862,-1.9271287722424644
1686937627.383848,0.14257711172103882,0.4591657221317291,-0.8768344521522522,0.007706731557846069,0.01671019196510315,-0.024105429649353027,-0.08406314998865128,0.0373019203543663,-0.014652050100266933,0.16119359411022238,-0.47705584732184864,-1.9276862712287743
1686937627.475661,0.13979506492614746,0.4622873365879059,-0.8756413459777832,0.009695321321487427,-0.006232559680938721,0.03225761651992798,-0.08823683112859726,-0.05831525847315788,-0.0508396178483963,0.15831278806719112,-0.48057297508324587,-1.9299594920738963
1686937627.4880419,0.13915766775608063,0.46420273184776306,-0.8747290968894958,0.004275009036064148,0.0301516056060791,-0.009212493896484375,-0.003095666179433465,-0.04680150747299194,0.04484177008271217,0.15776452205741495,-0.4827342750652521,-1.928362350774571
1686937627.533844,0.13695508241653442,0.46497952938079834,-0.8746641874313354,0.0020525455474853516,-0.015867531299591064,0.01513659954071045,-0.019196169450879097,-0.05283313989639282,-0.022922631353139877,0.15531904453504325,-0.4836114898078885,-1.92788403062314
1686937627.626001,0.13678692281246185,0.4670849144458771,-0.8735679984092712,-0.009482786059379578,0.0082264244556427,-0.007138729095458984,-0.04193577915430069,0.004783562384545803,0.020370548591017723,0.1553229287208892,-0.48599109385243006,-1.9267106159143326
1686937627.6386971,0.13494957983493805,0.4688062071800232,-0.8729314804077148,-0.004486903548240662,-0.030894160270690918,0.02338320016860962,-0.052240174263715744,-0.03249123692512512,-0.05575411394238472,0.15337937096406348,-0.48793877418123793,-1.9282161699723868
1686937627.683621,0.13464635610580444,0.4701797068119049,-0.8722392916679382,-0.004351511597633362,0.024296700954437256,-0.011931180953979492,-0.004908988252282143,0.016719331964850426,0.008154662325978279,0.15315965368848286,-0.48949438768335074,-1.9286010572962438
1686937627.8063998,0.13240620493888855,0.4695356488227844,-0.8729289174079895,0.0022373944520950317,-0.0023877322673797607,0.022297263145446777,-0.006148254033178091,-0.06751634925603867,-0.06644434481859207,0.15053296656634876,-0.4887647653380565,-1.9307101580459487
1686937627.8191051,0.12996630370616913,0.4717971384525299,-0.8720758557319641,0.005867496132850647,0.013340890407562256,-0.03223621845245361,0.002261742716655135,0.006329674273729324,0.00835593044757843,0.14794209333215044,-0.4913279086310271,-1.9326386002015008
1686937627.896013,0.1295311599969864,0.47139906883239746,-0.8723558187484741,-0.005065172910690308,-0.002008110284805298,0.03028428554534912,0.0007527226116508245,-0.038548294454813004,-0.036802828311920166,0.1474072976316885,-0.490876501534339,-1.9328566169633774
1686937627.901638,0.1270984560251236,0.4713970422744751,-0.872714638710022,0.0062481313943862915,-0.0013194680213928223,-0.005337059497833252,0.008843139745295048,-0.01885237917304039,-0.047179363667964935,0.14461902546221816,-0.49087418563297247,-1.9353812022012091
1686937627.953539,0.12340489774942398,0.4705701172351837,-0.8736904859542847,-0.0032571405172348022,-0.013203084468841553,0.011309504508972168,0.097502700984478,-0.07414919137954712,-0.15283629298210144,0.14031734295324666,-0.48993680292055536,-1.9403742249710954
1686937627.963984,0.11158210784196854,0.4646889269351959,-0.8784154653549194,-0.028116479516029358,-0.020337671041488647,-0.006487488746643066,0.24191789329051971,-0.21418198943138123,-0.3710668981075287,0.12634989357257145,-0.48328328534195625,-1.9558703837200915
1686937628.012893,0.08765250444412231,0.4637359082698822,-0.8816269636154175,0.03586743026971817,-0.05177906155586243,0.01521766185760498,-0.10247945040464401,-0.4572814106941223,-0.5074913501739502,0.09909566100608644,-0.48220730616241697,-1.9796520345376907
1686937628.077259,0.05261486396193504,0.4636284410953522,-0.8844661712646484,0.03918204829096794,0.022241979837417603,-0.05658906698226929,0.05948300659656525,-0.6002331376075745,-0.5586398839950562,0.059417682978066856,-0.48208598709065015,-2.009693654384079
1686937628.193702,0.022184954956173897,0.4765508770942688,-0.8788669109344482,0.12239210307598114,0.3062708377838135,-0.353341281414032,0.32425805926322937,0.35839521884918213,0.11522465199232101,0.02523731877226351,-0.4967272724320133,-2.0268625986377544
1686937628.2073889,0.024673232808709145,0.47880586981773376,-0.8775740265846252,-0.11303684115409851,-0.0368349552154541,0.09817039966583252,0.13957388699054718,-0.14470896124839783,0.09625831991434097,0.028107867534591078,-0.49929403001931244,-2.0228607585318197
1686937628.285441,0.025102736428380013,0.48361408710479736,-0.8749213218688965,0.03365889564156532,-0.08256727457046509,0.07034063339233398,-0.10424081981182098,0.005184316076338291,-0.02246173657476902,0.028683552631125087,-0.504779081136689,-2.022370175588084
1686937628.297198,0.02544138953089714,0.4873785078525543,-0.8728201389312744,0.006480034440755844,-0.007321655750274658,0.010225534439086914,-0.0944751501083374,0.02644488774240017,-0.0036024954169988632,0.02914024048412375,-0.5090850170000192,-2.022696632289635
1686937628.467722,0.026065703481435776,0.49015387892723083,-0.8712460994720459,-0.012973630800843239,0.01419493556022644,-0.006408870220184326,-0.06870054453611374,0.01585749164223671,0.007058670744299889,0.029908807218775264,-0.5122662968839671,-2.022135116122259
1686937628.4736872,0.02691306173801422,0.49226370453834534,-0.8700299859046936,0.004214903339743614,0.0037538111209869385,-0.006617903709411621,-0.03702964261174202,0.004233367275446653,0.018645651638507843,0.030923626760789812,-0.5146884870908414,-2.0211065719341517
1686937628.523418,0.027138518169522285,0.49463680386543274,-0.8686760067939758,-0.0015342328697443008,0.00025159120559692383,0.015663981437683105,-0.049337584525346756,-0.001884925877675414,-0.013554494827985764,0.031231084867760238,-0.5174168861163543,-2.020898201749595
1686937628.5334969,0.02744751237332821,0.4963300824165344,-0.867699921131134,0.005252109840512276,-0.02632880210876465,0.0003140568733215332,-0.07108090072870255,0.016474146395921707,-0.007526330649852753,0.03162194989858143,-0.5193662905315781,-2.020966744567828
1686937628.536591,0.027661200612783432,0.49856024980545044,-0.8664136528968811,-0.006787139922380447,-0.0022985637187957764,0.020771563053131104,-0.04656649008393288,0.008491522632539272,-0.006132731679826975,0.03191525025138762,-0.5219370902810931,-2.0210004438377966
1686937628.582048,0.027537940070033073,0.49971944093704224,-0.8657494783401489,0.004078308120369911,0.0023100674152374268,-0.007785618305206299,-0.02898308075964451,-0.0014075408689677715,0.005510242655873299,0.03179748763816187,-0.523274850311069,-2.021229815221261
1686937628.675066,0.0276190172880888,0.5012139081954956,-0.8648825883865356,-0.003296472132205963,0.009177446365356445,-0.0023506879806518555,-0.03451734781265259,-0.005552671384066343,0.007299420889467001,0.03192298716726129,-0.5250010167168583,-2.02093941911148
1686937628.687139,0.02757057175040245,0.5023764371871948,-0.8642093539237976,-0.004819681867957115,-0.0028798580169677734,-0.010790586471557617,-0.04179548844695091,0.005589156411588192,-0.011658523231744766,0.03189183678533479,-0.5263450310970229,-2.0210394865512846
1686937628.733337,0.027555473148822784,0.5037102699279785,-0.8634330630302429,-0.004682512953877449,0.0010658502578735352,0.009185075759887695,-0.026628592982888222,-0.003377441084012389,-0.0013210650067776442,0.03190302192634739,-0.5278883384914848,-2.0208332855184747
1686937628.8212771,0.027520794421434402,0.5045586228370667,-0.8629387021064758,0.007727043703198433,-0.006740570068359375,0.007897257804870605,-0.017399601638317108,-0.003477869089692831,0.0011088696774095297,0.03188114092988636,-0.5288706946927337,-2.0211047624746854
1686937628.834813,0.027448175475001335,0.5058820843696594,-0.8621658682823181,-0.003995383158326149,-0.0041425228118896484,0.0038437247276306152,-0.03028005361557007,0.003902362659573555,0.005487971939146519,0.03182555724120192,-0.5304042358719783,-2.021063902667604
1686937628.885748,0.027246417477726936,0.506217896938324,-0.8619751334190369,-0.001092817634344101,0.0013962984085083008,-0.0018248558044433594,-0.02938811108469963,0.00263578980229795,-0.0011897047515958548,0.03159876458121256,-0.5307935802498798,-2.0212927702152093
1686937628.947423,0.02707924135029316,0.5070745944976807,-0.861476719379425,-0.004191020503640175,0.004903674125671387,-0.0011636018753051758,-0.01918349415063858,0.002532792277634144,0.001132471952587366,0.03142316873448004,-0.5317872276858118,-2.021354322376714
1686937629.034775,0.027405401691794395,0.5080690979957581,-0.8608801960945129,-0.00425778329372406,0.007510185241699219,-0.004476189613342285,-0.015769999474287033,0.00481546763330698,0.005568432621657848,0.03182341640298505,-0.5329415146165719,-2.021293528987323
1686937629.040982,0.027500182390213013,0.5086572170257568,-0.8605298399925232,-0.0025215093046426773,-0.0023247599601745605,0.005183219909667969,-0.012478296644985676,-0.0009637650800868869,-0.013640714809298515,0.031946395242446794,-0.5336244436030987,-2.021341782808358
1686937629.12344,0.026776587590575218,0.508629560470581,-0.8605690002441406,-0.003552675247192383,-0.00866001844406128,0.011371612548828125,0.00687021017074585,-0.004352251533418894,-0.006115787662565708,0.031104944159074593,-0.5335923380984969,-2.022103532210623
1686937629.133823,0.02654160000383854,0.5088367462158203,-0.8604537844657898,0.006219055503606796,-0.0010089278221130371,0.00594639778137207,0.009258024394512177,-0.009761238470673561,-0.0045304074883461,0.030836270801963304,-0.5338329920984693,-2.0224418453382693
1686937629.1816921,0.02631848305463791,0.5092505812644958,-0.8602157831192017,0.0008269380778074265,-0.002048313617706299,0.0021530985832214355,-0.022112632170319557,0.0032321116887032986,-0.001019295770674944,0.030585668318448844,-0.5343137518335247,-2.022646833433673
1686937629.338951,0.026478109881281853,0.5096755623817444,-0.8599591851234436,-0.008701583370566368,0.0018296241760253906,-0.0020555853843688965,-0.022905590012669563,0.007571772672235966,1.717335544526577e-05,0.03078023745279131,-0.5348076725449472,-2.0225407279687846
1686937629.351678,0.026550699025392532,0.5098926424980164,-0.8598282337188721,-0.001785648986697197,0.007166743278503418,-0.0036665797233581543,-0.0032347796950489283,-0.00021895882673561573,-0.005128519609570503,0.030869262995113875,-0.535059979468875,-2.0223948191464705
1686937629.428534,0.026724116876721382,0.510011613368988,-0.8597522974014282,0.007837075740098953,0.005094647407531738,0.005763649940490723,0.006463957019150257,-0.0031520179472863674,-0.002357134595513344,0.03107350392306904,-0.5351983231705334,-2.0223480258899453
1686937629.434339,0.02666785754263401,0.5100184082984924,-0.8597500324249268,0.0009048096835613251,-0.006875038146972656,0.0005733966827392578,0.0006582050118595362,0.0029953166376799345,-0.000802747206762433,0.03100821028435998,-0.5352062000419507,-2.0224188288539717
1686937629.439234,0.02666538394987583,0.5100513696670532,-0.8597305417060852,-0.002617495134472847,-0.008220195770263672,0.00877845287322998,-0.0009240033105015755,0.0036113858222961426,-0.003722171299159527,0.031006037892345954,-0.5352445098935977,-2.022432666208123
1686937629.5454102,0.026517873629927635,0.51027911901474,-0.8595999479293823,9.348616003990173e-05,0.0016227364540100098,0.0038718581199645996,-0.00035005598329007626,-0.003931605257093906,-0.0017611857037991285,0.03083930684940504,-0.5355092886402352,-2.022607600685146
1686937629.638345,0.02636812999844551,0.5097956657409668,-0.8598913550376892,0.0011892765760421753,0.007996141910552979,-0.0010247230529785156,0.014778406359255314,-0.005600781179964542,-8.569145575165749e-05,0.030654885106016418,-0.5349472632637262,-2.022573220006699
1686937629.6504002,0.026554642245173454,0.509276270866394,-0.8601933121681213,-0.0008893217891454697,0.005585849285125732,-0.007573962211608887,0.0029986391309648752,0.006952587515115738,0.006526338402181864,0.03086075041978302,-0.5343436338177361,-2.022211109455078
1686937629.6540442,0.026885082945227623,0.5090147256851196,-0.8603378534317017,-0.007628457620739937,0.0020632147789001465,0.0019242167472839355,0.0030209734104573727,0.004020567052066326,-0.006067583337426186,0.031239281097688712,-0.5340397264575217,-2.021856038294099
1686937629.723433,0.026809927076101303,0.5089717507362366,-0.860365629196167,0.005248824134469032,-0.0026697516441345215,0.008894741535186768,0.012947434559464455,-0.00490526994690299,-0.004629976116120815,0.031151004787701324,-0.5339898074741557,-2.0221509904922375
1686937629.734627,0.026616821065545082,0.5088067650794983,-0.8604692220687866,0.006555821746587753,-0.004992008209228516,0.001124739646911621,-0.004588283132761717,0.0022054100409150124,-0.005919246003031731,0.030923054214604898,-0.5337981663892729,-2.0224439089509874
1686937629.816361,0.026638882234692574,0.5091003179550171,-0.8602948784828186,-0.003704885020852089,-0.0007537007331848145,0.0019879937171936035,0.0010332746896892786,-0.001257591531611979,-0.008794493973255157,0.030954936216537648,-0.5341392031170524,-2.0227675890475334
1686937629.936907,0.026176949962973595,0.5087047219276428,-0.8605430126190186,-0.0048298705369234085,0.005043506622314453,-0.00322645902633667,0.0040453458204865456,-0.0006188456900417805,-0.01053217425942421,0.030409729877202044,-0.5336796546217426,-2.023382094484515
1686937629.949132,0.02578202821314335,0.5083475708961487,-0.8607659935951233,0.0004020910710096359,0.010176658630371094,-0.004697203636169434,0.01568673923611641,-0.0032984253484755754,-0.01422734372317791,0.02994347154759889,-0.533264835253063,-2.024153574171081
1686937630.0871692,0.025531841441988945,0.5082370638847351,-0.8608387112617493,0.00519939698278904,-0.0012484192848205566,-0.003922581672668457,-7.877661846578121e-05,-0.005542444996535778,-0.00929806474596262,0.02965057003647069,-0.533136489667108,-2.024593740110676
1686937630.099158,0.025443777441978455,0.5079639554023743,-0.8610024452209473,0.0009081866592168808,-0.003554046154022217,0.005137026309967041,0.016527315601706505,-0.0024207141250371933,-0.0012616435997188091,0.029542743263267633,-0.5328194168285024,-2.0246331010267347
1686937630.1438699,0.025651751086115837,0.5072709918022156,-0.8614047765731812,0.0016462597995996475,-0.0114823579788208,0.005890250205993652,0.01709398813545704,0.006757497787475586,0.004033120349049568,0.029770176418802197,-0.5320151534522665,-2.0245805428023265
1686937630.1540232,0.024963777512311935,0.5068240761756897,-0.8616880178451538,0.005294434726238251,-0.0034822821617126465,0.010918974876403809,0.04935254529118538,-0.043822936713695526,0.0019185037817806005,0.028962683842994094,-0.5314966100337079,-2.024974908709961
1686937630.157351,0.02176719531416893,0.5054754018783569,-0.8625664114952087,0.012092093005776405,-0.016049623489379883,0.016115665435791016,0.015085287392139435,-0.07148263603448868,-0.05604732781648636,0.025230029971549356,-0.5299328521733413,-2.026661833985708
1686937630.234033,0.025637565180659294,0.4996611773967743,-0.8658415079116821,-0.008028889074921608,-0.05621016025543213,0.03826582431793213,0.13497689366340637,0.30169081687927246,-0.08448779582977295,0.029601349061184664,-0.5232075647305161,-2.031504635040047
1686937630.2388,0.04318251460790634,0.4855671226978302,-0.8731322288513184,-0.04597483575344086,0.17378050088882446,-0.04579782485961914,0.5968632102012634,0.41099557280540466,0.4198988080024719,0.04941675080948966,-0.5070117763115681,-2.0220380131742046
1686937630.359229,0.1003347709774971,0.453279972076416,-0.8857032656669617,-0.08060510456562042,0.02139049768447876,-0.08451157808303833,0.2473577857017517,1.222787618637085,1.2149101495742798,0.11280171773374054,-0.4704416127373167,-1.9688338493597968
1686937630.473666,0.15960296988487244,0.45215165615081787,-0.8775452971458435,-0.19466762244701385,-0.1659577488899231,0.21644306182861328,-0.14608587324619293,0.19006043672561646,0.2858283519744873,0.17990786073657336,-0.4691762129987418,-1.9224107039022593
1686937630.487041,0.15854106843471527,0.4547443091869354,-0.8763973712921143,0.10412377119064331,0.01247987151145935,-0.18739956617355347,0.18195421993732452,0.011944137513637543,0.3733317255973816,0.1789654173118983,-0.4720851069189633,-1.910119753963414
1686937630.4911199,0.17278310656547546,0.4484032392501831,-0.8769723773002625,-0.04586045444011688,-0.03192979097366333,0.04475808143615723,-0.11768246442079544,0.059226032346487045,-0.026914674788713455,0.19453074828657,-0.46497811884640006,-1.893476296234015
1686937630.6238,0.16632527112960815,0.4595414698123932,-0.872443437576294,-0.001011490821838379,-0.020500272512435913,-0.01523655652999878,-0.14651116728782654,0.01829504407942295,-0.1557464599609375,0.18838251294036726,-0.47747886343854207,-1.9031267453094718
1686937630.636715,0.1685972511768341,0.4648607671260834,-0.8691832423210144,0.013943687081336975,0.02696061134338379,0.02013850212097168,-0.11593016982078552,0.009278912097215652,-0.04854397103190422,0.1915927982277629,-0.4834773412921613,-1.9045634655423886
1686937630.680408,0.1634630411863327,0.4696912169456482,-0.8675655722618103,0.025227203965187073,-0.007441401481628418,0.017696857452392578,-0.06174729764461517,-0.06836548447608948,-0.03878917917609215,0.18623247651315974,-0.4889409829592362,-1.9080821568474962
1686937630.685116,0.16317814588546753,0.4714145362377167,-0.866684079170227,0.003096938133239746,0.01842319965362549,-0.01310718059539795,-0.02253366820514202,-0.005131052806973457,-0.02039695531129837,0.18610008372194345,-0.49089402089863576,-1.9073871194155323
1686937630.688695,0.1601216346025467,0.4740292727947235,-0.8658275604248047,0.0027202069759368896,-0.026382088661193848,0.0025768280029296875,-0.09853664040565491,-0.01695622131228447,-0.03459756076335907,0.1828687161147271,-0.4938612494612397,-1.9100826609757804
1686937630.742477,0.16035455465316772,0.47699254751205444,-0.8641554117202759,-0.006515398621559143,-0.00683864951133728,-0.018214523792266846,-0.045697055757045746,0.0043325298465788364,-0.0008778818883001804,0.1834752794967726,-0.49722970238865594,-1.909205195868382
1686937630.835583,0.1588677614927292,0.4798476994037628,-0.8628483414649963,-0.013390421867370605,0.0019944310188293457,0.008630871772766113,-0.0695827454328537,-0.02089800499379635,-0.05038607865571976,0.18208089629917576,-0.5004811073707329,-1.9100026256099816
1686937630.848761,0.15681898593902588,0.48113054037094116,-0.8625087141990662,0.005504056811332703,0.0197393000125885,-0.021875441074371338,0.017501063644886017,-0.0382869690656662,-0.03336065635085106,0.1798526234147385,-0.5019438771778629,-1.9118334595277966
1686937630.925578,0.15324918925762177,0.4818603992462158,-0.8627429008483887,-0.0007070153951644897,-0.019564777612686157,0.023890972137451172,-0.023625381290912628,-0.0498792827129364,-0.06540314108133316,0.1757965658568804,-0.5027766115132319,-1.9147666003984132
1686937631.016612,0.15159593522548676,0.48279404640197754,-0.8625129461288452,0.002609431743621826,0.011606037616729736,-0.00861126184463501,0.005777006037533283,-0.005529182031750679,-0.015535587444901466,0.17398372473459997,-0.5038424443453041,-1.9162835041906776
1686937631.022633,0.1500493437051773,0.4831576347351074,-0.8625798225402832,-0.0031986981630325317,-0.009478986263275146,0.013260364532470703,-0.022386055439710617,-0.03030647523701191,-0.05935706943273544,0.1722307181635829,-0.5042576822285999,-1.918112244543315
1686937631.137614,0.14882518351078033,0.48430103063583374,-0.8621505498886108,2.434849739074707e-05,0.005857110023498535,-0.014131128787994385,0.0017978439573198557,0.016538795083761215,-0.015282819047570229,0.17093630579150254,-0.5055640814208561,-1.920377867878978
1686937631.149971,0.1493007093667984,0.48447006940841675,-0.8619733452796936,-0.0014887750148773193,-0.002322763204574585,0.012882828712463379,-0.017900094389915466,0.003931351006031036,-0.022623524069786072,0.17150642335309424,-0.5057572947354461,-1.921073556566551
1686937631.2233,0.14822989702224731,0.48496711254119873,-0.8618786931037903,0.006509527564048767,0.0029327571392059326,-0.002623260021209717,0.010744007304310799,-0.0066059911623597145,-0.042393531650304794,0.17031843084338885,-0.5063255528551498,-1.9231274843972344
1686937631.2344851,0.14496564865112305,0.4836205840110779,-0.8631895184516907,-0.0024332404136657715,0.0004493296146392822,0.0031431913375854492,0.11317668110132217,-0.06824847310781479,-0.14338898658752441,0.16638913852781148,-0.5047864970188595,-1.9281757703866067
1686937631.319133,0.13191716372966766,0.47821828722953796,-0.8682771325111389,0.0018414407968521118,-0.007713437080383301,0.010717988014221191,0.19733774662017822,-0.26732099056243896,-0.34975990653038025,0.15077673674779551,-0.4986248559779574,-1.943161431976861
1686937631.332137,0.1092209592461586,0.4746525287628174,-0.873370349407196,0.0027328133583068848,-0.04681125283241272,0.02644658088684082,0.03609241172671318,-0.2965705394744873,-0.4728647470474243,0.124410987704375,-0.4945692229348589,-1.9670504058736966
1686937631.435656,0.08574255555868149,0.4760907292366028,-0.8752061724662781,0.025188878178596497,0.06542852520942688,-0.03188300132751465,0.051642946898937225,-0.3563055396080017,-0.3738773763179779,0.09765677595192347,-0.4962039412873686,-1.9899149721399547
1686937631.447456,0.04538651555776596,0.48042574524879456,-0.8758602738380432,0.07270129024982452,-0.18515285849571228,0.09107029438018799,-0.3607630431652069,-0.9608664512634277,-0.8801619410514832,0.051773049794600665,-0.5011400687892436,-2.0232305401448607
1686937631.525089,0.022747796028852463,0.47859930992126465,-0.8777387142181396,-0.2712981700897217,0.9352343678474426,-0.11087816953659058,-0.08871176838874817,-0.13848796486854553,0.46298083662986755,0.025910564659004497,-0.49905874361357233,-2.027771580220489
1686937631.537375,0.02168215997517109,0.4878809154033661,-0.8726409077644348,0.047623295336961746,0.11835083365440369,-0.029290854930877686,-0.09513764083385468,-0.002704087644815445,0.08230964839458466,0.02484148938537397,-0.5096605014304197,-2.033965646089326
1686937631.617027,0.02294280380010605,0.49192318320274353,-0.8703362941741943,0.006582988426089287,0.012318849563598633,0.048833608627319336,-0.07594594359397888,0.028867831453680992,0.0009728153236210346,0.026354746206065063,-0.5142973178972292,-2.034115898023542
1686937631.622412,0.02429904229938984,0.4960971474647522,-0.8679269552230835,-0.006293637678027153,0.042797595262527466,-0.014183580875396729,-0.05689772963523865,0.02074250392615795,0.004540984984487295,0.027989332567272034,-0.5190979718094957,-2.034342981743073
1686937631.7389631,0.02413022518157959,0.49632391333580017,-0.8678020238876343,-0.015005432069301605,-0.019334077835083008,-0.009288430213928223,-0.03520717844367027,0.027818653732538223,-0.024017222225666046,0.02779897739547806,-0.5193591683940039,-2.034831309358729
1686937631.750886,0.024682924151420593,0.49780479073524475,-0.8669378161430359,-0.017984280362725258,-0.013551771640777588,0.023050546646118164,-0.036654822528362274,0.020368780940771103,0.005898331757634878,0.028463699203295285,-0.5210658138673266,-2.0348226444353634
1686937631.826659,0.02502082847058773,0.4989694058895111,-0.8662583231925964,0.006931111216545105,0.015572279691696167,-0.005750894546508789,-0.009932024404406548,-0.015591523610055447,-0.021012810990214348,0.02887576778013229,-0.5224091629516356,-2.0350873059646646
1686937631.8394961,0.024908190593123436,0.5003592371940613,-0.8654595613479614,-0.0038968026638031006,0.015403211116790771,-0.0331609845161438,-0.029968304559588432,0.005889733787626028,0.01715344935655594,0.028772362717781823,-0.5240136291409889,-2.0358807164697788
1686937631.944386,0.025302985683083534,0.5012868046760559,-0.8649111986160278,-0.004383152350783348,-0.0007526278495788574,-0.015810847282409668,-0.05577303096652031,0.009109867736697197,-0.006762002594769001,0.02924666848115634,-0.5250852686199131,-2.0351688389537443
1686937631.957272,0.025064319372177124,0.5026821494102478,-0.8641079068183899,0.0012723840773105621,-0.010555565357208252,0.007403254508972168,-0.03479043021798134,-0.008228948339819908,-0.0164291113615036,0.028997875508831684,-0.5266986306403312,-2.035531368629545
1686937632.004212,0.025463122874498367,0.5051230192184448,-0.8626716732978821,0.0004921127110719681,0.007724940776824951,0.01184159517288208,-0.03704352304339409,-0.0013593642506748438,-0.0013924711383879185,0.029508019981721676,-0.5295245054190049,-2.0354348065737167
1686937632.015207,0.025177937000989914,0.5054221749305725,-0.862504780292511,0.0057669226080179214,0.008432865142822266,-0.02288639545440674,-0.018262948840856552,-0.0012287232093513012,-0.0015405758749693632,0.02918336092168306,-0.5298711761229672,-2.0356663166639595
1686937632.018211,0.025178901851177216,0.5066795349121094,-0.8617667555809021,-0.00436587817966938,0.0011330246925354004,-0.0080299973487854,-0.044235922396183014,0.005300402175635099,0.009317697957158089,0.029209459409752832,-0.5313289933623505,-2.035579446077752
1686937632.061489,0.02525128424167633,0.5077257752418518,-0.8611485958099365,0.0029622502624988556,0.02083873748779297,-0.004162013530731201,0.0034806106705218554,-0.017399903386831284,-0.0003595638554543257,0.02931439578399938,-0.5325429479715649,-2.035380171297077
1686937632.1563091,0.024669375270605087,0.507999837398529,-0.8610038161277771,-0.002025296911597252,-0.0016216039657592773,-0.001361846923828125,-0.00958883948624134,-0.004996536299586296,-0.005431520752608776,0.028644039304002302,-0.5328611126858341,-2.0357482314482795
1686937632.275004,0.024748118594288826,0.5089682340621948,-0.8604295253753662,-0.0015547256916761398,-0.012462437152862549,0.0004899501800537109,-0.0194541085511446,-0.00042530056089162827,0.005024382378906012,0.02875459037503826,-0.5339857414152567,-2.035597682720311
1686937632.288365,0.024513527750968933,0.5090240836143494,-0.8604031801223755,0.0022351648658514023,-0.00473630428314209,0.014516949653625488,-0.008009500801563263,-0.0029238916467875242,-0.006816064938902855,0.028483040670767484,-0.5340506186867306,-2.0354514748233226
1686937632.399606,0.02459244802594185,0.5100060105323792,-0.859819233417511,0.003972038626670837,0.008350372314453125,0.005113482475280762,-0.009092911146581173,0.002042784122750163,0.005043756682425737,0.028594086111040935,-0.5351917613408957,-2.0354775730121437
1686937632.404984,0.024456333369016647,0.5099418759346008,-0.8598611950874329,-0.005245482549071312,0.0036843419075012207,-0.005129039287567139,0.007052055560052395,-0.004049796145409346,0.009528087452054024,0.028434522862761623,-0.5351172332258491,-2.035303465009126
1686937632.5196152,0.0245550237596035,0.5105611681938171,-0.8594907522201538,-0.0063207391649484634,-0.0027028322219848633,-0.007757723331451416,-0.028368882834911346,0.0056356946006417274,0.0055601103231310844,0.028561502022109084,-0.535837316807882,-2.035094292619606
1686937632.531598,0.024505896493792534,0.5111868381500244,-0.8591201901435852,0.0032040998339653015,0.012159228324890137,0.0013779401779174805,-0.0097078587859869,-0.00937701016664505,-0.010468890890479088,0.02851667655162511,-0.5365651082212398,-2.034975280007631
1686937632.5352101,0.024478327482938766,0.5120721459388733,-0.8585935831069946,0.008816385641694069,-0.004702091217041016,0.0005156397819519043,-0.005117199383676052,-0.004860981367528439,0.003049448598176241,0.02850207375235241,-0.5375955232806522,-2.035062915731318
1686937632.639858,0.024422071874141693,0.5123456120491028,-0.8584320545196533,0.003272661939263344,-0.013444185256958008,0.007754623889923096,-0.006937723606824875,0.00336601585149765,-0.005696072243154049,0.02844195450159104,-0.5379138834483094,-2.035085245191189
1686937632.652072,0.024103976786136627,0.5124109387397766,-0.8584020137786865,-0.00525934062898159,-0.011251270771026611,0.010974705219268799,-0.007198277860879898,0.005056723486632109,-0.0043381936848163605,0.028072680209950313,-0.5379900026659412,-2.035559242680396
1686937632.727209,0.02406379207968712,0.5124200582504272,-0.8583977222442627,0.0014489386230707169,0.013046860694885254,-0.0014349818229675293,0.010832654312252998,-0.005359725095331669,0.0011459875386208296,0.028026042623491523,-0.5380006264903657,-2.0355076802733505
1686937632.7397032,0.023959502577781677,0.5122407674789429,-0.8585076332092285,0.004864385351538658,0.015545487403869629,-0.010129392147064209,0.02387227676808834,-0.006807885132730007,-0.005161675624549389,0.02790107309704119,-0.5377918233540591,-2.0358120733927754
1686937632.846065,0.023800721392035484,0.511751651763916,-0.8588036894798279,-0.004116849973797798,-0.00427478551864624,-0.0024633407592773438,-0.009894801303744316,0.0028798554558306932,-0.007272331044077873,0.027706717148768458,-0.5372224335199978,-2.0360485632843144
1686937632.852573,0.023860368877649307,0.5115815997123718,-0.8589033484458923,0.00030958838760852814,-0.01069653034210205,0.006593227386474609,0.010338262654840946,0.006129617337137461,-0.0012684676330536604,0.027772896097095868,-0.537024517458716,-2.036165544838072
1686937632.937227,0.023693716153502464,0.5119184851646423,-0.8587071895599365,0.004168868064880371,-0.0034650564193725586,0.008914828300476074,-0.0012857576366513968,-0.0025968155823647976,-0.007756061386317015,0.027585312400449907,-0.5374166083840298,-2.0365511128262668
1686937632.950451,0.023550910875201225,0.512339174747467,-0.8584602475166321,0.00678359717130661,-0.0006051063537597656,0.00816422700881958,-0.002879429142922163,-0.005685403011739254,-0.008561700582504272,0.02742701879966795,-0.5379063886081012,-2.036896493971617
1686937632.954033,0.023313114419579506,0.5120392441749573,-0.8586456179618835,-0.006177457049489021,-0.003021240234375,-0.00500178337097168,-0.012496866285800934,0.011499562300741673,-0.0005226493813097477,0.02714436229217672,-0.537557187216527,-2.037111777603765
1686937632.9944692,0.023453162983059883,0.5124741792678833,-0.8583822846412659,-0.0037998072803020477,0.007133424282073975,0.0028373003005981445,-0.0023217392154037952,-0.004809089936316013,0.009663841687142849,0.027315718778827082,-0.538063640776908,-2.036998680720491
1686937633.1736422,0.02336825802922249,0.5122963190078735,-0.8584908246994019,0.0029226671904325485,0.00813525915145874,-0.00042635202407836914,0.008158090524375439,-0.0015544942580163479,-0.011466077528893948,0.027213441435311805,-0.537856479917194,-2.0371255274637012
1686937633.186405,0.023479795083403587,0.5123099684715271,-0.8584796190261841,0.005038915202021599,-0.0037497282028198242,0.005223453044891357,0.009945651516318321,0.0001550156157463789,-0.0018292295280843973,0.027343622871695887,-0.5378724273536333,-2.037205831216174
1686937633.266846,0.02348782867193222,0.5118675231933594,-0.8587432503700256,0.0007126461714506149,-0.011546969413757324,0.00782167911529541,0.011694465763866901,0.006944598630070686,-0.0038105882704257965,0.02734457975175581,-0.5373572555620759,-2.037371980031112
1686937633.272268,0.02358056977391243,0.5115464329719543,-0.8589320182800293,-0.0016231350600719452,-0.0025131702423095703,0.003921091556549072,0.0019308205228298903,0.004167014732956886,0.003384440904483199,0.027446465939520267,-0.5369835505095147,-2.037444884599537
1686937633.276854,0.02355930022895336,0.5115553736686707,-0.8589272499084473,0.0026400741189718246,0.006373763084411621,0.007212281227111816,0.008282605558633804,-0.0013061008648946881,-0.0006450552027672529,0.02742187304464051,-0.5369939706201894,-2.0375726990171064
1686937633.352015,0.02332550473511219,0.5113353729248047,-0.8590646386146545,-0.002115752547979355,0.005449354648590088,-0.008534789085388184,0.007913380861282349,-0.0021078058052808046,0.0019162734970450401,0.02714554221618869,-0.5367379719294637,-2.0378471251884456
1686937633.356968,0.023406101390719414,0.511185884475708,-0.8591514229774475,-0.0017996225506067276,0.0031726956367492676,-0.005457282066345215,-0.0012533757835626602,0.00045211799442768097,-0.004443521611392498,0.027236541762608216,-0.5365639787127146,-2.0377070508423927
1686937633.445364,0.023331671953201294,0.510956883430481,-0.8592897057533264,-0.0003519020974636078,-0.0006875991821289062,0.007467865943908691,0.018013177439570427,-0.003611532971262932,-0.0004835010040551424,0.027145607578076488,-0.5362975641299446,-2.0377593550200976
1686937633.451795,0.02338222600519657,0.5106306672096252,-0.8594822287559509,0.004022592678666115,-0.010630607604980469,0.008499562740325928,0.018888171762228012,-0.002682675840333104,0.0015238567721098661,0.027198306605279072,-0.5359181262466891,-2.0377615967076803
1686937633.5359511,0.023145755752921104,0.510003924369812,-0.8598606586456299,0.0026874076575040817,-0.006448566913604736,0.005719482898712158,0.018411343917250633,-0.0012461934238672256,-0.003103452268987894,0.026911533242509077,-0.5351893419406571,-2.0379843966428766
1686937633.548779,0.02284575253725052,0.5088863372802734,-0.8605305552482605,-0.0007204748690128326,-0.009542346000671387,0.010234534740447998,0.007061352021992207,-0.003987637814134359,-0.007084977813065052,0.026542214841119082,-0.5338905693659602,-2.038303152200494
1686937633.6261811,0.020995762199163437,0.5083488821983337,-0.8608952760696411,0.0003513190895318985,0.003644585609436035,0.013589978218078613,0.019409896805882454,-0.06990833580493927,-0.03141588717699051,0.02438345514418294,-0.5332663713449103,-2.0394409908663245
1686937633.716206,0.01863272115588188,0.5067023634910583,-0.8619197010993958,-0.012300290167331696,0.003780543804168701,0.004345297813415527,0.110608771443367,0.128108948469162,-0.04390687495470047,0.021614333033167177,-0.5313554152635527,-2.042633422407143
1686937633.7219958,0.026431120932102203,0.5031827092170715,-0.8637757897377014,-0.010851863771677017,0.04094576835632324,-0.006722867488861084,0.09576643258333206,0.1584540754556656,0.011325654573738575,0.030589971978575527,-0.5272777719826152,-2.0443998189294326
1686937633.8057609,0.041224874556064606,0.49324923753738403,-0.8689106702804565,0.015537858009338379,0.08142736554145813,-0.018509984016418457,0.39360135793685913,0.3285670876502991,0.2233716994524002,0.0474087666260792,-0.5158210406453089,-2.032988579507676
1686937633.8184562,0.07157107442617416,0.4776192903518677,-0.8756468296051025,-0.003867790102958679,-0.0242500901222229,-0.0043122172355651855,0.16036325693130493,0.5776559710502625,0.5584758520126343,0.08155380257117971,-0.49794296037350755,-2.009736348475163
1686937633.896799,0.11114189028739929,0.46968695521354675,-0.8758091330528259,-0.04389636218547821,-0.08443295955657959,0.024796009063720703,0.057658348232507706,0.5182987451553345,0.4587765634059906,0.12622724117041123,-0.4889361377634416,-1.979371560630312
1686937633.902855,0.1270439624786377,0.4640745222568512,-0.8766382932662964,-0.018065646290779114,-0.05390292406082153,0.10275828838348389,0.09450838714838028,-0.05080312117934227,0.19913586974143982,0.14391979122010315,-0.4825895227519877,-1.9618793554902656
1686937633.952579,0.12991146743297577,0.45942309498786926,-0.8786657452583313,0.03537178039550781,-0.0001029670238494873,-0.0559961199760437,0.0255424901843071,0.01323368027806282,0.18469654023647308,0.14678742898605687,-0.47734559483450045,-1.9517723214971017
1686937634.1067162,0.13553936779499054,0.46191325783729553,-0.8765074014663696,-0.029658585786819458,-0.029006093740463257,0.012127578258514404,-0.13643400371074677,0.10998409986495972,0.0768786296248436,0.15342056472108362,-0.480151177781156,-1.9445152875354865
1686937634.12004,0.14175450801849365,0.4662913680076599,-0.8731998801231384,-0.000900566577911377,-0.003537982702255249,0.011459827423095703,-0.10335569083690643,0.09185656160116196,0.058048248291015625,0.16093516139099528,-0.4850938218598087,-1.9400875252380818
1686937634.1648479,0.1437702625989914,0.46912944316864014,-0.8713482022285461,0.007734313607215881,-0.019544392824172974,0.028895258903503418,-0.051489345729351044,0.014159554615616798,-0.017701702192425728,0.1635241626562462,-0.4883047434059561,-1.9385639303535445
1686937634.169383,0.14354123175144196,0.47111839056015015,-0.8703122735023499,0.010267406702041626,0.0007750093936920166,0.012508988380432129,-0.05143290013074875,0.02443593367934227,0.0012937928549945354,0.16345917659259193,-0.4905582589325747,-1.9388262675211927
1686937634.173016,0.14253415167331696,0.47186827659606934,-0.8700714707374573,0.00539986789226532,-0.00893181562423706,0.01034557819366455,-0.03869864344596863,-0.03989278897643089,-0.05953802913427353,0.16237659988141045,-0.49140861668865693,-1.9407368289383315
1686937634.256422,0.14128871262073517,0.47417956590652466,-0.8690174221992493,-0.007804781198501587,0.012026578187942505,-0.010758519172668457,-0.008973359130322933,-0.01581653393805027,-0.039519716054201126,0.1611741797209773,-0.49403193558921255,-1.9425423248885367
1686937634.345521,0.138863205909729,0.4749201536178589,-0.86900395154953,0.005881711840629578,-0.012197285890579224,-0.0008690357208251953,-0.016377201303839684,-0.042128872126340866,-0.05991603061556816,0.15845617722127608,-0.4948732812921725,-1.9456231528826196
1686937634.351248,0.13762803375720978,0.47732481360435486,-0.867882251739502,0.00224931538105011,0.009400099515914917,9.971857070922852e-05,-0.04742134362459183,0.0016548412386327982,-0.012113858014345169,0.1572695759397885,-0.49760778631146263,-1.9474468798203273
1686937634.468988,0.13846272230148315,0.4777850806713104,-0.867496132850647,0.0036271661520004272,0.0034161508083343506,-0.004467368125915527,-0.006927506998181343,0.012053406797349453,0.012217547744512558,0.1582768442738264,-0.4981316713519509,-1.9472554691431996
1686937634.481508,0.13873586058616638,0.4787236750125885,-0.8669348359107971,-0.0076933205127716064,0.002080857753753662,0.010810017585754395,-0.03752462565898895,-0.002877912251278758,-0.005056614521890879,0.15868481707370252,-0.4992004018577949,-1.9465547124251599
1686937634.585535,0.13799886405467987,0.47897809743881226,-0.8669119477272034,-0.00048661231994628906,0.005427509546279907,-0.014374613761901855,0.018584787845611572,-0.00847190897911787,-0.005323663353919983,0.1578599191061726,-0.4994902217438037,-1.9471071824749167
1686937634.598789,0.1373932808637619,0.47960078716278076,-0.8666638135910034,-0.00714421272277832,-0.004884511232376099,0.0009717345237731934,-0.011224323883652687,-0.010986371897161007,-0.01700511947274208,0.15722282457770892,-0.500199690698623,-1.9471412992753878
1686937634.674485,0.1360730677843094,0.480534166097641,-0.8663550615310669,0.012761190533638,-0.008625537157058716,0.00203627347946167,-0.04794031009078026,-0.008323291316628456,-0.027980605140328407,0.15579110982262698,-0.5012637060464255,-1.9487765195943108
1686937634.687076,0.13631686568260193,0.4818945825099945,-0.8655607104301453,0.004491299390792847,-0.0010900795459747314,-0.010629415512084961,-0.005453047342598438,0.014225732535123825,-0.012999559752643108,0.15620662441795802,-0.5028156400532203,-1.9490868908074392
1686937634.767025,0.1357802152633667,0.4823625683784485,-0.8653843998908997,0.006767436861991882,0.0010969936847686768,0.015332579612731934,0.0075900619849562645,-0.00939627829939127,-0.03461693972349167,0.15563277300563497,-0.5033497887409589,-1.9504072356694704
1686937634.772616,0.13514064252376556,0.48204657435417175,-0.865660548210144,-0.0034572482109069824,-0.0008606016635894775,0.009825587272644043,0.01917346939444542,-0.010007433593273163,-0.04541875422000885,0.15486276024007758,-0.5029891107989115,-1.951938197775401
1686937634.916923,0.13237495720386505,0.4820718467235565,-0.8660736680030823,0.0009869039058685303,0.0043784379959106445,-0.0013731718063354492,0.042188845574855804,-0.03164804354310036,-0.09044794738292694,0.15167108717574576,-0.5030179319830158,-1.9557149247940315
1686937634.9223819,0.12572906911373138,0.47875940799713135,-0.8688968420028687,-0.0027584582567214966,-0.006774455308914185,0.007675588130950928,0.18001794815063477,-0.15705254673957825,-0.24337394535541534,0.14370224273996499,-0.4992410915576834,-1.9650334609869788
1686937634.926995,0.10412487387657166,0.4723024368286133,-0.8752648234367371,-0.01504402607679367,-0.037609994411468506,0.0036980509757995605,0.13726112246513367,-0.3918859362602234,-0.4624541699886322,0.11840736778589979,-0.49190110409019305,-1.986989982051066
1686937635.004106,0.06979507207870483,0.47607120871543884,-0.8766326904296875,0.07299671322107315,-0.05231931805610657,0.035492002964019775,-0.058601800352334976,-0.5574194192886353,-0.6380024552345276,0.07944964613632223,-0.4961817289227505,-2.0178165338486385
1686937635.015884,0.02412148006260395,0.4855044484138489,-0.8739013671875,0.044314220547676086,-0.061050623655319214,0.043762266635894775,-0.4323072135448456,-0.686751127243042,-0.9461299777030945,0.02759505445010235,-0.5069400757442212,-2.0584098970251734
1686937635.096273,0.006502168718725443,0.4744916260242462,-0.880236029624939,-0.21074102818965912,-0.03274962306022644,0.38315051794052124,-0.2958795726299286,0.14368459582328796,0.24160049855709076,0.007386712649268843,-0.4943863985932073,-2.0549991831026815
1686937635.102069,0.007840033620595932,0.48011520504951477,-0.8771704435348511,0.07156673818826675,-0.0007144808769226074,0.020923495292663574,-0.02454623021185398,0.01655033975839615,-0.019406758248806,0.008937630106174889,-0.500786036658273,-2.0547310821832983
1686937635.1544409,0.010237579233944416,0.48496246337890625,-0.8744750618934631,0.047547489404678345,0.011070340871810913,0.03809511661529541,-0.06925249844789505,0.03393061086535454,-0.007706160191446543,0.011706578607688862,-0.5063202546636965,-2.055066641227698
1686937635.2753592,0.010928560979664326,0.48721975088119507,-0.8732110261917114,0.0006071180105209351,0.06162375211715698,-0.012698948383331299,-0.0033917247783392668,-0.00799899734556675,0.006876776926219463,0.01251471800732458,-0.5089032165392721,-2.0555547645713
1686937635.2889628,0.010829313658177853,0.4876827895641327,-0.8729537129402161,-0.005336115136742592,-0.016033530235290527,-0.01863253116607666,-0.06706298142671585,0.016639994457364082,-0.018257837742567062,0.012404732972109133,-0.5094335470917358,-2.056240735033248
1686937635.4226031,0.011653196066617966,0.490546315908432,-0.8713372349739075,-0.01792452670633793,-0.00011351704597473145,-0.005005478858947754,-0.06371831148862839,0.02992706559598446,-0.0039030665066093206,0.013373124759407677,-0.5127165879082534,-2.056609232961191
1686937635.433416,0.012000910006463528,0.4912601113319397,-0.8709302544593811,0.0045854272320866585,0.014141559600830078,0.004658341407775879,0.0008339006453752518,-0.003248437773436308,-0.015299198217689991,0.01377854416215404,-0.5135358971319152,-2.0568807682900045
1686937635.520598,0.011631765402853489,0.49248674511909485,-0.870242178440094,0.004420513287186623,0.00043323636054992676,-0.0044068098068237305,-0.025214936584234238,-0.005602139048278332,-0.0010074779856950045,0.01336532809563565,-0.5149447426592367,-2.0578682604000034
1686937635.530926,0.011764840222895145,0.49353137612342834,-0.8696483969688416,0.0024258652701973915,-0.0028849542140960693,-0.011134564876556396,-0.0322505384683609,0.0014453441835939884,0.010983038693666458,0.013527447067016493,-0.5161454233441014,-2.0577282501305127
1686937635.534007,0.01173342578113079,0.4949261248111725,-0.8688558340072632,-0.0030053630471229553,0.005836904048919678,-0.002466738224029541,-0.028729509562253952,-0.017016980797052383,0.011791408061981201,0.013503634675583343,-0.5177498153052053,-2.0572952233414825
1686937635.604636,0.011284627951681614,0.49592533707618713,-0.8682918548583984,0.001487010158598423,0.0001532137393951416,0.005102217197418213,-0.03667527064681053,-0.010703344829380512,-0.013278191909193993,0.01299562244809712,-0.5189001051404024,-2.057048673244685
1686937635.617136,0.01119010429829359,0.4982507824897766,-0.8669607639312744,0.0026343902572989464,-0.005574971437454224,-0.0013100504875183105,-0.03210299834609032,-0.0005414008628576994,0.008604769594967365,0.012906561915699902,-0.5215801395781525,-2.0572302843724466
1686937635.728967,0.011250252835452557,0.4998737871646881,-0.8660252094268799,0.004267970100045204,-0.017680704593658447,0.008389770984649658,-0.047679100185632706,-0.0054056113585829735,-0.006646355148404837,0.012989944885594311,-0.5234530448215822,-2.0570908381577078
1686937635.734723,0.010741537436842918,0.5017446875572205,-0.864949107170105,0.0006415508687496185,-0.005132019519805908,0.014820992946624756,-0.03899021074175835,-0.0022025874350219965,-0.016618195921182632,0.01241805477344287,-0.5256145112963323,-2.057697669545228
1686937635.845768,0.010412598960101604,0.5036275386810303,-0.863858163356781,0.003778105601668358,-0.00037735700607299805,0.006359994411468506,-0.04491941258311272,0.0016685961745679379,-0.007264341227710247,0.012053014647637516,-0.5277925974656507,-2.058268385269618
1686937635.851301,0.010365001857280731,0.5055090188980103,-0.8627590537071228,-0.0013317633420228958,0.002395153045654297,-0.003482341766357422,-0.05029555782675743,0.005801662802696228,0.0029443535022437572,0.012013206449753346,-0.5299718129421012,-2.0586163579208474
1686937635.934918,0.010563314892351627,0.5075886845588684,-0.8615347743034363,-0.003590014763176441,0.003046691417694092,-0.004904985427856445,-0.050842925906181335,0.011381344869732857,-0.002968962537124753,0.012260428405242989,-0.5323838554460907,-2.05887966676864
1686937635.9406729,0.010613521561026573,0.5086885690689087,-0.8608852028846741,-0.0019922740757465363,0.008737027645111084,0.010085701942443848,-0.008422737941145897,-0.008493666537106037,-0.010807977057993412,0.012327990088102715,-0.5336608731297193,-2.0592060101142344
1686937636.0282578,0.010495997034013271,0.5089061856269836,-0.8607580065727234,0.00284021720290184,-0.004725217819213867,0.012430429458618164,-0.0002185925841331482,-0.0017290377290919423,-0.0022984121460467577,0.012193295655932903,-0.5339136594137622,-2.0594084620834088
1686937636.0409899,0.01056382991373539,0.5099206566810608,-0.8601565957069397,0.0008650347590446472,-0.008303165435791016,0.0035282373428344727,-0.026210995391011238,0.009132718667387962,0.00330621050670743,0.012280669656161768,-0.5350925796175009,-2.059414069462541
1686937636.1167932,0.01074093859642744,0.5105626583099365,-0.8597734570503235,0.001893371343612671,-0.0005222558975219727,0.007112383842468262,-0.017967496067285538,0.004333116114139557,0.0011296090669929981,0.012492103723925393,-0.5358390116706605,-2.0592717702847363
1686937636.122707,0.01103211846202612,0.5117548108100891,-0.8590607047080994,-0.0031127743422985077,0.017847299575805664,-0.0035796165466308594,-0.04238351434469223,0.0022056098096072674,0.003594464622437954,0.012841364465494555,-0.5372261134265257,-2.0588956455738905
1686937636.2070088,0.010855424217879772,0.5121070742607117,-0.8588530421257019,0.004754349589347839,0.008538126945495605,-0.00805974006652832,-0.009803696535527706,-0.0022478746250271797,-0.01124436967074871,0.012638770276079151,-0.5376361901533036,-2.0589969865651505
1686937636.2194328,0.010882765986025333,0.5128604173660278,-0.8584030866622925,-0.0033754073083400726,0.0038022994995117188,-0.0011855363845825195,0.00865146517753601,-0.005552791059017181,0.011685214936733246,0.01267724185268062,-0.5385134617118795,-2.0590244288239554
