Timestamp,gravityX,gravityY,gravityZ,accelerationX,accelerationY,accelerationZ,rotationRateX,rotationRateY,rotationRateZ,attitudeRoll,attitudePitch,attitudeYaw
1686937656.36795,-0.8984970450401306,0.43620729446411133,0.049262091517448425,0.005079448223114014,0.0030780434608459473,0.009209759533405304,0.011395864188671112,-0.0078815259039402,0.025000452995300293,-1.6255687078522663,-0.45137951973495266,1.3472642983006702
1686937656.517237,-0.8977368474006653,0.4377574324607849,0.04936882480978966,-0.0034473538398742676,0.004808485507965088,0.006615877151489258,0.0458938367664814,-0.01071823202073574,0.032204803079366684,-1.6257335281951826,-0.4531028996445712,1.3493750659468196
1686937656.522788,-0.8969793319702148,0.4392770230770111,0.049640607088804245,-0.004998326301574707,-0.0012887120246887207,0.0027277469635009766,0.039327386766672134,-0.017113719135522842,0.022648682817816734,-1.6260819024971167,-0.4547937301283023,1.3509815962963216
1686937656.5274959,-0.8962523341178894,0.4407682418823242,0.04955184459686279,0.002026200294494629,-0.005236625671386719,-0.002310514450073242,0.03584033250808716,-0.01798301562666893,0.034678880125284195,-1.6260279217402172,-0.4564543658972402,1.353524525843336
1686937656.531158,-0.8956032991409302,0.4421120584011078,0.049314383417367935,-0.001171112060546875,0.0007285177707672119,0.001512765884399414,0.06924021989107132,-0.018472209572792053,0.02409953996539116,-1.625803533389357,-0.45795200814762815,1.3559483612415533
1686937656.602375,-0.8949356079101562,0.4435097873210907,0.04888463020324707,0.0005568265914916992,-0.0033394694328308105,-0.00025475025177001953,0.030827000737190247,-0.021432634443044662,0.03751734271645546,-1.6253657245873276,-0.4595108838040298,1.3593875003896463
1686937656.6062841,-0.8940866589546204,0.4451948404312134,0.04910082742571831,-0.00010895729064941406,0.0008348524570465088,-0.002225637435913086,0.02385910600423813,-0.01356808003038168,0.037086114287376404,-1.6256585203464418,-0.46139183984727633,1.360345077115687
1686937656.663414,-0.8930806517601013,0.4471496045589447,0.04964115098118782,-0.0037241578102111816,-0.0040191709995269775,-0.005344755947589874,-0.01329081505537033,-0.011492585763335228,0.05176156014204025,-1.6263233661501744,-0.4635760717145587,1.3607283535708623
1686937656.786878,-0.8920581936836243,0.4491511881351471,0.04995788633823395,-0.0028547048568725586,-0.0032740533351898193,-0.009079448878765106,-0.01139491144567728,0.0019270828925073147,0.04077708721160889,-1.6267408337765583,-0.46581508627107665,1.3601948017410543
1686937656.799813,-0.891207754611969,0.45086902379989624,0.049661897122859955,0.0020017027854919434,-0.007433295249938965,-0.011514782905578613,0.008503538556396961,0.00645111408084631,0.03410017490386963,-1.6264630237184956,-0.46773868406150415,1.3594949547277904
1686937656.87496,-0.8906133770942688,0.45211198925971985,0.04901885986328125,-0.002697288990020752,-0.01844191551208496,-0.0038679838180541992,-0.03196999803185463,0.009083675220608711,0.030162757262587547,-1.625780288610012,-0.4691317383351239,1.3595927792385767
1686937656.887589,-0.8903588056564331,0.4526739716529846,0.0484519898891449,0.00753098726272583,-0.0009528100490570068,0.00020849332213401794,0.016605019569396973,0.00794243160635233,0.005432178732007742,-1.6251612043405126,-0.46976189023050813,1.35884004451458
1686937657.026463,-0.8902959227561951,0.45283088088035583,0.048141688108444214,0.0027225613594055176,-0.008647501468658447,0.00189208984375,-0.03077000007033348,0.0055859871208667755,0.012450872920453548,-1.6248175212011955,-0.4699378630442512,1.3588102304121799
1686937657.039531,-0.890147864818573,0.45312362909317017,0.04812343791127205,0.000560462474822998,0.0034345686435699463,-0.007275469601154327,0.002590509597212076,0.019205566495656967,0.0039755296893417835,-1.6248060450614856,-0.4702662205738278,1.3577578791871703
1686937657.043479,-0.89020836353302,0.4530909061431885,0.04730799049139023,0.0026807785034179688,-0.008266657590866089,-0.0013178586959838867,-0.016437280923128128,0.015935856848955154,-0.0005966853350400925,-1.623888986908015,-0.4702295351830819,1.3576167220149216
1686937657.147213,-0.8903313875198364,0.4528712332248688,0.04709445312619209,0.0029564499855041504,-0.007284075021743774,-0.001348499208688736,-0.019402552396059036,0.011246202513575554,-0.011471005156636238,-1.6236424980456723,-0.4699831201475228,1.3563432379742355
1686937657.1526809,-0.8906839489936829,0.4522046446800232,0.046835437417030334,0.0038123726844787598,-0.007197260856628418,-0.0006620846688747406,-0.02260798029601574,0.012628036551177502,-0.016310833394527435,-1.6233316200004417,-0.4692356237141244,1.3556065046081722
1686937657.236176,-0.8912134170532227,0.45116668939590454,0.0467698909342289,0.004143655300140381,-0.008844941854476929,0.0031417571008205414,-0.022178970277309418,0.015122992917895317,-0.027334455400705338,-1.6232271195782195,-0.4680722155234832,1.3540221886919719
1686937657.242239,-0.8918634653091431,0.44990843534469604,0.046497464179992676,0.003954529762268066,-0.0021088123321533203,-0.00018692389130592346,-0.006424665451049805,0.00611124187707901,-0.02225644141435623,-1.6228843513311495,-0.4666628226980846,1.3536374382157468
1686937657.322624,-0.8924652338027954,0.4486980736255646,0.046648479998111725,0.0016570091247558594,0.0004596710205078125,0.0007454156875610352,-0.02546689845621586,0.00419970415532589,-0.025859365239739418,-1.6230180438568578,-0.4653079943458448,1.352622923604208
1686937657.3360682,-0.8929611444473267,0.4476918876171112,0.046822357922792435,0.0020462870597839355,0.007279396057128906,0.0024026595056056976,-0.0011182082816958427,0.0006651708390563726,-0.021300265565514565,-1.6231832822743453,-0.46418244237209044,1.3518118301316706
1686937657.420016,-0.8933660984039307,0.44688647985458374,0.04679550230503082,0.0019627809524536133,0.0012031793594360352,0.0013766288757324219,-0.016190296038985252,0.0005804556421935558,-0.019202692434191704,-1.6231296006025941,-0.4632819044784223,1.3517907409518382
1686937657.4330359,-0.8936794400215149,0.44625312089920044,0.04685316979885101,0.004122614860534668,0.005269676446914673,-0.0029381588101387024,0.00662885420024395,-0.001935645705088973,-0.0181916244328022,-1.6231756353208124,-0.46257404958316917,1.3516635099447636
1686937657.536573,-0.89396733045578,0.44568029046058655,0.04681781306862831,0.0008702874183654785,-0.00325167179107666,-0.0032690763473510742,-0.004833088256418705,0.007030271925032139,-0.013633325695991516,-1.6231193580503553,-0.4619340544918255,1.351425243120076
1686937657.5498018,-0.8942885398864746,0.44509056210517883,0.04628710448741913,0.0008254051208496094,-0.0013497471809387207,0.00031327828764915466,-0.005547202192246914,0.01249981950968504,-0.016373317688703537,-1.622508763205446,-0.4612753825067835,1.3516049201030118
1686937657.653565,-0.8945692777633667,0.4445638358592987,0.0459221750497818,0.00011432170867919922,0.003922492265701294,0.0005714856088161469,0.022709432989358902,-0.0025199695955961943,-0.013898942619562149,-1.6220857019775734,-0.4606872626066819,1.351925223168273
1686937657.666511,-0.8948583006858826,0.4440048933029175,0.04569865018129349,-0.002633213996887207,0.0007582902908325195,0.0026870928704738617,-0.019041694700717926,0.005931118503212929,-0.009315308183431625,-1.621820029276074,-0.46006336385059077,1.352109177843081
1686937657.774328,-0.8950730562210083,0.4435725808143616,0.04569004848599434,0.0023881196975708008,0.00898781418800354,-8.142367005348206e-05,0.012495956383645535,-0.010401634499430656,-0.012948425486683846,-1.6217982259047734,-0.459580937624987,1.352146667418129
1686937657.7866712,-0.8951135873794556,0.4434693455696106,0.04589791223406792,-0.0010961294174194336,0.006497025489807129,-0.0021661557257175446,0.01153399795293808,-0.005103755742311478,-0.0030479917768388987,-1.6220275344822226,-0.45946578140667,1.3527087645983316
1686937657.894131,-0.8951348066329956,0.4434022307395935,0.04613606631755829,0.004662215709686279,-0.0037506520748138428,-0.0007257424294948578,-0.011137939989566803,-0.014460865408182144,-0.003408018033951521,-1.6222916725757568,-0.459390898214703,1.3526967278504305
1686937657.907505,-0.895038366317749,0.44351252913475037,0.04694145917892456,0.0025058388710021973,-0.0015721917152404785,-0.006368160247802734,-0.007822692394256592,-0.014024106785655022,-0.0008596391417086124,-1.6231946324432645,-0.4595139376253665,1.3522368986563753
1686937657.9111109,-0.8951102495193481,0.44332921504974365,0.04729936644434929,0.0018453001976013184,0.00019812583923339844,-0.0048645660281181335,-0.024130292236804962,0.0037950773257762194,0.0010857335291802883,-1.6235891700000362,-0.4593094166609974,1.351695627164284
1686937657.9512181,-0.8950474858283997,0.44341519474983215,0.047678131610155106,0.0030032992362976074,0.0026602745056152344,-0.0015354156494140625,-0.017787368968129158,-0.004395767115056515,0.0006881901063024998,-1.6240148590187795,-0.45940536395929993,1.3507809420436203
1686937657.9551759,-0.8950119018554688,0.4434203505516052,0.04829634353518486,-0.0021593570709228516,0.0028840601444244385,0.002332456409931183,-0.03618909791111946,-0.0002286259550601244,0.0011994836386293173,-1.6247057212795002,-0.45941109433012006,1.3489568764193438
1686937658.011005,-0.8948348760604858,0.4436704218387604,0.04926903918385506,0.003477334976196289,0.0007418394088745117,0.0028704404830932617,-0.04255956411361694,-0.011147679761052132,0.008505100384354591,-1.625800151690774,-0.459690117949513,1.3469929000850551
1686937658.105171,-0.894520103931427,0.4441163241863251,0.05093817412853241,0.004337489604949951,0.0040343403816223145,0.005565285682678223,-0.03885055333375931,-0.02005843073129654,0.018089883029460907,-1.6276795898175165,-0.46018775022567077,1.3444334986950064
1686937658.118266,-0.8937685489654541,0.4453863203525543,0.05299917608499527,0.0031893253326416016,0.02698001265525818,-0.002812866121530533,-0.07041222602128983,0.003776142606511712,0.05201875418424606,-1.6300255167307385,-0.46160568877738195,1.3411468625775775
1686937658.1941009,-0.8913032412528992,0.45033302903175354,0.052716635167598724,0.006842672824859619,0.15000876784324646,-0.015195131301879883,-0.011923125013709068,0.09797093272209167,0.20710517466068268,-1.629873072693177,-0.4671383056779482,1.337376352739902
1686937658.317385,-0.8833343386650085,0.4659769833087921,0.050856947898864746,0.015337944030761719,0.25515347719192505,-0.005461804568767548,-0.5402807593345642,0.22456946969032288,0.5360279679298401,-1.6283066772135468,-0.4847384697232005,1.3225494063208265
1686937658.322783,-0.8655981421470642,0.4974645972251892,0.05717351660132408,-0.007235050201416016,0.3754754364490509,0.04754768684506416,-0.6731806993484497,0.14116103947162628,0.9918122887611389,-1.636751404294938,-0.5206736077988037,1.281285367141129
1686937658.43714,-0.8329238295555115,0.5482624173164368,0.07514246553182602,-0.00014507770538330078,0.354569673538208,0.06809186935424805,-0.4436393678188324,-0.314067006111145,1.4817755222320557,-1.6607680600741594,-0.5802851207102528,1.2451561368539874
1686937658.450278,-0.7802513241767883,0.6161008477210999,0.10783252120018005,-0.09311604499816895,0.24602073431015015,0.11607503145933151,-0.46288955211639404,-0.6966562271118164,1.9616990089416504,-1.708128684394215,-0.6637828030953101,1.2068649584023607
1686937658.6490169,-0.7027390003204346,0.6944406628608704,0.15462951362133026,-0.17099452018737793,0.21434229612350464,0.10419021546840668,-0.32135581970214844,-1.0591046810150146,2.382351875305176,-1.7873831737945922,-0.7676422999453392,1.1545909293779253
1686937658.654282,-0.5975818037986755,0.7764228582382202,0.2001596987247467,-0.22169315814971924,0.18788689374923706,0.09772253036499023,-0.17036405205726624,-1.2059482336044312,2.7182228565216064,-1.8940006835563534,-0.8889697090438315,1.087048048329234
1686937658.6588411,-0.46698418259620667,0.8513691425323486,0.2389487624168396,-0.2801014482975006,0.21174120903015137,0.07432959973812103,-0.3265346586704254,-1.151598572731018,2.9730865955352783,-2.043748102905931,-1.018589845061257,0.9771943464089449
1686937658.768742,-0.31700751185417175,0.9027686715126038,0.290714830160141,-0.28249508142471313,0.18736499547958374,0.11342963576316833,-0.9343564510345459,-1.230552077293396,3.1318819522857666,-2.3129571977828327,-1.1261635962006402,0.7390562434624215
1686937658.774292,-0.1465362161397934,0.926945149898529,0.345398485660553,-0.3420197069644928,0.24531137943267822,0.09429895877838135,-0.6687071919441223,-1.4562422037124634,3.3583712577819824,-2.7403551771872436,-1.1861871392612762,0.3463188628078889
1686937658.779007,0.042090900242328644,0.9291214346885681,0.3673713207244873,-0.43677473068237305,0.2063612937927246,0.04829344153404236,-0.11709241569042206,-1.5845909118652344,3.4959585666656494,3.0275168958028558,-1.1920296967665527,-0.1241311297215275
1686937658.791409,0.23271417617797852,0.906439483165741,0.35243749618530273,-0.458071231842041,0.14254140853881836,0.055872708559036255,0.1844836175441742,-1.516592264175415,3.517399549484253,2.5580112828626844,-1.134775699128152,-0.5493336662909788
1686937658.918484,0.40944692492485046,0.8536209464073181,0.3220007121562958,-0.43943050503730774,0.06498861312866211,-0.0013523995876312256,0.16461268067359924,-1.2725070714950562,3.389512300491333,2.23720695464058,-1.0228975661208466,-0.8325406325294881
1686937658.9242702,0.5599297285079956,0.7752439975738525,0.2923617959022522,-0.3788537383079529,-0.007498025894165039,-0.0022463202476501465,-0.04252681881189346,-1.0539354085922241,3.111910104751587,2.0519988039605463,-0.8871012594656185,-0.9879969207177217
1686937658.928958,0.6828638911247253,0.6820055842399597,0.26184988021850586,-0.35368603467941284,0.03410464525222778,-0.014107972383499146,0.15024329721927643,-0.8824987411499023,2.9085896015167236,1.936961860658487,-0.7505014452723616,-1.0788738840819745
1686937658.973269,0.7835385203361511,0.5792975425720215,0.22468222677707672,-0.2942805886268616,0.07254272699356079,0.017978429794311523,0.18647249042987823,-0.8125156760215759,2.7913339138031006,1.8500562998340295,-0.6178666419777533,-1.1500592911619343
1686937658.9817991,0.8641228079795837,0.4665164053440094,0.1888228952884674,-0.2770105004310608,0.11572840809822083,0.041340798139572144,0.03970985487103462,-0.7727775573730469,2.718884229660034,1.7859287439997393,-0.4853482187229946,-1.197357255253605
1686937658.9847941,0.9265152812004089,0.3441923260688782,0.1519917994737625,-0.2500624656677246,0.1282656192779541,0.0522320419549942,0.0759725421667099,-0.8194040060043335,2.732041358947754,1.7333947881792537,-0.3513784177715824,-1.2267783014568217
1686937659.030119,0.970840573310852,0.21323518455028534,0.10954392701387405,-0.24241626262664795,0.20967747271060944,0.08404447138309479,0.161726713180542,-0.8960247039794922,2.835286855697632,1.6831552097866929,-0.21488511334733998,-1.2533034231744546
1686937659.096799,0.9955552220344543,0.07006674259901047,0.06293398141860962,-0.20574498176574707,0.20610210299491882,0.06034195423126221,0.20195189118385315,-0.9503254294395447,2.955148458480835,1.6339272784177146,-0.07012420088477075,-1.2723214974890664
1686937659.1539369,0.996504008769989,-0.08242848515510559,0.013622507452964783,-0.24375736713409424,0.2256627380847931,0.08890151977539062,0.09670524299144745,-1.011616826057434,3.145259380340576,1.5844657740123276,0.08252211354999098,-1.2894739513222742
1686937659.27511,0.9704002737998962,-0.23870998620986938,-0.03662273660302162,-0.2550376057624817,0.19966274499893188,0.08275020122528076,0.21034014225006104,-1.0490350723266602,3.1847193241119385,1.5330744043124533,0.2410372234863084,-1.290421492203983
1686937659.288146,0.9158225655555725,-0.3934420049190521,-0.08045434951782227,-0.2629140615463257,0.17582112550735474,0.052607178688049316,0.48436158895492554,-1.0553417205810547,3.2797608375549316,1.4831720020385564,0.4043725544294384,-1.3002475893833076
1686937659.398889,0.8333112597465515,-0.5410224795341492,-0.11352140456438065,-0.26652348041534424,0.16548842191696167,0.0504722073674202,0.6412506103515625,-1.0548852682113647,3.2912967205047607,1.435400511625871,0.5716523979599115,-1.3111620539105684
1686937659.403885,0.7298387885093689,-0.6705861687660217,-0.13285298645496368,-0.27263951301574707,0.08943980932235718,0.0024667829275131226,0.7044839262962341,-0.8943539261817932,3.098456382751465,1.390737219791879,0.7349987080190289,-1.3201541857314265
1686937659.4867492,0.6154760718345642,-0.776738703250885,-0.1336652785539627,-0.28933459520339966,0.053822994232177734,-0.03386080265045166,0.7566120624542236,-0.749726414680481,2.831838607788086,1.3569433278783616,0.8894710763875241,-1.3314830284973724
1686937659.500027,0.5001441836357117,-0.8573556542396545,-0.12164397537708282,-0.2636939287185669,0.03795868158340454,-0.025435321033000946,0.6595767736434937,-0.6055504083633423,2.5479185581207275,1.3322110051869578,1.0301101086382822,-1.3412242956947011
1686937659.575498,0.39155808091163635,-0.9131372570991516,-0.1134137436747551,-0.23158487677574158,-0.02672785520553589,0.020991452038288116,0.4563181400299072,-0.46850672364234924,2.1441073417663574,1.2888642659483232,1.1509148986936435,-1.3227604268456084
1686937659.700883,0.30012813210487366,-0.9498999118804932,-0.08725495636463165,-0.13218984007835388,-0.07936650514602661,-0.015543393790721893,0.9163284301757812,-0.5663831233978271,1.7201486825942993,1.2878696460092756,1.2529155775557639,-1.3485883601763227
1686937659.705604,0.23514388501644135,-0.969441831111908,-0.0699293464422226,-0.10141581296920776,-0.2845712900161743,0.08437955379486084,-0.5101854205131531,-0.5049100518226624,0.495561808347702,1.281736127632638,1.3229452302254805,-1.3746167808310659
1686937659.709193,0.24486570060253143,-0.9621126055717468,-0.11991813033819199,-0.08171868324279785,-0.5476531386375427,-0.36888182163238525,0.3322863280773163,0.28104907274246216,-0.21575690805912018,1.1153982718479358,1.2946474696485755,-1.193098482303009
1686937659.937326,0.24873453378677368,-0.9646583795547485,-0.08698119223117828,0.1141653060913086,-0.058062076568603516,0.016562044620513916,-0.003672203980386257,0.17321065068244934,-0.0812680646777153,1.234393370965465,1.3041439382855846,-1.3118924440742004
1686937659.9509149,0.24467764794826508,-0.9653091430664062,-0.09116588532924652,0.04728405177593231,0.11847680807113647,0.07839442044496536,0.11678161472082138,-0.14168806374073029,0.16635195910930634,1.214135043457642,1.3066248431077545,-1.2909530527675628
1686937660.1184669,0.24146278202533722,-0.9668187499046326,-0.08341112732887268,-0.06464387476444244,-0.07589066028594971,-0.08724301308393478,0.14855094254016876,-0.014941899105906487,0.00986354611814022,1.238188803038877,1.3124693582158686,-1.3197097833238771
1686937660.123231,0.24041856825351715,-0.967340886592865,-0.08031634241342545,0.007567286491394043,0.042398810386657715,0.019342370331287384,-0.03723820298910141,-0.024844450876116753,0.016835002228617668,1.248384002868654,1.314521217250765,-1.3314501586443561
1686937660.12795,0.23867332935333252,-0.9674618244171143,-0.08397966623306274,0.001652643084526062,-0.0003268122673034668,0.034114137291908264,-0.03539513424038887,-0.021113988012075424,0.019290337339043617,1.2324651881694124,1.3149989183926198,-1.317078294042826
1686937660.172637,0.23847711086273193,-0.9674035310745239,-0.08520123362541199,0.004442855715751648,-0.01781076192855835,0.011394627392292023,-0.01902667246758938,0.006632369011640549,0.003548524808138609,1.2276577104713768,1.3147685794604769,-1.3121898346982757
1686937660.1819,0.23894846439361572,-0.967300295829773,-0.08505363017320633,-0.004466593265533447,0.0071866512298583984,0.002686798572540283,-0.0101326210424304,0.015646062791347504,-0.014987574890255928,1.2288309683720147,1.314361293380192,-1.3122766029163289
1686937660.2688708,0.2394244223833084,-0.9672284126281738,-0.08453034609556198,-0.0025011450052261353,0.012424886226654053,-0.008532874286174774,-0.005733078811317682,-0.009791145101189613,-0.012863771058619022,1.2314011629758976,1.3140779497372534,-1.3142499692670817
1686937660.273796,0.23994046449661255,-0.9672054052352905,-0.08332158625125885,0.0009500682353973389,0.0046503543853759766,-0.010519802570343018,0.07242688536643982,-0.027583152055740356,-0.019332490861415863,1.2365650777177875,1.313987281071269,-1.3205102583557484
1686937660.278573,0.24100099503993988,-0.967045247554779,-0.08211156725883484,0.008587062358856201,-0.002055823802947998,-0.015391945838928223,0.04201875254511833,-0.026785176247358322,-0.02255241759121418,1.2424210977371613,1.3133575365452652,-1.3280948199964289
1686937660.321082,0.24171805381774902,-0.9670121073722839,-0.08037625253200531,-0.0021091997623443604,0.0038466453552246094,-0.010520227253437042,0.0601382851600647,-0.02251257374882698,-0.02280944585800171,1.249777339360086,1.3132274497309249,-1.337350647712391
1686937660.330175,0.24294638633728027,-0.966775119304657,-0.07951837033033371,-0.006969183683395386,0.008721470832824707,-0.008219540119171143,0.043105918914079666,-0.01931842975318432,-0.023583227768540382,1.2544780576909682,1.3122987051115473,-1.3436377139924018
1686937660.421461,0.2439720183610916,-0.9666081666946411,-0.0784001424908638,0.00366288423538208,0.0076236724853515625,-0.001754164695739746,0.0264805406332016,-0.007434354163706303,-0.020129142329096794,1.2598702526795509,1.3116464706136113,-1.3500653673958067
1686937660.4348888,0.24511529505252838,-0.966391921043396,-0.07749511301517487,0.0065632164478302,-0.0031974315643310547,0.003307044506072998,0.03867905214428902,-0.007465672679245472,-0.02253490686416626,1.2645825519215008,1.3108039260670923,-1.355471310883434
1686937660.43849,0.24623985588550568,-0.9662479162216187,-0.07570476084947586,0.007620722055435181,-0.006362736225128174,0.0009062811732292175,0.045646026730537415,-0.009991707280278206,-0.01596974954009056,1.2725250106228432,1.3102443571869895,-1.3642571668386538
1686937660.472116,0.2473178505897522,-0.9661344885826111,-0.07360796630382538,0.006985187530517578,0.0022519826889038086,0.007369697093963623,0.040248285979032516,-0.010381674394011497,-0.02179228514432907,1.2815198999303499,1.3098044248509009,-1.3739312858150372
1686937660.631242,0.24815800786018372,-0.9660326838493347,-0.07210127264261246,0.0034289807081222534,0.003233611583709717,0.011417217552661896,0.029558971524238586,0.023661179468035698,-0.009515545330941677,1.2880355034543458,1.3094100516475355,-1.3803945105170257
1686937660.6371799,0.24894878268241882,-0.9659780859947205,-0.07007881253957748,0.004408210515975952,-0.0026041269302368164,0.00886070728302002,0.008684427477419376,0.027860518544912338,-0.00538627989590168,1.2963982052759973,1.3091989575801257,-1.3877664928147315
1686937660.896589,0.24941731989383698,-0.9659159183502197,-0.06926632672548294,0.011202841997146606,0.000186920166015625,0.0014105960726737976,0.004989521577954292,0.02138439007103443,-0.0029897354543209076,1.2999100000168116,1.3089587327023586,-1.3899101140864745
1686937660.901476,0.2499506175518036,-0.9658311009407043,-0.06852317601442337,0.0042761266231536865,-0.00961768627166748,-0.008564122021198273,-0.006402307190001011,-0.0018824625294655561,-0.022893503308296204,1.3032234445336512,1.3086312776022286,-1.3924522165769069
1686937660.9064069,0.25305911898612976,-0.9639599323272705,-0.08211378008127213,-0.0019146502017974854,-0.06028646230697632,0.02213161438703537,-0.6329464316368103,-0.1181296780705452,-0.11245834082365036,1.2570306848154007,1.3015060518850274,-1.3480160082403816
1686937661.0478292,0.26017460227012634,-0.9580209255218506,-0.12043794244527817,-0.04320982098579407,-0.031557440757751465,0.022781848907470703,-0.7461233735084534,-0.12728974223136902,-0.20630976557731628,1.137256813007376,1.280017763278993,-1.2305542184727045
1686937661.052703,0.2800541818141937,-0.9476176500320435,-0.15359264612197876,-0.12520793080329895,-0.0881795883178711,-0.04577857255935669,-0.5233004689216614,0.061815693974494934,-0.7325356006622314,1.0691523255750324,1.245692796726963,-1.1635877420004057
1686937661.0573092,0.33349132537841797,-0.926459789276123,-0.17451632022857666,-0.2965802550315857,-0.15219932794570923,-0.1236860603094101,-0.39661747217178345,0.4245033264160156,-1.4885615110397339,1.0886822041967015,1.1848955622651856,-1.1725800124637586
1686937661.0687041,0.42457008361816406,-0.8869996070861816,-0.1815822571516037,-0.3459872901439667,-0.17101436853408813,-0.06817345321178436,-0.4179447889328003,0.6481221914291382,-2.3270182609558105,1.1666536591130723,1.090806475136452,-1.2282647259334463
1686937661.072095,0.5473041534423828,-0.817598819732666,-0.1788589209318161,-0.37565797567367554,-0.12649309635162354,-0.023655593395233154,-0.3264760673046112,0.7467326521873474,-3.081415891647339,1.2549373812961726,0.9572282890833607,-1.2892258128540146
1686937661.196793,0.6814855337142944,-0.711948573589325,-0.16943120956420898,-0.38725024461746216,-0.10702121257781982,-0.022158026695251465,-0.38686278462409973,0.7275273203849792,-3.5466325283050537,1.3271165397239493,0.7922691453095105,-1.3355823487191523
1686937661.287074,0.8072612881660461,-0.5697540640830994,-0.15397894382476807,-0.34366875886917114,-0.055718958377838135,0.01553615927696228,-0.46373653411865234,0.7332502007484436,-3.8798224925994873,1.382317956626727,0.6062065374916946,-1.3642553366396033
1686937661.3011498,0.909282922744751,-0.3927984833717346,-0.13752886652946472,-0.3295251131057739,-0.059136390686035156,0.06184542179107666,-0.8603630065917969,0.8206337094306946,-4.05250358581543,1.4206842950769263,0.4036726934622959,-1.3623755150183938
1686937661.30479,0.9749195575714111,-0.1946103274822235,-0.10797713696956635,-0.34972095489501953,-0.04083281755447388,0.032873496413230896,-0.8258876800537109,0.9401276707649231,-4.069390773773193,1.4604909662927752,0.19586016920597055,-1.3488871813021286
1686937661.342118,0.9979933500289917,0.011927871964871883,-0.06218686327338219,-0.38143134117126465,0.013478010892868042,0.015312016010284424,-0.41489678621292114,1.0180541276931763,-4.117477893829346,1.508564886164458,-0.011928154757164315,-1.3326988343909314
1686937661.4103699,0.9758301973342896,0.21849429607391357,-0.003998779226094484,-0.40692138671875,-0.052158206701278687,-0.025648891925811768,-0.12356840074062347,1.2896946668624878,-4.20201301574707,1.5666985266672855,-0.2202712198097628,-1.3288459614554875
1686937661.42279,0.9045996069908142,0.4212036728858948,0.06547514349222183,-0.425961971282959,-0.038421690464019775,0.012863628566265106,-0.297981321811676,1.5203443765640259,-4.338898181915283,1.6430505733215752,-0.43477204155316895,-1.3100047228226726
1686937661.426832,0.7839101552963257,0.6041160821914673,0.14327840507030487,-0.4133657217025757,0.03940814733505249,0.03700433671474457,-0.48405787348747253,1.6920944452285767,-4.303187370300293,1.7515749125878635,-0.6486561700589861,-1.2574407079734773
1686937661.43616,0.6223796010017395,0.7503141760826111,0.22287307679653168,-0.4231913685798645,0.014486849308013916,0.1529357135295868,-0.6059918403625488,1.6963011026382446,-4.309206962585449,1.9146673594855135,-0.8485371698959303,-1.147099289856862
1686937661.4582639,0.42883819341659546,0.8609834313392639,0.2735060751438141,-0.3468221426010132,0.20708608627319336,0.03266167640686035,0.29268020391464233,1.6605710983276367,-4.112503528594971,2.1385357558906413,-1.0372000084891122,-0.9777336417097215
1686937661.491002,0.22283151745796204,0.930389404296875,0.29107001423835754,-0.3531721234321594,0.1290283203125,0.12119218707084656,0.10222901403903961,1.4185187816619873,-4.081329345703125,2.488207401123622,-1.1954736840111815,-0.6758493288330629
1686937661.58715,0.02257642336189747,0.9596357941627502,0.280338853597641,-0.2990656793117523,0.2702075242996216,0.08129456639289856,0.5888046622276306,1.1517961025238037,-3.639216899871826,3.0612334582019716,-1.2857043785372357,-0.1394333484805728
1686937661.6752791,-0.16230948269367218,0.957791268825531,0.2372587025165558,-0.256635844707489,0.19357597827911377,0.13240085542201996,1.0283538103103638,0.7813736796379089,-3.552901029586792,-2.541615415639286,-1.2792176611777475,0.5176709515600949
1686937661.689516,-0.33430972695350647,0.9266785383224487,0.1717674732208252,-0.24886593222618103,0.23451530933380127,0.06941305100917816,1.3339816331863403,0.666618824005127,-3.401029348373413,-2.0454208340583144,-1.1854772252403722,1.006254462594065
1686937661.799288,-0.48601001501083374,0.8677746653556824,0.10373850166797638,-0.15479815006256104,0.2213672399520874,0.12653207778930664,1.238156795501709,0.4351908266544342,-3.109973430633545,-1.7810898297748645,-1.0507067921601767,1.2717232094147393
1686937661.8045192,-0.6083545088768005,0.7923250794410706,0.04610603302717209,-0.15946775674819946,0.24696624279022217,0.13937997817993164,1.1506398916244507,0.12262102961540222,-2.752448797225952,-1.6464398228871662,-0.9146106522865903,1.4151553904195844
1686937661.9216871,-0.703827977180481,0.7102452516555786,0.013335752300918102,-0.11163222789764404,0.1640681028366089,0.07765257358551025,0.6174913048744202,-0.21306036412715912,-2.2880876064300537,-1.5897415192349924,-0.7898465784118366,1.4969584615923264
1686937661.935261,-0.7796891927719116,0.6261516213417053,0.0043537430465221405,-0.09965956211090088,0.16284984350204468,0.05219542980194092,0.5967087745666504,-0.20083627104759216,-2.2612435817718506,-1.576380215224964,-0.6766076269857689,1.5301061039029837
1686937662.005899,-0.8456350564956665,0.5335084795951843,-0.016437867656350136,-0.049872756004333496,0.3621061444282532,0.0029187221080064774,1.2992067337036133,-0.2400307059288025,-2.170807123184204,-1.551360286311832,-0.5627432844804706,1.5922227100348902
1686937662.0195699,-0.896837592124939,0.440878689289093,-0.036173827946186066,-0.05308312177658081,0.36786767840385437,0.010447680950164795,1.6036274433135986,-0.36634260416030884,-1.9707714319229126,-1.5304833089794985,-0.4565774057280013,1.663610383512442
1686937662.0976639,-0.9332407712936401,0.35525014996528625,-0.05347086489200592,-0.07159632444381714,0.49106335639953613,0.0036052465438842773,2.7188754081726074,-0.8690891265869141,-1.4345166683197021,-1.5135630089286807,-0.36318165643649375,1.7847545324213974
1686937662.102648,-0.9532030820846558,0.2986297905445099,-0.04716145619750023,-0.06382572650909424,0.1831512153148651,-0.09733908623456955,1.1689960956573486,-0.7894611358642578,-0.7393624186515808,-1.5213598187437458,-0.30325659638066554,1.8933562259385153
1686937662.1858668,-0.9627636075019836,0.26954492926597595,-0.02078832872211933,0.06792706251144409,0.24180763959884644,-0.11325997114181519,0.25242748856544495,-0.609318196773529,-0.4364173710346222,-1.5492073303690153,-0.2729204361403195,1.9177037771547785
1686937662.1920009,-0.9662769436836243,0.2574954926967621,-0.0023307083174586296,0.027327120304107666,0.2027096450328827,-0.21103280782699585,0.17971183359622955,-0.28307920694351196,-0.05846381187438965,-1.5683842813623765,-0.2604294044267268,1.9303711252340154
1686937662.306027,-0.9660937190055847,0.2581729590892792,0.003158290171995759,-0.02258443832397461,0.1248227059841156,-0.09873926639556885,0.43577051162719727,-0.12038667500019073,0.06303675472736359,-1.5740654494407722,-0.26113056052987893,1.943379195619564
1686937662.3188539,-0.9640835523605347,0.2655728757381439,0.0037743321154266596,-0.04067730903625488,-0.05523043870925903,-0.06572484970092773,-0.39289239048957825,0.07312899827957153,0.18624457716941833,-1.574711249740016,-0.26879807331792904,1.9478830279808748
1686937662.426038,-0.9616110324859619,0.2743815779685974,0.004395834170281887,-0.0032786130905151367,-0.005552202463150024,-0.020325899124145508,-0.3058485984802246,0.1181730106472969,0.1612907499074936,-1.5753676175132423,-0.2779465440798956,1.924165018492315
1686937662.43854,-0.9596979022026062,0.2810322046279907,0.0011086082085967064,-0.0011329054832458496,-0.038615792989730835,0.006673574447631836,-0.15900291502475739,0.12568624317646027,0.10734396427869797,-1.5719514899920788,-0.28486947826077336,1.9150470890274014
1686937662.486045,-0.9584307670593262,0.28531721234321594,-0.0022284872829914093,-0.01715528964996338,-0.053475141525268555,0.014374613761901855,-0.2197040170431137,0.14623409509658813,0.07729052007198334,-1.5684711894123704,-0.2893373706715521,1.9031272858620119
1686937662.491259,-0.9575550556182861,0.28819143772125244,-0.005824452731758356,0.008321106433868408,-0.009825378656387329,0.0050005922093987465,-0.15629518032073975,0.0928783193230629,0.06031769886612892,-1.5647137720310058,-0.2923376090930833,1.896993613310818
1686937662.4948258,-0.9568482637405396,0.2905321717262268,-0.005694298539310694,0.007400631904602051,-0.004872411489486694,0.0041075353510677814,-0.29164624214172363,0.10369160771369934,0.08964908868074417,-1.5648452985609163,-0.2947829637816224,1.8811376810953369
1686937662.574508,-0.9553520083427429,0.29539942741394043,-0.0065002404153347015,-0.004899084568023682,0.013453781604766846,0.0010682931169867516,-0.22304464876651764,0.06825866550207138,0.12519972026348114,-1.5639924050995162,-0.29987357639221623,1.8698408371416673
1686937662.724084,-0.9535014033317566,0.3013402223587036,-0.005427110008895397,0.010569155216217041,0.011068254709243774,-0.007084906101226807,-0.3483908474445343,0.08114396780729294,0.1310233175754547,-1.565104619037907,-0.3060979021809482,1.85422252743685
1686937662.7379432,-0.9512856602668762,0.3082817792892456,-0.0042991251684725285,-0.01261228322982788,-0.00199204683303833,-0.0060156588442623615,-0.3566018044948578,0.0942840576171875,0.1489233672618866,-1.566277078459729,-0.3133862959329126,1.8351860708707015
1686937662.818512,-0.9491243362426758,0.3148886561393738,-0.0028961412608623505,0.003170907497406006,-0.01117771863937378,-0.007174551486968994,-0.3358948230743408,0.09270622581243515,0.13477036356925964,-1.567744953984153,-0.3203393485526969,1.8167731461184118
1686937662.824641,-0.9474109411239624,0.3200080394744873,-0.002711725886911154,0.011146962642669678,-0.0018775761127471924,0.00033152149990200996,-0.1253335177898407,0.06328470259904861,0.07682240754365921,-1.5679340857675432,-0.32573797233605767,1.8034117496638704
1686937662.829406,-0.9464185833930969,0.3229024112224579,-0.00507997116073966,-0.0020829439163208008,-0.012889623641967773,0.002425135113298893,-0.09589137136936188,0.07050968706607819,0.05595158040523529,-1.5654288048846643,-0.32879458245233767,1.8017463649262608
1686937662.9030252,-0.9457966685295105,0.3247016668319702,-0.0061670104041695595,0.009120404720306396,-0.01259833574295044,0.007158993743360043,-0.1335168331861496,0.08331139385700226,0.02782100811600685,-1.5642759791536094,-0.33069630064496697,1.7926847376767503
1686937663.023545,-0.9455294013023376,0.3254339098930359,-0.008191763423383236,-0.006405472755432129,-0.011636912822723389,-0.0015736809000372887,-0.11670100688934326,0.05951254814863205,0.03334137424826622,-1.562132864511891,-0.33147058000350743,1.7889189799066776
1686937663.037226,-0.9454064965248108,0.32578805088996887,-0.008292481303215027,0.002901613712310791,0.012575596570968628,-0.002800523303449154,0.012848800979554653,0.011819008737802505,0.004392813425511122,-1.562025212438652,-0.33184512275270106,1.7843368085745246
1686937663.11862,-0.9454377889633179,0.325685977935791,-0.008742747828364372,-0.0048493146896362305,-0.00874561071395874,0.001769660972058773,-0.014088892377912998,0.03025081194937229,-0.0015839524567127228,-1.5615492892384188,-0.33173718510559513,1.7846686112573589
1686937663.1243138,-0.9455811977386475,0.3252374529838562,-0.009841786697506905,0.005151510238647461,0.016208499670028687,0.004257203079760075,0.02416343241930008,0.018920114263892174,0.0007165858987718821,-1.5603885148504806,-0.33126280968710653,1.7852980720824962
1686937663.1289248,-0.9455557465553284,0.32530084252357483,-0.010196207091212273,0.010359704494476318,0.008653014898300171,0.006229103542864323,0.050078168511390686,-0.012873448431491852,0.004446609411388636,-1.5600134484938468,-0.3313298481565266,1.7872544890359516
1686937663.204935,-0.9452111721038818,0.3263137638568878,-0.00976265873759985,0.0006005167961120605,-0.012913495302200317,0.008511603809893131,-0.05933696776628494,0.018166881054639816,0.02625766582787037,-1.5604681456785887,-0.3324012512903029,1.7863350000298521
1686937663.295923,-0.9448792934417725,0.3272811770439148,-0.009506459347903728,0.0057312846183776855,0.011555492877960205,-0.0009456267580389977,0.0800817608833313,-0.029293261468410492,0.011257277801632881,-1.5607356353204886,-0.33342486087241535,1.7873881433337215
1686937663.310145,-0.9447200894355774,0.32775822281837463,-0.008869132958352566,-0.002469301223754883,-0.015792280435562134,0.0009957561269402504,-0.024049974977970123,0.0002420612145215273,-0.0017317244783043861,-1.5614084963542725,-0.3339297394739035,1.7873492236167257
1686937663.384036,-0.9447064399719238,0.3278033137321472,-0.008647800423204899,0.005970478057861328,0.0065472424030303955,-0.0030555715784430504,0.03146068751811981,-0.019770821556448936,-0.004082296974956989,-1.56164262800179,-0.3339774808936105,1.7885752475275092
1686937663.389792,-0.9447309374809265,0.3277653455734253,-0.007321154233068228,0.0007458329200744629,-0.008429378271102905,7.337331771850586e-05,-0.028372636064887047,-0.005998457781970501,-0.0034996308386325836,-1.5630470221104997,-0.3339372976086951,1.7870001746507784
1686937663.475572,-0.9448458552360535,0.3274175524711609,-0.008013359270989895,0.0014406442642211914,0.011693835258483887,-0.0029880404472351074,0.0993824377655983,-0.024401580914855003,-0.0027738860808312893,-1.5623154010599487,-0.3335691747215545,1.7905282121868613
1686937663.4901872,-0.9447718858718872,0.32765257358551025,-0.007076273672282696,-0.0012120604515075684,-0.007782578468322754,0.0035058860667049885,-0.033563610166311264,-0.020570196211338043,-0.0028516503516584635,-1.5633065385203844,-0.3338179167352187,1.7906680428050106
1686937663.5655022,-0.9446420669555664,0.3280431926250458,-0.00628288509324193,0.00668412446975708,0.016103595495224,0.003216027282178402,0.011692298576235771,-0.034046921879053116,0.014915063045918941,-1.5641453499860272,-0.33423140250349126,1.7919190703867391
1686937663.57166,-0.9443953633308411,0.3287789225578308,-0.004665952641516924,0.00318753719329834,0.007112771272659302,-0.0002014031633734703,0.010063824243843555,-0.026680514216423035,0.012366550974547863,-1.5658556896685871,-0.33501033228826604,1.7903380453942848
1686937663.624352,-0.9442114233970642,0.3293163478374481,-0.00397472083568573,0.0030950307846069336,-0.004944980144500732,-0.00475311279296875,-0.0070688724517822266,-0.026873674243688583,0.01229830738157034,-1.5665867854460438,-0.3355794547519764,1.7921332955545497
1686937663.745944,-0.9440593123435974,0.3297661244869232,-0.0025426954962313175,0.005720019340515137,-0.0016411244869232178,-0.0016533134039491415,0.022175734862685204,-0.03650861606001854,-0.0011816818732768297,-1.5681029691850474,-0.3360558339567787,1.7915143261184079
1686937663.75918,-0.9440888166427612,0.32968857884407043,-0.0014446161221712828,0.00495600700378418,-0.013114452362060547,-0.004231452941894531,-0.03283196687698364,-0.01761491224169731,-0.002820957452058792,-1.5692661582593275,-0.33597370377873265,1.7923353726693119
1686937663.835988,-0.9442986249923706,0.32908812165260315,-0.0011308046523481607,0.00463181734085083,0.010038495063781738,-0.009107708930969238,0.04025634378194809,-0.0060745710507035255,-0.016542328521609306,-1.5695988199616135,-0.3353377484291472,1.7927030766971752
1686937663.842826,-0.9442940950393677,0.3291027247905731,-0.0005774471792392433,0.006305694580078125,-0.004395663738250732,-0.0045035481452941895,-0.0857509970664978,-0.00913156010210514,0.017602724954485893,-1.570184814837986,-0.33535320976348854,1.7913314753128118
1686937663.9257221,-0.9438931345939636,0.3302505910396576,0.0006455077091231942,0.006911873817443848,0.026515156030654907,-0.002354264259338379,-0.0022633192129433155,-0.01909860037267208,0.030918797478079796,-1.5714802046525012,-0.3365690571259501,1.7890262828928072
1686937663.940196,-0.9431602358818054,0.3323374092578888,0.0009261464001610875,0.0051566362380981445,0.017714470624923706,-0.005183219909667969,-0.05260075628757477,0.009864434599876404,0.0560331717133522,-1.5717782873141626,-0.33878076481278857,1.7886800011260207
1686937664.017645,-0.941047191619873,0.3382713496685028,0.0016711550997570157,-0.0023580193519592285,0.09144666790962219,-0.0326157808303833,-0.2538398802280426,0.1121797263622284,0.25793352723121643,-1.57257217115233,-0.3450793615044449,1.7799024790294358
1686937664.022923,-0.9312863349914551,0.3642866611480713,-0.0011924330610781908,0.04882466793060303,0.470506489276886,-0.2521491050720215,-0.6779918074607849,0.4215031564235687,0.910252034664154,-1.569515912408081,-0.37286670234654795,1.7561359860714294
1686937664.103631,-0.9048484563827515,0.42561936378479004,-0.009871101938188076,-0.11599504947662354,0.58042311668396,-0.2492992877960205,-1.4834091663360596,0.8645936846733093,1.7542117834091187,-1.5598876383004887,-0.43964623732540037,1.6967993573555873
1686937664.226172,-0.8533440232276917,0.5212377309799194,-0.010744364000856876,-0.16238784790039062,0.6028925180435181,-0.19801098108291626,-1.945996880531311,0.9863210320472717,2.4971935749053955,-1.5582060989241837,-0.5483006591942867,1.5990944592886747
1686937664.2398272,-0.77069491147995,0.6371012330055237,0.01147044450044632,-0.22957980632781982,0.5303640365600586,-0.04424619674682617,-1.7177232503890991,0.6057731509208679,3.1546640396118164,-1.5856784777525577,-0.6907315425882135,1.478263032347374
1686937664.243485,-0.6505515575408936,0.7583229541778564,0.04158167913556099,-0.3995431065559387,0.4733664393424988,0.025572415441274643,-0.7627218961715698,0.0078160110861063,3.6896753311157227,-1.6346270745055385,-0.8607366417135572,1.385782897206128
1686937664.3132691,-0.48964378237724304,0.8687824010848999,0.07393371313810349,-0.5487778782844543,0.2675091028213501,0.05935191363096237,-0.6313236355781555,-0.3245643675327301,4.112015247344971,-1.7206591299527458,-1.0527381538103109,1.2930979638849136
1686937664.31797,-0.2974453270435333,0.9480388760566711,0.1129111796617508,-0.6214847564697266,0.12332659959793091,0.13623452186584473,-0.7052149176597595,-0.42523977160453796,4.165632247924805,-1.9335965038111338,-1.2470140456615944,1.081676134052952
1686937664.373773,-0.09440293163061142,0.9846306443214417,0.1469370722770691,-0.6198610067367554,0.08694827556610107,0.11704014241695404,-0.46902531385421753,-0.556359589099884,4.032425403594971,-2.570527882354632,-1.3952465517714296,0.4536646585742386
1686937664.4656901,0.10707007348537445,0.9797468781471252,0.16921116411685944,-0.6275778412818909,0.04425537586212158,0.1369108110666275,-0.558427631855011,-0.6569605469703674,3.9247803688049316,2.577432484151688,-1.3691934289888825,-0.6672612057640107
1686937664.471434,0.30202555656433105,0.9350318908691406,0.18573199212551117,-0.6110312342643738,0.09595882892608643,0.09420585632324219,-0.32137107849121094,-0.9451390504837036,3.868922472000122,2.1221393266228645,-1.2083490774899193,-1.0968021133814863
1686937664.5230432,0.48665887117385864,0.8556874990463257,0.17596091330051422,-0.6224468350410461,0.04290264844894409,0.07377982139587402,-0.25125566124916077,-1.0335948467254639,3.9017863273620605,1.9177404801229927,-1.0268779119111344,-1.268790566465286
1686937664.6465678,0.651110053062439,0.7424177527427673,0.15770791471004486,-0.6009390950202942,0.045561373233795166,0.004599913954734802,-0.2694145739078522,-0.9944084882736206,3.83009934425354,1.8084336090390492,-0.8366720915341309,-1.339834585545232
1686937664.711158,0.7855100631713867,0.6052564978599548,0.1289917230606079,-0.5230434536933899,0.021986663341522217,-0.026910290122032166,-0.16860060393810272,-0.9674969911575317,3.6985530853271484,1.733557643203118,-0.6500880862315535,-1.3764563117190374
1686937664.725061,0.8875190615653992,0.45147082209587097,0.09210837632417679,-0.502600908279419,0.07459121942520142,-0.05313730984926224,-0.014932605437934399,-0.8714748620986938,3.6078264713287354,1.6742079741889093,-0.46841301208037334,-1.4001834953513685
1686937664.728629,0.9565640687942505,0.28651660680770874,0.053792234510183334,-0.3972988724708557,0.10073623061180115,-0.03595459461212158,0.053363602608442307,-0.7768345475196838,3.5046803951263428,1.626972008213845,-0.29058904035041627,-1.4177454918544972
1686937664.76232,0.9930406212806702,0.11613737046718597,0.01956476829946041,-0.37283170223236084,0.10549655556678772,0.006543159484863281,-0.2867274582386017,-0.6660282611846924,3.445136785507202,1.5904956593602966,-0.11640004618103683,-1.4183468071150513
1686937664.823588,0.9983834624290466,-0.05530591681599617,-0.01311473548412323,-0.30705344676971436,0.12717482447624207,0.02132415771484375,-0.2363227754831314,-0.6771630048751831,3.4106922149658203,1.5576611117064496,0.055334151085514496,-1.4026999316490203
1686937664.9443278,0.9740464091300964,-0.22113794088363647,-0.048287734389305115,-0.24250948429107666,0.10201257467269897,0.014626983553171158,-0.030648959800601006,-0.7094477415084839,3.2810001373291016,1.5212625100973305,0.2229811407727323,-1.3927830567014245
1686937664.958249,0.9244783520698547,-0.37225404381752014,-0.08226054906845093,-0.23632222414016724,0.05798402428627014,0.06900078803300858,-0.2475098818540573,-0.6568232178688049,3.082723379135132,1.4820495518528365,0.3814364154054375,-1.373925785115596
1686937665.066492,0.8568234443664551,-0.5013360381126404,-0.12048205733299255,-0.21787679195404053,0.02756589651107788,0.03127932548522949,-0.4418555200099945,-0.6712833642959595,2.787156820297241,1.431097457913926,0.5251422131464704,-1.3344664064991432
1686937665.071872,0.778329610824585,-0.6078052520751953,-0.1574043482542038,-0.2330719232559204,0.017793595790863037,-0.017171263694763184,-0.21810120344161987,-0.6666440963745117,2.4987049102783203,1.371254051399455,0.6532937724199189,-1.2876901980633302
1686937665.154793,0.6948262453079224,-0.6937980651855469,-0.18936984241008759,-0.2523517608642578,0.0261496901512146,-0.02043837308883667,-0.26052001118659973,-0.629675567150116,2.2680420875549316,1.3047160519800116,0.7667495579205311,-1.2362902680180954
1686937665.168652,0.6111021637916565,-0.7608232498168945,-0.21840858459472656,-0.23504918813705444,3.522634506225586e-05,-0.04228770732879639,-0.26404955983161926,-0.534637451171875,1.9879459142684937,1.2275433677046046,0.8645807803269093,-1.1703165584089779
1686937665.2757878,0.5314138531684875,-0.8128440976142883,-0.23850329220294952,-0.19140225648880005,0.00298386812210083,-0.05945490300655365,-0.07487723976373672,-0.4616175591945648,1.7733519077301025,1.1489333258754757,0.9490183779326221,-1.1022324451023826
1686937665.288935,0.4574562609195709,-0.8548262715339661,-0.2449617236852646,-0.16021496057510376,0.040998637676239014,-0.04220855236053467,0.3072185516357422,-0.44718068838119507,1.5369714498519897,1.079164040448471,1.0252159017705262,-1.0438644834834854
1686937665.368223,0.3878310024738312,-0.8895320892333984,-0.24149563908576965,-0.060362040996551514,0.012716174125671387,-0.013188660144805908,0.2454385906457901,-0.4581355154514313,1.385999321937561,1.0138651534222969,1.0963199535290418,-0.9944795372111379
1686937665.373913,0.3209780156612396,-0.9164079427719116,-0.23910216987133026,-0.00011613965034484863,-0.02811121940612793,-0.003466665744781494,0.2466125339269638,-0.4905552864074707,1.267992615699768,0.9305558795572778,1.1590115893435073,-0.9292009219078917
1686937665.457072,0.2626643180847168,-0.9381993412971497,-0.2253657877445221,-0.0007166266441345215,-0.08475005626678467,-0.021917998790740967,0.6879125833511353,-0.5197622179985046,0.9501975178718567,0.8616765837856374,1.2173902262694314,-0.8828707883728367
1686937665.471494,0.22322560846805573,-0.9560874700546265,-0.1899137794971466,-0.016835182905197144,-0.24033904075622559,-0.053784191608428955,0.8111670017242432,-0.3881065547466278,0.5357221961021423,0.8658550903506582,1.2733480470244942,-0.9119276343082423
1686937665.582078,0.20189186930656433,-0.9670009613037109,-0.15539883077144623,-0.013033807277679443,-0.1397494673728943,-0.03153643012046814,1.0480189323425293,-0.29876357316970825,0.203308567404747,0.9147977066609944,1.3131837373137092,-0.9791517925203259
1686937665.587018,0.1968800276517868,-0.9722496867179871,-0.12636888027191162,-0.0033833086490631104,-0.171320378780365,0.023021221160888672,-0.5196558237075806,0.00650553684681654,-0.04173922911286354,1.000166670394069,1.3346622743883034,-1.0843467952358672
1686937665.666781,0.20065569877624512,-0.9707998037338257,-0.13147279620170593,0.05833175778388977,0.11258447170257568,-0.10882245004177094,0.3510377109050751,-0.01521908026188612,0.039763789623975754,0.9907631322573778,1.3285427113004924,-1.0692162982671511
1686937665.6722078,0.20192155241966248,-0.9714364409446716,-0.12465658038854599,0.0164317786693573,-0.07960432767868042,0.05867767333984375,-0.026124516502022743,-0.043088916689157486,-0.05095310136675835,1.0177159596388974,1.3312108139713086,-1.0979399382674269
1686937665.818197,0.20211559534072876,-0.9717036485671997,-0.12223629653453827,0.012117832899093628,0.016701698303222656,-0.038530170917510986,0.06033138930797577,-0.027779612690210342,-0.008049674332141876,1.0268665334493348,1.3323395354200493,-1.1101688636111509
1686937665.823996,0.202043354511261,-0.9722148776054382,-0.11822351068258286,0.012205317616462708,-0.005781948566436768,0.020262248814105988,0.08421814441680908,-0.01906227506697178,0.01418269332498312,1.041375446236872,1.3345137593033745,-1.1257927694767231
1686937665.908865,0.20184296369552612,-0.9723348021507263,-0.1175791546702385,0.007965415716171265,-0.010987520217895508,0.013178706169128418,0.002852238016203046,-0.004753602668642998,-0.00315465172752738,1.0433230674907856,1.335026369300127,-1.1287054483885581
1686937665.922618,0.20237834751605988,-0.9724715352058411,-0.11550954729318619,-0.013764351606369019,0.014433026313781738,-0.00578249990940094,0.05835193395614624,0.005054446868598461,-0.011891551315784454,1.0521540459815633,1.3356126767307825,-1.1374816482610226
1686937665.926584,0.20351198315620422,-0.9726710319519043,-0.11177714914083481,-0.004247426986694336,0.002532362937927246,0.0028295516967773438,0.05748521909117699,0.011761324480175972,-0.023445740342140198,1.0685359302211868,1.3364702387118805,-1.1539550489964012
1686937666.056247,0.2045421153306961,-0.9728215932846069,-0.10854113847017288,-0.008191972970962524,0.009640812873840332,-0.008463099598884583,0.07285255938768387,0.013718881644308567,-0.030732881277799606,1.082927137299691,1.3371196011702862,-1.1684105246508758
1686937666.070723,0.20560304820537567,-0.9727344512939453,-0.10731004923582077,0.005853325128555298,-0.0008679628372192383,0.003870844841003418,0.02323957160115242,0.024860069155693054,-0.02275761403143406,1.0897603769589548,1.3367434360510513,-1.174616027926227
1686937666.150909,0.20640796422958374,-0.9728448390960693,-0.10473144054412842,0.011014565825462341,-0.005487680435180664,-0.0021409913897514343,0.040389180183410645,0.017331618815660477,-0.014358436688780785,1.1012461018912394,1.3372200893176462,-1.1847933547006604
1686937666.1558762,0.2073003202676773,-0.9728186130523682,-0.10320203006267548,0.0022944360971450806,0.0007573962211608887,-0.007073037326335907,0.030941057950258255,0.003716900246217847,-0.008988572284579277,1.1088796181146146,1.3371067853928866,-1.1919236903511423
1686937666.159564,0.20793823897838593,-0.9728336930274963,-0.1017671525478363,0.00138188898563385,0.008706986904144287,-0.004891626536846161,0.03562352433800697,-0.000943525112234056,-0.004573850426822901,1.1156561703811172,1.337171762058749,-1.198983907343895
1686937666.238606,0.20829151570796967,-0.9729214310646057,-0.10019393265247345,-0.0014127790927886963,0.006002306938171387,-0.003641977906227112,0.048779577016830444,0.022802431136369705,-0.00544646754860878,1.1224416552951575,1.3375511455820264,-1.2056001347312326
1686937666.252306,0.20898886024951935,-0.9729485511779785,-0.0984642431139946,-0.002476334571838379,0.0007803440093994141,0.012999877333641052,0.035277847200632095,0.0054046520963311195,-0.006399180274456739,1.13049729127934,1.3376683659228614,-1.212700332705988
1686937666.358684,0.20970703661441803,-0.9729105830192566,-0.09730502218008041,0.00040653347969055176,-0.002248227596282959,-0.003448665142059326,0.03338493034243584,0.014087662100791931,-0.010073443874716759,1.1363574260689904,1.3375040698821956,-1.2179254279601184
1686937666.372514,0.21057327091693878,-0.9729522466659546,-0.09498978406190872,0.005063951015472412,-0.010400533676147461,0.0013161897659301758,0.012884330004453659,0.002502619056031108,-0.017148196697235107,1.147027316359286,1.3376845178664316,-1.2281276546532447
1686937666.449829,0.21152210235595703,-0.9727247953414917,-0.09521160274744034,0.009532064199447632,-0.002952873706817627,0.007122740149497986,-0.0068345749750733376,-0.01664584130048752,-0.018797393888235092,1.1478376213043908,1.336701925906281,-1.229355808830433
1686937666.454967,0.21222689747810364,-0.9725087285041809,-0.09584864974021912,0.006019622087478638,-0.002482295036315918,-0.0017159134149551392,-0.019860846921801567,0.006875782273709774,-0.01926078274846077,1.146585330922648,1.33577218249264,-1.2286096529513404
1686937666.537606,0.21308279037475586,-0.9723901748657227,-0.0951475203037262,0.0005707591772079468,0.010170996189117432,0.0011382848024368286,0.00868114735931158,0.020685231313109398,-0.012272248975932598,1.1508331186312282,1.3352636591256133,-1.23231045654679
1686937666.55218,0.21369120478630066,-0.9722493886947632,-0.09522230923175812,-0.0005716979503631592,0.005132079124450684,0.004997268319129944,-0.020870257169008255,0.017497586086392403,-0.006544189527630806,1.1516015610646855,1.33466104931762,-1.2322529411442982
1686937666.6261148,0.21438559889793396,-0.9721912145614624,-0.0942511260509491,0.006348058581352234,0.001121819019317627,-0.006700865924358368,0.055400170385837555,0.015891581773757935,-0.010848557576537132,1.156596405637407,1.3344124879927521,-1.236611396349019
1686937666.6396189,0.21553075313568115,-0.9723596572875977,-0.08979637175798416,0.0033413469791412354,-0.01850038766860962,-0.019685328006744385,0.08149180561304092,-0.006310273893177509,-0.044393569231033325,1.1760372755477115,1.3351330362514908,-1.2561084723396965
1686937666.683749,0.21861378848552704,-0.9709362387657166,-0.0974220335483551,0.0023487508296966553,-0.071269690990448,-0.0003409385681152344,-0.4985518455505371,-0.11269541084766388,-0.13062246143817902,1.1515779861241562,1.3291120092760602,-1.234447044834593
1686937666.776771,0.23035737872123718,-0.963256299495697,-0.13810524344444275,-0.027415424585342407,-0.11937016248703003,0.012647628784179688,-0.9013345241546631,0.04944908618927002,-0.4338918924331665,1.0307253909103793,1.298873711552786,-1.111993311334766
1686937666.7910419,0.2712697684764862,-0.9460871815681458,-0.1770080178976059,-0.11793416738510132,-0.326526403427124,-0.10187672078609467,-0.7589970231056213,0.5234598517417908,-1.1168842315673828,0.9926540017974546,1.240934710280045,-1.058025578339533
1686937666.8325229,0.34609195590019226,-0.9179500341415405,-0.19387683272361755,-0.19959229230880737,-0.22613877058029175,-0.06292842328548431,-0.548321008682251,0.7632494568824768,-1.826515555381775,1.0601643272832189,1.1628816121533851,-1.0959345952048438
1686937666.9219232,0.4500935971736908,-0.8708449602127075,-0.19759830832481384,-0.28661084175109863,-0.16496753692626953,-0.07211589813232422,-0.3153434097766876,0.8147308230400085,-2.3938193321228027,1.1571141102696174,1.0569186233680377,-1.1586036348531676
1686937666.937086,0.5663360357284546,-0.8015644550323486,-0.19172462821006775,-0.27655625343322754,-0.15542125701904297,-0.0542011559009552,-0.4567800760269165,0.8234105110168457,-2.76570987701416,1.2443715070944024,0.9299071858469696,-1.2132141273950676
1686937666.9822311,0.6844550371170044,-0.7068697214126587,-0.17848411202430725,-0.3046637177467346,-0.05820596218109131,-0.04347012937068939,-0.2586859166622162,0.8736688494682312,-3.0022363662719727,1.3157088475725616,0.7850630040536765,-1.2495343670677983
1686937667.050655,0.7922862768173218,-0.5916151404380798,-0.14924509823322296,-0.3096354603767395,-0.056273043155670166,-0.08177278935909271,-0.027415350079536438,1.0053400993347168,-3.1176819801330566,1.3846054696670882,0.6330607346273761,-1.281814061118881
1686937667.167213,0.8826632499694824,-0.45754799246788025,-0.10749765485525131,-0.30710160732269287,-0.050035685300827026,0.006957650184631348,-0.12884929776191711,1.0990298986434937,-3.2414968013763428,1.4496053067425663,0.4752356414510183,-1.3040771079455908
1686937667.172384,0.9506632089614868,-0.30563998222351074,-0.05313744768500328,-0.3235880732536316,-0.06096765398979187,-0.05159871652722359,0.03057064674794674,1.245605230331421,-3.356889009475708,1.5149592933852842,0.31061050828068487,-1.3196188956391508
1686937667.256648,0.9903771877288818,-0.1381678730249405,0.007926865480840206,-0.34097832441329956,-0.030945271253585815,0.03682732582092285,0.15384259819984436,1.1934996843338013,-3.4706387519836426,1.578800041653144,0.13861130928409007,-1.326525771512178
1686937667.2697,0.9971207976341248,0.03606322780251503,0.06670403480529785,-0.34740161895751953,-0.05110836401581764,-0.0336076095700264,0.4371090829372406,1.128947377204895,-3.4864423274993896,1.6375934416040931,-0.03607104929571332,-1.3336462563761164
1686937667.349461,0.9700761437416077,0.21158342063426971,0.11909998208284378,-0.37824875116348267,-0.019582048058509827,-0.12944531440734863,1.050391435623169,1.2403974533081055,-3.4892771244049072,1.6929588200791317,-0.21319477408819484,-1.3545031147811837
1686937667.35485,0.9077138900756836,0.384971022605896,0.16689179837703705,-0.37512117624282837,-0.048316359519958496,-0.09232188761234283,0.6733705401420593,1.4164685010910034,-3.535200834274292,1.7526250871767515,-0.39517643573520866,-1.375405288941229
1686937667.4382439,0.8112429976463318,0.5402356386184692,0.22367550432682037,-0.365289568901062,0.015962541103363037,-0.07284212112426758,0.2680712640285492,1.5602400302886963,-3.4592435359954834,1.8398313103796082,-0.5707171080979435,-1.3520588571559886
1686937667.4537768,0.6941670775413513,0.6701100468635559,0.26284030079841614,-0.33105361461639404,0.11126208305358887,-0.03775763511657715,0.6572924852371216,1.3190596103668213,-3.080836296081543,1.9327555113228236,-0.7343570617614682,-1.3188110543580338
1686937667.49367,0.5695282816886902,0.7737200856208801,0.2774806618690491,-0.28257137537002563,0.05716705322265625,0.08035343885421753,0.6215795874595642,1.0285428762435913,-2.898930549621582,2.024160812486345,-0.8846922663560973,-1.2744106643944215
1686937667.615971,0.4437357187271118,0.8505505919456482,0.2822456955909729,-0.2629801034927368,-0.012751400470733643,0.057582974433898926,0.18568870425224304,0.9221888780593872,-2.676196813583374,2.1373144472965224,-1.0170313402817546,-1.1948986658744587
1686937667.621516,0.31032708287239075,0.9024007320404053,0.2989489734172821,-0.24881887435913086,-0.020579874515533447,0.088838130235672,-0.08318331092596054,0.8070178627967834,-2.765946865081787,2.3375218305635217,-1.1253088962758413,-1.0157338414651187
1686937667.738099,0.16480955481529236,0.9351595044136047,0.3135513365268707,-0.23843327164649963,-0.1365603804588318,0.17541664838790894,-0.13637293875217438,0.37390390038490295,-3.312845230102539,2.6576580022583625,-1.20870912037918,-0.7087417227220403
1686937667.7520819,0.0018144500209018588,0.9573080539703369,0.2890646159648895,-0.24491751194000244,0.09539586305618286,-0.04414558410644531,1.1045323610305786,0.6563488841056824,-3.1957130432128906,3.1353157658057036,-1.277541496375225,-0.23826608683212835
1686937667.856063,-0.16604286432266235,0.9530619978904724,0.2531856298446655,-0.3254580497741699,-0.07981657981872559,0.09119012951850891,0.30528688430786133,0.5635532140731812,-3.493314266204834,-2.5611406151736085,-1.2631931184906249,0.3454356631406007
1686937667.870208,-0.33449840545654297,0.9167202115058899,0.21848426759243011,-0.2005968689918518,0.23052728176116943,0.01772192120552063,0.6584483981132507,0.6629461050033569,-3.438119888305664,-2.1493966750411384,-1.1597924139491855,0.7440077476681494
1686937667.874032,-0.494282603263855,0.8531304597854614,0.16689349710941315,-0.3198959231376648,0.36415475606918335,0.008994683623313904,1.3033666610717773,0.6495597958564758,-3.2185750007629395,-1.8964249606089514,-1.021956649906209,0.9942714205348384
1686937667.982212,-0.6204991936683655,0.7781262397766113,0.09747100621461868,-0.14022785425186157,0.33044010400772095,0.06688153743743896,1.3023180961608887,0.28585654497146606,-2.858386278152466,-1.7266078958233568,-0.8916770723504294,1.1726553379955733
1686937667.987187,-0.715309739112854,0.6974117755889893,0.04414641112089157,-0.09511512517929077,0.42188143730163574,0.07696270942687988,1.2554864883422852,-0.044904567301273346,-2.241305351257324,-1.632434644292913,-0.7717796715213925,1.2889407778044617
1686937668.065244,-0.7836098670959473,0.6211326122283936,0.012240692973136902,-0.08868932723999023,0.31603169441223145,0.05856025218963623,1.2270526885986328,-0.3344285786151886,-2.0016064643859863,-1.586415957683256,-0.6701870518130776,1.3742230467831582
1686937668.071015,-0.8403612971305847,0.5418317914009094,-0.014549360610544682,-0.08072042465209961,0.3721392750740051,0.05144524574279785,2.0192360877990723,-0.7125056982040405,-1.885345220565796,-1.553484835026071,-0.5726150121155698,1.4749398157365903
1686937668.274656,-0.8870494365692139,0.46047443151474,-0.033269066363573074,-0.07913720607757568,0.3215537965297699,0.03554278612136841,2.419142007827759,-0.9605341553688049,-1.69339919090271,-1.5333085831550926,-0.4785296064473688,1.6005284226673602
1686937668.289905,-0.9189004898071289,0.39309144020080566,-0.03318222612142563,-0.014937400817871094,0.23364806175231934,-0.04053282365202904,1.2398706674575806,-0.8437221050262451,-1.228163480758667,-1.534701216468313,-0.4039912653622601,1.704174441064388
1686937668.367313,-0.9401049613952637,0.34041038155555725,-0.01798919402062893,-0.019138872623443604,0.35989174246788025,-0.10696488618850708,1.3923999071121216,-0.8142471313476562,-0.8127413392066956,-1.5516633566617428,-0.34735330908337586,1.7723426708241818
1686937668.3728309,-0.9492762088775635,0.3144437074661255,-0.000483320327475667,-0.016361117362976074,0.0834445059299469,-0.14519214630126953,-0.13919375836849213,-0.340575635433197,-0.39439988136291504,-1.5702871806854615,-0.31987057631480464,1.8036151258748248
1686937668.377444,-0.9543471336364746,0.298501193523407,0.01089739240705967,0.048570096492767334,0.334860622882843,-0.13720953464508057,1.0601460933685303,-0.37320342659950256,-0.27483224868774414,-1.582214518189001,-0.30312185384804885,1.8205792399529184
1686937668.388828,-0.9563203454017639,0.29211151599884033,0.011072710156440735,-0.047708094120025635,0.11503878235816956,-0.08072888851165771,0.965596079826355,-0.2883783280849457,-0.012877119705080986,-1.582374262301266,-0.2964339075767116,1.885408426286579
1686937668.486884,-0.9554513096809387,0.2948196232318878,0.013928912580013275,-0.02216392755508423,-0.058079540729522705,-0.028943423181772232,-0.05917394533753395,-0.06564294546842575,0.07942691445350647,-1.5853736529979012,-0.2992667353759415,1.9026156230116762
1686937668.492125,-0.9542816281318665,0.29848426580429077,0.01594044640660286,0.012982070446014404,0.015587419271469116,-0.041910767555236816,0.15271791815757751,-0.05614662170410156,0.09146766364574432,-1.5874989058554883,-0.3031041233611849,1.9066518151147835
1686937668.496424,-0.952903687953949,0.3027965724468231,0.016996076330542564,0.023628175258636475,-0.06324887275695801,-0.016416076570749283,-0.10654083639383316,0.029923150315880775,0.05328252166509628,-1.5886305270442136,-0.30762562792979203,1.905815135875862
1686937668.5796928,-0.9524490833282471,0.304375559091568,0.014024728909134865,-0.03644263744354248,0.00028145313262939453,-0.0025957822799682617,-0.00847707875072956,0.0679612010717392,0.02759876661002636,-1.5855201743810636,-0.30928282313611194,1.903990626608446
1686937668.594715,-0.9525333642959595,0.30422675609588623,0.011234399862587452,-0.018108665943145752,-0.022229105234146118,-0.005664827302098274,0.00804053619503975,0.01756291463971138,-0.003329687751829624,-1.5825900123835492,-0.30912660196324826,1.9034578777106028
1686937668.6335769,-0.9528376460075378,0.3033257722854614,0.009706883691251278,0.012179017066955566,0.008380770683288574,-0.004137277603149414,0.059370800852775574,0.01888183131814003,-0.001370500074699521,-1.580983316857456,-0.30818094486129555,1.9065976541024385
1686937668.723336,-0.9529305696487427,0.3031042218208313,0.007184299174696207,0.01501840353012085,0.014690637588500977,0.007220149971544743,0.0756954550743103,0.03951146453619003,0.013103613629937172,-1.5783353472117123,-0.30794844783919423,1.9089685678414718
1686937668.8157148,-0.9524596929550171,0.30461928248405457,0.005298926495015621,0.0037900209426879883,0.00804862380027771,0.0036123995669186115,-0.02745548076927662,0.008710300549864769,0.0480811707675457,-1.5763596821800194,-0.3095386877973845,1.9114623510814193
1686937668.821886,-0.951395571231842,0.3079066574573517,0.006323158275336027,-0.00018829107284545898,-0.0005946457386016846,0.012246966361999512,-0.06872768700122833,0.02012222446501255,0.05231843143701553,-1.5774424213060745,-0.3129920216399499,1.9064791298146324
1686937669.082405,-0.950683057308197,0.31010904908180237,0.0058843535371124744,0.01101607084274292,0.0036574900150299072,0.005193711258471012,0.07641467452049255,-0.004761112853884697,0.030959375202655792,-1.576985854082584,-0.3153077468720242,1.908089649880615
1686937669.087172,-0.9501523375511169,0.3117254972457886,0.006177625618875027,-0.00022619962692260742,-0.0235174298286438,0.013140201568603516,-0.06484737247228622,0.012127881869673729,0.017599696293473244,-1.5772979566491052,-0.31700846267633137,1.9078667764516728
1686937669.173665,-0.9498451948165894,0.312654048204422,0.006464533507823944,0.00746232271194458,0.012281864881515503,0.0011802907101809978,0.06548402458429337,-0.025653131306171417,0.01586870662868023,-1.577602102871675,-0.31798588830166985,1.9086179862377999
1686937669.1886048,-0.9496777653694153,0.3131270408630371,0.007979027926921844,-0.0006090998649597168,-0.01132345199584961,0.00021505262702703476,-0.024075698107481003,-0.01673152856528759,0.010528437793254852,-1.579197956370863,-0.3184838822095058,1.908566411337639
1686937669.19245,-0.9496391415596008,0.31324127316474915,0.008095744997262955,0.006539106369018555,0.008948087692260742,-0.0030295848846435547,0.07700994610786438,-0.021410850808024406,0.0013815772254019976,-1.5793211949030168,-0.3186041741695879,1.9109903263347594
1686937669.35561,-0.9496455788612366,0.31321099400520325,0.008509520441293716,0.0004267096519470215,-0.0019927024841308594,-0.005060911178588867,0.008386843837797642,-0.01754673570394516,0.001543963560834527,-1.5797568198700531,-0.3185722657267733,1.9130343828828196
1686937669.37119,-0.9495448470115662,0.3135209083557129,0.00834281649440527,0.00028020143508911133,0.0032516121864318848,-0.0024069547653198242,-0.0012811694759875536,0.007844679988920689,0.0016551173757761717,-1.5795822218900322,-0.31889861195888536,1.9134091727357831
1686937669.375379,-0.9494887590408325,0.31369924545288086,0.008009165525436401,0.0017957687377929688,0.0033173859119415283,-0.007963299751281738,-0.011694516986608505,0.0033843647688627243,0.008011416532099247,-1.5792313671460885,-0.3190864377145463,1.913140002748794
1686937669.445413,-0.9492719769477844,0.3143617808818817,0.007718431297689676,0.0044476985931396484,0.0012968182563781738,0.0004298686981201172,-0.02799786813557148,0.014161392115056515,0.01647724024951458,-1.5789270427886697,-0.31978427835928475,1.9116592879733252
1686937669.450356,-0.9490311741828918,0.3150987923145294,0.0072688572108745575,-0.00511622428894043,-0.002781897783279419,0.004739999305456877,-0.04171072691679001,0.0016119913198053837,0.017436377704143524,-1.5784554166436475,-0.3205607449985051,1.911574938034057
1686937669.454123,-0.948756992816925,0.31590718030929565,0.00794222392141819,0.007503211498260498,-0.0034224390983581543,-0.005653262138366699,-0.009219313971698284,0.003867208957672119,-0.0022177514620125294,-1.5791673198053333,-0.32141264845426853,1.9085012898090028
1686937669.4579148,-0.9488099217414856,0.3157537281513214,0.00772425252944231,0.00033867359161376953,-0.0036961734294891357,0.0036895284429192543,-0.01659318432211876,0.0010699713602662086,0.010748480446636677,-1.578937137550183,-0.3212509039436001,1.9095946255748617
1686937669.565522,-0.9487263560295105,0.31598955392837524,0.008311839774250984,0.0032001733779907227,0.010029733180999756,0.004383682273328304,-0.013542944565415382,0.004269306547939777,-0.00327419419772923,-1.5795571531661898,-0.3214994737677683,1.907031938625525
1686937669.62584,-0.948670506477356,0.3161562383174896,0.008349291980266571,-0.0019215941429138184,0.000402599573135376,-0.003374815918505192,-0.00970770139247179,-0.006137368269264698,0.00943121500313282,-1.579597145194445,-0.3216751674207694,1.9075097849324214
1686937669.640511,-0.9485391974449158,0.3165438771247864,0.008583975955843925,0.006018877029418945,0.005782872438430786,-0.00629496481269598,-0.006203514523804188,0.0004480963107198477,0.007311604917049408,-1.5798457589524582,-0.322083771090546,1.9070989552939102
1686937669.644186,-0.9483539462089539,0.31710126996040344,0.008477794006466866,-0.0019940733909606934,-0.006203413009643555,-0.004724025726318359,-0.03632019832730293,0.017337024211883545,0.008333359844982624,-1.5797355723518607,-0.32267145640183925,1.9060143679060677
1686937669.8404489,-0.9483358860015869,0.3171784281730652,0.007562367711216211,0.005907118320465088,0.011816352605819702,0.00043344590812921524,-0.0056450255215168,0.021697111427783966,0.008198237046599388,-1.5787705132436325,-0.32275282260654736,1.905402176869288
1686937669.855424,-0.9480745196342468,0.3179590106010437,0.007550287526100874,0.0038605332374572754,-0.0013391375541687012,0.0033751726150512695,-0.05723407492041588,0.01781165413558483,0.00990675576031208,-1.5787599707598476,-0.32357601001717207,1.90276783734743
1686937669.859287,-0.9479477405548096,0.31834277510643005,0.007296900264918804,-4.649162292480469e-06,0.010209500789642334,0.0018433332443237305,-0.013850744813680649,0.00716364337131381,0.011094125919044018,-1.5784937515853676,-0.3239807912400299,1.9017772242647961
1686937669.954659,-0.9477710127830505,0.31886303424835205,0.007535990793257952,0.005708515644073486,-0.001876920461654663,0.0014973878860473633,-0.021602457389235497,0.004770420026034117,-0.00011871452443301678,-1.5787474371294417,-0.32452967455934095,1.8997350835097142
1686937669.969142,-0.9478051066398621,0.31876716017723083,0.00728151248767972,0.0065209269523620605,0.006657034158706665,0.006299017928540707,0.01797858066856861,-0.005086471792310476,0.0006627901457250118,-1.5784786751648425,-0.32442850910069326,1.9004507866698
1686937669.9728498,-0.9476834535598755,0.3191138207912445,0.007908105850219727,0.007482647895812988,0.002541452646255493,0.0126152029260993,-0.0014846352860331535,-0.019480470567941666,0.008595714345574379,-1.579140803718204,-0.32479427130875793,1.8999880548383967
1686937670.04595,-0.9475732445716858,0.319412499666214,0.008985386230051517,0.005602419376373291,0.0019223392009735107,0.00821149256080389,0.021832294762134552,-0.028142176568508148,0.005699293687939644,-1.5802785668245896,-0.32510944315479146,1.900740796733102
1686937670.227004,-0.947430431842804,0.3197817802429199,0.010750721208751202,-0.0011324286460876465,-0.006701916456222534,-0.0008170595392584801,-0.01671244576573372,-0.03225328400731087,0.0038411065470427275,-1.5821430801537932,-0.32549916360793674,1.900458785009628
1686937670.241776,-0.9473145008087158,0.3200633227825165,0.012445252388715744,-7.325410842895508e-05,0.0005543828010559082,-0.009530664421617985,0.02345031127333641,-0.03206615895032883,0.006137982942163944,-1.5839329741355963,-0.3257963121659772,1.9009589552449593
1686937670.245528,-0.9472789168357849,0.3201380968093872,0.013203170150518417,0.006559312343597412,-0.0016261041164398193,-0.011768699623644352,-0.01307282317429781,-0.012982703745365143,0.0016894054133445024,-1.584733420814594,-0.32587523953578473,1.9010828658240184
1686937670.255687,-0.9470620155334473,0.32079973816871643,0.012696094810962677,0.00550311803817749,0.012848973274230957,-0.016922593116760254,-0.04420439153909683,0.03089027851819992,0.025366004556417465,-1.5842012928602645,-0.32657374245337617,1.9005257646138585
1686937670.349032,-0.9461633563041687,0.3235141932964325,0.010651061311364174,0.030208826065063477,0.05311846733093262,-0.03062462992966175,-0.10147881507873535,0.11445127427577972,0.11902938038110733,-1.5820529571478021,-0.32944105372743554,1.896257096969789
1686937670.3540359,-0.9409523606300354,0.3385239839553833,0.0032130181789398193,0.11185073852539062,0.3631667196750641,-0.18355655670166016,-0.44011250138282776,0.36735135316848755,0.5496048331260681,-1.574210958396767,-0.3453478084635816,1.8851601581819526
1686937670.357977,-0.925058126449585,0.3796437978744507,-0.011746371164917946,-0.12320536375045776,0.5548807382583618,-0.24325835704803467,-1.013752818107605,0.8403326869010925,1.2155132293701172,-1.558099027535254,-0.3894112441418128,1.8462686303333606
1686937670.432411,-0.890443742275238,0.45410311222076416,-0.030007997527718544,-0.21626102924346924,0.6255630850791931,-0.21636027097702026,-1.3223732709884644,0.9992046356201172,1.9995900392532349,-1.5371090274396872,-0.4713652772701133,1.7815127643616309
1686937670.558,-0.8275113701820374,0.5605785250663757,-0.03125348687171936,-0.20463895797729492,0.5969379544258118,-0.1640741229057312,-1.7651710510253906,0.8250049948692322,2.785240411758423,-1.5330462246942977,-0.5950842786110742,1.697520938316807
1686937670.572053,-0.7278465628623962,0.6857247948646545,-0.004588484764099121,-0.34521257877349854,0.525929868221283,-0.06859248876571655,-1.282859206199646,0.40731731057167053,3.5128657817840576,-1.5644922178451286,-0.7555990553502294,1.5970589500447911
1686937670.611044,-0.586007833480835,0.8100737929344177,0.019368644803762436,-0.5590116381645203,0.4122315049171448,-0.020757082849740982,-0.5156587362289429,0.09269996732473373,3.98837947845459,-1.6038361511292865,-0.9442779362525063,1.529233220953452
1686937670.621196,-0.4062217175960541,0.913041889667511,0.03658274561166763,-0.7044655680656433,0.25863462686538696,-0.0017010048031806946,-0.558529257774353,0.09798550605773926,4.2822089195251465,-1.6606101605706247,-1.150680991810762,1.459839943083919
1686937670.704422,-0.1994011402130127,0.9766186475753784,0.08034662902355194,-0.7539070248603821,0.09903454780578613,0.04770529270172119,-1.2925437688827515,0.04639309644699097,4.399169445037842,-1.9538343187572658,-1.354125894505729,1.1495131174102289
1686937670.7174191,0.01634605973958969,0.9886582493782043,0.14929212629795074,-0.7313882112503052,0.06453412771224976,0.035629287362098694,-1.3018622398376465,-0.21867796778678894,4.304471969604492,3.032536635980254,-1.4200431694343045,-0.15877806245178672
1686937670.720217,0.22560691833496094,0.953816831111908,0.19833150506019592,-0.7233333587646484,0.007624387741088867,0.0396905243396759,-0.8956689834594727,-0.31255030632019043,4.14137077331543,2.2919449029158447,-1.2656960476807027,-0.899643224071769
1686937670.826546,0.41273945569992065,0.8758794069290161,0.24996329843997955,-0.6351057291030884,-0.09668928384780884,0.07005953788757324,-1.6726982593536377,-0.3885560929775238,3.816197633743286,2.1153379913231403,-1.0672553062653802,-1.0726642863531033
1686937670.8411388,0.5733624696731567,0.757544755935669,0.3120608329772949,-0.6080760955810547,-0.02162843942642212,0.020138412714004517,-1.7798676490783691,-0.7821769714355469,3.552180290222168,2.069225441846888,-0.8595436648291053,-1.092540721852983
1686937670.915409,0.710411548614502,0.6221535205841064,0.32899945974349976,-0.564201831817627,0.048546552658081055,-0.03142240643501282,-1.1111575365066528,-1.2303907871246338,3.4442217350006104,2.004499790695025,-0.6714904542000057,-1.1135360102806129
1686937670.9210892,0.8251861333847046,0.4782201051712036,0.30062204599380493,-0.5125487446784973,0.0031947195529937744,-0.0019005537033081055,-0.6330388188362122,-1.5618747472763062,3.2819466590881348,1.9201605441012328,-0.4986269278221812,-1.1392455123342198
1686937671.009491,0.9143329858779907,0.3307412564754486,0.2336781919002533,-0.4871937036514282,0.10236421227455139,0.01749691367149353,-0.21215303242206573,-1.8299437761306763,3.306164026260376,1.821012605557794,-0.3370889423253508,-1.1739037872933993
1686937671.0236878,0.9752349257469177,0.16675761342048645,0.14528898894786835,-0.5215452909469604,0.17535969614982605,0.06526719033718109,-0.3765028417110443,-2.0605170726776123,3.50866961479187,1.7186870513045476,-0.16754031657879473,-1.1921395681607425
1686937671.3358998,0.9990130066871643,-0.017339572310447693,0.040894873440265656,-0.5121966004371643,0.2434137761592865,0.060591455549001694,-0.18759992718696594,-2.182217597961426,3.812974691390991,1.6117087602134232,0.017340440537815163,-1.1971504510767972
1686937671.342071,0.9748079776763916,-0.21248508989810944,-0.06782227754592896,-0.4756927490234375,0.20073576271533966,0.017025940120220184,-0.302179753780365,-2.1183347702026367,4.053796291351318,1.5013332471041763,0.2141174227953401,-1.1807568012916783
1686937671.392339,0.9024258852005005,-0.3967399597167969,-0.16800323128700256,-0.3243313431739807,0.05959704518318176,-0.013530418276786804,-0.37376540899276733,-1.9273074865341187,3.8654069900512695,1.3867350055056604,0.40796261539893636,-1.1369913036443648
1686937671.404002,0.7943492531776428,-0.5502379536628723,-0.25738611817359924,-0.30489301681518555,-0.010659933090209961,-0.0692739486694336,-0.6389387845993042,-1.6289080381393433,3.5727627277374268,1.2574498498289042,0.5826492018277537,-1.0528402257288108
1686937671.406993,0.6693507432937622,-0.6686391830444336,-0.32386907935142517,-0.2994166612625122,-0.0026407241821289062,-0.144133061170578,-0.14620478451251984,-1.3363564014434814,3.163076877593994,1.1201474955896311,0.7323772281630894,-0.9512042133053348
1686937671.488577,0.5462877750396729,-0.7596312165260315,-0.3528885543346405,-0.2984086871147156,-0.025647222995758057,-0.09452950954437256,0.5229676961898804,-1.0162237882614136,2.643507480621338,0.9972554347477343,0.8627458431581585,-0.8599343653695687
1686937671.50274,0.4370982050895691,-0.8303754925727844,-0.34557485580444336,-0.24938452243804932,-0.06240111589431763,-0.08132016658782959,0.9121685028076172,-0.7069504261016846,2.1231868267059326,0.9018063581296675,0.9797811860319456,-0.79223462415323
1686937671.5061688,0.3444654941558838,-0.8834212422370911,-0.317664235830307,-0.1866438090801239,-0.08625960350036621,-0.04067304730415344,0.9616020321846008,-0.6228325963020325,1.6860133409500122,0.8258533926761594,1.08311396700685,-0.7427255318821777
1686937671.609459,0.2705044448375702,-0.9215864539146423,-0.2783988416194916,-0.1183742880821228,-0.10688656568527222,-0.038602352142333984,1.2341126203536987,-0.6574066281318665,1.2035648822784424,0.7710170260733978,1.1721478270320498,-0.7167757746595396
1686937671.623002,0.21676091849803925,-0.9498836398124695,-0.22524604201316833,0.004949301481246948,-0.21613198518753052,-0.06871441006660461,1.3079534769058228,-0.5783158540725708,0.7656415700912476,0.7662037151958458,1.2528634321149963,-0.7459455927928347
1686937671.626858,0.18644821643829346,-0.9663432240486145,-0.17725089192390442,-0.002122044563293457,-0.225597083568573,-0.09046444296836853,0.9191526174545288,-0.4043675363063812,0.2798883318901062,0.8106810445555555,1.3106144278848293,-0.8184945459418803
1686937671.6955528,0.18157963454723358,-0.9716624617576599,-0.15133118629455566,0.011489897966384888,-0.25895899534225464,-0.04785686731338501,0.3573707640171051,-0.29150810837745667,-0.1411963403224945,0.8760098577897483,1.3321652890004283,-0.9048596557684626
1686937671.759914,0.18835164606571198,-0.9706270694732666,-0.14968864619731903,0.01605510711669922,-0.0433347225189209,-0.06935112178325653,-0.2212028056383133,0.035347383469343185,-0.09474804997444153,0.8992772670112974,1.3278235491218984,-0.9368880126167025
1686937671.773783,0.18902768194675446,-0.9708837270736694,-0.1471511423587799,0.012846127152442932,0.11243945360183716,-0.041844114661216736,0.15773709118366241,0.03495679050683975,0.06975804269313812,0.9093260887983026,1.3288928223292755,-0.9445369858299809
1686937671.777389,0.18605870008468628,-0.9717420935630798,-0.1452566534280777,0.011878356337547302,-0.030699312686920166,0.07175518572330475,0.001971106743440032,-0.10879815369844437,0.01963891088962555,0.9079328498758804,1.3325023672104388,-0.9445482388832575
1686937671.847758,0.1861056089401245,-0.9713335633277893,-0.14790530502796173,-0.008523792028427124,-0.029887259006500244,-0.007795214653015137,0.001125928247347474,-0.07262381166219711,-0.03294244036078453,0.899271817459399,1.3307777756733592,-0.9411140940796532
1686937671.852641,0.18671098351478577,-0.9713389277458191,-0.14710572361946106,0.014811873435974121,0.026041507720947266,-0.026569724082946777,0.010797912254929543,-0.012915140017867088,0.010687228292226791,0.9034898850390687,1.330800216443531,-0.946978441075643
1686937672.0000792,0.18582937121391296,-0.9715258479118347,-0.1469869166612625,0.004356205463409424,-0.004151761531829834,0.03352266550064087,-0.0020022084936499596,-0.06067853420972824,-0.001346198609098792,0.9015809352887032,1.331587867566838,-0.9467317413392458
1686937672.005311,0.18591907620429993,-0.9712422490119934,-0.14873787760734558,9.34302806854248e-06,-0.013850092887878418,0.005168065428733826,-0.01458171010017395,-0.04136053845286369,-0.005547967739403248,0.8960468010210484,1.3303940697297745,-0.9443470129162432
1686937672.087364,0.18587006628513336,-0.9715714454650879,-0.14663423597812653,0.0023624151945114136,0.0008834004402160645,-0.002077832818031311,0.01024583913385868,-0.022221289575099945,0.006455465219914913,0.9028559820435391,1.331780618397109,-0.9525604252929076
1686937672.10232,0.18556247651576996,-0.9716769456863403,-0.14632436633110046,0.004302650690078735,-0.007082939147949219,0.013862967491149902,-0.01753648743033409,-0.013872692361474037,-0.003952667582780123,0.9030792386165318,1.3322264159092188,-0.9538261998350084
1686937672.1779242,0.18588866293430328,-0.9715471267700195,-0.1467715948820114,0.002221733331680298,0.01183021068572998,0.0010655522346496582,0.03224172070622444,-0.013436999171972275,-0.0013374434784054756,0.9024493006411566,1.3316777448952934,-0.9536335479741882
1686937672.192278,0.1854676753282547,-0.9721052050590515,-0.1435738205909729,0.0022917836904525757,0.0037059783935546875,-0.018291249871253967,0.08403559029102325,-0.009692528285086155,0.007231710013002157,0.9120376449071467,1.3340456203226547,-0.9640008096307751
1686937672.270874,0.18525373935699463,-0.9725130796432495,-0.14106671512126923,-0.0036893337965011597,-0.01380002498626709,0.011733338236808777,0.024847442284226418,-0.013427399098873138,-0.0035823218058794737,0.9199894717554518,1.3357908808296552,-0.9728366986225363
1686937672.2857761,0.18473219871520996,-0.9725568890571594,-0.14144712686538696,0.005346581339836121,-0.007866144180297852,0.009992793202400208,0.001541333505883813,-0.006856887601315975,0.008988897316157818,0.9173306048968336,1.335979017915832,-0.9712904104217858
1686937672.3881521,0.1842777580022812,-0.9726965427398682,-0.14107878506183624,0.007006421685218811,-0.0008294582366943359,0.010509446263313293,-0.012663289904594421,-0.005909628234803677,0.011754523031413555,0.9174003507877563,1.3365802004284002,-0.9713282294378481
1686937672.402796,0.1842668056488037,-0.9724222421646118,-0.14297151565551758,-0.007386893033981323,-0.011220395565032959,0.008282303810119629,-0.07091812044382095,0.009500940330326557,0.0037876099813729525,0.9109279634255986,1.3354012231892909,-0.9641278819554892
1686937672.477584,0.18481627106666565,-0.9719671010971069,-0.14533768594264984,-0.006791934370994568,0.007687866687774658,0.00732208788394928,-0.0710287019610405,0.016744699329137802,-0.01693028397858143,0.9044094044650213,1.333457441930814,-0.9567364305389524
1686937672.491325,0.18561966717243195,-0.9715721607208252,-0.1469460278749466,-0.011654138565063477,0.009413838386535645,-0.009563207626342773,-0.037933021783828735,0.007484194356948137,-0.026729252189397812,0.9011669094202783,1.3317835726262317,-0.9527873068878381
1686937672.567998,0.1878778040409088,-0.970563530921936,-0.1506933867931366,-0.011745557188987732,-0.03409045934677124,-0.01965557038784027,-0.25942176580429077,-0.07684019953012466,-0.10668620467185974,0.8947872083987758,1.3275595981244823,-0.9477249244315337
1686937672.573138,0.2024228870868683,-0.9617770314216614,-0.1844182014465332,-0.08399936556816101,-0.2080991268157959,-0.037749648094177246,-1.0670998096466064,0.08204780519008636,-0.637620210647583,0.8319074536601514,1.293419497675325,-0.884443561866107
1686937672.689724,0.26351097226142883,-0.9393193125724792,-0.21963928639888763,-0.25766676664352417,-0.3372158408164978,-0.17711961269378662,-0.3518574833869934,0.7404674291610718,-1.8261109590530396,0.8759531896725056,1.2206405988485007,-0.9092177765338805
1686937672.703717,0.3854675889015198,-0.8976585268974304,-0.21359844505786896,-0.3972015380859375,-0.38238614797592163,-0.1363769769668579,-0.45745617151260376,1.1655330657958984,-3.00632905960083,1.0647892142852287,1.1144272098731371,-1.0594662386785154
1686937672.7778912,0.5494551062583923,-0.8080405592918396,-0.21253174543380737,-0.5199445486068726,-0.2586708664894104,-0.08512131869792938,-0.7102379202842712,1.3386871814727783,-3.9027493000030518,1.2017168191388303,0.9408185165040436,-1.1436812654967419
1686937672.7927709,0.7166501879692078,-0.6696535348892212,-0.1948762983083725,-0.5441800355911255,-0.2001889944076538,-0.07665371894836426,-0.8797509670257568,1.6024012565612793,-4.215120792388916,1.3052895944502567,0.7337422026871191,-1.1812897151523358
1686937672.8667212,0.8576897978782654,-0.48966753482818604,-0.15682540833950043,-0.5287253856658936,-0.0898919403553009,-0.008442416787147522,-1.0906978845596313,1.7317417860031128,-4.424344539642334,1.3899477782419642,0.511708394102209,-1.1828965948820171
1686937672.8723059,0.9545367956161499,-0.2840803861618042,-0.09032279998064041,-0.5139085650444031,0.03816971182823181,0.07456057518720627,-0.766730785369873,1.920535683631897,-4.345223426818848,1.4764524986035648,0.2880471712693294,-1.1663983640511506
1686937672.95627,0.9976369738578796,-0.06868582218885422,-0.0017305200453847647,-0.5458393692970276,-0.015130728483200073,0.14041781425476074,-1.0211377143859863,1.922041416168213,-4.3899641036987305,1.56906170949082,0.06873994236263423,-1.127674358560963
1686937672.971273,0.9843994975090027,0.15027479827404022,0.09151622653007507,-0.5595795512199402,-0.035467684268951416,0.05524300038814545,0.08418282866477966,1.7705268859863281,-4.307916164398193,1.66349642905034,-0.15084622125240452,-1.0875742367109773
1686937673.051908,0.9187758564949036,0.3566274642944336,0.16931717097759247,-0.49789249897003174,0.008698523044586182,0.06284548342227936,0.3221637010574341,1.660670518875122,-4.182449817657471,1.753037253773319,-0.36465550675257463,-1.0753125399303807
1686937673.056812,0.8122169971466064,0.5340515971183777,0.23471835255622864,-0.48361897468566895,0.09419858455657959,-0.021476522088050842,0.5115265846252441,1.7859529256820679,-3.7340238094329834,1.8521170267009817,-0.5633855531618777,-1.0465414530421957
1686937673.170018,0.6809782385826111,0.6692491173744202,0.29727861285209656,-0.3943113684654236,0.00918722152709961,0.026055335998535156,-0.3097609877586365,1.7617522478103638,-3.3597824573516846,1.9824061023437207,-0.733197781558021,-0.9807614173930558
1686937673.1749911,0.5327090620994568,0.7621017098426819,0.367997944355011,-0.3820589780807495,0.06439077854156494,-0.06375274062156677,-0.3040708303451538,1.8300520181655884,-3.22489857673645,2.1753242589079376,-0.8665530441040445,-0.8381809598123859
1686937673.2569098,0.3652684986591339,0.8346205949783325,0.4122961163520813,-0.32580915093421936,0.025181829929351807,0.06809660792350769,-0.0755404531955719,1.3199636936187744,-3.6289684772491455,2.416601553747646,-0.9874436825971183,-0.6431641616732353
1686937673.271604,0.18347953259944916,0.8967336416244507,0.40274569392204285,-0.25463125109672546,0.26738977432250977,-0.06522113084793091,1.5300421714782715,1.3977198600769043,-3.285334825515747,2.7141150102687472,-1.112333013650786,-0.38868667291529096
1686937673.350627,0.006556076463311911,0.938897967338562,0.3441337049007416,-0.31731659173965454,0.07010483741760254,0.13009428977966309,1.1604877710342407,0.9210836887359619,-3.375325918197632,3.122544001577087,-1.2194143928376209,-0.0099174048462788
1686937673.355556,-0.15870800614356995,0.9425206780433655,0.2940528392791748,-0.31106436252593994,0.18336451053619385,0.06675675511360168,0.6696993112564087,0.9555630087852478,-3.0546562671661377,-2.6466714391207735,-1.230095367784588,0.4837427118333414
1686937673.4954472,-0.31623896956443787,0.9138180017471313,0.2548127770423889,-0.25859013199806213,0.23153716325759888,0.09339293837547302,0.936698853969574,0.943937361240387,-3.0189948081970215,-2.2490397457247187,-1.1525879314404088,0.8584347852716858
1686937673.5108051,-0.45728254318237305,0.867895245552063,0.19403819739818573,-0.22353416681289673,0.2245730757713318,0.0865253210067749,0.7207812070846558,0.9189863204956055,-2.8479137420654297,-1.9720983966152348,-1.050949469458953,1.1159945975890326
1686937673.586337,-0.5781072974205017,0.805094301700592,0.13272368907928467,-0.10742443799972534,0.4396873712539673,0.09058894217014313,1.208283543586731,0.6473130583763123,-2.5133354663848877,-1.7964687435077178,-0.9358344221379266,1.2756189648857128
1686937673.5925431,-0.6694996953010559,0.7387815117835999,0.0772806704044342,-0.09974169731140137,0.3179202079772949,0.10965490341186523,0.850683331489563,0.2163686603307724,-2.0874102115631104,-1.6857181958942056,-0.8312605574858825,1.3899400843387397
1686937673.768606,-0.7373376488685608,0.6736306548118591,0.05054908245801926,-0.13316106796264648,0.23344337940216064,0.03706705570220947,0.5476527214050293,-0.07258623093366623,-1.7431820631027222,-1.6392454452135479,-0.7391103617128905,1.453787048583522
1686937673.774684,-0.7912818789482117,0.6099896430969238,0.04225455969572067,-0.07756882905960083,0.17241990566253662,0.020657531917095184,0.15329809486865997,0.04095514863729477,-1.6471692323684692,-1.6241457918443678,-0.6560475423743938,1.478887246844241
1686937673.827827,-0.8393676280975342,0.5426002740859985,0.032357268035411835,-0.02702641487121582,0.23662030696868896,0.054862137883901596,0.3554760217666626,0.10637813806533813,-1.657293438911438,-1.609326825917516,-0.5735296078773241,1.4957376079059987
1686937673.841483,-0.8788682222366333,0.4767363369464874,0.017700254917144775,-0.06760400533676147,0.2905976474285126,0.04339611530303955,0.37486082315444946,0.09969363361597061,-1.3994823694229126,-1.5909334337647092,-0.4969382118935154,1.520583256117105
1686937673.844471,-0.906562864780426,0.4220500588417053,0.004211243707686663,0.030418336391448975,0.41484877467155457,0.05203282833099365,0.7342384457588196,-0.086855448782444,-1.010860800743103,-1.5754415791774081,-0.43570546405936394,1.5518950126365865
1686937673.85537,-0.9235708713531494,0.383417010307312,-0.0029616495594382286,0.06013679504394531,0.36427897214889526,0.045137107372283936,0.899783730506897,-0.32769399881362915,-0.653337299823761,-1.5675895999787568,-0.3934932411050652,1.596012454978022
1686937673.879623,-0.9314305186271667,0.36391761898994446,-0.001280107768252492,0.039370954036712646,0.2599075138568878,0.007154881954193115,0.7563904523849487,-0.41771653294563293,-0.2255002111196518,-1.5694219817280612,-0.3724704705718012,1.6427159369668425
1686937673.910071,-0.9340346455574036,0.35713115334510803,0.006052651908248663,0.032774269580841064,0.16055375337600708,-0.004480839241296053,0.914152204990387,-0.4886203110218048,-0.08844934403896332,-1.5772763512008485,-0.36519470380619257,1.6851533875589413
1686937673.971812,-0.9333781599998474,0.35855016112327576,0.015719663351774216,-0.03363239765167236,-0.05480870604515076,-0.04442131519317627,-0.1532338559627533,-0.19987350702285767,0.12410593032836914,-1.5876364222572492,-0.36671431374431906,1.7101038460516087
1686937674.0349,-0.9311337471008301,0.3634949028491974,0.02935464307665825,0.019863486289978027,-0.006088286638259888,-0.024517536163330078,-0.3131161630153656,-0.12405027449131012,0.09669191390275955,-1.602311589817106,-0.372016692580483,1.6878268734022412
1686937674.097461,-0.92927086353302,0.3675772249698639,0.03664642572402954,-0.01733875274658203,-0.037850022315979004,-0.08092725276947021,-0.1319267302751541,-0.0748358741402626,0.06633424013853073,-1.610211580805452,-0.3764025157283253,1.6804630814115233
1686937674.155122,-0.9288231134414673,0.36814314126968384,0.041932541877031326,-0.015222907066345215,-0.029977858066558838,-0.035996679216623306,-0.06460235267877579,-0.027973264455795288,-0.008658839389681816,-1.6159115796361851,-0.37701112312252916,1.6718239279591678
1686937674.245312,-0.9298436641693115,0.3658849000930786,0.03897413983941078,-0.004268825054168701,-0.010233074426651001,-0.022235162556171417,0.089986652135849,-0.017973480746150017,-0.04729202017188072,-1.6126865270993067,-0.37458345663898285,1.6765837074696768
1686937674.260826,-0.930951714515686,0.3633752465248108,0.035885561257600784,0.012601256370544434,0.005567044019699097,0.01265275850892067,-0.022113880142569542,0.03457372263073921,-0.0320197232067585,-1.6093244300804859,-0.3718882577777927,1.6783112974379724
1686937674.3666391,-0.9313259720802307,0.3625577390193939,0.034410350024700165,0.005422532558441162,0.01747766137123108,0.011595010757446289,0.04357101395726204,-0.04608206823468208,-0.00012021255679428577,-1.6077272240218052,-0.3710109140198468,1.6796629443405933
1686937674.371983,-0.9308922290802002,0.3634200394153595,0.03695385530591011,0.005797624588012695,0.010420292615890503,0.02826225385069847,0.08129153400659561,-0.07130472362041473,0.010590855032205582,-1.610472737252121,-0.37193632251484,1.6824238423156819
1686937674.4557161,-0.9303028583526611,0.3646623492240906,0.03947681933641434,-0.005320549011230469,0.0129927396774292,0.013044122606515884,0.17054013907909393,-0.08929263055324554,0.010424640029668808,-1.6132052590911037,-0.3732701603789783,1.6887080394408347
1686937674.470127,-0.9295276999473572,0.3661511540412903,0.04372387379407883,-0.008231759071350098,-0.024262726306915283,0.004509206861257553,-0.05214488133788109,-0.09936678409576416,0.025525961071252823,-1.617800487730559,-0.3748695609128381,1.6935829244434477
1686937674.5458112,-0.9288867712020874,0.3672029972076416,0.04828646779060364,0.014778435230255127,0.015334844589233398,-0.019065741449594498,0.07999899983406067,-0.06637856364250183,0.005623926408588886,-1.622732738587442,-0.37600016450183693,1.6919012873405543
1686937674.560775,-0.9288387894630432,0.36721956729888916,0.04907674714922905,0.0014857649803161621,0.0044998228549957275,-0.011707782745361328,0.07241322100162506,-0.04423851892352104,0.014059389010071754,-1.6235839115050859,-0.3760179719611835,1.697466975046764
1686937674.696696,-0.9282965660095215,0.3685155510902405,0.049621034413576126,-0.010226011276245117,0.006911754608154297,-0.0020439550280570984,0.05343637987971306,-0.06782049685716629,0.01514995377510786,-1.6241993610003573,-0.3774116896482039,1.701562926860871
1686937674.702231,-0.9276150465011597,0.3699934184551239,0.05133417248725891,-0.007580816745758057,-0.0035840868949890137,-0.00600016862154007,0.05882549285888672,-0.07798866927623749,0.02739793062210083,-1.6260798902095837,-0.3790019227485669,1.704461827828279
1686937674.934408,-0.9271290898323059,0.37099120020866394,0.05288892239332199,-0.003382384777069092,-0.0037426650524139404,-0.006486780941486359,0.14848245680332184,-0.06157395616173744,0.006978943012654781,-1.6277804755290382,-0.3800761628862699,1.709429752275293
1686937674.941179,-0.9270744919776917,0.3712540864944458,0.051997002214193344,0.0015830397605895996,-0.017006009817123413,-0.005335569381713867,0.05772615224123001,-0.026401439681649208,0.0060750325210392475,-1.6268248154333955,-0.38035927107889955,1.7163743368105573
1686937675.0007892,-0.9268360733985901,0.37176206707954407,0.052612338215112686,0.0027637481689453125,-0.00466609001159668,-0.00894153118133545,-0.042384255677461624,-0.02427658438682556,0.017264237627387047,-1.6275009957613722,-0.38090642022327625,1.7159674928812252
1686937675.005704,-0.9265879988670349,0.3722519278526306,0.05351291596889496,-0.0046103596687316895,0.00493013858795166,-0.008361928164958954,-0.008733711205422878,-0.016258472576737404,0.016359761357307434,-1.6284849011671425,-0.3814341472655823,1.7144490490736137
1686937675.0094671,-0.9262806177139282,0.37290439009666443,0.054284848272800446,-0.0040784478187561035,-0.005121767520904541,-0.0020538493990898132,-0.0428936667740345,-0.009839508682489395,0.026188822463154793,-1.6293345560035182,-0.3821372403539574,1.712868565087263
1686937675.056803,-0.9260408878326416,0.37350761890411377,0.054228056222200394,-0.0004119277000427246,0.005535989999771118,0.0024128034710884094,0.03829381242394447,-0.011110714636743069,0.00804197695106268,-1.6292885597759743,-0.3827874478475635,1.7135200903256238
1686937675.06714,-0.9259099960327148,0.37385010719299316,0.054102420806884766,-0.00023758411407470703,-0.007974833250045776,0.004216790199279785,-0.031337834894657135,-0.00508061284199357,0.008941492065787315,-1.6291615847043006,-0.38315667696534594,1.7142447013351216
1686937675.0702739,-0.9256884455680847,0.3742835223674774,0.054889507591724396,0.004164397716522217,0.00903254747390747,-3.46451997756958e-06,0.0423196405172348,-0.014527018181979656,0.0026651876978576183,-1.6300228534631729,-0.38362400270819125,1.713652777092199
