Timestamp,gravityX,gravityY,gravityZ,accelerationX,accelerationY,accelerationZ,rotationRateX,rotationRateY,rotationRateZ,attitudeRoll,attitudePitch,attitudeYaw
1686938937.1373482,-0.8650837540626526,0.5003868341445923,0.0352558009326458,0.009065806865692139,0.002848029136657715,0.002204533666372299,0.044202063232660294,0.023147577419877052,-0.025335201993584633,-1.6115279926092394,-0.5240454816230371,2.701175003615118
1686938937.142611,-0.865571141242981,0.49962425231933594,0.034093085676431656,0.0009317994117736816,-0.00787922739982605,0.013560060411691666,0.04246808961033821,0.00835074670612812,-0.017740098759531975,-1.6101639405771222,-0.52316496767334,2.702500785312686
1686938937.226582,-0.8658195734024048,0.4992296099662781,0.03356270492076874,-0.00519794225692749,-0.0155564546585083,0.014899257570505142,-0.009240075014531612,-0.0008199675939977169,-0.003164519090205431,-1.6095410148512985,-0.5227094207689651,2.7042049408606252
1686938937.243312,-0.8658899068832397,0.4990665018558502,0.03416508063673973,-0.0003820061683654785,-0.006634891033172607,0.005904436111450195,0.027532586827874184,-0.01199009083211422,0.0018823710270226002,-1.6102324800461563,-0.5225212074753628,2.7049919394221846
1686938937.313356,-0.8658517599105835,0.4989669919013977,0.03650693967938423,-0.01603001356124878,-0.01526331901550293,0.012153271585702896,-0.046693719923496246,-0.005069267936050892,0.004321327432990074,-1.612934407956634,-0.5224063738735745,2.7011501156330575
1686938937.327927,-0.8660679459571838,0.4985102415084839,0.03759969770908356,-2.086162567138672e-05,-0.007207810878753662,0.0007303953170776367,-0.034983206540346146,-0.004108145833015442,-0.004368067719042301,-1.6141833397761647,-0.521879417698269,2.700054061100731
1686938937.403384,-0.8662607073783875,0.4981369972229004,0.0381041020154953,0.0074198246002197266,0.0037398934364318848,0.0005310773849487305,0.0388970822095871,-0.004263395443558693,-0.008353721350431442,-1.614754868509702,-0.5214488909277503,2.6996338382626623
1686938937.408277,-0.866702139377594,0.49744391441345215,0.03710539638996124,-0.008511364459991455,0.008461207151412964,0.004047509282827377,0.001349658239632845,0.011453170329332352,-0.0270443856716156,-1.613582364227752,-0.5206497846860755,2.70155943391674
1686938937.462984,-0.8673654198646545,0.4964160919189453,0.03532470390200615,0.009501278400421143,0.025693774223327637,0.01147400587797165,0.12258447706699371,-0.009883809834718704,-0.029881715774536133,-1.6115002694518696,-0.5194653636946103,2.70604236143203
1686938937.587955,-0.8679014444351196,0.49563518166542053,0.033054642379283905,0.02663874626159668,0.01731950044631958,0.022609349340200424,0.1627342402935028,-0.010881775990128517,-0.024301396682858467,-1.6088636374814231,-0.5185659966752093,2.713554280295861
1686938937.5927129,-0.8681260347366333,0.49539780616760254,0.030629962682724,0.0091630220413208,0.017282307147979736,0.03634083643555641,0.14486517012119293,-0.04450610280036926,-0.013452209532260895,-1.6060645489713956,-0.5182927214084928,2.7226802425740084
1686938937.646575,-0.8675329089164734,0.4963298439979553,0.03230009600520134,0.007486581802368164,0.005257129669189453,0.03679168224334717,0.07364824414253235,-0.09025707095861435,0.025459401309490204,-1.6080112647963005,-0.519365991125888,2.728112906371715
1686938937.659985,-0.8664548993110657,0.4978759288787842,0.037090156227350235,0.0076749324798583984,-0.004482895135879517,0.020282868295907974,0.07192378491163254,-0.12326961755752563,0.026393873617053032,-1.6135770030573282,-0.521147833668001,2.7309406494435073
1686938937.700694,-0.8654214143753052,0.4992216229438782,0.0426982156932354,-0.011897683143615723,-0.016021639108657837,-0.005237944424152374,0.04854590818285942,-0.11692147701978683,0.020040301606059074,-1.6200944136740956,-0.522700232546348,2.7334288155667075
1686938937.765746,-0.8651241064071655,0.4993761479854584,0.04672687500715256,-0.0039858222007751465,-0.016420334577560425,-0.029164083302021027,0.04509991034865379,-0.08909755200147629,-0.009735802188515663,-1.624755656741949,-0.5228785765309558,2.7359016583987072
1686938937.855953,-0.8654160499572754,0.4987180531024933,0.04832392930984497,-0.006547331809997559,-0.007430821657180786,-0.037337664514780045,0.042593635618686676,-0.06069693714380264,-0.011272512376308441,-1.6265773584735839,-0.5221191252983969,2.738901124695899
1686938937.862067,-0.8659378290176392,0.49789589643478394,0.04744871333241463,0.00023049116134643555,0.0009902119636535645,-0.03620302677154541,0.07130995392799377,-0.030685415491461754,-0.021839836612343788,-1.6255361823750667,-0.5211708537536646,2.7430713039162042
1686938937.912086,-0.8664970993995667,0.4971345067024231,0.045166872441768646,-0.004627108573913574,2.7388334274291992e-05,-0.030854105949401855,0.026461269706487656,0.0011773498263210058,-0.01637379825115204,-1.622875013155266,-0.5202931372232124,2.7469732549145895
1686938938.035892,-0.8669112920761108,0.49667221307754517,0.04220869764685631,-0.0036025643348693848,0.009461820125579834,-0.01375114917755127,0.003318000817671418,0.02196762152016163,-0.0038628331385552883,-1.6194465085196192,-0.5197604262882277,2.749856562105667
1686938938.041628,-0.8670305609703064,0.4966028332710266,0.040542080998420715,-0.007999897003173828,-0.0004938244819641113,0.003418445587158203,-0.038651395589113235,0.026833364740014076,0.0019663935527205467,-1.6175219815902069,-0.519680492175054,2.748764088393006
1686938938.1241531,-0.8670158982276917,0.4966426193714142,0.040365032851696014,-0.0007818341255187988,-0.01301535964012146,0.005319710820913315,-0.08433224260807037,0.02554725669324398,0.003724712412804365,-1.6173190139082474,-0.5197263205443633,2.745486072391564
1686938938.139468,-0.8670793175697327,0.49652090668678284,0.04049978777766228,0.002440154552459717,-0.0025024116039276123,0.007565375417470932,-0.018650704994797707,0.00329148699529469,-0.002341169398277998,-1.6174706887496078,-0.5195861123342961,2.743391339902802
1686938938.215743,-0.8670659065246582,0.49644333124160767,0.04171990603208542,4.6372413635253906e-05,-0.0030656754970550537,-0.00010919943451881409,-0.03263503685593605,0.0029532385524362326,0.012894042767584324,-1.6188754334518018,-0.5194967290989526,2.740892648279148
1686938938.2299309,-0.8669787049293518,0.49654561281204224,0.04231066256761551,0.0011951327323913574,-0.0006349682807922363,-0.011228565126657486,-0.03126053139567375,0.006541182287037373,0.00533539243042469,-1.6195600620596156,-0.5196145487912086,2.739576454798816
1686938938.304576,-0.8668453693389893,0.49678707122802734,0.04221157357096672,-0.006094634532928467,0.0013971328735351562,-0.012090682983398438,-0.009991001337766647,0.018385885283350945,0.010566573590040207,-1.6194535114798296,-0.5198927452147009,2.7380683736749782
1686938938.3105202,-0.8667550086975098,0.4970729947090149,0.040669359266757965,-0.0034536123275756836,-0.0019100606441497803,-0.01576698198914528,-0.009909823536872864,0.047413166612386703,0.00527154328301549,-1.6176833382643185,-0.5202222548272273,2.73718285003449
1686938938.364254,-0.866687536239624,0.4974367618560791,0.03754441440105438,0.004672706127166748,0.003906071186065674,-0.015022512525320053,0.0057088290341198444,0.04693455994129181,0.0159886684268713,-1.6140886969228583,-0.5206415217266598,2.7388833344706147
1686938938.485796,-0.8665072917938232,0.4979850947856903,0.03428993746638298,-0.005425572395324707,0.0016181468963623047,-0.010699871927499771,0.03595859557390213,0.06257297843694687,0.002481415867805481,-1.61034827837108,-0.5212737276048621,2.739302677815996
1686938938.490722,-0.8664514422416687,0.49836862087249756,0.02983863279223442,0.001552879810333252,-0.0009779036045074463,-0.00478375144302845,0.09376773983240128,0.04798106104135513,0.005479136481881142,-1.6052204663374496,-0.5217160420255833,2.7433070035117666
1686938938.57581,-0.866603434085846,0.4984227120876312,0.02393876388669014,0.0016744136810302734,-0.0036259889602661133,0.0005363188683986664,0.2871644198894501,0.01611773669719696,-0.013606773689389229,-1.598412969315323,-0.5217784219474111,2.7529490979132714
1686938938.590479,-0.8675397634506226,0.49724024534225464,0.011273432523012161,-0.004942595958709717,0.019971728324890137,0.004610897041857243,1.2455568313598633,-0.19703640043735504,-0.0887162983417511,-1.5837903106061046,-0.5204149930746561,2.7893737145608597
1686938938.694992,-0.8714539408683777,0.4897369146347046,-0.026942219585180283,0.00731813907623291,0.09104317426681519,0.02076243981719017,3.5439157485961914,-0.7581301927566528,-0.19736291468143463,-1.5398897694370741,-0.511787982802276,2.9256864291452342
1686938938.710291,-0.8792302012443542,0.46775853633880615,-0.09031092375516891,-0.003078639507293701,0.07492026686668396,0.005136318504810333,5.344554901123047,-1.223257064819336,-0.19923534989356995,-1.4684393906395363,-0.48675305744562003,-3.102845431250021
1686938938.7848182,-0.8932728171348572,0.4207911193370819,-0.15810845792293549,-0.043723464012145996,0.020538806915283203,0.0648619681596756,6.14946985244751,-1.6125197410583496,-0.1866832822561264,-1.3956116600232142,-0.4343172211289443,-2.7784453149447415
1686938938.7903051,-0.9096449017524719,0.36819806694984436,-0.1922922134399414,-0.1018449068069458,-0.025760352611541748,0.13275235891342163,5.0590338706970215,-1.8277233839035034,0.1456349790096283,-1.362470714910399,-0.37707018018209415,-2.4732847235120587
1686938938.875418,-0.9227654933929443,0.3369833528995514,-0.18693846464157104,-0.11042231321334839,-0.05172029137611389,0.10692131519317627,4.2590155601501465,-1.865106463432312,0.3552528917789459,-1.370916402657439,-0.343711016194863,-2.231656636180565
1686938938.889894,-0.9322786331176758,0.32096830010414124,-0.16684097051620483,-0.08954137563705444,-0.07369965314865112,0.13836801052093506,3.3393726348876953,-1.724045991897583,0.3921948969364166,-1.393710542992494,-0.32675171533836334,-2.0276402377102647
1686938938.995641,-0.9393981099128723,0.3144640624523163,-0.13654069602489471,-0.038613855838775635,-0.06679868698120117,0.12704969942569733,2.8917441368103027,-1.6488327980041504,0.3227928876876831,-1.426457977383893,-0.31989201192883093,-1.8642283349736077
1686938939.01139,-0.9434928297996521,0.31496983766555786,-0.10303033888339996,-0.028919219970703125,0.01669520139694214,0.0861082673072815,2.640824794769287,-1.6128357648849487,0.4523163139820099,-1.4620263372984919,-0.32042486238348306,-1.7175361848187365
1686938939.08583,-0.9404102563858032,0.3331366181373596,-0.06817854195833206,-0.06377047300338745,0.053307414054870605,0.09372164309024811,2.02848219871521,-1.5278738737106323,0.80650395154953,-1.4984242254902096,-0.3396282578103631,-1.5867187437086576
1686938939.091113,-0.9263404607772827,0.3757823407649994,-0.02609110437333584,-0.13457250595092773,0.08774906396865845,0.09425204992294312,0.943824291229248,-1.3988689184188843,1.2059944868087769,-1.542637989052211,-0.3852408396002489,-1.504199124470747
1686938939.208325,-0.8997011780738831,0.43579867482185364,0.024843821302056313,-0.07760894298553467,0.10428613424301147,0.04803204536437988,0.15553370118141174,-1.3653759956359863,1.4325789213180542,-1.5984027252939685,-0.45092544320695205,-1.470121956758277
1686938939.2245178,-0.8614872097969055,0.5009425282478333,0.08304554224014282,-0.012398958206176758,0.11804556846618652,0.008949525654315948,-0.1493552327156067,-1.2280656099319458,1.5283379554748535,-1.6668972709265926,-0.5246874703683255,-1.4782256253306367
1686938939.325515,-0.8111971616744995,0.5675085186958313,0.14104263484477997,-0.06789207458496094,0.09106075763702393,-0.05023767054080963,-0.49562302231788635,-1.0905424356460571,1.6807007789611816,-1.7429450909837028,-0.6034766922100527,-1.5102603347927483
1686938939.340245,-0.7528742551803589,0.6271985173225403,0.1995048075914383,-0.04964643716812134,0.02213919162750244,-0.14503099024295807,-0.8768028616905212,-0.7730258107185364,1.663329839706421,-1.8298335347390424,-0.6779510820987004,-1.5761525245964148
1686938939.4153628,-0.6935227513313293,0.6765176653862,0.24768847227096558,-0.055851519107818604,-0.05977284908294678,-0.2901690602302551,-0.921610414981842,-0.22605246305465698,1.6213291883468628,-1.9138225418153523,-0.7430236328227137,-1.6643988177083837
1686938939.42978,-0.6397438645362854,0.7171984910964966,0.2763218879699707,-0.049617648124694824,-0.13301587104797363,-0.33209291100502014,-0.803892970085144,0.3237365186214447,1.4473668336868286,-1.9785185363634676,-0.7997738602321295,-1.7597763705528258
1686938939.433352,-0.5956701040267944,0.7498743534088135,0.28786352276802063,-0.08276605606079102,-0.11748915910720825,-0.2686833441257477,-0.6169101595878601,0.48712918162345886,1.3168846368789673,-2.020962451898473,-0.8478721411137252,-1.8497752776927905
1686938939.502995,-0.5531298518180847,0.781879186630249,0.2875972092151642,-0.08160513639450073,-0.1737859845161438,-0.16076627373695374,-0.23177681863307953,0.375265508890152,1.2482597827911377,-2.050272471506942,-0.8976744065515437,-1.9184122996169908
1686938939.5077438,-0.5088178515434265,0.8127820491790771,0.2837072014808655,-0.03274703025817871,0.02346062660217285,-0.10096800327301025,0.021385297179222107,0.2044132649898529,1.2494077682495117,-2.0794412734958745,-0.9489118313598679,-1.972947284790024
1686938939.563714,-0.46097254753112793,0.8431276082992554,0.2768392562866211,0.017338544130325317,-0.032428205013275146,-0.019484639167785645,0.12984000146389008,0.17881229519844055,1.2064288854599,-2.111623657142016,-1.003073512277661,-2.024348738881785
1686938939.6229858,-0.41656893491744995,0.8729487061500549,0.2538314461708069,-0.030009955167770386,0.019186735153198242,-0.15527504682540894,1.7966797351837158,-0.5540657639503479,0.29106074571609497,-2.118053999502325,-1.0612147900484505,-2.031947457646856
1686938939.719747,-0.4000208377838135,0.8850709795951843,0.2379760891199112,0.043789178133010864,-0.4570772647857666,-0.1630706787109375,0.7442485690116882,-0.7741606831550598,0.34273844957351685,-2.107464204835742,-1.0866464689122382,-1.9772104230893588
1686938939.724594,-0.37296977639198303,0.9064265489578247,0.1982024759054184,0.1338646113872528,-0.006509065628051758,-0.13670971989631653,1.1980594396591187,-1.206832766532898,0.4492816627025604,-2.0592604876862923,-1.134745148586789,-1.8674910778377307
1686938939.807582,-0.34364256262779236,0.9246442914009094,0.16414214670658112,0.08256474137306213,-0.0014418363571166992,0.042568549513816833,1.2193200588226318,-1.1687507629394531,0.43269744515419006,-2.016407623782497,-1.1801004332378144,-1.756901222971748
1686938939.823425,-0.3180537223815918,0.9379074573516846,0.1384606510400772,-0.0388035774230957,0.052067458629608154,0.19270074367523193,0.627678632736206,-0.8492920398712158,0.2988054156303406,-1.981390085770131,-1.2165479085578284,-1.662104470505602
1686938939.861061,-0.3049221336841583,0.9435635209083557,0.12926778197288513,-0.0594119131565094,-0.041494548320770264,0.11162267625331879,0.18367841839790344,-0.3842136263847351,0.1380188763141632,-1.9717662731459795,-1.2332301043291352,-1.6201537407962383
1686938939.95489,-0.297478049993515,0.9462571740150452,0.126901775598526,-0.06375855207443237,0.07685983180999756,-0.030084848403930664,0.10869211703538895,-0.18335047364234924,0.08200147747993469,-1.9740146956289717,-1.241460027630515,-1.607775328016044
1686938939.961174,-0.294820100069046,0.9468555450439453,0.12862980365753174,-0.01244613528251648,-0.0010395646095275879,0.06183026731014252,-0.05962809920310974,-0.11309665441513062,0.028004053980112076,-1.9821985354806193,-1.2433151069499508,-1.6094766870260382
1686938940.012982,-0.2928672432899475,0.9471603035926819,0.13082927465438843,0.02602154016494751,0.0010666847229003906,-0.004028782248497009,-0.011141692288219929,-0.07581572979688644,0.040317777544260025,-1.9909181672194118,-1.2442639744051776,-1.613897045813468
1686938940.076429,-0.29042232036590576,0.94753497838974,0.13353772461414337,-0.00012028217315673828,0.009557247161865234,0.009040355682373047,0.03741906210780144,-0.1058780774474144,0.05175592005252838,-2.001774377326144,-1.2454340265811739,-1.6204165869297837
1686938940.222906,-0.28787365555763245,0.9484103322029114,0.13284049928188324,0.006471067667007446,-0.026657402515411377,0.010225892066955566,-0.004131079185754061,-0.050387509167194366,0.009054496884346008,-2.0031345825483133,-1.2481836058919933,-1.6170215469349312
1686938940.2288709,-0.2875482439994812,0.9482607841491699,0.1346011459827423,-0.003009617328643799,0.013561725616455078,0.014034509658813477,-0.04923081770539284,0.015669966116547585,0.013591324910521507,-2.0085993327567504,-1.2477122501224251,-1.6215712710644312
1686938940.2855082,-0.2881694436073303,0.9476007223129272,0.1378793716430664,-0.00226631760597229,-0.013488411903381348,0.022444576025009155,-0.10302573442459106,0.08496779948472977,-0.022776702418923378,-2.01706909847115,-1.245639846661564,-1.6331343007859958
1686938940.290248,-0.2909660041332245,0.9462026357650757,0.14156028628349304,0.0024680793285369873,-0.02292388677597046,0.01847374439239502,-0.1314426213502884,0.21372340619564056,-0.07303766906261444,-2.0236005314871877,-1.2412914395781725,-1.6468472193175308
1686938940.294187,-0.3000430166721344,0.9423295259475708,0.14828723669052124,-0.004476606845855713,-0.008873164653778076,0.07293450832366943,-0.3764549791812897,0.5274558663368225,-0.21843118965625763,-2.029809205846869,-1.2295237637519123,-1.6718476266481739
1686938940.340435,-0.3180215060710907,0.9348188042640686,0.1580379456281662,0.015836447477340698,-0.02046644687652588,-0.019762873649597168,-0.4826452136039734,0.8328397870063782,-0.269243448972702,-2.0319937997046504,-1.2077485280061206,-1.7106027610093528
1686938940.40584,-0.33689507842063904,0.9264935255050659,0.16766396164894104,0.014110714197158813,-0.01902294158935547,0.011992916464805603,-0.477456271648407,0.7432472705841064,-0.6766140460968018,-2.0325815062169803,-1.1849852628444684,-1.7502080845633818
1686938940.468268,-0.3921380937099457,0.9015334844589233,0.18293438851833344,0.23651373386383057,-0.16984409093856812,-0.11916805803775787,-0.503038227558136,1.030961275100708,-1.2279367446899414,-2.007290736809095,-1.1233003859017654,-1.7750749510309465
1686938940.5263,-0.4560389220714569,0.8707449436187744,0.18393419682979584,-0.07659962773323059,-0.02713221311569214,-0.08592711389064789,-0.28907373547554016,0.9414680004119873,-1.392120361328125,-1.9541701216047844,-1.0567152354468337,-1.769440888486628
1686938940.614818,-0.5182685256004333,0.8377744555473328,0.17184709012508392,0.0309486985206604,-0.13187247514724731,-0.03880585730075836,-0.04498560354113579,0.4112125337123871,-1.2274489402770996,-1.8909673574749195,-0.9931944575132664,-1.736459563907445
1686938940.629497,-0.5713708400726318,0.804894208908081,0.16025099158287048,0.05531865358352661,0.0884009599685669,0.024425968527793884,0.08982931077480316,0.27170369029045105,-1.1984421014785767,-1.8442385510608046,-0.9354972039678631,-1.698829332549816
1686938940.67206,-0.6168563961982727,0.7720229029655457,0.15319542586803436,0.01398169994354248,0.024028122425079346,0.09527862071990967,-0.07999875396490097,-0.045251257717609406,-0.8919583559036255,-1.8142201355781238,-0.8820176875754734,-1.668577225797248
1686938940.7657828,-0.6557561755180359,0.7408648133277893,0.14526912569999695,0.02823847532272339,0.07146728038787842,-0.11069273948669434,0.4238162338733673,0.10959058254957199,-1.0157681703567505,-1.7888047565412826,-0.8343570023983602,-1.6385340150210959
1686938940.780748,-0.6912029385566711,0.7086678743362427,0.1415209174156189,0.022486567497253418,-0.04878634214401245,-0.09707213938236237,0.026944899931550026,0.17308709025382996,-1.0800405740737915,-1.7727509825325958,-0.7876083174877077,-1.623141735812191
1686938940.820744,-0.7319775223731995,0.6721386313438416,0.11152665317058563,0.08724802732467651,-0.1306348443031311,-0.1092379242181778,0.3924788236618042,0.4407298266887665,-1.2188714742660522,-1.7219969518901377,-0.7370934323887264,-1.5731886588936963
1686938940.915873,-0.7781857848167419,0.6227783560752869,0.08107927441596985,0.1422911286354065,-0.11687326431274414,-0.11902797967195511,0.5273465514183044,0.6889634728431702,-1.5015885829925537,-1.6746118732398385,-0.6722887445799982,-1.5435722570847206
1686938940.931277,-0.829411506652832,0.557174563407898,0.040411368012428284,0.1066332459449768,-0.07766711711883545,-0.04405832290649414,-0.15737630426883698,0.8084264397621155,-1.867522120475769,-1.6194807656220833,-0.5909793852874429,-1.5156723223982644
1686938940.970518,-0.8764927387237549,0.4814068377017975,0.002808320801705122,0.14466601610183716,0.12429076433181763,-0.14468467235565186,-0.5724145770072937,1.2875057458877563,-1.737241506576538,-1.5740003593818002,-0.5022590744288009,-1.5309961956579574
1686938941.066207,-0.9157246351242065,0.39913347363471985,-0.04626602306962013,-0.03262418508529663,0.055486828088760376,-0.02198665961623192,-1.8951759338378906,2.014786720275879,-1.80669367313385,-1.52031530741666,-0.4105715828596987,-1.5962932694844736
1686938941.081586,-0.9380154609680176,0.32961374521255493,-0.10715287178754807,-0.049014508724212646,0.09276479482650757,0.08133494853973389,-3.3025946617126465,2.5981316566467285,-1.682898759841919,-1.45705577849007,-0.33589443150386983,-1.7385215201242723
1686938941.122293,-0.9411793351173401,0.28897255659103394,-0.17514629662036896,-0.16253459453582764,0.024473488330841064,0.2802029848098755,-5.181880474090576,3.0287582874298096,-1.2694379091262817,-1.3868085475001857,-0.2931534377358544,-1.9758184550143143
1686938941.2175732,-0.9237062335014343,0.3107640743255615,-0.22403709590435028,-0.22213727235794067,-0.04121756553649902,0.4192427396774292,-6.771075248718262,2.8559298515319824,-0.4546685814857483,-1.3328496516780952,-0.3159968164248929,-2.304559736601283
1686938941.223092,-0.8960477113723755,0.37616628408432007,-0.2357911318540573,-0.19213277101516724,0.1521693468093872,0.32682502269744873,-5.278275966644287,2.017805337905884,0.10856284201145172,-1.3134839995254253,-0.38565519303369444,-2.6165116621004474
1686938941.335544,-0.8769894242286682,0.4333648979663849,-0.20756715536117554,-0.06881117820739746,0.015197694301605225,0.01040831208229065,-4.482378005981445,1.144214391708374,-0.051455553621053696,-1.3383914793941112,-0.44822315798635887,-2.8726438974221797
1686938941.3412519,-0.8736925721168518,0.4569278955459595,-0.1669677495956421,-0.05326354503631592,0.11362874507904053,-0.10895693302154541,-2.6004881858825684,0.739517867565155,-0.2544114887714386,-1.3819672912569314,-0.4745383839189501,-3.067963349272297
1686938941.425961,-0.8751637935638428,0.46474212408065796,-0.13454829156398773,-0.047077476978302,-0.0944112241268158,0.03791432082653046,-2.1753652095794678,0.41408753395080566,-0.22637440264225006,-1.4182500239031104,-0.4833433375186087,3.074657553680076
1686938941.4401798,-0.8752492070198059,0.47252172231674194,-0.10325674712657928,-0.09881079196929932,-0.0016965270042419434,-0.0657191276550293,-2.0397493839263916,0.32906466722488403,-0.09039665758609772,-1.4533650092889816,-0.492149883773787,2.960545493380479
1686938941.544517,-0.8756514191627502,0.4778003692626953,-0.07029493153095245,0.01362144947052002,0.08042716979980469,-0.12413257360458374,-1.8143199682235718,0.3446730673313141,-0.032668981701135635,-1.4906908125832627,-0.49814905127655973,2.8481047452027264
1686938941.560265,-0.8751617670059204,0.48180994391441345,-0.044168297201395035,0.005426168441772461,0.05359044671058655,-0.14980149269104004,-1.5646101236343384,0.38888221979141235,0.01966000348329544,-1.520370389476271,-0.5027190299791235,2.7484275401929525
1686938941.6352792,-0.8732185363769531,0.4865257441997528,-0.02796769328415394,-0.006710052490234375,0.04010084271430969,-0.11505293846130371,-1.255397915840149,0.42670512199401855,0.07881942391395569,-1.5387789846039537,-0.5081087068332782,2.668205282945749
1686938941.640829,-0.8705959916114807,0.4915124773979187,-0.021868182346224785,-0.0019016265869140625,0.08961859345436096,-0.03045422025024891,-0.47316840291023254,0.26012200117111206,0.10100249201059341,-1.5456829738428453,-0.5138256402409901,2.617041120821011
1686938941.724597,-0.8675416111946106,0.4967900514602661,-0.023899538442492485,-0.019924819469451904,-0.029321789741516113,-0.007564127445220947,-0.20993410050868988,0.14622405171394348,0.09804845601320267,-1.5432547130231011,-0.5198962087180935,2.6018266528758938
1686938941.738687,-0.8647122979164124,0.5016619563102722,-0.024659015238285065,-0.015460491180419922,-0.04545468091964722,0.018784400075674057,-0.10690554231405258,0.08866897225379944,0.09940529614686966,-1.5422870362070027,-0.5255189083738562,2.59287427326538
1686938941.81781,-0.863447904586792,0.5037148594856262,-0.027000103145837784,0.013838589191436768,-0.042899489402770996,0.0410534143447876,-0.001610578503459692,0.04167819768190384,0.028225695714354515,-1.5395364117504935,-0.5278936693882618,2.5925888578167613
1686938941.822198,-0.8642565608024597,0.5023947954177856,-0.025696655735373497,-0.005875945091247559,-0.06396394968032837,0.06109702214598656,0.0753229632973671,-0.02572299912571907,-0.046955741941928864,-1.5410724121932728,-0.5263662552312584,2.5879386203735812
1686938941.8717551,-0.8661582469940186,0.4991960823535919,-0.023939741775393486,-0.01508253812789917,-0.05078607797622681,0.02224600315093994,-0.05778726190328598,-0.07932399958372116,-0.06936608254909515,-1.5431643675798903,-0.5226707561885484,2.591422517911125
1686938941.96563,-0.8684642910957336,0.49537715315818787,-0.01927456445991993,0.016260862350463867,0.02084296941757202,0.01758086495101452,0.09890463948249817,-0.12552222609519958,-0.07392088323831558,-1.5486061208399833,-0.5182689321617403,2.593430384073385
1686938941.981533,-0.8708125948905945,0.4913981258869171,-0.014596759341657162,0.006432831287384033,0.013576209545135498,-0.003515421412885189,0.09192013740539551,-0.14240366220474243,-0.0800575390458107,-1.5540356683484737,-0.5136943504484833,2.597891875053471
1686938942.053563,-0.872050940990448,0.48933184146881104,-0.009007012471556664,0.0042228102684021,0.019335061311721802,-0.016307352110743523,0.11695428937673569,-0.1356116533279419,-0.05045969784259796,-1.5604681544814418,-0.5113234244331422,2.6009791933407294
1686938942.1454148,-0.8724111318588257,0.4887141287326813,-0.007577858399599791,0.012181639671325684,0.035150617361068726,-0.04764366149902344,0.03670349717140198,-0.0762757882475853,-0.024770477786660194,-1.562110435810802,-0.5106152670951507,2.608868665936913
1686938942.161154,-0.87195885181427,0.4895137846469879,-0.00798334926366806,0.012538254261016846,0.0562625527381897,-0.03645026683807373,0.1638726443052292,-0.06412807106971741,0.00803667027503252,-1.5616409332327847,-0.5115320855817758,2.6153619243219737
1686938942.235378,-0.8709474205970764,0.491274356842041,-0.010003290139138699,0.0016084909439086914,-0.00023126602172851562,-0.015051603317260742,0.019704490900039673,0.0006159821059554815,0.017433367669582367,-1.55931130463001,-0.5135522523485881,2.6191748091818687
1686938942.24035,-0.8691811561584473,0.4942924380302429,-0.014102881774306297,-0.0005849599838256836,0.013581037521362305,-0.021404383704066277,0.12021530419588089,-0.02867978811264038,0.05897139012813568,-1.5545722700235465,-0.5170206831383619,2.627269279031101
1686938942.324874,-0.8679010272026062,0.4964502453804016,-0.01687772385776043,-0.000690162181854248,-0.001546710729598999,-0.013319490477442741,0.11440962553024292,0.007294444367289543,0.028555527329444885,-1.5513521776902441,-0.5195047001006997,2.633892904111821
1686938942.3399038,-0.8670610785484314,0.49779894948005676,-0.020029278472065926,-0.006916522979736328,-0.025173217058181763,0.005243480205535889,0.10825306922197342,-0.0027675905730575323,0.03188347816467285,-1.5477002411737053,-0.5210590662420095,2.6394332239573632
1686938942.4174562,-0.8669141530990601,0.49792250990867615,-0.023085637018084526,0.0018172264099121094,-0.028272271156311035,-0.002320287749171257,0.181848406791687,-0.016763048246502876,-0.0013874247670173645,-1.5441729497458292,-0.5212015510227626,2.6477950917693858
1686938942.42244,-0.8673914074897766,0.49701765179634094,-0.024608900770545006,-0.007898509502410889,-0.03191453218460083,0.000652611255645752,0.0445573665201664,-0.005396303720772266,-0.011696521192789078,-1.5424327736212418,-0.5201584719396446,2.6524148013220565
1686938942.474143,-0.868159294128418,0.4955889880657196,-0.02628493867814541,0.0005446672439575195,-0.0015093982219696045,-0.0008451938629150391,0.1149238720536232,-0.027986807748675346,-0.01632010191679001,-1.5405289420954171,-0.5185128136733692,2.6581225624192766
1686938942.566021,-0.8691868782043457,0.49374300241470337,-0.027060937136411667,0.0038608312606811523,-0.004775047302246094,0.004004891961812973,0.06251118332147598,0.0012078299187123775,-0.029613137245178223,-1.5396727560990515,-0.5163887507070742,2.6608186624340315
1686938942.5815248,-0.8696677684783936,0.49284619092941284,-0.02793913707137108,0.0036399364471435547,0.005475342273712158,-0.005706489086151123,0.04232686012983322,-0.018541492521762848,-0.009866230189800262,-1.5386811530821474,-0.5153577933464258,2.663978627596187
1686938942.621584,-0.8702692985534668,0.4917002320289612,-0.02935928851366043,0.011428534984588623,0.007811397314071655,-0.0052171312272548676,0.08984944224357605,-0.000247760908678174,-0.026535488665103912,-1.5370732509039156,-0.5140412559424701,2.6686317009042444
1686938942.715126,-0.8707519769668579,0.49070489406585693,-0.03161731734871864,-0.0006926655769348145,0.0034357011318206787,0.002137303352355957,0.08031746745109558,0.003087275894358754,-0.01999872550368309,-1.534501914431407,-0.512898566594628,2.672400324645687
1686938942.730552,-0.87104731798172,0.49008604884147644,-0.033051420003175735,-0.012772321701049805,0.009578317403793335,0.012955602258443832,0.03663366287946701,-0.005189110059291124,-0.014973808079957962,-1.5328700600090694,-0.5121884500949778,2.6760159733850215
1686938942.776227,-0.8708049654960632,0.49050018191337585,-0.033287908881902695,0.004884064197540283,0.014718294143676758,-0.001547928899526596,-0.025659844279289246,-0.01747625693678856,0.029998427256941795,-1.5325883377329574,-0.5126636304299893,2.677575555204546
1686938942.865347,-0.869832456111908,0.4923288822174072,-0.03167986497282982,0.00470501184463501,0.012126654386520386,-0.0027592144906520844,0.030540216714143753,-0.04286006838083267,0.05099944770336151,-1.5343917641218856,-0.5147633512950374,2.678140328716586
1686938942.880595,-0.8686683773994446,0.49444085359573364,-0.030718624591827393,-0.0025169849395751953,-0.009562253952026367,-0.017041388899087906,0.04454614594578743,-0.014282353222370148,0.0275258831679821,-1.5354481664634037,-0.51719142669027,2.6787509446329727
1686938942.922243,-0.8677729368209839,0.49594223499298096,-0.03179998695850372,-0.002039015293121338,-0.004914462566375732,-0.01641780138015747,0.1306850016117096,-0.05342725291848183,0.050887130200862885,-1.5341672029362632,-0.5189195903857012,2.683973021060278
1686938943.016751,-0.8665725588798523,0.49793145060539246,-0.03340690955519676,-0.023625075817108154,0.021752387285232544,-0.005716618150472641,0.5144351720809937,-0.2518104612827301,0.08660215139389038,-1.5322647855766207,-0.5212118542043587,2.6994942102292936
1686938943.031955,-0.8664759993553162,0.4969653785228729,-0.04737897962331772,-0.016382217407226562,0.09837156534194946,-0.06530719995498657,2.788522720336914,-0.7575258612632751,-0.07311104238033295,-1.5161706421391725,-0.5200982139475115,2.780977808801721
1686938943.0715652,-0.8742746114730835,0.4745909869670868,-0.10201583802700043,0.0020670294761657715,0.11194160580635071,-0.014896988868713379,5.134551048278809,-1.3716553449630737,-0.14370986819267273,-1.4546353637186697,-0.4944993028352934,3.019393885217482
1686938943.165752,-0.8853923678398132,0.43948352336883545,-0.1514417678117752,-0.11366152763366699,-0.006942629814147949,0.11872690916061401,5.069650650024414,-1.8323605060577393,0.05963614955544472,-1.4013908873658558,-0.45502361106687184,-2.970919556518267
1686938943.181182,-0.899591326713562,0.40222081542015076,-0.17015878856182098,-0.10689365863800049,-0.04122835397720337,0.0547717809677124,5.254915714263916,-2.150029182434082,0.13979390263557434,-1.383853727516805,-0.41394125037123763,-2.690158370504894
1686938943.2224,-0.9148949384689331,0.3665370047092438,-0.16916832327842712,-0.18602663278579712,-0.022344470024108887,0.11535054445266724,4.9714813232421875,-2.266348123550415,0.31456151604652405,-1.3879567708788891,-0.37528423556781454,-2.4070867547429957
1686938943.316263,-0.9261253476142883,0.34803032875061035,-0.14548704028129578,-0.10008907318115234,-0.13433101773262024,0.09260006248950958,3.504926919937134,-2.039736032485962,0.3187790513038635,-1.4149775954914607,-0.35546925786451194,-2.1794697753441703
1686938943.33145,-0.93483966588974,0.3386245369911194,-0.10680870711803436,-0.043370723724365234,-0.08941802382469177,0.10081196576356888,2.655916452407837,-1.8149824142456055,0.08739600330591202,-1.4570361120815567,-0.34545467120178247,-2.0211453439639007
1686938943.372616,-0.9417170286178589,0.329861581325531,-0.06603169441223145,0.010412275791168213,-0.025540322065353394,0.07666695863008499,2.1247589588165283,-1.7013157606124878,0.06834195554256439,-1.5007925010833545,-0.3361569349584568,-1.8877013280206836
1686938943.498088,-0.9439736008644104,0.32869404554367065,-0.029558835551142693,-0.07444357872009277,0.19851234555244446,0.006487492471933365,2.843939781188965,-1.649682641029358,0.4367564916610718,-1.5394933552578787,-0.33492046090427047,-1.7548713637072548
1686938943.51272,-0.9310201406478882,0.3648625612258911,0.008762474171817303,-0.09977203607559204,0.09923350811004639,0.10691428184509277,1.4723597764968872,-1.65558660030365,1.0773974657058716,-1.5802077395566958,-0.3734851711374543,-1.630687743476812
1686938943.6126509,-0.9011929035186768,0.42840781807899475,0.06571397185325623,-0.11501204967498779,0.19894209504127502,0.059316523373126984,0.5585360527038574,-1.6156914234161377,1.6601252555847168,-1.6435863703254594,-0.442729976130274,-1.5858356445945025
1686938943.626789,-0.8477283120155334,0.5137433409690857,0.13200116157531738,-0.05537831783294678,0.12506580352783203,0.10109198093414307,-0.06181669607758522,-1.5808205604553223,2.1157994270324707,-1.7252674826724064,-0.5395422834583224,-1.5842614043055496
1686938943.7061338,-0.7760012149810791,0.597597062587738,0.2017425000667572,0.01145946979522705,0.014967024326324463,-0.07602545619010925,-0.689708411693573,-1.2965803146362305,2.208268165588379,-1.8251428908228136,-0.6405008109011895,-1.6343146562975728
1686938943.712277,-0.6952006816864014,0.6698085069656372,0.26086917519569397,-0.016820251941680908,-0.015267491340637207,-0.36488839983940125,-0.753440797328949,-0.5911767482757568,2.093735456466675,-1.9297800177620301,-0.7339509035959315,-1.7215333488134816
1686938943.79502,-0.6216487884521484,0.7268624901771545,0.29193153977394104,-0.10613453388214111,-0.197504460811615,-0.6170352101325989,-0.5847704410552979,0.32250428199768066,1.9935520887374878,-2.00983648113044,-0.8137424197753499,-1.8270447709158513
1686938943.809352,-0.5617097616195679,0.7805862426757812,0.27416571974754333,-0.13753938674926758,-0.2183762788772583,-0.47811490297317505,0.3276797831058502,0.9985862970352173,1.5945916175842285,-2.024871770016923,-0.895603164694684,-1.8938458623261898
1686938943.91446,-0.5120899677276611,0.826076090335846,0.23529163002967834,-0.10979723930358887,-0.24146610498428345,-0.017960786819458008,0.39021173119544983,0.6785268187522888,1.3823513984680176,-2.0015002071730326,-0.9721089576075952,-1.9200841046602366
1686938943.928465,-0.46375423669815063,0.8582475781440735,0.21987080574035645,-0.06802982091903687,-0.10843074321746826,0.22701334953308105,0.09375374019145966,-0.07811101526021957,1.09562349319458,-2.0135187594017823,-1.0318454398178678,-1.9537776619724605
1686938944.0077639,-0.4340871572494507,0.8726113438606262,0.2238694280385971,-0.20257049798965454,-0.6068186163902283,0.1556166261434555,0.11599847674369812,-0.46954965591430664,0.19981299340724945,-2.046944339794769,-1.0605236097072657,-1.9697630534675523
1686938944.0227919,-0.41595959663391113,0.882712185382843,0.21862460672855377,0.05498242378234863,0.1373683214187622,-0.09605085849761963,0.48935815691947937,-0.3748551905155182,0.34822878241539,-2.0547064849978,-1.0816030022069272,-1.9568659522202638
1686938944.094932,-0.3940655291080475,0.8953223824501038,0.20762988924980164,-0.005943566560745239,-0.11111223697662354,0.009304285049438477,0.29809072613716125,-0.522358775138855,0.3505954146385193,-2.055725177985028,-1.109154426125375,-1.932702771286326
1686938944.109311,-0.36964911222457886,0.9076281785964966,0.1989239752292633,0.028676211833953857,0.03969848155975342,-0.11962413787841797,0.687303364276886,-0.6552967429161072,0.3975708782672882,-2.0644905111977576,-1.1375988082849944,-1.908724103427015
1686938944.183604,-0.3454265296459198,0.9217096567153931,0.17644242942333221,0.0588512122631073,-0.1717248558998108,0.05008949339389801,0.7026835083961487,-0.8279319405555725,0.41154393553733826,-2.0430432447757485,-1.172465404221313,-1.845799876230803
1686938944.1883059,-0.31774863600730896,0.9341757893562317,0.16233117878437042,0.06045493483543396,-0.036272406578063965,-0.002144455909729004,0.534420907497406,-0.8324487805366516,0.4082433581352234,-2.043109400208236,-1.205942154588216,-1.7988935946824482
1686938944.306359,-0.294554740190506,0.9421511888504028,0.1599639654159546,-0.0723276138305664,0.08525353670120239,0.15259695053100586,0.17834752798080444,-0.7268450856208801,0.3314487040042877,-2.0683037388069425,-1.2289912675176529,-1.7843650894508267
1686938944.31251,-0.27848583459854126,0.9472071528434753,0.15888386964797974,-0.09897080063819885,0.07977032661437988,-0.032388582825660706,0.14535801112651825,-0.37860795855522156,0.12579023838043213,-2.089263055769445,-1.2444099322496818,-1.7775343590367798
1686938944.393359,-0.2729930579662323,0.9482762813568115,0.16200858354568481,-0.08850285410881042,0.0683404803276062,-0.032110586762428284,0.06415601074695587,-0.20955312252044678,0.015601778402924538,-2.106388037596634,-1.2477611842262233,-1.7805828405318636
1686938944.407768,-0.2717033326625824,0.9484301209449768,0.16327036917209625,0.022054344415664673,0.005884826183319092,0.035521000623703,-0.05517599731683731,-0.1202167496085167,-0.011380037292838097,-2.1118877067602524,-1.2482461011789265,-1.7785608405877442
1686938944.5154371,-0.2719091475009918,0.9480434060096741,0.16516385972499847,0.012738585472106934,0.007828176021575928,-0.0029630661010742188,-0.0032376849558204412,-0.06629601120948792,-0.011511498130857944,-2.116656051686103,-1.247028275959916,-1.7788999718163172
1686938944.530658,-0.27237778902053833,0.9474238157272339,0.1679239720106125,0.010536998510360718,-0.022649705410003662,0.026518702507019043,-0.057250913232564926,-0.01448691077530384,-0.014167035929858685,-2.1232680858058712,-1.245086490712823,-1.783760768286319
1686938944.67134,-0.2722412347793579,0.9472044110298157,0.16937680542469025,-0.008261114358901978,0.02249157428741455,0.005977153778076172,-0.03400437533855438,-0.007102524396032095,-0.022690683603286743,-2.1273486843076914,-1.2444014920839646,-1.7875572337316954
1686938944.676379,-0.2731146216392517,0.9462594985961914,0.17320923507213593,0.002088010311126709,-0.00024503469467163086,0.0022972971200942993,-0.03952106088399887,0.016407914459705353,-0.02417459525167942,-2.135983894693195,-1.2414671854091566,-1.7964443120420093
1686938944.681066,-0.27408459782600403,0.9457877278327942,0.174250990152359,0.0016846656799316406,0.01916295289993286,-0.003306850790977478,-0.02930280566215515,0.036488547921180725,-0.012942113913595676,-2.1370930830095416,-1.240011413934863,-1.7989841731258749
1686938944.786008,-0.275126576423645,0.9452106356620789,0.1757332682609558,-0.004414409399032593,-0.008931398391723633,0.010118722915649414,-0.05006911978125572,0.05798281729221344,-0.010755792260169983,-2.1392123338813263,-1.2382392101528275,-1.8035416398201098
1686938944.79175,-0.2759479880332947,0.9446502327919006,0.17744995653629303,-0.005042582750320435,0.01160275936126709,-0.0034235715866088867,-0.048494644463062286,0.05829063430428505,-0.011416222900152206,-2.142274387487911,-1.2365269312774312,-1.8098679916333296
1686938944.847152,-0.2773326635360718,0.9439375400543213,0.17907631397247314,-1.1056661605834961e-05,-0.0033400654792785645,-0.0033409595489501953,-0.027856793254613876,0.0489114373922348,-0.025476716458797455,-2.144149394393,-1.2343613119645338,-1.814464925067098
1686938944.860821,-0.2789403796195984,0.9433286190032959,0.17978748679161072,0.000864177942276001,0.0052492618560791016,0.006598472595214844,-0.03277101367712021,0.05491724982857704,-0.023204073309898376,-2.143321766842979,-1.232521556662122,-1.8165046656144233
1686938944.864017,-0.2805722653865814,0.9426268339157104,0.1809259057044983,-0.009405791759490967,-0.000686347484588623,0.020490095019340515,-0.06148691102862358,0.04608122631907463,-0.029778284952044487,-2.143539808263402,-1.2304131579382727,-1.8198506202105997
1686938944.899481,-0.28208357095718384,0.9420025944709778,0.18182380497455597,0.006311476230621338,-0.010026335716247559,-0.005661129951477051,-0.025887325406074524,0.04750372841954231,-0.023732777684926987,-2.1433478449945595,-1.228548239367593,-1.8222665355145262
1686938944.9944692,-0.2837296724319458,0.941196858882904,0.18342894315719604,-0.0093611478805542,0.022822976112365723,0.014431729912757874,-0.059986911714076996,0.051292598247528076,-0.04737821966409683,-2.144701448277038,-1.2261555250183775,-1.826071718323226
1686938945.086338,-0.288007915019989,0.9396106004714966,0.18488773703575134,-0.012498646974563599,-0.021016240119934082,0.02458488941192627,-0.11462253332138062,0.1822376400232315,-0.11416570842266083,-2.1414942681879547,-1.2214906635844067,-1.8283503407695587
1686938945.092042,-0.30167677998542786,0.9343627095222473,0.1896243542432785,-0.049092262983322144,-0.036062538623809814,0.04333150386810303,-0.35599562525749207,0.5142660737037659,-0.37322989106178284,-2.131957237433218,-1.206466336524406,-1.8359878551220394
1686938945.1756248,-0.33201584219932556,0.9212103486061096,0.20282287895679474,-0.03114333748817444,-0.03005129098892212,0.03414607048034668,-0.5932595133781433,0.8993822336196899,-0.6704351902008057,-2.1191797472570997,-1.1711799928171769,-1.8617639758060713
1686938945.190908,-0.37542545795440674,0.903544008731842,0.20655180513858795,-0.049974292516708374,-0.05207318067550659,-0.0690702348947525,-0.361332505941391,0.8501800894737244,-0.6900991201400757,-2.0737781801583064,-1.1279695156345577,-1.8653436170491555
1686938945.230956,-0.43940484523773193,0.875083863735199,0.20285776257514954,-0.1465783715248108,-0.2076035737991333,-0.07337179780006409,-0.6591132283210754,1.417125940322876,-1.3154618740081787,-2.003308285356368,-1.065609061493381,-1.853997652522133
1686938945.3243241,-0.5076334476470947,0.841672420501709,0.18410728871822357,0.14252126216888428,-0.050122857093811035,-0.1559397131204605,0.16179107129573822,0.6848012208938599,-1.4332629442214966,-1.9187202817711508,-1.0003729321653299,-1.815024820656177
1686938945.340076,-0.5776258707046509,0.7989426851272583,0.16744793951511383,0.04973280429840088,-0.17472100257873535,-0.07731437683105469,0.11058482527732849,0.4280683994293213,-1.6855119466781616,-1.85295224284799,-0.9255351292164353,-1.771457084061135
1686938945.3846989,-0.6454137563705444,0.7483550906181335,0.15298891067504883,0.039746642112731934,0.14019465446472168,-0.02106153964996338,-0.037321414798498154,0.39505213499069214,-1.7173445224761963,-1.8035406964364247,-0.8455787150180791,-1.7294214842341629
1686938945.4762049,-0.7080650925636292,0.6907148361206055,0.14682169258594513,-0.0005530118942260742,0.017949044704437256,0.029264673590660095,0.37551257014274597,0.24268724024295807,-1.571678638458252,-1.7752550665682916,-0.7624770996295827,-1.7158667929394325
1686938945.4901109,-0.7676655650138855,0.6297663450241089,0.11867430061101913,0.03403836488723755,-0.04630088806152344,-0.14578929543495178,0.2145838737487793,0.6347328424453735,-1.8713282346725464,-1.7241733445235963,-0.6812523727795856,-1.6696365871284435
1686938945.532893,-0.8283352255821228,0.5544324517250061,0.08040743321180344,0.11144685745239258,-0.04475843906402588,-0.19822072982788086,0.23694062232971191,0.8838676810264587,-1.8321038484573364,-1.6675642746425625,-0.5876808631707123,-1.6377154666831402
1686938945.624529,-0.8828100562095642,0.4687580466270447,0.030200401321053505,0.08205944299697876,0.14765119552612305,-0.19269132614135742,-0.46538257598876953,1.6802502870559692,-1.920703649520874,-1.6049923904341112,-0.48788426265438667,-1.6426683733557488
1686938945.639782,-0.9192134141921997,0.3918665051460266,-0.038566168397665024,0.016671359539031982,0.2904912829399109,-0.04592180252075195,-1.113277792930603,1.965403437614441,-1.6121039390563965,-1.5288652994079814,-0.40265947212914727,-1.674316209192428
1686938945.681837,-0.9403238296508789,0.32483819127082825,-0.10134660452604294,-0.10783284902572632,-0.03247979283332825,0.24613714218139648,-3.1648385524749756,2.3520395755767822,-1.3918269872665405,-1.463432361208775,-0.33084062705884154,-1.7969008126694088
1686938945.775151,-0.9412751197814941,0.29248884320259094,-0.1686760038137436,-0.11834096908569336,0.045569658279418945,0.178411066532135,-4.602503776550293,2.863680362701416,-1.1406527757644653,-1.3934789014472448,-0.2968284528539293,-1.9995854344229844
1686938945.7900062,-0.923899233341217,0.3093220889568329,-0.22523289918899536,-0.2421773076057434,-0.03260397911071777,0.3927438259124756,-5.836763858795166,2.9567410945892334,-0.41094693541526794,-1.3316754556204518,-0.31448006788050376,-2.2901280782698046
1686938945.830637,-0.8921667337417603,0.3761531412601471,-0.2500942051410675,-0.2519981265068054,-0.024819552898406982,0.2368190586566925,-5.89996337890625,2.487708330154419,0.04095117747783661,-1.297488812127984,-0.3856410168564627,-2.596510723683879
1686938945.921228,-0.8657750487327576,0.4441189467906952,-0.2306332290172577,-0.09375852346420288,0.032596081495285034,0.2031979262828827,-4.822476387023926,1.6990476846694946,-0.03505983203649521,-1.3104528717066797,-0.4601906730701619,-2.883357162385994
1686938945.926574,-0.8562160730361938,0.47859838604927063,-0.19451843202114105,-0.0211489200592041,0.0026637613773345947,0.017287641763687134,-2.8617289066314697,0.9436001777648926,-0.21974316239356995,-1.347404260214575,-0.49905770936970173,-3.0990765753222433
1686938945.985996,-0.8557865619659424,0.49078842997550964,-0.1635725051164627,-0.08337652683258057,-0.09674543142318726,0.042387187480926514,-2.5398247241973877,0.6021361351013184,-0.3142525255680084,-1.381937193808309,-0.5129944176936428,3.0332719595447006
1686938946.046629,-0.8574336171150208,0.4986160397529602,-0.12723824381828308,-0.03863871097564697,0.016658008098602295,-0.0691729187965393,-2.1845037937164307,0.4099006950855255,-0.16050763428211212,-1.4234771446819148,-0.5220014527892094,2.89633405926611
1686938946.135,-0.8582711219787598,0.5050504803657532,-0.09107443690299988,-0.02458709478378296,0.08537304401397705,-0.11128765344619751,-1.7165008783340454,0.2668105959892273,-0.08465265482664108,-1.465078115777214,-0.529440485716512,2.7811087917905826
1686938946.140712,-0.8596107363700867,0.5063380002975464,-0.06849277019500732,0.020301103591918945,0.1455632448196411,-0.08040249347686768,-1.0321413278579712,0.26193132996559143,-0.0784558430314064,-1.4912854886504223,-0.530932877124241,2.7040170940859314
1686938946.225535,-0.8603267073631287,0.5067457556724548,-0.055196404457092285,-0.011255264282226562,0.07043325901031494,-0.062433600425720215,-0.8383115530014038,0.2398393452167511,-0.05473223701119423,-1.506726646155524,-0.5314057440078427,2.647290499684473
1686938946.240397,-0.8595937490463257,0.508381724357605,-0.05144362151622772,0.008763790130615234,0.07383257150650024,-0.09931325912475586,-0.43260908126831055,0.23376475274562836,0.034993287175893784,-1.5110211894742231,-0.533304487276862,2.6158615913691268
1686938946.280963,-0.8582577705383301,0.5105043053627014,-0.05271448940038681,0.021633684635162354,0.04953896999359131,-0.00829017162322998,-0.1718732714653015,0.20611990988254547,0.05399370938539505,-1.5094530448234569,-0.5357711882317889,2.598393115266611
1686938946.3795362,-0.8567349314689636,0.5126375555992126,-0.05663562938570976,-0.007125914096832275,-0.006076395511627197,0.008875619620084763,-0.06472641974687576,0.13900628685951233,0.021418355405330658,-1.5047860087125644,-0.5382538729610997,2.59005231944197
1686938946.39453,-0.8559210300445557,0.5135959386825562,-0.0601528026163578,0.0075171589851379395,-0.022232413291931152,0.04757952690124512,0.019408443942666054,0.058521758764982224,0.020541341975331306,-1.5006332366043802,-0.5393704770286032,2.5892031699535805
1686938946.4319649,-0.8558144569396973,0.5136291980743408,-0.06137295067310333,0.013239383697509766,-0.024722278118133545,0.06942956894636154,0.029290877282619476,-0.01165799517184496,0.004994407761842012,-1.4992059689541835,-0.5394092309931775,2.590856097130073
1686938946.555871,-0.8563053607940674,0.5132026672363281,-0.05800121650099754,-0.0018183588981628418,-0.038700103759765625,0.048952698707580566,-0.06372297555208206,-0.06138474866747856,-0.03068968653678894,-1.5031653616307576,-0.5389122273051413,2.5882791203314315
1686938946.561956,-0.8574113249778748,0.5119503736495972,-0.052461978048086166,-0.004557430744171143,-0.007494926452636719,0.02668989822268486,0.03640410676598549,-0.11169085651636124,-0.02050868794322014,-1.5096860366255724,-0.5374537296781615,2.5869536875078145
1686938946.645565,-0.8589416146278381,0.5098803043365479,-0.04734351858496666,0.01499330997467041,0.0071485042572021484,-0.01088404655456543,0.0627778023481369,-0.1324976533651352,-0.03723347187042236,-1.5157336067265963,-0.5350456240575026,2.5910945437637967
1686938946.660759,-0.8599444627761841,0.5087223052978516,-0.041194722056388855,0.004063844680786133,0.008962631225585938,-0.01816195249557495,0.044512733817100525,-0.09490377455949783,-0.02327837608754635,-1.522928988290227,-0.5337000551096507,2.5896635707531956
1686938946.735987,-0.8605654239654541,0.5077938437461853,-0.03965695947408676,0.0067141056060791016,0.014728128910064697,-0.03457707166671753,0.004935641307383776,-0.0711212158203125,-0.019835706800222397,-1.5247464596304552,-0.532621925328925,2.593553580908185
1686938946.741922,-0.8607363104820251,0.5075262784957886,-0.03936560079455376,0.004245460033416748,0.042736053466796875,-0.03360193222761154,0.09044735133647919,-0.04794935882091522,-0.002048953901976347,-1.5250933768891635,-0.5323114088453336,2.5963483189808905
1686938946.8254728,-0.8602290749549866,0.5081936120986938,-0.04177555814385414,0.003417491912841797,0.017074942588806152,-0.021365348249673843,0.06997150927782059,-0.04191967844963074,0.011080862954258919,-1.5222711549391799,-0.5330860899330284,2.6029492321215253
1686938946.8396568,-0.8592361807823181,0.5097097158432007,-0.04369397833943367,-0.004350185394287109,0.004999756813049316,-0.019187510013580322,0.053532566875219345,-0.022012632340192795,0.01676957495510578,-1.519987977587536,-0.534847372538558,2.607888476728998
1686938946.884151,-0.8586064577102661,0.5106174945831299,-0.04543975368142128,-0.004308640956878662,-0.017010867595672607,-0.008057598024606705,0.03187606856226921,0.011241981759667397,0.010049054399132729,-1.5179229734817163,-0.5359027863533891,2.610117899029733
1686938946.976505,-0.8583096861839294,0.5109025835990906,-0.047781843692064285,0.003634333610534668,-0.0024338960647583008,-0.009637005627155304,0.06856473535299301,-0.013443751260638237,0.013364856131374836,-1.5151840262243899,-0.5362344361003915,2.6149065743706768
1686938946.990327,-0.8582322597503662,0.5109043717384338,-0.04913507401943207,-0.0005018711090087891,-0.011362075805664062,0.01620655506849289,0.05755225941538811,0.011729659512639046,-0.005275439936667681,-1.513607265989537,-0.5362365065774863,2.6165392137588626
1686938947.031877,-0.8583834767341614,0.510404109954834,-0.05162729695439339,-0.004974007606506348,-0.008069515228271484,-0.009484171867370605,0.07086839526891708,-0.015501148998737335,-0.002504920121282339,-1.5107238995980408,-0.5356546240089203,2.6222334244518346
1686938947.124423,-0.8588217496871948,0.5095930099487305,-0.05234802886843681,0.0012625455856323242,0.003941535949707031,0.009196162223815918,0.07949580997228622,-0.003796436358243227,-0.014973407611250877,-1.5099183360921564,-0.5347117095462262,2.626408848620653
1686938947.139596,-0.8592982888221741,0.5087128281593323,-0.05307978019118309,0.005065619945526123,-0.0016481280326843262,0.010736588388681412,0.0542772002518177,-0.02213677391409874,-0.00909234955906868,-1.5091036358656857,-0.5336890713250525,2.628670711028177
1686938947.1812391,-0.8593990206718445,0.5085492730140686,-0.05301706865429878,0.004693329334259033,-0.002827286720275879,-0.004722174257040024,0.03422826901078224,-0.013035262003540993,0.005216815508902073,-1.5091835462069174,-0.5334990702600215,2.632051437100562
1686938947.27583,-0.8592354655265808,0.5088621377944946,-0.052665188908576965,0.003339529037475586,0.008593916893005371,0.0024332404136657715,0.059861376881599426,-0.03539373725652695,0.012242468073964119,-1.5095798276168275,-0.5338624784794322,2.6333999323486283
1686938947.289856,-0.8586704134941101,0.5098845958709717,-0.05199086666107178,-0.001696467399597168,0.009341537952423096,0.00503956526517868,0.011281795799732208,-0.039513420313596725,0.026242604479193687,-1.5103220503000423,-0.535050625657433,2.635889668442572
1686938947.3312259,-0.8579984307289124,0.5110305547714233,-0.05183263495564461,0.004955768585205078,0.00987398624420166,-0.0005050376057624817,0.06287616491317749,-0.03991904482245445,0.02536103129386902,-1.5104585505686647,-0.5363833193684969,2.6395168163938454
1686938947.4251509,-0.8574013113975525,0.5121245980262756,-0.05090278759598732,-0.0004780888557434082,-0.00838625431060791,-0.0018010661005973816,0.04449813440442085,-0.038263000547885895,0.015533934347331524,-1.5114972489836789,-0.5376565470046333,2.641029350160205
1686938947.440191,-0.8569640517234802,0.5128598809242249,-0.0508662685751915,-0.0052337646484375,-0.008404314517974854,-0.009375452995300293,0.036867160350084305,-0.03832153603434563,0.021934842690825462,-1.5115095217975911,-0.5385128621705678,2.644568175046419
1686938947.4827418,-0.8567891716957092,0.5131481289863586,-0.05090530961751938,0.004921436309814453,0.0013934969902038574,-0.005292780697345734,0.09930437803268433,-0.04113973304629326,0.006823433563113213,-1.5114520434088545,-0.5388486724880951,2.647818057396216
1686938947.574916,-0.8565903902053833,0.5134584903717041,-0.05111924558877945,-0.002799808979034424,-0.011993706226348877,0.010286692529916763,0.05709870904684067,-0.04500146210193634,0.017895959317684174,-1.511189432825291,-0.5392102607212302,2.651657810101088
1686938947.5894032,-0.856166422367096,0.5141822695732117,-0.05094581097364426,-0.003483116626739502,0.010094404220581055,0.004955772310495377,0.0669458657503128,-0.0720551609992981,0.032574303448200226,-1.511361842612718,-0.5400539718631102,2.6570779614136772
1686938947.631521,-0.8556606769561768,0.5151565670967102,-0.049580950289964676,0.0018247365951538086,0.01771080493927002,-0.001444455236196518,0.10672350227832794,-0.08912434428930283,0.03795408830046654,-1.512916407402722,-0.5411903056812141,2.6611975367833343
1686938947.694889,-0.8538334369659424,0.5183059573173523,-0.04824315756559372,-0.006212949752807617,0.03845667839050293,0.005716860294342041,0.3427716791629791,-0.2953827679157257,0.15774966776371002,-1.5143545000453056,-0.5448689060733788,2.674264724851379
1686938947.7841759,-0.8492093086242676,0.5259710550308228,-0.04688243567943573,-0.03380155563354492,0.10737550258636475,0.02829718589782715,1.7585864067077637,-0.944550096988678,0.26143717765808105,-1.515645151476667,-0.5538564702583014,2.7277441507044458
1686938947.789999,-0.8487159609794617,0.5244132280349731,-0.06835036724805832,-0.0707021951675415,0.10444718599319458,0.0066285207867622375,4.614310264587402,-1.9539190530776978,0.07923921197652817,-1.4904359044469315,-0.5520258275565257,2.9126375993908153
1686938947.878958,-0.8564367294311523,0.5036929845809937,-0.11317948997020721,-0.12113291025161743,0.10487335920333862,0.02065013349056244,6.511885643005371,-2.7969143390655518,0.2820706069469452,-1.439406057817465,-0.527868353209983,-3.0337276019007393
1686938947.9654121,-0.8637867569923401,0.48154592514038086,-0.1482766568660736,-0.24682414531707764,-0.04934072494506836,0.14479756355285645,6.001533508300781,-2.826000928878784,0.61030513048172,-1.4007943397947,-0.5024177774161244,-2.6625298329157734
1686938947.980617,-0.8704416751861572,0.46560391783714294,-0.15982596576213837,-0.180766761302948,-0.13682278990745544,0.051152825355529785,4.907254695892334,-2.4973204135894775,0.5576852560043335,-1.3892042656926038,-0.4843168821279189,-2.3542341167544345
1686938948.0557241,-0.87965327501297,0.44880411028862,-0.15743272006511688,-0.04541081190109253,-0.14846530556678772,0.1212388128042221,3.7929494380950928,-2.1577188968658447,0.22844476997852325,-1.3936999505137662,-0.4654266412594225,-2.1079601943003086
1686938948.0619779,-0.8951082825660706,0.4222394526004791,-0.14316120743751526,0.03999042510986328,-0.15279969573020935,0.18701492249965668,3.1910455226898193,-1.9468133449554443,-0.19509558379650116,-1.4122021979226205,-0.43591437935148897,-1.9171160574489263
1686938948.145183,-0.9104593992233276,0.39667728543281555,-0.11709263920783997,0.015302658081054688,-0.014017432928085327,0.13164949417114258,2.8476760387420654,-1.8844082355499268,0.030307620763778687,-1.442890133815507,-0.407894337799012,-1.7583723617509224
1686938948.160234,-0.9133235812187195,0.40043947100639343,-0.0740819200873375,-0.021216094493865967,0.06771540641784668,0.15524333715438843,1.1967891454696655,-1.9209933280944824,0.6328327655792236,-1.4898610545023727,-0.4119964024863962,-1.6358737750993382
1686938948.2347798,-0.8977116346359253,0.4405810236930847,-0.001432002172805369,-0.062005043029785156,0.308579683303833,0.08562994003295898,0.5469500422477722,-2.007385730743408,1.2968534231185913,-1.5692011587219337,-0.4562457918102307,-1.5911349889967465
1686938948.2407842,-0.8551195859909058,0.5114109516143799,0.08502406626939774,0.015947341918945312,0.18356579542160034,0.10030900686979294,-0.008269001729786396,-2.042832612991333,1.8670076131820679,-1.6699000428187953,-0.5368258718364698,-1.5858529030328194
1686938948.29314,-0.7896151542663574,0.5896058082580566,0.16991914808750153,0.011584937572479248,0.04914224147796631,-0.17005661129951477,-0.36275842785835266,-1.626024603843689,1.9865001440048218,-1.7827563267144728,-0.6305707008174165,-1.6224470548245113
1686938948.3822799,-0.71495121717453,0.6581426858901978,0.23599284887313843,-0.04704207181930542,-0.025818586349487305,-0.380890429019928,-0.6877217292785645,-0.8968760967254639,1.9175236225128174,-1.8896182314892036,-0.7183491902349813,-1.689432524700883
1686938948.398337,-0.6464020609855652,0.71141517162323,0.2757769525051117,-0.11655265092849731,-0.09012305736541748,-0.4409228265285492,-0.6096137762069702,-0.028804462403059006,1.673708438873291,-1.974049986200824,-0.7915098912583919,-1.777849931671018
1686938948.441887,-0.595211923122406,0.7526885867118835,0.28139445185661316,-0.1050596833229065,-0.23570549488067627,-0.39069315791130066,-0.20218142867088318,0.49970412254333496,1.4049345254898071,-2.012418255865193,-0.8521362644873768,-1.8515553741222501
1686938948.5342178,-0.5517390966415405,0.7876364588737488,0.2742501497268677,-0.07872366905212402,-0.19136863946914673,-0.1415596604347229,-0.16819575428962708,0.3906601071357727,1.2281019687652588,-2.032093123558008,-0.9069634688605885,-1.9077237068389348
1686938948.5400782,-0.5052269101142883,0.8199924230575562,0.26899421215057373,-0.053977131843566895,-0.009888172149658203,0.005572289228439331,0.08553203195333481,0.042418863624334335,1.1731857061386108,-2.0600443458078264,-0.9613978266860704,-1.9548378846098495
1686938948.593962,-0.45385485887527466,0.8500634431838989,0.26722252368927,-0.09796398878097534,-0.015834927558898926,0.02830958366394043,-0.06875958293676376,0.025543928146362305,1.248215913772583,-2.102928032461075,-1.0161057473258301,-2.0045509026997435
1686938948.685303,-0.4075632393360138,0.8755419254302979,0.25945794582366943,-0.09373372793197632,0.10553717613220215,-0.2791571617126465,1.0606755018234253,-0.3198170065879822,0.4686338007450104,-2.1376993437108864,-1.066556338302327,-2.049802763867993
1686938948.691293,-0.38933560252189636,0.886245846748352,0.25097036361694336,-0.01912689208984375,-0.37779247760772705,-0.1343170404434204,-0.02155810222029686,-0.4179672598838806,0.4190981388092041,-2.14337446152643,-1.0891766591009528,-2.0280854895402203
1686938948.743418,-0.37049758434295654,0.898764431476593,0.2344222068786621,0.11588945984840393,0.04023081064224243,-0.08268894255161285,0.6033197641372681,-0.5543654561042786,0.35829228162765503,-2.134929735430634,-1.1169432205642085,-1.9913827584946968
1686938948.834587,-0.3503953218460083,0.9105495810508728,0.21936827898025513,-0.009498447179794312,0.007342815399169922,0.1177593469619751,0.5563603043556213,-0.655447244644165,0.3131692409515381,-2.130157080314684,-1.1446115679644326,-1.9532370545385436
1686938948.8409429,-0.3289247155189514,0.9219590425491333,0.204451322555542,0.03447583317756653,0.02111053466796875,-0.049162596464157104,0.5543079972267151,-0.5574814677238464,0.27978888154029846,-2.12692880232772,-1.1731088129507175,-1.914338669204591
1686938948.893815,-0.3134591579437256,0.9289250373840332,0.1970824897289276,-0.052095651626586914,-0.03294426202774048,0.1526336669921875,0.22908437252044678,-0.4849066436290741,0.16800320148468018,-2.1320764076263763,-1.1914990622728219,-1.8908853561398895
1686938949.014042,-0.3049395978450775,0.9319441914558411,0.196192666888237,-0.06818351149559021,0.023835718631744385,0.03978441655635834,-0.01631855219602585,-0.23650044202804565,0.054597482085227966,-2.142505157926583,-1.1997382117565174,-1.883154972116458
1686938949.029211,-0.3015820384025574,0.9317060112953186,0.2024163454771042,-0.007698386907577515,0.05318790674209595,-0.02062317728996277,0.014746096916496754,-0.1712852567434311,0.035557910799980164,-2.161918191695591,-1.1990818153916534,-1.8934409918158575
1686938949.1055,-0.3000239133834839,0.9321069717407227,0.20288372039794922,0.013158708810806274,-0.029961824417114258,0.005322307348251343,-0.015886828303337097,-0.09744146466255188,-0.0010474054142832756,-2.165387198795919,-1.2001874565191346,-1.8905694706166765
1686938949.11056,-0.29878944158554077,0.9321420192718506,0.20453844964504242,0.013709485530853271,-0.010816454887390137,0.011678457260131836,0.030426641926169395,-0.08202800154685974,0.0004102420061826706,-2.171082575580774,-1.2002842471885828,-1.8922418620542771
1686938949.194277,-0.2979016900062561,0.9322418570518494,0.20537638664245605,-0.008265912532806396,-0.015768587589263916,0.021186083555221558,0.005706190597265959,-0.05767611414194107,-0.0024244263768196106,-2.1743794506601763,-1.2005599223702,-1.8922300466525883
1686938949.2096,-0.29771193861961365,0.9320911169052124,0.20633423328399658,0.013654321432113647,-0.018837332725524902,0.019312620162963867,-0.035975705832242966,0.0036909880582243204,-0.0018884981982409954,-2.176853908336203,-1.2001436725976344,-1.893547887558753
1686938949.286137,-0.2980482280254364,0.9314661026000977,0.2086583524942398,-0.006303578615188599,0.0027838945388793945,0.011281758546829224,-0.03583494573831558,0.034458938986063004,-0.001763795968145132,-2.181577674073743,-1.1984218990000117,-1.899495776988799
1686938949.2912831,-0.29885441064834595,0.9307844042778015,0.21053877472877502,-0.0007366836071014404,0.005906999111175537,-0.0058421790599823,-0.04203309118747711,0.07806700468063354,-0.013978850096464157,-2.1845267858022788,-1.196552747988573,-1.905262330081679
1686938949.3431501,-0.3000774681568146,0.9298044443130493,0.21311239898204803,-0.005159288644790649,0.0005848407745361328,0.01856169104576111,-0.06206927448511124,0.07611051946878433,-0.006417104043066502,-2.1883293706156977,-1.1938811699496252,-1.913474012555301
1686938949.4346251,-0.3020797669887543,0.928814172744751,0.2145971655845642,-0.0005477368831634521,-0.020412743091583252,0.017900928854942322,-0.07739774882793427,0.12458533048629761,-0.03835013881325722,-2.188467438843827,-1.1911996748184475,-1.9185314275136305
1686938949.4408278,-0.30914032459259033,0.9258649945259094,0.21727003157138824,-0.015536189079284668,-0.0161055326461792,0.03080737590789795,-0.19652727246284485,0.29401695728302,-0.2094915509223938,-2.183412469893586,-1.1833183914066563,-1.9234439949084958
1686938949.4953198,-0.330314040184021,0.9162762761116028,0.22656212747097015,-0.057655900716781616,-0.03302133083343506,0.0166323184967041,-0.378846138715744,0.5288451313972473,-0.601631760597229,-2.1719958131938775,-1.1586827217027593,-1.9334308232000772
1686938949.5840259,-0.36567962169647217,0.9024487137794495,0.22773779928684235,0.004687219858169556,-0.12115305662155151,-0.2460637390613556,-0.4244558811187744,1.5334053039550781,-1.019107460975647,-2.1277973126229344,-1.125420205021732,-1.9090296545591745
1686938949.590016,-0.43876516819000244,0.8736373782157898,0.21033985912799835,-0.29045242071151733,-0.11585533618927002,-0.1341376006603241,-0.3595297336578369,1.6546889543533325,-1.4794131517410278,-2.0178208153482564,-1.0626283713906481,-1.8673817241053527
1686938949.643217,-0.5247647166252136,0.8282456994056702,0.19654792547225952,0.05076569318771362,-0.2106461524963379,-0.2851710021495819,-0.3321537971496582,1.084625005722046,-1.9915775060653687,-1.9291678961123835,-0.9759697539593284,-1.841773939277804
1686938949.735527,-0.6032376289367676,0.7782861590385437,0.17428436875343323,0.015652179718017578,0.1316259503364563,-0.03298807144165039,0.4357241094112396,0.8481612801551819,-1.8011078834533691,-1.85205257748126,-0.8919317321538108,-1.7936481849913946
1686938949.74125,-0.6843320727348328,0.7163154482841492,0.13631489872932434,0.06519150733947754,-0.16950154304504395,-0.099434494972229,0.31676843762397766,0.8730338215827942,-2.153036117553711,-1.7674168374884116,-0.7985075216276099,-1.7362533297606193
1686938949.7925758,-0.7598003149032593,0.6457571387290955,0.07550530880689621,0.07434505224227905,0.006800174713134766,-0.20230591297149658,0.802159309387207,1.342120885848999,-1.9929839372634888,-1.6698463258352312,-0.7020144738684005,-1.6741857128385018
1686938949.884974,-0.8236901164054871,0.5670396089553833,0.0007207471062429249,0.1489923596382141,-0.10884875059127808,0.10079586505889893,-0.05647577717900276,1.705406665802002,-1.9272342920303345,-1.571671348736044,-0.6029073200051922,-1.6387507559979835
1686938949.8910542,-0.8708676099777222,0.4871331751346588,-0.06550589948892593,0.11430627107620239,0.14392459392547607,-0.05299390107393265,-1.6827638149261475,2.1619629859924316,-1.7244774103164673,-1.4957185827490178,-0.5088041008813897,-1.6928481807577764
1686938949.944804,-0.895305335521698,0.43158867955207825,-0.11027027666568756,0.0036427974700927734,0.16548770666122437,0.2353007197380066,-3.1253113746643066,2.532989740371704,-1.348635196685791,-1.448248516068957,-0.4462531715743455,-1.8373295607818598
1686938950.034441,-0.898973286151886,0.4097496271133423,-0.15476427972316742,-0.12074089050292969,0.14330512285232544,0.27137190103530884,-3.812191963195801,2.7406086921691895,-0.712898313999176,-1.40031079756722,-0.4221795829348415,-2.0430607169948423
1686938950.039887,-0.8825991153717041,0.42282170057296753,-0.20552478730678558,-0.11898767948150635,0.1112968921661377,0.2385753095149994,-3.7249200344085693,2.827489137649536,-0.26092690229415894,-1.342010370467036,-0.43655678798120273,-2.2409139446705955
1686938950.125009,-0.8557239174842834,0.4650331139564514,-0.2268936038017273,-0.19556081295013428,-0.056295961141586304,0.329325795173645,-4.550798416137695,2.5760276317596436,-0.03360182046890259,-1.3116121796563915,-0.4836720156545212,-2.480505431853924
1686938950.24421,-0.8295527696609497,0.5135175585746765,-0.21941305696964264,-0.08887380361557007,-0.04391300678253174,0.14519426226615906,-4.112447738647461,2.045640707015991,0.014788149856030941,-1.3122219513386837,-0.5392791075940399,-2.7191873411862453
1686938950.260077,-0.8146550059318542,0.548089325428009,-0.18956564366817474,-0.1031762957572937,-0.07148104906082153,0.08313561975955963,-3.4061052799224854,1.4327938556671143,-0.319222629070282,-1.3421704297489292,-0.5800781633100478,-2.9427844226236743
1686938950.339621,-0.8142166137695312,0.5551552176475525,-0.1698647290468216,-0.09180450439453125,0.11585015058517456,-0.1325797587633133,-2.154201030731201,1.1763554811477661,-0.44864630699157715,-1.3651228522233698,-0.5885495775547259,-3.0978095468949327
1686938950.345272,-0.8211108446121216,0.5507245063781738,-0.14993153512477875,-0.09017449617385864,-0.037556231021881104,0.08582933247089386,-2.093953847885132,0.8443865776062012,-0.476451575756073,-1.3901900226088462,-0.5832319730516379,3.049877574456222
1686938950.350051,-0.8264340162277222,0.5495984554290771,-0.12226353585720062,-0.04972565174102783,-0.05532050132751465,0.02622467279434204,-1.9527580738067627,0.551662027835846,-0.3512410819530487,-1.4239206053999958,-0.5818835217321703,2.922662069150045
1686938950.390121,-0.831796407699585,0.546790599822998,-0.09557493031024933,-0.05299961566925049,0.07129710912704468,-0.06926576793193817,-1.4599006175994873,0.3560163974761963,-0.23399430513381958,-1.4563961824575766,-0.5785262715313507,2.8229627228229695
1686938950.515582,-0.8365074396133423,0.5430486798286438,-0.07316754758358002,0.047002553939819336,0.013881921768188477,-0.07676529884338379,-0.9794203042984009,0.25588834285736084,-0.18982604146003723,-1.4835504717545833,-0.5740635326458572,2.7456230315299854
1686938950.531026,-0.8403204679489136,0.5384706854820251,-0.0625372901558876,0.011661410331726074,0.007702350616455078,-0.028237223625183105,-0.3905119299888611,0.16557836532592773,-0.18668608367443085,-1.4965125017842171,-0.5686211628562565,2.6996000133555267
1686938950.605792,-0.8434028029441833,0.5336201190948486,-0.062618687748909,-0.0218772292137146,0.024775207042694092,-0.0509219691157341,-0.371695876121521,0.12759198248386383,-0.10845012962818146,-1.4966870111318427,-0.5628752828512005,2.686628438159917
1686938950.611061,-0.8456053733825684,0.530431866645813,-0.059946198016405106,0.026269495487213135,0.10326564311981201,0.023691296577453613,-0.010372886434197426,0.029709044843912125,-0.040800776332616806,-1.5000232663423774,-0.5591098920161306,2.6731659418381093
1686938950.6948771,-0.8471299409866333,0.5279895663261414,-0.059981148689985275,0.022911250591278076,0.03180962800979614,0.03874087333679199,0.12433815002441406,-0.032780297100543976,-0.06004098057746887,-1.5001091635226393,-0.5562315309518601,2.6728219812244856
1686938950.7108889,-0.8473685383796692,0.5275645852088928,-0.06035102531313896,0.0010551214218139648,-0.0019908547401428223,0.017290711402893066,-0.0630856528878212,-0.019856803119182587,-0.017511432990431786,-1.499694690910472,-0.5557311728612404,2.677092610643033
1686938950.7829828,-0.8473237156867981,0.5278634428977966,-0.058331552892923355,0.013781905174255371,0.04832369089126587,0.011609137058258057,0.053929075598716736,-0.03825460001826286,-0.0021418980322778225,-1.502062658609398,-0.5560830462568589,2.6759987097323905
1686938950.796943,-0.8473014831542969,0.5280609130859375,-0.056847166270017624,0.009700953960418701,0.004760622978210449,0.007484983652830124,0.08681085705757141,-0.057158514857292175,-0.0045057195238769054,-1.5038047040905609,-0.5563154953450213,2.678993088363334
1686938950.8412929,-0.8461729288101196,0.5300423502922058,-0.055193498730659485,0.0033843517303466797,0.007631540298461914,0.004610605537891388,0.08834424614906311,-0.06526681035757065,0.024134879931807518,-1.5056613857805397,-0.5586504831004584,2.683737023655336
1686938950.9354901,-0.8456495404243469,0.5310314297676086,-0.05368712171912193,-0.00276947021484375,-0.0037334561347961426,0.007941313087940216,0.09125979244709015,-0.08804313838481903,0.016614345833659172,-1.5073951604688332,-0.5598173067091794,2.6879714095647276
1686938950.941277,-0.8451314568519592,0.5320422053337097,-0.05180581286549568,0.001213669776916504,-0.014647185802459717,0.00799781084060669,0.11361505091190338,-0.08403171598911285,0.010383248329162598,-1.5095738143952497,-0.5610106365897473,2.6922173810277337
1686938950.993828,-0.845154881477356,0.5320618748664856,-0.05121603608131409,-0.003294646739959717,-0.008532881736755371,-0.010185297578573227,0.09363657236099243,-0.09141675382852554,0.015092948451638222,-1.5102707563658577,-0.5610338894783464,2.699913723221884
1686938951.0837011,-0.8454198837280273,0.5317177176475525,-0.050412505865097046,-0.004311501979827881,-0.012293338775634766,-0.007219906896352768,0.10291685163974762,-0.07911040633916855,-0.014172030612826347,-1.511236709629747,-0.5606275011343657,2.7053423303698887
1686938951.09916,-0.8459469079971313,0.5308936834335327,-0.050257664173841476,-0.012436330318450928,-0.01302558183670044,-0.015156753361225128,0.06671026349067688,-0.0557638444006443,-0.004119362216442823,-1.511456122497181,-0.5596548090715414,2.7107099370935677
1686938951.1425161,-0.846574068069458,0.5297739505767822,-0.051494017243385315,0.0033887624740600586,0.014125525951385498,-0.014942757785320282,0.0996333658695221,-0.0560670830309391,0.004303118214011192,-1.5100448195691616,-0.5583340001036515,2.7174557946352476
