Timestamp,gravityX,gravityY,gravityZ,accelerationX,accelerationY,accelerationZ,rotationRateX,rotationRateY,rotationRateZ,attitudeRoll,attitudePitch,attitudeYaw
1686938877.344523,0.00989356730133295,0.4340095520019531,-0.9008539319038391,-0.004110455513000488,0.008083313703536987,-0.008279979228973389,0.004998818039894104,0.00684779230505228,0.001480134204030037,0.010981990412287316,-0.4489385982919739,-0.8098324402902298
1686938877.358101,0.01012626476585865,0.4340079128742218,-0.9008521437644958,-0.0006505250930786133,0.01212853193283081,0.0013312697410583496,0.008717135526239872,0.0021406151354312897,-0.004770537838339806,0.011240288232769074,-0.44893678053147257,-0.8099390005710846
1686938877.401227,0.01007120218127966,0.43398353457450867,-0.9008644819259644,-0.003143683075904846,0.007468461990356445,0.0077065229415893555,-0.0031119720079004765,0.004699939861893654,-0.004905227571725845,0.01117902037812302,-0.4489097158437358,-0.8101657860298259
1686938877.4950109,0.010070113465189934,0.43351176381111145,-0.9010916352272034,0.005799055099487305,-0.006738722324371338,0.01560884714126587,-0.011070562526583672,-0.006338863167911768,6.929109804332256e-05,0.01117499489858905,-0.4483861163830481,-0.8101700294894985
1686938877.5079079,0.009890889748930931,0.4333566725254059,-0.9011682271957397,0.00036303699016571045,-0.01853126287460327,0.012679457664489746,-0.008795630186796188,0.00027617625892162323,-0.0008907450828701258,0.010975190555956253,-0.4482140342367149,-0.8102574125171097
1686938877.551207,0.00989707000553608,0.433174729347229,-0.9012556076049805,0.003866388462483883,-0.00869053602218628,-0.003224313259124756,0.0144822858273983,0.0013714542146772146,-0.0020464903209358454,0.010980982737892784,-0.4480121575358052,-0.8103565698830923
1686938877.6450891,0.009785991162061691,0.43320438265800476,-0.9012425541877747,-0.001561477780342102,0.0064623355865478516,-0.008822143077850342,0.014314047992229462,0.0018611561972647905,0.0008869816083461046,0.01085790586294527,-0.4480450431322318,-0.8106102398968472
1686938877.658241,0.009757811203598976,0.4330686330795288,-0.9013081192970276,0.00014516711235046387,0.007788240909576416,0.002794325351715088,0.005520603619515896,-0.0031468113884329796,-0.0005246270447969437,0.010825853999782423,-0.4478944580118647,-0.8106279345861893
1686938877.701082,0.00966575276106596,0.4329332411289215,-0.9013741612434387,0.0013358592987060547,0.0045209527015686035,0.01036769151687622,0.0001935921609401703,-0.0003227023407816887,-0.005051367916166782,0.010722941207537025,-0.4477442469555056,-0.8107055670179354
1686938877.794518,0.009591193869709969,0.43290066719055176,-0.9013906121253967,0.0010594725608825684,-0.010400116443634033,0.02025657892227173,-0.018113993108272552,-0.007616753689944744,0.0032529672607779503,0.010640040132793698,-0.44770812450370207,-0.8107285079581735
1686938877.807949,0.009347937069833279,0.4326285123825073,-0.9015238285064697,0.002279280684888363,-0.0174979567527771,0.008747339248657227,-0.007917609065771103,-0.010085305199027061,0.00032438873313367367,0.010368669216038134,-0.4474062075301313,-0.810793605184221
1686938877.886785,0.009122955612838268,0.43270283937454224,-0.9014904499053955,0.0016040056943893433,-0.012002795934677124,0.002137422561645508,0.013117125257849693,-0.003525992389768362,0.0020260154269635677,0.01011951284751142,-0.44748866437443047,-0.810926152989923
1686938877.9752321,0.008923106826841831,0.4323316216468811,-0.901670515537262,0.0018953979015350342,-0.0024915337562561035,-0.010530412197113037,0.013420652598142624,-0.0018662838265299797,0.0004967616405338049,0.009895871290264788,-0.44707692770251506,-0.8109364400600358
1686938877.988498,0.00882733054459095,0.43219295144081116,-0.9017379283905029,-0.001258939504623413,0.011837780475616455,-0.0033981800079345703,0.014113741926848888,-0.0017275462159886956,-0.005702177993953228,0.009788928594345873,-0.4469231516615349,-0.8109642461263591
1686938878.064215,0.00880521722137928,0.43194499611854553,-0.9018569588661194,-0.0002907821908593178,0.008606672286987305,0.006333887577056885,0.004429628141224384,0.0025518471375107765,-0.006463942117989063,0.009763119702727278,-0.4466482322937165,-0.8110952721488082
1686938878.0700788,0.008774768561124802,0.4319520592689514,-0.9018538594245911,0.0014791637659072876,-0.005606263875961304,0.012693703174591064,-0.012322829104959965,-0.0007042265497148037,-0.006440339609980583,0.009729394495506779,-0.4466560391613918,-0.8113193395463936
1686938878.154784,0.00886264257133007,0.4320797622203827,-0.9017918705940247,0.005007624626159668,-0.009807944297790527,0.009595215320587158,-0.010159362107515335,-0.0017446569399908185,0.0008955036755651236,0.009827497778693016,-0.4467976512279846,-0.8113991888015962
1686938878.167931,0.008778393268585205,0.43189170956611633,-0.9018827676773071,-0.0012862980365753174,-0.01251918077468872,0.0005613565444946289,-0.0036885100416839123,-0.0017623405437916517,0.00023211026564240456,0.009733100771922451,-0.44658913998014604,-0.8114038992533636
1686938878.248335,0.008819839917123318,0.431784451007843,-0.9019336700439453,-0.0031740665435791016,0.004601597785949707,-0.011243820190429688,0.021056033670902252,0.004451693035662174,0.00319014978595078,0.009778500388733583,-0.446470228061255,-0.8113941576509267
1686938878.253868,0.008845905773341656,0.43181318044662476,-0.9019196629524231,0.0017284601926803589,0.009715080261230469,0.0037873387336730957,0.013373490422964096,-0.002500835107639432,0.0002106719184666872,0.009807549521147764,-0.4465020855204058,-0.8114067466576216
1686938878.30296,0.008672242984175682,0.4313189387321472,-0.9021578431129456,1.004338264465332e-05,0.0019848644733428955,0.004269659519195557,0.005797306075692177,-0.006134611554443836,-0.00443175109103322,0.009612481880164175,-0.4459541681699764,-0.811489790820733
1686938878.364949,0.008557410910725594,0.4309126138687134,-0.9023531079292297,0.0015897154808044434,0.0002854764461517334,0.016473591327667236,0.025170447304844856,-0.003416776191443205,0.00467139994725585,0.009483155227662273,-0.44550385583674834,-0.8113164216173244
1686938878.455453,0.00791285838931799,0.4294249713420868,-0.9030678868293762,0.005011348985135555,-0.017697125673294067,0.00917750597000122,0.0498475655913353,-0.03298449516296387,9.6155796200037e-05,0.008761972157013622,-0.44385594614695356,-0.8114161906465646
1686938878.467525,0.0042036124505102634,0.42644545435905457,-0.9045035243034363,0.014549463987350464,0.0036539435386657715,0.01094883680343628,0.15849575400352478,-0.26293495297431946,0.05571703985333443,0.004647392077115825,-0.4405593354203225,-0.8110100326284067
1686938878.5111241,-0.006175464950501919,0.38977745175361633,-0.920888364315033,-0.028202563524246216,-0.005408585071563721,-0.03820282220840454,0.8323894739151001,-0.0818876102566719,-0.00933869183063507,-0.006705886026441386,-0.4003899228178002,-0.8067458970652851
1686938878.604768,-0.007548054680228233,0.3760117292404175,-0.9265841841697693,0.015925154089927673,0.13741594552993774,0.08526033163070679,0.7012713551521301,-0.18332363665103912,0.06958518922328949,-0.008145927940588696,-0.3854883732940798,-0.8030979563189594
1686938878.617152,-0.014470601454377174,0.35622212290763855,-0.9342892169952393,-0.027155354619026184,-0.11110499501228333,-0.020224273204803467,0.03601301088929176,-0.11009300500154495,0.07665115594863892,-0.015487114884656183,-0.3642216737684717,-0.7990614465312773
1686938878.660942,-0.021664554253220558,0.3470270335674286,-0.9376048445701599,0.011074976995587349,0.030170172452926636,-0.030656814575195312,0.12356351315975189,-0.10449110716581345,-0.017154835164546967,-0.023102162646356443,-0.3543992647328757,-0.7982123842549996
1686938878.753269,-0.025758864358067513,0.3464547395706177,-0.9377129673957825,0.0037252027541399,0.02894189953804016,0.04414302110671997,0.11658262461423874,-0.034753844141960144,0.035367727279663086,-0.027462976910626758,-0.3537891424048619,-0.798840972005024
1686938878.75976,-0.02236890234053135,0.3448748290538788,-0.938382089138031,-0.020767658948898315,-0.03756284713745117,-0.006899893283843994,0.0016101154033094645,0.09940872341394424,0.04961823299527168,-0.023833219871704045,-0.35210541701599907,-0.7965840962749662
1686938878.8465772,-0.020275725051760674,0.3328074812889099,-0.9427767992019653,0.01728503406047821,0.0663776695728302,0.022427678108215332,0.4309045970439911,0.006373229902237654,0.022356286644935608,-0.021503075546633055,-0.3392792084554872,-0.7952735609213425
1686938878.964613,-0.014328768476843834,0.3202510178089142,-0.9472243189811707,-0.035063907504081726,-0.05520591139793396,-0.01206517219543457,-0.16158223152160645,0.3091796338558197,0.017027035355567932,-0.015125957641183048,-0.3259944555280909,-0.7930479562676525
1686938878.970448,0.008872870355844498,0.35048481822013855,-0.936526358127594,-0.05344375967979431,-0.06873130798339844,-0.0014924407005310059,-0.7970941662788391,0.6434572339057922,0.02432869002223015,0.009473950721549631,-0.35808869285119765,-0.7937738491448899
1686938879.025794,0.0343589261174202,0.3742927014827728,-0.9266738295555115,0.033603742718696594,0.09297716617584229,0.013877809047698975,-0.19351090490818024,0.3294461667537689,0.08045843988656998,0.03706071493337102,-0.3836339167015566,-0.7895563825739061
1686938879.036426,0.041919756680727005,0.37666040658950806,-0.9254024028778076,0.03904341161251068,0.0020169317722320557,0.008013486862182617,-0.003716763574630022,0.02792130596935749,0.014066299423575401,0.0452680004487894,-0.3861885358529525,-0.7865847662960804
1686938879.0398111,0.04182549938559532,0.3788198232650757,-0.9245248436927795,-0.007981479167938232,-0.02307644486427307,-0.009099423885345459,-0.07443241029977798,0.017057206481695175,0.008404552936553955,0.04520916887083535,-0.3885207325384768,-0.7869057514888886
1686938879.0798302,0.044885117560625076,0.3808075189590454,-0.9235642552375793,-0.016702115535736084,0.0032714009284973145,-0.005573928356170654,-0.03233421966433525,0.0679536759853363,0.03907298296689987,0.04856167477171774,-0.3906694685882481,-0.784947043716993
1686938879.1435819,0.0458146296441555,0.38251420855522156,-0.9228129982948303,0.010551363229751587,-0.002906113862991333,-0.0020222067832946777,-0.03840707242488861,-0.017727458849549294,-0.010231183841824532,0.049605978425655416,-0.3925159343393393,-0.7840135287523649
1686938879.2042031,0.04579499736428261,0.38429954648017883,-0.9220719337463379,-0.009631633758544922,-0.004111588001251221,0.01743936538696289,-0.044730909168720245,0.014892603270709515,0.018637249246239662,0.049624545585474585,-0.39444898388724897,-0.7837516928906834
1686938879.294489,0.046136610209941864,0.38718101382255554,-0.9208486676216125,0.00794057548046112,-0.020725995302200317,0.0007436871528625488,-0.11139862984418869,0.015232489444315434,-0.021380173042416573,0.05006041355972607,-0.3975721805879852,-0.7837296897559132
1686938879.38572,0.0455690361559391,0.38920995593070984,-0.9200212359428406,0.00502912700176239,0.008662939071655273,0.003959834575653076,-0.029792040586471558,-0.02612062357366085,-0.006551094353199005,0.049489972398369525,-0.3997737580146563,-0.7839004785275387
1686938879.391354,0.04463328793644905,0.3895879089832306,-0.9199071526527405,-0.006623625755310059,0.003676801919937134,-0.003386974334716797,-0.020156927406787872,-0.002916461555287242,0.009137420915067196,0.04848131947850367,-0.40018411559609557,-0.7842328664018345
1686938879.507811,0.04537756368517876,0.39126676321029663,-0.919157862663269,-0.0031412243843078613,-0.0014352798461914062,-0.010590672492980957,-0.03887425363063812,0.001670141238719225,0.0028703375719487667,0.049328581228355727,-0.4020076931514423,-0.7833440869517181
1686938879.520194,0.044953785836696625,0.39281848073005676,-0.9185166358947754,0.006712496280670166,0.02405160665512085,-0.00984334945678711,-0.015287326648831367,-0.0025633929762989283,0.004595899488776922,0.04890270354711881,-0.4036944529551048,-0.7830886821127915
1686938879.523788,0.04455753415822983,0.39323359727859497,-0.918358325958252,0.003187239170074463,0.0023962557315826416,0.006004810333251953,-0.03797897323966026,-0.013543912209570408,-0.011147476732730865,0.048480662388043695,-0.40414588603730645,-0.7827926500471707
1686938879.561071,0.044330447912216187,0.39505380392074585,-0.9175877571105957,-0.00014097988605499268,0.006877928972244263,0.006607532501220703,-0.01683141477406025,-0.0031954008154571056,0.0020717885345220566,0.04827440841709002,-0.4061264165047348,-0.7828324908907798
1686938879.657417,0.043264228850603104,0.39456409215927124,-0.9178493618965149,0.0038702040910720825,0.008435755968093872,0.006045103073120117,-0.014034793712198734,-0.028141377493739128,-0.0015325001440942287,0.047101660957136776,-0.40559340136339567,-0.7828484660573873
1686938879.670648,0.04209405928850174,0.39644119143486023,-0.9170945882797241,-0.0027721375226974487,-0.010073453187942505,-0.001682877540588379,-0.007904197089374065,-0.03627730533480644,0.0061228228732943535,0.0458671739462289,-0.4076371486048781,-0.782837813883074
1686938879.7439709,0.041101329028606415,0.3942273259162903,-0.9180933833122253,-0.000696033239364624,0.003843933343887329,-0.0015385746955871582,0.09451468288898468,-0.0635996088385582,0.03333213925361633,0.044738264534528595,-0.40522692669668564,-0.7816967914958132
1686938879.834474,0.024866562336683273,0.3920671045780182,-0.9196004867553711,0.09120707213878632,-0.045875728130340576,-0.020234107971191406,0.49044522643089294,-0.6675453782081604,-0.13653841614723206,0.027034026195825536,-0.4028775126545739,-0.7833414075770057
1686938879.8404899,-0.0027618706226348877,0.3671453893184662,-0.9301594495773315,-0.01887507736682892,-0.10521304607391357,0.008330225944519043,0.279296338558197,-0.734218180179596,-0.11234457045793533,-0.0029692355355582963,-0.37593822576709934,-0.7896652072395124
1686938879.924922,-0.03299936279654503,0.34735217690467834,-0.9371539354324341,-0.04303516447544098,0.04424935579299927,-0.019511103630065918,0.5447961091995239,-0.36976832151412964,-0.12094717472791672,-0.03519777440043222,-0.35474598731030826,-0.797677452562742
1686938879.937887,-0.03601691126823425,0.3314407467842102,-0.942788302898407,-0.04894399642944336,-0.25090491771698,0.009988009929656982,-0.1408340483903885,0.14254741370677948,-0.009324942715466022,-0.038183974758500557,-0.33783023957641084,-0.8011409034279476
1686938880.013773,-0.0309439804404974,0.33533668518066406,-0.9415900111198425,0.025481373071670532,0.06175792217254639,-0.01908808946609497,0.20570626854896545,-0.03636668249964714,-0.010287443175911903,-0.03285171493922321,-0.3419625806629529,-0.8012765595830033
1686938880.0194721,-0.03114265762269497,0.3295781910419464,-0.9436145424842834,0.011458845809102058,-0.10281738638877869,0.08997684717178345,-0.31230515241622925,0.23231807351112366,-0.12650875747203827,-0.0329916057506295,-0.33585676507129536,-0.8034442136395741
1686938880.1040769,-0.022550320252776146,0.3446134328842163,-0.9384737610816956,-0.05212615430355072,0.15410476922988892,-0.0018796324729919434,0.02061123587191105,0.11086297780275345,0.0820520743727684,-0.024024094052661864,-0.35182696611622233,-0.8024301718384657
1686938880.109699,-0.018907999619841576,0.3480049669742584,-0.9373019933700562,-0.0059943050146102905,0.0045951008796691895,-0.019530892372131348,-0.08234065026044846,0.03176817297935486,0.012510048225522041,-0.020170058572535444,-0.355442198621057,-0.8015767722473508
1686938880.16219,-0.018331052735447884,0.3487444519996643,-0.9370385408401489,0.004537135362625122,-0.010625004768371582,0.005565762519836426,-0.05899496749043465,0.01828853227198124,-0.012123791500926018,-0.01956025624102137,-0.35623112943271856,-0.8018062256189213
1686938880.2540731,-0.016854610294103622,0.3521314859390259,-0.9357987642288208,-0.0037142038345336914,-0.0028578639030456543,0.0082627534866333,-0.04952841252088547,0.018776357173919678,-0.004794140346348286,-0.018008987000267842,-0.35984749496555163,-0.8020531999525375
1686938880.2604918,-0.015789540484547615,0.354627400636673,-0.9348743557929993,0.00021034479141235352,-0.0027444958686828613,0.007323086261749268,-0.0503990612924099,0.022148704156279564,0.007288321852684021,-0.01688787224676839,-0.3625155294631251,-0.8021306950722952
1686938880.3127298,-0.016246633604168892,0.35511207580566406,-0.9346825480461121,-0.0023690611124038696,-0.008523941040039062,0.0070702433586120605,-0.019985614344477654,0.005937989801168442,-0.016118600964546204,-0.01738023042473236,-0.3630339438541533,-0.8031178138114821
1686938880.403856,-0.015611877664923668,0.3570563495159149,-0.9339523911476135,0.0013907114043831825,-0.005127698183059692,-0.011222779750823975,-0.02216276153922081,0.005806736648082733,-0.00038707489147782326,-0.016714368279588793,-0.36511459821170433,-0.8030167282769534
1686938880.4094949,-0.015951942652463913,0.35809364914894104,-0.9335494041442871,-0.0018702894449234009,0.010802805423736572,-0.006651401519775391,-0.021004769951105118,-0.0014449718873947859,-0.013379240408539772,-0.017085749098912625,-0.3662253559392141,-0.8033982909200994
1686938880.462339,-0.015911662951111794,0.3584914207458496,-0.9333974123001099,-0.005710020661354065,0.00031897425651550293,0.007021069526672363,-0.010003022849559784,0.009352668188512325,-0.002275289036333561,-0.01704538822327164,-0.36665139460040314,-0.8038206547038023
1686938880.554374,-0.015648826956748962,0.3596037030220032,-0.9329738616943359,0.00487615168094635,-0.0003050267696380615,0.018056869506835938,-0.0034347709733992815,0.00359534053131938,-0.005680539645254612,-0.016771487472038313,-0.3678431520618008,-0.8039518754322592
1686938880.566787,-0.016021715477108955,0.3587746322154999,-0.933286726474762,-0.0010833591222763062,-0.013834476470947266,0.0049266815185546875,-0.009034164249897003,-0.0005156483966857195,-0.0017812063451856375,-0.01716529491546553,-0.3669548042721682,-0.804455766613367
1686938880.611666,-0.015646938234567642,0.35947826504707336,-0.9330222606658936,-0.0021142661571502686,-0.002239525318145752,0.005165815353393555,-0.0013912792783230543,0.004698768258094788,0.0055801705457270145,-0.01676859359415067,-0.3677087120498754,-0.8045090635196281
1686938880.704399,-0.01594114676117897,0.3583216369152069,-0.9334620833396912,-0.00435301661491394,0.008102893829345703,-0.008646070957183838,0.030901039019227028,0.00255352514795959,-0.004880227148532867,-0.01707578406774865,-0.3664695339104351,-0.8048113035106117
1686938880.716999,-0.01572122611105442,0.35869064927101135,-0.9333240985870361,-0.003184393048286438,0.00503307580947876,-0.004923582077026367,0.012231467291712761,0.002865128219127655,-0.0006911742966622114,-0.016842743770972033,-0.36686482537530224,-0.80481208653986
1686938880.761341,-0.015853067860007286,0.357977956533432,-0.9335954785346985,0.0019065607339143753,0.0015800893306732178,0.007631123065948486,0.010745920240879059,-0.004562574438750744,-0.006017862819135189,-0.01697902916879362,-0.36610144010230933,-0.8049507908693491
1686938880.85477,-0.01595558226108551,0.3574129045009613,-0.9338101744651794,0.001978561282157898,-0.012533783912658691,0.019701898097991943,-0.0017834659665822983,0.0033612221013754606,-0.0006746631115674973,-0.017084875284554324,-0.36549636607477637,-0.8050470388744253
1686938880.8676472,-0.016013652086257935,0.3572116196155548,-0.9338861703872681,0.004081308841705322,0.0017055869102478027,0.007631897926330566,0.029476817697286606,-0.0026054573245346546,0.0010631163604557514,-0.017145646320962674,-0.36528084340076394,-0.8051336547817117
1686938880.9121609,-0.015966948121786118,0.35711297392845154,-0.9339247345924377,-0.002511424943804741,-0.017421871423721313,0.0017805695533752441,-0.013725491240620613,0.004399375058710575,0.00598630215972662,-0.017094946047224755,-0.3651752419313823,-0.8051094089519009
1686938880.977247,-0.015879154205322266,0.35715991258621216,-0.9339082837104797,0.0008645355701446533,0.005694031715393066,-0.010656595230102539,0.026208827272057533,-0.0016042685601860285,-0.0032501392997801304,-0.017001267713317666,-0.3652254957102727,-0.8051062888572278
1686938881.065147,-0.015982605516910553,0.35657793283462524,-0.9341288805007935,-0.0038537830114364624,-0.00026994943618774414,1.633167266845703e-05,-0.008328777737915516,0.0020706141367554665,-0.0017293745186179876,-0.017107966436673432,-0.364602468961503,-0.8052277612169517
1686938881.070991,-0.015709541738033295,0.3565796911716461,-0.9341328144073486,0.0027243494987487793,0.005572378635406494,0.008992433547973633,0.012540696188807487,-0.0018730214796960354,-0.0022405018098652363,-0.016815661235784568,-0.3646043520363426,-0.8051444633258965
1686938881.154815,-0.01580321229994297,0.35632702708244324,-0.9342276453971863,0.002940073609352112,-0.011142730712890625,0.01023167371749878,-0.014744320884346962,0.007592904847115278,-0.005326473154127598,-0.016914190249961537,-0.3643339190033593,-0.8053178755875541
1686938881.167367,-0.01569601148366928,0.35664665699005127,-0.9341074824333191,0.005762577056884766,-0.011263996362686157,0.010080993175506592,-0.007258392870426178,0.00162750412710011,0.00544687919318676,-0.016801636060994014,-0.36467604626021466,-0.8053716588915284
1686938881.213069,-0.015689805150032043,0.3569484055042267,-0.933992326259613,0.002246841788291931,-0.01458701491355896,0.005433976650238037,-0.016101805493235588,0.0029199093114584684,0.0021940276492387056,-0.016797064040037904,-0.3649990552508946,-0.8052350482042308
1686938881.3038101,-0.015461336821317673,0.3577132821083069,-0.9337034821510315,-0.0013843327760696411,-0.00042876601219177246,-0.006665229797363281,-0.014679618179798126,-0.0003464973997324705,0.0036892928183078766,-0.016557638340249474,-0.3658179932415502,-0.8051334125248273
1686938881.309351,-0.015246099792420864,0.35809487104415894,-0.9335607290267944,-0.0019199997186660767,0.005674630403518677,-0.011141419410705566,-0.01935531571507454,0.004596555605530739,-0.008795306086540222,-0.01632967685057483,-0.36622665480952576,-0.8050795899910219
1686938881.362104,-0.015480177477002144,0.3577815890312195,-0.9336769580841064,0.00023667514324188232,0.017950832843780518,0.0035011768341064453,0.05565473437309265,-0.023673605173826218,-0.010545969009399414,-0.01657828065752041,-0.3658911271346488,-0.8054032157166828
1686938881.4551392,-0.022176474332809448,0.3500917851924896,-0.9364528656005859,0.027517080307006836,0.0635128915309906,0.03427696228027344,0.3273037374019623,-0.2399052083492279,0.016215704381465912,-0.023676932469536668,-0.35766908949153453,-0.8052527297490792
1686938881.467938,-0.02207099460065365,0.3486000597476959,-0.9370116591453552,-0.006798610091209412,-0.2556435763835907,-0.005920469760894775,-0.2799108028411865,0.09690280258655548,0.1413305699825287,-0.02355030830286476,-0.3560770688147834,-0.8023293839104496
1686938881.511917,-0.019410932436585426,0.34508976340293884,-0.9383689165115356,0.013078572228550911,0.04608449339866638,-0.00502091646194458,0.12747973203659058,-0.015621829777956009,0.0650753527879715,-0.020682871294519387,-0.3523344140443945,-0.7965049037179235
1686938881.6054611,-0.020167669281363487,0.34809714555740356,-0.9372414946556091,0.02782762050628662,0.015931755304336548,-0.01370149850845337,-0.06710164248943329,0.03179292753338814,0.012185774743556976,-0.02151479368145246,-0.3555405326154087,-0.7956299698712337
1686938881.6185231,-0.018461011350154877,0.346842497587204,-0.9377416968345642,-0.007570445537567139,0.041203826665878296,-0.01874023675918579,-0.09381716698408127,0.10179159045219421,0.030350197106599808,-0.01968412814565184,-0.35420251629642086,-0.7950894053260847
1686938881.662066,-0.008952981792390347,0.3530013859272003,-0.9355799555778503,-0.04224023222923279,0.1410934329032898,-0.06683093309402466,-0.2668193578720093,0.3161802589893341,0.0707867369055748,-0.00956915358008775,-0.3607770614410447,-0.7920973124748593
1686938881.725834,0.010933841578662395,0.367120623588562,-0.9301090836524963,-0.02356809377670288,0.0252743661403656,-0.002477586269378662,-0.30260270833969116,0.4779321253299713,0.11946822702884674,0.011754899239821629,-0.3759115895467322,-0.7882225029581662
1686938881.8468719,0.034647174179553986,0.38421401381492615,-0.9225937128067017,0.003316715359687805,-0.008939385414123535,0.00560152530670166,-0.3881934881210327,0.3677774667739868,0.09276124089956284,0.037536459238856144,-0.39435633938707965,-0.7813292187000984
1686938881.860714,0.04622344300150871,0.39494043588638306,-0.9175431728363037,0.027796965092420578,0.05612456798553467,0.01744246482849121,-0.09372968971729279,0.06695637851953506,0.030043134465813637,0.05033485285408861,-0.40600301156057766,-0.7774678345975125
1686938881.935374,0.04781372472643852,0.3971405625343323,-0.9165114164352417,0.004829123616218567,0.002273470163345337,-0.0100022554397583,-0.01941763423383236,0.05370793491601944,0.03319162502884865,0.05212201037161903,-0.4083990535449233,-0.7764102121856246
1686938881.940435,0.05278664454817772,0.3980619013309479,-0.9158385992050171,-0.01445654034614563,0.0008943676948547363,0.00014334917068481445,-0.06629297882318497,0.0864575207233429,0.054402370005846024,0.05757380210109275,-0.409403186105244,-0.7734481165040626
1686938882.026778,0.05850367620587349,0.4029272198677063,-0.9133602380752563,-0.006989981979131699,0.004985928535461426,-0.014786064624786377,-0.10553261637687683,0.11066019535064697,0.05131250619888306,0.06396584767609331,-0.41471294850576085,-0.7704472113487014
1686938882.038756,0.061592284590005875,0.4048977196216583,-0.9122851490974426,0.011222682893276215,-0.0005093216896057129,-0.002937018871307373,-0.07759133726358414,0.045213036239147186,0.02191140688955784,0.06741198948038966,-0.4168669618829727,-0.7684984416230283
1686938882.116102,0.06277913600206375,0.4072232246398926,-0.9111685156822205,0.0064652785658836365,-0.008358508348464966,0.006291806697845459,-0.05465124547481537,-0.00792673323303461,0.020876867696642876,0.0687908694800719,-0.41941171365886015,-0.767377865451374
1686938882.121544,0.06386622786521912,0.40895330905914307,-0.9103177189826965,-0.009209223091602325,-0.019228607416152954,0.006219148635864258,-0.052031420171260834,0.011017902754247189,0.0030204399954527617,0.07004340747036311,-0.42130676997952055,-0.7659677950145954
1686938882.207608,0.06387035548686981,0.4121459126472473,-0.9088764190673828,0.0026122108101844788,-0.01752316951751709,-0.0030803680419921875,-0.0903017669916153,-0.03063257783651352,-0.015646256506443024,0.07015863607187352,-0.4248080701521514,-0.766361014411038
1686938882.220571,0.06158922612667084,0.4128451645374298,-0.9087164998054504,0.003275912255048752,-0.007205575704574585,-0.01285332441329956,-0.016651567071676254,-0.02831386961042881,-0.01559019647538662,0.06767257064380729,-0.42557567634063376,-0.7672626040291954
1686938882.261516,0.059481460601091385,0.4140641689300537,-0.9083021283149719,0.003445815294981003,-0.006089985370635986,-0.007240414619445801,-0.015996018424630165,-0.07460442930459976,-0.03255379945039749,0.06539305114077879,-0.42691444138503815,-0.7681975585991929
1686938882.326539,0.05671967193484306,0.4122157096862793,-0.9093190431594849,0.0005160719156265259,0.019440144300460815,0.008577466011047363,0.07745718955993652,-0.12024232745170593,-0.015167484991252422,0.062295279037325325,-0.4248846756936595,-0.7689330620943643
1686938882.446028,0.04862431436777115,0.4093397259712219,-0.9110854268074036,0.006185278296470642,0.0047074854373931885,-0.017671287059783936,0.05079321563243866,-0.11593997478485107,-0.06829924881458282,0.05331907032154603,-0.4217302723413504,-0.7717911825711071
1686938882.458494,0.036737099289894104,0.4112989902496338,-0.9107598662376404,0.026907335966825485,-0.010328590869903564,0.03000730276107788,0.060642726719379425,-0.4954918622970581,-0.12194616347551346,0.04031490402228364,-0.42387872233395907,-0.7756369202928947
1686938882.5356,0.016672400757670403,0.39591681957244873,-0.9181349873542786,0.016698598861694336,-0.017071664333343506,-0.013139426708221436,0.12341843545436859,-0.1737111657857895,-0.08420867472887039,0.018156990565097633,-0.40706605261265905,-0.7822516947671123
1686938882.5414019,0.003828256856650114,0.4022408127784729,-0.9155259132385254,0.059785664081573486,-0.04536828398704529,0.0033097267150878906,0.2282945066690445,-0.4710054397583008,-0.15594783425331116,0.00418145960556368,-0.41396307680423056,-0.7876327881043481
1686938882.625749,-0.013001864776015282,0.3924809396266937,-0.9196682572364807,-0.017775073647499084,-0.04732716083526611,-0.03971290588378906,0.04157520830631256,-0.06807254999876022,-0.006726995576173067,-0.014136618321735298,-0.4033274196484816,-0.7931426471141219
1686938882.638476,-0.016825612634420395,0.3951321840286255,-0.9184702038764954,0.02456185221672058,0.008661121129989624,0.052854299545288086,0.1564408242702484,-0.11874677240848541,-0.014440642669796944,-0.018317122561123816,-0.40621172739312655,-0.7939437056626402
1686938882.715265,-0.02338230051100254,0.3785514533519745,-0.9252848625183105,-0.009927615523338318,-0.005626678466796875,0.010932445526123047,0.2756332755088806,-0.08341749757528305,-0.05769823491573334,-0.025265002822129925,-0.38823077605717593,-0.7952095560888766
1686938882.7213612,-0.025230150669813156,0.37305596470832825,-0.9274657368659973,-0.009147882461547852,-0.0033965706825256348,0.024954140186309814,0.05155467614531517,0.03550870344042778,-0.020095665007829666,-0.02719661716758229,-0.38230060800568194,-0.7971679127001638
1686938882.805332,-0.02284218929708004,0.3740716278553009,-0.9271184802055359,0.004028128460049629,-0.03373965620994568,-0.006078541278839111,0.06264536082744598,-0.041491083800792694,-0.0571160651743412,-0.0246328499459324,-0.3833955335802273,-0.7982348230899315
1686938882.819707,-0.02626798115670681,0.3639591336250305,-0.9310444593429565,0.0011062771081924438,-0.021551966667175293,0.022063076496124268,0.0076018888503313065,0.04467250779271126,-0.06951282173395157,-0.028205973699884677,-0.37251506280207436,-0.8032852019135088
1686938882.8601952,-0.02198570780456066,0.36789754033088684,-0.9296063780784607,-0.0472586452960968,-0.0038076043128967285,0.03217595815658569,-0.23677712678909302,0.11903740465641022,0.08715685456991196,-0.02364614774543468,-0.3767469620250209,-0.8037722996121331
1686938882.92275,-0.018510181456804276,0.3713034987449646,-0.9283270239830017,0.011582717299461365,0.07449725270271301,-0.01831299066543579,0.042828306555747986,0.01571975275874138,0.01443138625472784,-0.019936647871492522,-0.380412493159631,-0.8017446293414772
1686938883.0152879,-0.0181047935038805,0.3720276355743408,-0.9280450344085693,0.0004351455718278885,-0.014346420764923096,0.012304127216339111,-0.04088854789733887,0.00572190061211586,0.00521931191906333,-0.019506053971898214,-0.3811925073665156,-0.8015482133934145
1686938883.02141,-0.017306841909885406,0.37247434258461,-0.9278810620307922,-0.004253789782524109,-0.01250430941581726,0.010217487812042236,-0.017636526376008987,0.014581345021724701,-0.000533348647877574,-0.018649840969066182,-0.3816738027767349,-0.8013353859898845
1686938883.073865,-0.016978798434138298,0.3733932673931122,-0.9275177717208862,0.007762506604194641,0.0018203258514404297,0.01266181468963623,-0.009626717306673527,-0.007348520681262016,-0.0014744100626558065,-0.018303586448763367,-0.38266416637964257,-0.8009764120082766
1686938883.165061,-0.01755092665553093,0.37286365032196045,-0.9277201294898987,-0.007641300559043884,-0.0015868544578552246,-0.0015096068382263184,0.024845240637660027,0.006012824364006519,-0.002453387947753072,-0.01891608558265505,-0.382093323752398,-0.8012686239370339
1686938883.1709208,-0.016818813979625702,0.3735172748565674,-0.9274707436561584,-0.0027734488248825073,-0.01296737790107727,-0.013538777828216553,-0.03533298894762993,0.013155062682926655,0.0008674738928675652,-0.01813207684833153,-0.38279784085448054,-0.8011666847461704
1686938883.2561312,-0.01638803817331791,0.3749549984931946,-0.926898181438446,-0.0025480836629867554,0.017974019050598145,-0.01351630687713623,-0.04886463284492493,0.007242791820317507,-0.008218299597501755,-0.017678675114355176,-0.384348236562007,-0.8012426417584733
1686938883.3460178,-0.015795962885022163,0.3771750032901764,-0.9260072708129883,-0.0012175589799880981,0.004599869251251221,-0.00030803680419921875,-0.05357697233557701,0.018192432820796967,-0.0027373810298740864,-0.017056487080100515,-0.3867441152522119,-0.8014620753590262
1686938883.358752,-0.015043196268379688,0.3791534900665283,-0.925211489200592,0.000608399510383606,-0.005999863147735596,0.01696258783340454,-0.046422138810157776,0.02235366217792034,-0.002609049901366234,-0.01625776468818261,-0.3888813177044735,-0.801588908762677
1686938883.43582,-0.014720750972628593,0.37923505902290344,-0.9251832365989685,0.0020254552364349365,0.00397413969039917,0.008633553981781006,0.01898711919784546,7.25241843611002e-05,0.0027784917037934065,-0.015909830891469575,-0.388969467710377,-0.8017700267881639
1686938883.441362,-0.014634030871093273,0.38000670075416565,-0.9248679876327515,0.000351831316947937,-0.020891159772872925,0.0048392415046691895,-0.034436386078596115,0.0074248057790100574,-0.0018724859692156315,-0.015821512207462106,-0.38980354777283055,-0.8018469625973529
1686938883.522563,-0.014568735845386982,0.3799460232257843,-0.9248939156532288,-0.00566437840461731,0.01098412275314331,-0.00931018590927124,0.020693408325314522,0.006080322433263063,0.0006585486698895693,-0.015750488466784184,-0.38973792740877955,-0.8020597809208109
1686938883.535994,-0.014511526562273502,0.3800942003726959,-0.9248339533805847,-0.0022578537464141846,0.0070059895515441895,-0.006760895252227783,0.002569010714069009,0.0002751240972429514,-0.0025041881017386913,-0.01568966613103039,-0.3898981350643715,-0.8021410202073942
1686938883.615164,-0.014596179127693176,0.3794805407524109,-0.9250845909118652,0.00010035932064056396,0.0016229450702667236,0.005574703216552734,0.01938261277973652,-0.0009789583273231983,-0.0006261267699301243,-0.01577690154668884,-0.38923476383044353,-0.802176134425076
1686938883.620789,-0.014635498635470867,0.38021519780158997,-0.9247822165489197,0.001421421766281128,-0.0046048760414123535,0.015419423580169678,-0.0009637449402362108,0.004312476143240929,-0.0035743792541325092,-0.015824565568037227,-0.39002896399416426,-0.8024331613111786
1686938883.6730409,-0.014772182330489159,0.37995773553848267,-0.9248858690261841,0.0015275776386260986,-0.010771393775939941,0.004582524299621582,-0.012129314243793488,0.0024900753051042557,-0.004012735094875097,-0.015970539310867702,-0.38975061494585367,-0.8026441888210547
1686938883.76447,-0.01493203453719616,0.3800923228263855,-0.9248279929161072,0.00022257864475250244,-0.007396429777145386,0.008766591548919678,-0.0036517099943012,-0.001327686128206551,-0.0008835543412715197,-0.016144339134783036,-0.38989610627401716,-0.8029905100769
1686938883.770805,-0.015047609806060791,0.3806655704975128,-0.9245903491973877,-0.0025610029697418213,-0.004429638385772705,-0.0028541088104248047,-0.0031793375965207815,0.004942753352224827,-0.00579715333878994,-0.01627345782917233,-0.3905159330124792,-0.8033125188741429
1686938883.822847,-0.01498651597648859,0.3803103566169739,-0.9247375130653381,-0.0036139190196990967,0.008468270301818848,-0.005255222320556641,0.02965738996863365,-0.0003857791889458895,-0.0008629150688648224,-0.01620481948591312,-0.3901318482808208,-0.8034755411698111
1686938883.914662,-0.015059447847306728,0.38013240694999695,-0.924809455871582,-0.0008249282836914062,-0.003820180892944336,0.0030412673950195312,0.006444866769015789,0.0033331119921058416,-0.004621300846338272,-0.01628239949140188,-0.38993943419467486,-0.8037494874349884
1686938883.920557,-0.015162311494350433,0.37979498505592346,-0.9249464273452759,-0.0004931837320327759,-0.0026893019676208496,0.01579725742340088,0.019847648218274117,-0.00016102194786071777,-0.005771820433437824,-0.016391169116352727,-0.3895746599339343,-0.8040164921157897
1686938883.973765,-0.015323905274271965,0.3787061274051666,-0.9253901243209839,0.003177940845489502,-0.008619487285614014,0.011739611625671387,0.010659512132406235,-0.005504561588168144,-0.0036876637022942305,-0.016557886936138164,-0.38839790624961545,-0.8040907848872428
1686938884.063935,-0.01567116752266884,0.37894487380981445,-0.9252865314483643,-0.0010829567909240723,-0.007088214159011841,0.010033845901489258,0.027727119624614716,-0.00848678220063448,0.0013470093253999949,-0.016934936493543124,-0.38865585546432924,-0.804256203385773
1686938884.077909,-0.015789935365319252,0.3784814774990082,-0.9254741668701172,-0.0066557228565216064,-0.023516297340393066,0.0006542205810546875,-0.023848675191402435,0.004495648667216301,-0.0017880636733025312,-0.01705979808657,-0.3881551751132665,-0.8043091545341347
1686938884.1198502,-0.01632806845009327,0.3790542185306549,-0.9252303838729858,0.0001995563507080078,0.008656322956085205,-0.01139986515045166,-0.005760170519351959,-0.03382183238863945,-0.011455805040895939,-0.017645738212487543,-0.38877401380152365,-0.8044334429638428
1686938884.215236,-0.022634832188487053,0.37592941522598267,-0.9263718128204346,0.02466428279876709,0.043900907039642334,0.01856541633605957,0.3407251238822937,-0.23898549377918243,-0.0788738951086998,-0.024428990948708935,-0.38539954924207287,-0.8050081803278566
1686938884.221243,-0.022179272025823593,0.38568028807640076,-0.9223659038543701,-0.0073922257870435715,-0.28141704201698303,-0.04554486274719238,-0.6172289252281189,0.11834117770195007,0.11358040571212769,-0.024041433591272008,-0.3959450281236116,-0.8043130530478967
1686938884.2716541,-0.01921670325100422,0.3833259344100952,-0.9234132170677185,0.05324383080005646,0.1647697389125824,0.004315316677093506,0.269695907831192,-0.00874810479581356,0.024368273094296455,-0.02080751107834456,-0.39339461615594945,-0.799874751900145
1686938884.362849,-0.020588865503668785,0.38188228011131287,-0.9239816069602966,0.008717551827430725,-0.015320420265197754,0.00920194387435913,-0.05594690889120102,0.01624772697687149,-0.018744610249996185,-0.02227907830228838,-0.3918320868709283,-0.7993064729088931
1686938884.36899,-0.01896064169704914,0.38612690567970276,-0.9222508072853088,-0.012502951547503471,0.027050524950027466,0.011316359043121338,-0.106325164437294,0.06758962571620941,0.037485070526599884,-0.0205561992368197,-0.39642916314968263,-0.7992205613979011
1686938884.423784,-0.009804465807974339,0.39077630639076233,-0.9204334616661072,-0.019644975662231445,0.023087739944458008,-0.026786386966705322,-0.16759352385997772,0.3268132209777832,0.1175469160079956,-0.010651607088185258,-0.40147482019221936,-0.7957610527611977
1686938884.5154638,0.008518818765878677,0.39546069502830505,-0.9184433817863464,-0.041386231780052185,0.01660287380218506,-0.011595070362091064,-0.21610519289970398,0.4908018708229065,0.09143912047147751,0.009275013479968217,-0.40656937178679925,-0.7902723179131521
1686938884.521338,0.03481898456811905,0.41490817070007324,-0.9091967940330505,-0.05924828350543976,-0.05449560284614563,0.03204530477523804,-0.5966895818710327,0.5144182443618774,0.06492891162633896,0.03827771797795176,-0.4278418612372477,-0.7858060442059078
1686938884.571537,0.05547018349170685,0.4380108714103699,-0.8972566723823547,0.00838787853717804,0.03997066617012024,-0.009054362773895264,-0.24919410049915314,0.32133346796035767,0.06379936635494232,0.06174339974936632,-0.4533848053366804,-0.7812592696106748
1686938884.664184,0.06310750544071198,0.43846195936203003,-0.8965314030647278,0.05264568328857422,0.04624870419502258,0.03964358568191528,0.0960637554526329,-0.022258494049310684,0.04070473462343216,0.07027482578463257,-0.4538866611297429,-0.7760193326459341
1686938884.670296,0.06296049058437347,0.43599408864974976,-0.8977444767951965,-0.030093036592006683,-0.02328971028327942,-0.011679351329803467,-0.04026288911700249,0.06639426201581955,0.015478241257369518,0.0700172185185376,-0.45114259957788005,-0.7759352539525817
1686938884.722849,0.06793531775474548,0.44038474559783936,-0.8952351808547974,-0.00799877941608429,-0.005249917507171631,0.0027180910110473633,-0.09807273745536804,0.07707837224006653,0.04163697734475136,0.07574028169992257,-0.4560271690471813,-0.7735566664913831
1686938884.814456,0.07011928409337997,0.4413444399833679,-0.8945939540863037,0.011850953102111816,0.03193739056587219,-0.007322549819946289,0.006018954329192638,-0.007727235555648804,0.013746719807386398,0.07822120499291926,-0.45709636456071284,-0.7720693642075639
1686938884.820485,0.06929842382669449,0.44040337204933167,-0.8951215744018555,-0.0007101446390151978,-0.009800374507904053,0.011347770690917969,0.004110435955226421,-0.011032352223992348,-0.015628013759851456,0.07726377890534931,-0.45604789808020374,-0.7723222608011188
1686938884.8735862,0.06945184618234634,0.4417703151702881,-0.8944358229637146,-0.0005278736352920532,-0.0007455348968505859,0.0031852126121520996,-0.030709899961948395,-0.008240706287324429,-0.00285532558336854,0.07749327857288323,-0.45757102261637445,-0.7724268016294438
1686938884.963769,0.06855840981006622,0.44217318296432495,-0.8943056464195251,0.0024254918098449707,-0.0047953128814697266,-0.0026059746742248535,-0.038449976593256,-0.010576551780104637,-0.014362146146595478,0.07651140216163668,-0.458020156428545,-0.7728388665333371
1686938884.976541,0.06797219067811966,0.4434318542480469,-0.8937270045280457,-0.005578979849815369,-0.004558593034744263,0.005543410778045654,-0.011646168306469917,-0.00986933521926403,0.014678660780191422,0.0759086232259526,-0.45942394590212515,-0.7731641630765352
1686938885.02278,0.06824468821287155,0.4428558349609375,-0.8939918279647827,-0.006461828947067261,-0.0034485459327697754,-0.010289788246154785,0.005390387959778309,0.0032316590659320354,0.008481884375214577,0.07618927779166457,-0.458781391109147,-0.7725231377104479
1686938885.113688,0.06779443472623825,0.4442097842693329,-0.8933541178703308,0.00329628586769104,0.0069925785064697266,-0.01104956865310669,-0.059187475591897964,0.005466329865157604,-0.0031771354842931032,0.07574234891949755,-0.46029204101829435,-0.7727711102146633
1686938885.128272,0.06837203353643417,0.4455902874469757,-0.8926222920417786,0.0022609159350395203,0.010723739862442017,0.0063460469245910645,-0.0006658097263425589,-0.0017235515406355262,0.00823906995356083,0.07644755042120353,-0.46183351822007357,-0.7721611596870516
1686938885.1709871,0.0672481507062912,0.4456797242164612,-0.8926630020141602,0.008725389838218689,-0.003327488899230957,0.023613929748535156,-0.02156701311469078,-0.032160378992557526,-0.01910809800028801,0.07519227345352865,-0.46193343345236204,-0.7723847034492425
1686938885.265254,0.06599904596805573,0.4478932321071625,-0.8916477560997009,-0.0029954761266708374,-0.009126782417297363,0.013412892818450928,-0.06571859121322632,-0.012372161261737347,-0.011176206171512604,0.07388445197883502,-0.4644075963446537,-0.7730292508992468
1686938885.2711282,0.06444878876209259,0.44947192072868347,-0.890966534614563,0.0021100640296936035,0.010626286268234253,0.006643414497375488,-0.010045753791928291,-0.045862942934036255,-0.0008124816231429577,0.07221004660652762,-0.4661740945291972,-0.7733557665210128
1686938885.355101,0.06114400923252106,0.4484809339046478,-0.8916985392570496,0.005552172660827637,-0.005411505699157715,0.01021355390548706,0.03903050720691681,-0.0966709777712822,-0.011533002369105816,0.06846310171992327,-0.46506503099663404,-0.7737145813388282
1686938885.444104,0.0575474314391613,0.4462733268737793,-0.8930444717407227,-0.007117107510566711,0.004150837659835815,-0.011099815368652344,0.04688962921500206,-0.040074799209833145,-0.01162791159003973,0.06435063050175756,-0.4625966426743007,-0.7748388909022562
1686938885.457824,0.046957701444625854,0.4462207853794098,-0.8936901092529297,0.01885347068309784,0.05512195825576782,0.024976730346679688,0.2818784713745117,-0.4266298711299896,-0.1203717365860939,0.05249533107560694,-0.4625379249627227,-0.7770418880920325
1686938885.536501,0.02426232397556305,0.4301357567310333,-0.9024381041526794,-0.0023354291915893555,-0.05917936563491821,-0.014645636081695557,0.12217113375663757,-0.22202914953231812,-0.0791507288813591,0.0268788309586882,-0.4446431556213382,-0.7859606408647221
1686938885.54194,0.016847878694534302,0.4277956485748291,-0.9037184715270996,0.021634817123413086,0.01040622591972351,0.05590963363647461,0.29068198800086975,-0.26439017057418823,-0.10033893585205078,0.01864068136388822,-0.4420525725688894,-0.7881341036318402
1686938885.625476,0.00578799145296216,0.41763681173324585,-0.908595621585846,0.0022839303128421307,-0.06509783864021301,-0.017216145992279053,-0.112337626516819,-0.07298968732357025,-0.06793705374002457,0.00637017530358553,-0.4308428991742749,-0.793326664136836
1686938885.639003,-0.005788079928606749,0.4184225797653198,-0.9082340002059937,0.03831984102725983,0.2052803933620453,0.009262502193450928,0.2923920452594757,-0.23821088671684265,-0.05171164870262146,-0.0063728087733123575,-0.43170784941909135,-0.7978269135309105
1686938885.745373,-0.016114121302962303,0.4074763059616089,-0.9130735993385315,-0.019240453839302063,0.027109235525131226,-0.020947396755218506,0.18572701513767242,-0.09009996801614761,-0.049187470227479935,-0.017646385271329466,-0.419688820975915,-0.8008872830365594
1686938885.7589731,-0.019669728353619576,0.3993474245071411,-0.9165886640548706,-0.006850019097328186,0.0307062566280365,0.00893479585647583,0.1386566162109375,-0.046694859862327576,-0.04328257590532303,-0.02145641823868672,-0.41080493568944054,-0.8027367892125084
1686938885.837522,-0.0246764924377203,0.3931138217449188,-0.9191586375236511,0.020190434530377388,0.0422193706035614,-0.003753960132598877,0.3640524446964264,-0.16821962594985962,-0.11916452646255493,-0.02684037892821696,-0.40401562741028557,-0.8057927914191658
1686938885.843521,-0.0304355937987566,0.3779604434967041,-0.9253213405609131,-0.011037752032279968,-0.06813079118728638,0.009473562240600586,0.11786647886037827,0.009597066789865494,-0.014529092237353325,-0.032880065463678776,-0.38759234818052035,-0.8097036869870186
1686938885.927925,-0.030436838045716286,0.3770003914833069,-0.9257128834724426,-0.01613294892013073,-0.01413118839263916,0.029747307300567627,0.04236619919538498,0.038137100636959076,-0.01136778760701418,-0.03286750969821704,-0.3865555736769435,-0.811119317914033
1686938885.9392161,-0.02582860365509987,0.3778279721736908,-0.9255154728889465,-0.03409263491630554,-0.10728967189788818,-0.05469387769699097,-0.1715843230485916,0.0955810472369194,0.06305807828903198,-0.027900021405205387,-0.3874492398267944,-0.8091569875543502
1686938885.9836411,-0.023091310635209084,0.38191038370132446,-0.9239108562469482,-0.003306359052658081,0.03761473298072815,0.007071256637573242,-0.0007293988019227982,0.019369762390851974,-0.0016220493707805872,-0.024987805726878375,-0.3918624743446207,-0.8082956113612825
1686938886.079128,-0.022190961986780167,0.3816671669483185,-0.9240334033966064,-0.0009413212537765503,-0.007475912570953369,-0.024361371994018555,-0.055357299745082855,0.029298586770892143,-0.0021307794377207756,-0.02401070979767917,-0.39159933414237036,-0.8085097721937493
1686938886.091117,-0.020867273211479187,0.3841826617717743,-0.9230212569236755,-0.0008917301893234253,-0.00697016716003418,0.015703141689300537,-0.05050954595208168,0.026792047545313835,0.004347159992903471,-0.022603725976172228,-0.3943223928829065,-0.8087098774816446
1686938886.129633,-0.020152142271399498,0.38524049520492554,-0.9225961565971375,0.007670478895306587,-0.011445999145507812,0.013599574565887451,-0.03559717535972595,0.012440270744264126,-0.012844875454902649,-0.02183939117106208,-0.3954684341035312,-0.8090799486794767
1686938886.199576,-0.02002446912229061,0.3864017724990845,-0.9221131801605225,0.00035591423511505127,-0.0029026269912719727,0.004861593246459961,-0.02646535076200962,0.009882690384984016,-0.00841241143643856,-0.02171243511588647,-0.3967271496409451,-0.8096181233673673
1686938886.205209,-0.019925925880670547,0.38683468103408813,-0.9219337701797485,-0.0014058202505111694,0.0026458799839019775,-0.00026166439056396484,-0.014779426157474518,-0.004571269731968641,-0.002304784022271633,-0.021609822403795356,-0.3971965764870969,-0.8098658054723985
1686938886.254033,-0.020160268992185593,0.3874311149120331,-0.9216781854629517,-0.003322973847389221,0.008946418762207031,-0.01289212703704834,-0.010444925166666508,0.003342512995004654,-0.011969296261668205,-0.02186994801310652,-0.39784344959647505,-0.810240374011242
1686938886.3160071,-0.020144307985901833,0.38789522647857666,-0.9214833378791809,-8.88090580701828e-05,0.015440285205841064,-0.004877746105194092,0.00831554364413023,-0.0005484716966748238,-0.01292816735804081,-0.021857260481533455,-0.3983469274083176,-0.81071451161208
1686938886.3749828,-0.02006831206381321,0.38750624656677246,-0.9216486215591431,0.003100574016571045,0.004812449216842651,0.004366517066955566,0.0007827922236174345,-0.0006816298700869083,-0.011856777593493462,-0.0217709237284655,-0.39792493364413795,-0.8110810225719025
1686938886.437248,-0.0201788991689682,0.3875575661659241,-0.9216246604919434,0.0025245118886232376,-0.004531502723693848,0.01395559310913086,0.00037392438389360905,0.0044958749786019325,-0.0022552821319550276,-0.021891424651080564,-0.3979806007593399,-0.8113985337703445
