Timestamp,gravityX,gravityY,gravityZ,accelerationX,accelerationY,accelerationZ,rotationRateX,rotationRateY,rotationRateZ,attitudeRoll,attitudePitch,attitudeYaw
1687086972.318447,-0.96538245677948,0.25945985317230225,-0.026778245344758034,0.012608528137207031,-0.0005640983581542969,-0.006974218413233757,-0.024419741705060005,-0.010257605463266373,-0.0037632284220308065,-1.54306495442318,-0.26246284952376814,3.0499015064215915
1687086972.335095,-0.9655247926712036,0.2588379979133606,-0.027654031291604042,-0.012716174125671387,0.007778733968734741,-0.0025125741958618164,0.03475243225693703,0.016938064247369766,-0.016074329614639282,-1.5421627028732041,-0.2618190026840256,3.049619673757818
1687086972.337905,-0.9657149314880371,0.2579765021800995,-0.029024356976151466,0.004045248031616211,-0.00927358865737915,-0.0005166474729776382,-0.04971364885568619,0.009920976124703884,-0.013720148243010044,-1.5407505846921004,-0.2609272110577769,3.0497183285191154
1687086972.40765,-0.9658334851264954,0.2574681043624878,-0.029594313353300095,0.005384325981140137,0.013604193925857544,8.380413055419922e-05,0.013612777926027775,-0.003211052156984806,-0.003433049423620105,-1.540164693014963,-0.2604010604097526,3.0495507521712373
1687086972.411405,-0.9658664464950562,0.25737106800079346,-0.02935989573597908,-0.0022121071815490723,-0.0024730563163757324,-0.002958238124847412,-0.027945835143327713,0.006238204427063465,-0.004764257464557886,-1.5404082151790104,-0.26030063279789317,3.048544412173608
1687086972.497247,-0.9658193588256836,0.2574380040168762,-0.030307693406939507,0.005126059055328369,-2.2292137145996094e-05,-0.005413113161921501,-0.05523894354701042,0.023832721635699272,-0.0022673842031508684,-1.5394263287461623,-0.2603698870842374,3.047834828909774
1687086972.512744,-0.9658839106559753,0.2571222484111786,-0.030923902988433838,0.0007503032684326172,0.008319556713104248,-0.006124436855316162,0.0182392206043005,0.009381933137774467,-0.009495522826910019,-1.5387910898613262,-0.2600431452884459,3.0467598874187374
1687086972.620408,-0.9660026431083679,0.25661081075668335,-0.03145825117826462,0.0025017857551574707,-0.0057106614112854,0.0038398541510105133,-0.0015331851318478584,0.0198055449873209,-0.017853908240795135,-1.5382424435321866,-0.2595139485619475,3.046862027804832
1687086972.636376,-0.9662430286407471,0.25555774569511414,-0.03262767568230629,-0.0031935572624206543,-0.008472293615341187,-0.0015214644372463226,-0.012761321850121021,0.01655738428235054,-0.03138265758752823,-1.537041586972745,-0.25842456798785324,3.046324672999203
1687086972.7374,-0.966624915599823,0.2540006637573242,-0.03346003219485283,0.0033529996871948242,0.002041757106781006,-0.005129452794790268,-0.013510968536138535,0.022190310060977936,-0.028397629037499428,-1.5361948203570917,-0.2568143364986151,3.0461797469701
1687086972.7529569,-0.966943621635437,0.2525729238986969,-0.03502800315618515,0.004327654838562012,0.004079848527908325,-0.01039743423461914,0.026724601164460182,0.030241845175623894,-0.029466088861227036,-1.5345866738465679,-0.2553384857264165,3.0466074288600797
1687086972.8241491,-0.9672079682350159,0.25124797224998474,-0.037187475711107254,-0.0019233226776123047,-0.007290542125701904,-0.00959598645567894,-0.01041001733392477,0.05182144045829773,-0.031103452667593956,-1.532366983347008,-0.25396938186772416,3.0466304582170998
1687086972.828789,-0.967402458190918,0.25011757016181946,-0.039669468998909,0.0034589767456054688,0.007206648588180542,0.00397920235991478,0.03528458625078201,0.03919804096221924,-0.019147031009197235,-1.5298131189614343,-0.2528016726043602,3.047184597722341
1687086972.916885,-0.9674774408340454,0.24958601593971252,-0.04115926846861839,0.008218467235565186,0.0051441490650177,0.011175751686096191,-0.020081887021660805,0.03214753046631813,-0.01005270890891552,-1.5282790952007717,-0.2522527150178907,3.047692125516304
1687086972.9312901,-0.9676896333694458,0.24843716621398926,-0.043079692870378494,-0.0187910795211792,0.008536040782928467,0.010654747486114502,-0.0013496933970600367,0.046710625290870667,-0.032346613705158234,-1.5263076104695132,-0.2510664957132989,3.047249385680717
1687086973.005412,-0.9679850339889526,0.2472015768289566,-0.0435464084148407,0.0010508894920349121,0.0006163120269775391,0.00036406517028808594,0.020006678998470306,0.022986216470599174,-0.01662384532392025,-1.5258399836053622,-0.2497911277204228,3.0461259633849522
1687086973.010879,-0.9681432843208313,0.24650055170059204,-0.04400249570608139,0.0058171749114990234,-0.007731020450592041,-0.0006905235350131989,-0.02052268758416176,0.045432765036821365,-0.02053256705403328,-1.5253771880841158,-0.2490677137731207,3.046044844327649
1687086973.095916,-0.9683582782745361,0.2452632486820221,-0.046132106333971024,-0.002543210983276367,-0.00524255633354187,-0.00013256072998046875,-0.023595226928591728,0.03387557715177536,-0.01613936387002468,-1.523192814837192,-0.2477912280973125,3.044735618364232
1687086973.111043,-0.9683625102043152,0.24502232670783997,-0.047310613095760345,-0.0007232427597045898,-0.007488816976547241,0.0023734495043754578,-0.00353260338306427,0.03348721191287041,-0.007661084178835154,-1.5219788400108953,-0.24754271743442754,3.043904514647313
1687086973.189225,-0.9683995246887207,0.2446792870759964,-0.04831306263804436,0.008667588233947754,-0.00914473831653595,0.006168249994516373,-0.031169608235359192,0.030223337933421135,-0.013734422624111176,-1.5209480569332487,-0.2471889131887737,3.0439351620116173
1687086973.30917,-0.9685852527618408,0.2437852919101715,-0.04910323768854141,0.005130171775817871,0.0010418891906738281,0.0036015585064888,-0.031909964978694916,0.03533397987484932,-0.017018580809235573,-1.5201438559122762,-0.24626700153731948,3.0432091200388847
1687086973.315143,-0.9687795042991638,0.24301153421401978,-0.04910769686102867,0.0035390853881835938,0.01304614543914795,0.008641421794891357,0.036703452467918396,-0.004110667854547501,0.0005547679029405117,-1.520149403542542,-0.24546925323607477,3.043090525505693
1687086973.319913,-0.968812882900238,0.24319007992744446,-0.04754249379038811,0.006532549858093262,0.011845320463180542,0.010463647544384003,0.018427705392241478,-0.03352003172039986,0.011092416942119598,-1.5217627253996315,-0.2456533103448008,3.044885933419498
1687086973.331641,-0.9686229228973389,0.24443861842155457,-0.044937074184417725,0.009012937545776367,0.009269237518310547,0.0019835829734802246,0.018756888806819916,-0.04580692574381828,0.027731209993362427,-1.524436826017925,-0.24694069984849526,3.0444966102307114
1687086973.360581,-0.9682176113128662,0.24672701954841614,-0.04099263623356819,0.0018633008003234863,-0.007164105772972107,-0.0016099177300930023,-0.03038289211690426,-0.04602709040045738,0.041540443897247314,-1.528483350168321,-0.24930140458235237,3.042923137050582
1687086973.421124,-0.9677918553352356,0.2486872375011444,-0.03916224464774132,-0.00462031364440918,-0.0015559196472167969,-0.02518409863114357,0.023733587935566902,-0.020393006503582,0.03410441800951958,-1.5303528253712675,-0.25132467088707,3.044002346218042
1687086973.5156832,-0.967542290687561,0.24943876266479492,-0.040523044764995575,-0.01143103837966919,-0.012790277600288391,-0.02513551339507103,0.044437769800424576,0.040719348937273026,-0.009547507390379906,-1.5289383382853554,-0.2521006611824926,3.045524288389352
1687086973.634285,-0.9676072001457214,0.24824361503124237,-0.045951396226882935,-0.0008528828620910645,-0.017408698797225952,-0.016106128692626953,0.02167433314025402,0.04376642405986786,-0.02329128235578537,-1.5233422569087547,-0.25086669247561977,3.0478142841246414
1687086973.649706,-0.9677335619926453,0.24670124053955078,-0.05128498747944832,-0.002206563949584961,-0.005002111196517944,-0.0034177303314208984,0.04981888458132744,0.03326535224914551,-0.02683616243302822,-1.5178509095826436,-0.2492747975551304,3.0498607911803504
1687086973.757797,-0.9679140448570251,0.24531948566436768,-0.05441148579120636,0.012347698211669922,-0.006473720073699951,0.006987214088439941,-0.013285082764923573,0.037248220294713974,-0.02095680870115757,-1.5146402285342562,-0.24784922863788578,3.0508481004120176
1687086973.762559,-0.9680526852607727,0.24465636909008026,-0.054930366575717926,0.01440882682800293,-0.008679240942001343,0.00507991760969162,-0.057508353143930435,0.025367919355630875,-0.026757387444376945,-1.5141139511614066,-0.2471652769295584,3.0490871562649677
1687086973.881362,-0.9683821797370911,0.2436320036649704,-0.05365779250860214,0.006849706172943115,-0.001337781548500061,0.00898003950715065,-0.03818894922733307,0.0032384202349931,-0.022267457097768784,-1.5154432035853802,-0.2461089421379513,3.045872462266275
1687086973.895313,-0.9687256217002869,0.24252860248088837,-0.05244655907154083,-0.0011535882949829102,-0.006871908903121948,-0.015378780663013458,0.003242811420932412,0.024729711934924126,-0.041261762380599976,-1.5167093839306958,-0.24497142879304626,3.0451385317972512
1687086973.8992639,-0.9691879153251648,0.24028626084327698,-0.05419415608048439,-0.010044753551483154,0.0060362666845321655,-0.00632220134139061,0.07811099290847778,0.054007019847631454,-0.05300257354974747,-1.5149374173925285,-0.24266073829601686,3.0456229507412482
1687086973.967592,-0.9693581461906433,0.2389536052942276,-0.0569734089076519,0.016919851303100586,0.011931300163269043,0.02160358428955078,0.15060468018054962,-0.04800363630056381,0.034960515797138214,-1.5120895001987658,-0.24128809836986406,3.0500957564753124
1687086973.98053,-0.9685636162757874,0.2437441349029541,-0.04973050206899643,0.051785171031951904,0.07076992094516754,0.05682587996125221,0.021767526865005493,-0.293646901845932,0.18232563138008118,-1.5194967850393015,-0.24622456065767442,3.060115027744359
1687086973.98426,-0.9656175971031189,0.2581189274787903,-0.030936244875192642,0.023524820804595947,0.13506945967674255,0.13840389251708984,0.005025598220527172,-0.5610977411270142,0.44073736667633057,-1.5387695016331484,-0.2610746448087863,3.059689028454541
1687086974.021349,-0.9579364061355591,0.28695112466812134,0.004093970637768507,0.027302920818328857,0.11997020244598389,0.16344749927520752,-0.12407266348600388,-0.8960850238800049,0.7400482892990112,-1.5750700400045703,-0.2910425741750536,3.0566510336520665
1687086974.086304,-0.941364586353302,0.3320074677467346,0.06002803519368172,-0.022578716278076172,0.16306385397911072,0.184417724609375,-0.09400621056556702,-1.3587267398834229,1.1417847871780396,-1.6344771505760627,-0.33843098029012897,3.048855017225017
1687086974.14755,-0.9089410305023193,0.3943430185317993,0.13534995913505554,-0.07688349485397339,0.11882522702217102,0.16154025495052338,-0.0912078320980072,-1.82740318775177,1.545249581336975,-1.718619602552082,-0.40535282924327215,3.036954171780864
1687086974.207889,-0.8564050793647766,0.4667603373527527,0.22069235146045685,-0.14534974098205566,0.07524710893630981,0.05640724301338196,0.10962557792663574,-1.990397572517395,1.7075945138931274,-1.8230052688230367,-0.485624050936882,3.0185720543869
1687086974.2969708,-0.7827253341674805,0.5420417189598083,0.30582985281944275,-0.1797838807106018,0.017314910888671875,0.09135642647743225,-0.004038137849420309,-2.246910572052002,1.897557258605957,-1.9432809577635715,-0.572864829523386,2.9921074646442696
1687086974.3114781,-0.673747181892395,0.6186614036560059,0.4041321873664856,-0.2997177839279175,0.09879153966903687,0.1319548487663269,-0.1908043473958969,-2.9239821434020996,2.466151714324951,-2.111089088357945,-0.6670377889958797,2.9247095481773506
1687086974.353358,-0.5216537714004517,0.6980696320533752,0.4904858469963074,-0.4798874855041504,0.13515186309814453,0.0706104040145874,0.424250990152359,-3.1433491706848145,2.6981236934661865,-2.3254100977404355,-0.772697976741998,2.8260410196284877
1687086974.446832,-0.32965901494026184,0.7606623768806458,0.559211254119873,-0.525596022605896,0.09430265426635742,0.1583179235458374,-0.14408941566944122,-3.2394306659698486,2.805311918258667,-2.6089242078499644,-0.8643328907340965,2.668924442193012
1687086974.461255,-0.12870055437088013,0.809857964515686,0.5723336935043335,-0.3877789378166199,0.09057831764221191,0.015770435333251953,1.620198369026184,-3.5066704750061035,2.6794474124908447,-2.920402164500152,-0.9439099466037353,2.477455401361871
1687086974.502665,0.07894198596477509,0.8499348759651184,0.520940363407135,-0.5193105936050415,0.055567383766174316,0.20333337783813477,-0.14844392240047455,-3.3735713958740234,2.8843536376953125,2.9911993915810204,-1.0158616322092022,2.2282456781000173
1687086974.597484,0.264970600605011,0.8174446821212769,0.5114436745643616,-0.5639818906784058,-0.0931558609008789,-0.06938135623931885,0.6862650513648987,-2.8074285984039307,2.209622859954834,2.6635829900443713,-0.9569606971998458,2.0180667458744694
1687086974.611773,0.42881453037261963,0.809762179851532,0.4005036950111389,-0.43224772810935974,0.10333889722824097,0.07499074935913086,0.9941083788871765,-2.8568410873413086,2.491718292236328,2.3220702876038835,-0.9437467057759438,1.7728231090348017
1687086974.652664,0.5520972609519958,0.7759190797805786,0.30518513917922974,-0.4725685119628906,-0.26639777421951294,-0.13622453808784485,2.0149600505828857,-1.7022751569747925,1.7524096965789795,2.0757669647794157,-0.8881707365538559,1.6033336384059775
1687086974.7463598,0.6174564361572266,0.7578877210617065,0.21060246229171753,-0.2225133180618286,-0.6678152680397034,-0.2110908180475235,-0.5676206946372986,-0.9265931844711304,0.4061361849308014,1.8995032152878,-0.860069257329644,1.4594992666998705
1687086974.761605,0.604113757610321,0.7571695446968079,0.24847640097141266,-0.2185547947883606,-0.6456889510154724,-0.390230655670166,-0.4490412771701813,-0.04390573129057884,-1.0324323177337646,1.961012205355705,-0.8589690290415456,1.5744193620773252
1687086974.803447,0.5595998167991638,0.7905480861663818,0.24876047670841217,-0.008437097072601318,-0.007039785385131836,-0.10992071032524109,-0.13699068129062653,0.3423914611339569,-0.9135804772377014,1.9890944402345552,-0.9117034715009507,1.5894728227675667
1687086974.895934,0.5336000919342041,0.8026881217956543,0.2663883864879608,0.19569379091262817,0.3289799690246582,-0.060333698987960815,0.048534173518419266,0.17206184566020966,-0.22480784356594086,2.033826569252451,-0.9317889045842357,1.6337834272287268
1687086974.9112148,0.5334903001785278,0.8059592843055725,0.256548672914505,0.1409481167793274,0.1347600817680359,-0.07145956158638,0.4938831925392151,0.025553902611136436,0.16778050363063812,2.019037147746138,-0.9372941474430885,1.6120549962683055
1687086974.9525661,0.5421941876411438,0.8060969710350037,0.23713479936122894,0.023220181465148926,-0.022817671298980713,-0.07630719244480133,0.3669781982898712,0.11193589121103287,0.2476411610841751,1.9830904208318443,-0.9375267907021216,1.56215505617333
1687086975.046464,0.5484633445739746,0.8048728108406067,0.22664400935173035,-0.01208639144897461,-0.07245111465454102,-0.031590938568115234,0.3798733949661255,0.11922203749418259,0.13081318140029907,1.962659479703086,-0.9354611605995008,1.5300124129070007
1687086975.061366,0.5507612824440002,0.8051716089248657,0.21990995109081268,-0.02901756763458252,-0.01960355043411255,0.07591220736503601,0.16986413300037384,0.08886260539293289,0.08829165250062943,1.9506849804670305,-0.9359647635587461,1.5065243978939262
1687086975.103421,0.55484938621521,0.8045276999473572,0.21184223890304565,-0.014108419418334961,0.02149146795272827,0.057490572333335876,0.1573718935251236,0.09738873690366745,0.13796333968639374,1.9355164517238095,-0.9348798025450084,1.4836180270491666
1687086975.196912,0.5614997744560242,0.7983912825584412,0.2174614518880844,0.023430705070495605,0.020105481147766113,0.08051219582557678,-0.05344255641102791,0.0022130461875349283,0.2881311774253845,1.9402952373957998,-0.9246187544488152,1.4837417514888585
1687086975.211296,0.5771540403366089,0.7889122366905212,0.21097569167613983,0.1816045641899109,0.01327282190322876,0.03350070118904114,0.20717912912368774,-0.060512710362672806,0.4817149043083191,1.9212518796424964,-0.9090368479868003,1.460010849109753
1687086975.2529569,0.6074838638305664,0.768147885799408,0.20226691663265228,0.38140761852264404,-0.09752422571182251,-0.01102854311466217,-0.32905617356300354,-0.6154376864433289,0.8733665943145752,1.8922094863189935,-0.8759433813741191,1.449104257427946
1687086975.374588,0.6601203083992004,0.7307211756706238,0.17403382062911987,0.6904351115226746,-0.09966343641281128,-0.056617483496665955,-0.01467182394117117,-1.4883317947387695,1.3862028121948242,1.8285704474250277,-0.8193777475327911,1.429724185892672
1687086975.380373,0.7125242352485657,0.689294159412384,0.13108250498771667,0.533065915107727,-0.21093124151229858,-0.006174102425575256,-0.034667521715164185,-1.1106252670288086,0.9213912487030029,1.7527312053994908,-0.7605143613664739,1.4232268251025852
1687086975.466423,0.7338458895683289,0.6756703853607178,0.07028383761644363,0.5834301114082336,-0.3125569820404053,0.08299065381288528,0.9881863594055176,-0.9267597198486328,-0.2988532483577728,1.666279740015326,-0.7418736581492348,1.3974442925474269
1687086975.481524,0.6875497698783875,0.7259423136711121,0.01681634783744812,0.5679128170013428,-0.2554376721382141,-0.213670015335083,1.623458743095398,0.2469882220029831,-2.2994070053100586,1.5952498222789337,-0.8124035190376395,1.3056003584089018
1687086975.557404,0.543582022190094,0.8393242955207825,-0.00729365786537528,-0.1752195954322815,-0.581359326839447,0.012313783168792725,0.90163254737854,0.6495771408081055,-4.911445140838623,1.5573793633914756,-0.9960391194802068,1.2422861097531042
1687086975.562573,0.2766512632369995,0.9599489569664001,-0.0442909337580204,-0.927087664604187,-0.5504795908927917,0.12616956233978271,1.0794564485549927,-0.29682284593582153,-6.818573474884033,1.412046851738672,-1.2868198750560147,1.0586864585332343
1687086975.64658,0.007551135495305061,0.9974237084388733,-0.0713345855474472,-3.6459484100341797,0.8720219135284424,-0.2111513614654541,-0.5558339357376099,4.238014221191406,-4.168521404266357,0.10546243531667344,-1.4989996721398273,-0.3591278029157296
1687086975.6619282,-0.01384953036904335,0.9998894333839417,0.005418076179921627,1.3674414157867432,-0.3039819002151489,-0.333115816116333,0.806282639503479,-3.2362051010131836,0.8662581443786621,-1.9437023027585332,-1.5559246512925493,-2.502922765395797
1687086975.703805,0.010331148281693459,0.9957898259162903,-0.09108134359121323,-0.6183328628540039,-0.17997872829437256,0.09974837303161621,0.3571162819862366,0.4873843789100647,-0.4189058840274811,0.1129449779347978,-1.479001806323519,-0.39490892188546733
1687086975.7981138,-0.008133428171277046,0.9991921782493591,-0.03935379534959793,-0.07438606023788452,-0.0691080093383789,-0.024443209171295166,-0.16019827127456665,0.44460946321487427,-0.24358130991458893,-0.20380508354373142,-1.5305990288957476,-0.7286663350817365
1687086975.81258,-0.000354599003912881,0.9980401992797852,-0.06257348507642746,0.14392459392547607,0.11046493053436279,-0.06691258400678635,0.23966005444526672,-0.14942841231822968,0.2982925474643707,-0.0056668602729223775,-1.508179294146674,-0.5242693788200504
1687086975.854103,0.008514140732586384,0.9981370568275452,-0.06041339412331581,-0.05815094709396362,-0.03214901685714722,0.009113315492868423,-0.260463684797287,0.03463476896286011,0.1271761953830719,0.14000926138768724,-1.5097470239656767,-0.38067705991761386
1687086975.946965,0.015320704318583012,0.9982867240905762,-0.056468576192855835,-0.06436240673065186,0.03880727291107178,0.012874245643615723,0.08515725284814835,-0.006991581059992313,0.16846314072608948,0.26493596192851654,-1.5122515778789831,-0.25032493486065593
1687086975.96153,0.017625855281949043,0.9981594085693359,-0.05802641063928604,0.0522136390209198,-0.05084806680679321,-0.04996001720428467,0.041634175926446915,0.007486618123948574,-0.0049501992762088776,0.2948988581144352,-1.510114164204035,-0.2227617875778478
1687086976.0068002,0.022751351818442345,0.9981746077537537,-0.055943459272384644,-0.010590078309178352,0.028085649013519287,0.00648975744843483,-0.12741312384605408,-0.1404932141304016,0.23468779027462006,0.3862557826866678,-1.510365479977037,-0.12725758011636035
1687086976.127252,0.030971409752964973,0.998328685760498,-0.04878871887922287,-0.018459172919392586,-0.0903698205947876,0.02428317442536354,-0.16767911612987518,-0.23872914910316467,0.1276838481426239,0.5656203414546319,-1.5129728143402477,0.05745136009596441
1687086976.2170382,0.05690016970038414,0.997901976108551,-0.030886176973581314,-0.09149184823036194,0.0683974027633667,-0.033582210540771484,-0.35215383768081665,-0.6442980766296387,1.125885248184204,1.0734873475077769,-1.5060082643248403,0.5885375016381056
1687086976.2323499,0.15998804569244385,0.9866018295288086,-0.031946320086717606,-0.29164087772369385,0.13752835988998413,-0.1692713499069214,0.13853763043880463,-2.2061309814453125,3.2622766494750977,1.3737090400515606,-1.406917163904492,0.966855967793776
1687086976.2360392,0.32186591625213623,0.9451260566711426,-0.056025415658950806,-1.0644501447677612,0.0003694295883178711,0.028498534113168716,-0.26233354210853577,-0.2298661321401596,3.255903720855713,1.3984585434865398,-1.2379801534397679,1.0624915084927498
1687086976.30409,0.47607624530792236,0.8788221478462219,-0.031979259103536606,-0.7895833253860474,-0.057685911655426025,0.014874164015054703,-0.5606416463851929,-0.9653621315956116,3.2732412815093994,1.503724522872492,-1.0733880698818667,1.2142779744933223
1687086976.3169951,0.5931978821754456,0.8037899732589722,-0.04513899236917496,-0.9566470384597778,0.01321113109588623,0.13811081647872925,0.009511709213256836,-0.004740315489470959,2.274083375930786,1.4948483652633604,-0.933638751399622,1.2252354421263416
1687086976.398018,0.6391243934631348,0.7690836191177368,0.005533717572689056,-0.728998601436615,-0.2654062509536743,0.11211156845092773,-0.17452912032604218,2.2727088928222656,-0.1101408526301384,1.5794543900012648,-0.8774061846177457,1.2572081601316631
1687086976.4121299,0.5819730162620544,0.8101379871368408,0.07059751451015472,0.09959137439727783,-0.12446904182434082,0.10486329346895218,0.3064298629760742,3.3392879962921143,-2.815667152404785,1.6915136902796246,-0.944387484530257,1.2461644836508319
1687086976.45402,0.4697534739971161,0.8738471269607544,0.1253899335861206,2.129413366317749,-0.21199733018875122,0.4856482744216919,0.16665533185005188,0.7817670106887817,-1.7957643270492554,1.8316418378979047,-1.0630595338507542,1.300004465258466
1687086976.579646,0.43373769521713257,0.8863874673843384,0.1618289351463318,1.8218774795532227,0.05550694465637207,0.25195884704589844,-0.9584805965423584,-1.1041207313537598,0.5826336145401001,1.9279030318190733,-1.0894825475632348,1.3797918944257936
1687086976.5952559,0.4925481677055359,0.8611564040184021,0.12572218477725983,0.3542841672897339,0.5022774338722229,-0.21136973798274994,0.5807637572288513,-1.7093886137008667,0.9706107974052429,1.8207086368576355,-1.0375402016078137,1.3478393318740427
1687086976.6654348,0.5232915878295898,0.8461535573005676,0.1009458601474762,-0.6800451278686523,-0.0650562047958374,-0.02124929428100586,-0.23242706060409546,0.5476598739624023,0.2721956968307495,1.761361105087728,-1.008725964014679,1.3200438532848626
1687086976.67972,0.5115774869918823,0.8482347130775452,0.13706277310848236,-0.23815518617630005,-0.05937063694000244,-0.06465981900691986,-0.008533719927072525,1.5662416219711304,-0.14268942177295685,1.8325701640673437,-1.012643277778207,1.3322327567227235
1687086976.7542682,0.5145619511604309,0.8433646559715271,0.15479633212089539,0.5669962763786316,-0.23305898904800415,0.06203103065490723,-0.3441994786262512,-0.5446892976760864,0.1491253823041916,1.8630155843616218,-1.0035144848439717,1.3551934314283582
1687086976.768131,0.5217160582542419,0.8390746116638184,0.15416134893894196,0.04319477081298828,-0.06862807273864746,-0.07359494268894196,-0.2741650342941284,-0.31345507502555847,0.0720786452293396,1.8581094438098205,-0.9955799810712099,1.366057517288868
1687086976.8515692,0.525141179561615,0.836998701095581,0.15381650626659393,-0.12533044815063477,0.17192745208740234,-0.0724109560251236,0.36061233282089233,0.21013520658016205,0.06274623423814774,1.8557313491568637,-0.991775259725197,1.3675439309988031
1687086976.865921,0.5227099657058716,0.8381080031394958,0.156042218208313,-0.011937320232391357,-0.0616646409034729,-0.026464596390724182,-0.04735801741480827,0.14632728695869446,0.07858964800834656,1.8608997499870954,-0.9938055351542012,1.3600606788947776
1687086976.9039211,0.5222803354263306,0.8391824960708618,0.1516440361738205,-0.08909857273101807,-0.05182909965515137,-0.034548044204711914,0.10354851186275482,0.47395798563957214,-0.15034201741218567,1.853376472101922,-0.9957783239246182,1.3437695679776869
1687086976.9947438,0.5100439190864563,0.8426348567008972,0.1726895123720169,0.0784112811088562,-0.20364254713058472,-0.0968533605337143,-0.6096828579902649,0.09950033575296402,-0.330745130777359,1.897259377468413,-1.0021577482802229,1.3797100724674283
1687086977.00101,0.4759545624256134,0.8524909615516663,0.21616311371326447,-0.10208368301391602,-0.21949535608291626,-0.22280070185661316,-0.6198045611381531,1.209035873413086,-0.9763514995574951,1.9971105818137764,-1.0207321376085594,1.4537718260955643
1687086977.054686,0.41869500279426575,0.8747057914733887,0.24409794807434082,-0.03109133243560791,0.06998080015182495,-0.010073944926261902,0.6992160081863403,0.8495287299156189,-1.0399643182754517,2.098619819723013,-1.0648283903518532,1.5179306920616014
1687086977.115844,0.36143508553504944,0.8959082961082458,0.2582879364490509,-0.005066096782684326,-0.05409640073776245,0.1435064673423767,-1.0523947477340698,0.972411572933197,-1.0533443689346313,2.1912656504948544,-1.1104716829741845,1.558899000355407
1687086977.207938,0.30167198181152344,0.903645396232605,0.3040047585964203,0.03643229603767395,-0.08000659942626953,-0.08772671222686768,0.590530276298523,0.8281365633010864,-1.1277927160263062,2.3600459977494963,-1.128206226688715,1.7065657223935438
1687086977.213464,0.2275024652481079,0.9296659827232361,0.2897649109363556,-0.0910278856754303,-0.10399770736694336,-0.0531468391418457,-0.5486496090888977,1.0644845962524414,-1.5224298238754272,2.475986159467985,-1.1935050693851124,1.776367444765396
1687086977.296859,0.12841585278511047,0.9253140091896057,0.35679635405540466,-0.06547330319881439,-0.18205833435058594,-0.12362667918205261,-0.7443225383758545,1.4982168674468994,-1.8185174465179443,2.796113594081456,-1.1818628844939296,2.0557041118689985
1687086977.313108,0.010667732916772366,0.9332690834999084,0.35901910066604614,-0.03247252106666565,0.010883569717407227,-0.13260915875434875,0.28028449416160583,1.6179275512695312,-2.0771429538726807,3.1118878410129343,-1.2034093965926906,2.3069607318915786
1687086977.353994,-0.13077262043952942,0.9227186441421509,0.3626139163970947,-0.06984992325305939,-0.2875868082046509,-0.22841283679008484,-0.3951479196548462,1.9144890308380127,-2.77521014213562,-2.7954717362394264,-1.1750747189677355,2.625595097099469
1687086977.44747,-0.3128684163093567,0.8749066591262817,0.3696644604206085,-0.1825081706047058,-0.37226688861846924,-0.17471811175346375,-1.1667726039886475,2.695176124572754,-3.421780824661255,-2.4392168525240803,-1.0652430999978297,2.8897626367837574
1687086977.4622622,-0.5267427563667297,0.7808113694190979,0.33596956729888916,-0.34435099363327026,-0.26279085874557495,-0.6171432733535767,-0.6421730518341064,4.132882118225098,-3.7468974590301514,-2.138564822132499,-0.8959634673188148,3.0423057980008044
1687086977.501785,-0.7432008981704712,0.6151164174079895,0.263218492269516,-0.41898471117019653,-0.30711787939071655,0.23681196570396423,-3.269822597503662,4.3565354347229,-4.470273971557617,-1.9111800761937598,-0.6625336404875947,3.060975047685489
1687086977.5967631,-0.9064220190048218,0.405048668384552,0.11972608417272568,-1.1448168754577637,0.32567936182022095,0.5723820924758911,-0.5290448069572449,5.721439838409424,-4.17317008972168,-1.7021225754474076,-0.41703206488434014,2.9745839492797375
1687086977.612906,-0.96430504322052,0.24869360029697418,-0.09092311561107635,-0.7370039820671082,0.5007569789886475,0.7270009517669678,-2.131183385848999,2.817176580429077,-2.117886543273926,-1.4767855152151959,-0.2513312402241862,2.966591460991988
1687086977.6867518,-0.9696922898292542,0.22769977152347565,-0.08859798312187195,0.4002038240432739,0.2731241285800934,0.002233266830444336,0.6253546476364136,0.024115663021802902,-0.2487225979566574,-1.4796821903555888,-0.22971474918131443,2.8492094827613563
1687086977.780132,-0.9726924896240234,0.21103867888450623,-0.09660175442695618,0.1355953812599182,0.2277430295944214,0.4257795810699463,-0.5374204516410828,0.4179723858833313,-0.48650792241096497,-1.4718071565999904,-0.21263744231893544,2.8957130379723837
1687086977.796818,-0.9732579588890076,0.19628827273845673,-0.11933031678199768,0.056937217712402344,0.3905951678752899,0.2506932020187378,-0.6101534366607666,0.34012967348098755,-0.04115571454167366,-1.4487961000468874,-0.1975711073678948,2.8344315748584847
1687086977.80035,-0.9706594347953796,0.2114972472190857,-0.1144087091088295,0.11401569843292236,0.32433032989501953,0.0966322273015976,1.1370054483413696,-0.6285250782966614,0.683246910572052,-1.4534706563729531,-0.2131066051403135,2.863067864317135
1687086977.8314052,-0.9670095443725586,0.23309853672981262,-0.10275038331747055,-0.11914151906967163,-0.1480613648891449,0.033612847328186035,-0.09050437062978745,-0.10974046587944031,0.2984890937805176,-1.4649377183696413,-0.23526277878639806,2.8987277293447984
1687086977.896309,-0.9647914171218872,0.24437499046325684,-0.09725522994995117,0.0023584961891174316,-0.1343134343624115,-0.030445590615272522,-0.13091698288917542,0.03769882768392563,0.11822468042373657,-1.4703312895630551,-0.24687509379694367,2.8856699046560306
1687086977.955899,-0.9636955261230469,0.24973225593566895,-0.09447038918733597,0.07538986206054688,-0.11560758948326111,-0.002804398536682129,0.17440558969974518,-0.07322746515274048,0.07504269480705261,-1.4730792532065495,-0.2524037473290626,2.8903836371939593
1687086978.0475001,-0.9643561244010925,0.24847446382045746,-0.0909808948636055,-0.00161665678024292,-0.16095010936260223,-0.028785340487957,-0.24767112731933594,-0.0022826932836323977,-0.14204871654510498,-1.4767310816585786,-0.25110500083422427,2.888685416941825
1687086978.063242,-0.9667317271232605,0.2386813759803772,-0.09198294579982758,-0.0028574466705322266,-0.029239296913146973,-0.03403937816619873,-0.12222891300916672,0.019620798528194427,-0.16706128418445587,-1.4759335450014421,-0.2410077550212073,2.8773555760083123
1687086978.1016521,-0.9689968228340149,0.22897052764892578,-0.09283097833395004,-0.002667546272277832,0.028200998902320862,-0.036059968173503876,8.801405783742666e-05,0.032781608402729034,-0.16602042317390442,-1.4752866886024971,-0.23101997659380671,2.875280624113506
1687086978.198341,-0.9704700112342834,0.2209615558385849,-0.09676811844110489,-0.0007519721984863281,0.044220924377441406,-0.02264721691608429,-0.07556070387363434,0.1239522248506546,-0.15046793222427368,-1.4714122112406613,-0.22280028801588064,2.871421925488881
1687086978.2146811,-0.9704560041427612,0.21717752516269684,-0.10511352866888046,-0.007037162780761719,0.06474372744560242,-0.017277225852012634,-0.01808929070830345,0.09754633903503418,-0.07588780671358109,-1.4629033961494002,-0.21892205395945932,2.868892946294951
1687086978.2524328,-0.9694404602050781,0.21658465266227722,-0.11522265523672104,-0.016109466552734375,0.062590092420578,0.012973487377166748,-0.029683362692594528,0.15327884256839752,-0.04467635974287987,-1.4524964969450571,-0.21831471161887359,2.870629802124999
1687086978.347259,-0.968178391456604,0.21833132207393646,-0.12231820076704025,0.0021445751190185547,0.05507552623748779,0.017765000462532043,-0.03311862796545029,0.12675705552101135,0.008671816438436508,-1.4451236416300548,-0.22010421323341728,2.8684665899110424
1687086978.363096,-0.9671531319618225,0.22006045281887054,-0.127232164144516,-0.0005133748054504395,0.012346073985099792,0.0403486043214798,-0.019925225526094437,0.12014822661876678,-0.0023278379812836647,-1.4399941683103326,-0.22187644531413528,2.8667429195060845
1687086978.4009771,-0.9664977192878723,0.22168506681919098,-0.12937568128108978,0.004202127456665039,-0.01056450605392456,0.03641913831233978,-0.04726375639438629,0.07637602835893631,-0.01645020768046379,-1.4377270583050172,-0.22354219387539775,2.864380336851168
1687086978.556603,-0.9669135212898254,0.22091642022132874,-0.1275704950094223,0.001962900161743164,0.01582363247871399,0.024665221571922302,0.08566157519817352,0.045433372259140015,-0.003282048273831606,-1.4396181827424948,-0.22275401194760355,2.8646789966041366
1687086978.562333,-0.9674458503723145,0.21989236772060394,-0.1252831071615219,-0.0076059699058532715,-0.016858994960784912,0.025139689445495605,0.000828938907943666,0.01584744080901146,-0.006581331603229046,-1.4420141968116325,-0.2217041345733231,2.86521459358395
1687086978.6174679,-0.9678047895431519,0.21969637274742126,-0.12283070385456085,0.0018013715744018555,-0.00090065598487854,0.034879088401794434,0.01227513886988163,-0.02759438566863537,-0.0037524690851569176,-1.4445544473370906,-0.22150322956721827,2.8641130684229554
1687086978.631753,-0.9684756994247437,0.218494713306427,-0.1196439117193222,0.007919788360595703,0.011195719242095947,-0.0035250037908554077,0.04119933024048805,-0.07129886746406555,0.022497352212667465,-1.4478807300300378,-0.22027163846484574,2.866134503594499
1687086978.635024,-0.9687356352806091,0.21996954083442688,-0.11473773419857025,-0.01206880807876587,-0.0036152303218841553,-0.032967329025268555,-0.04583493620157242,-0.01812007464468479,0.010874463245272636,-1.452904837458737,-0.22178325313365804,2.8665560827652983
1687086978.7055678,-0.9684970378875732,0.221615269780159,-0.11357815563678741,-0.007287144660949707,0.0054811835289001465,-0.02350682020187378,0.0263817198574543,-0.029651163145899773,0.01543922908604145,-1.454056961028883,-0.2234706226306532,2.865040561791126
1687086978.7965388,-0.9682489037513733,0.2229844033718109,-0.11301365494728088,0.006121218204498291,-0.010780513286590576,-0.030937790870666504,-0.034619033336639404,-0.006213347427546978,0.034645307809114456,-1.454602445229418,-0.22487489177313033,2.866845412615579
1687086978.812718,-0.9677666425704956,0.22412514686584473,-0.1148725301027298,-0.0073157548904418945,-0.002201378345489502,-0.033626019954681396,0.05291535705327988,0.03262663260102272,0.0015352368354797363,-1.4526505381687538,-0.22604525390903843,2.8666715354527748
1687086978.852917,-0.967312753200531,0.22436164319515228,-0.11818432807922363,-0.002520442008972168,-0.03173479437828064,-0.015894636511802673,0.0416821651160717,0.03561296686530113,-0.00923575833439827,-1.449220889042129,-0.2262879342588401,2.867781322235635
1687086978.947356,-0.9668484926223755,0.2249959260225296,-0.12075082957744598,0.011663556098937988,-0.004125028848648071,0.026359975337982178,0.14520302414894104,-0.09122905880212784,0.06280695647001266,-1.4465484951448597,-0.22693884986644763,2.873012596706476
1687086978.963233,-0.9667826294898987,0.22700442373752594,-0.11747462302446365,-0.00030410289764404297,-0.04626414179801941,0.04798609018325806,-0.11014744639396667,-0.007459250278770924,-0.031489238142967224,-1.449878220941452,-0.22900069715114074,2.8729685352646817
1687086979.002468,-0.9671047329902649,0.22945044934749603,-0.10982190817594528,0.010287165641784668,0.034038245677948,0.13731825351715088,-0.05548764765262604,-0.2744085490703583,0.11758504062891006,-1.4577232940332423,-0.23151303516303945,2.868771917198559
1687086979.092334,-0.9663650393486023,0.24362941086292267,-0.08236008882522583,0.03924107551574707,0.08953091502189636,0.17253947257995605,-0.1470782607793808,-0.7912978529930115,0.4888804852962494,-1.4857751021310663,-0.24610627505329824,2.8660772305299616
1687086979.0990062,-0.9582768678665161,0.2855963110923767,-0.011839332990348339,0.007654309272766113,0.13571405410766602,0.33834683895111084,-0.5644500255584717,-2.0387299060821533,1.2538580894470215,-1.5584421414921814,-0.2896286126236477,2.8503567089507906
1687086979.155139,-0.9270605444908142,0.355607271194458,0.11875278502702713,-0.13713312149047852,0.15925472974777222,0.2347322702407837,-0.38526785373687744,-2.875822067260742,1.6581196784973145,-1.698198560739131,-0.36356372770229345,2.8127761389592663
1687086979.247312,-0.8614408373832703,0.43567076325416565,0.26097971200942993,-0.20026558637619019,0.1374187469482422,0.2567814290523529,0.4295368790626526,-3.6000924110412598,1.8746123313903809,-1.8649639392821133,-0.45078334287859584,2.798169849994544
1687086979.2634768,-0.7511144280433655,0.5241740345954895,0.40133315324783325,-0.39373713731765747,0.16743040084838867,0.12822303175926208,0.21184270083904266,-3.59059476852417,2.1452972888946533,-2.0615191096357686,-0.5517449549488089,2.7759933613349834
1687086979.3031259,-0.6021462082862854,0.6052970290184021,0.5206101536750793,-0.38097745180130005,0.0908544659614563,0.24737977981567383,0.8457965850830078,-4.471369743347168,2.0412468910217285,-2.2837004415841426,-0.6501389583477292,2.7293837284330773
1687086979.3967562,-0.4178711473941803,0.687869131565094,0.5934809446334839,-0.5919249653816223,0.12522590160369873,-0.004308581352233887,0.6403688192367554,-3.60235333442688,2.4134106636047363,-2.5281189132049473,-0.7585491951589909,2.662089710508983
1687086979.412313,-0.19430570304393768,0.7227828502655029,0.6631969809532166,-0.494552344083786,-0.055302441120147705,0.47155338525772095,-0.16477133333683014,-4.8403520584106445,2.457197427749634,-2.8565854794417063,-0.8078207317526328,2.5000421183127526
1687086979.452633,0.047023478895425797,0.757004976272583,0.651714563369751,-0.780070960521698,0.2367844581604004,-0.018566429615020752,0.5536289811134338,-4.0999603271484375,3.10837459564209,3.0695639891996076,-0.8587171843306377,2.306695585356571
1687086979.5484009,0.3285128176212311,0.6964397430419922,0.6380054354667664,-0.881659209728241,0.012605547904968262,0.40568041801452637,-0.5266627073287964,-4.931484699249268,3.021136999130249,2.6660914769392363,-0.7704242113031136,2.1138327416204294
1687086979.5639992,0.5642257928848267,0.6685702204704285,0.48441997170448303,-0.7481248378753662,0.2583553194999695,0.08554145693778992,2.7251501083374023,-4.565231800079346,3.669342041015625,2.2802372000404927,-0.732284430204968,1.8620842250322946
1687086979.60221,0.7633877396583557,0.5913581252098083,0.25987398624420166,-0.7777920961380005,-0.0136910080909729,-0.16012728214263916,1.7166377305984497,-3.1806087493896484,3.695530891418457,1.8989130402481134,-0.6327420008417403,1.5950723505495141
1687086979.6968741,0.8597506284713745,0.46695539355278015,0.20683658123016357,-0.7752475142478943,-1.0700896978378296,-0.4397009611129761,-2.6224958896636963,-1.4927761554718018,1.4733258485794067,1.806887191815475,-0.48584461441075294,1.6439117286796223
1687086979.713132,0.8682036995887756,0.4604616165161133,0.1849254071712494,-0.3214660882949829,-0.32977017760276794,-1.0314677953720093,2.432753562927246,0.8818045258522034,-0.8187626004219055,1.7806578838572247,-0.47851516846627357,1.6221664278755306
1687086979.751378,0.831068754196167,0.5156939029693604,0.20829012989997864,-0.08363211154937744,-0.3492053151130676,0.11443331837654114,-0.34423860907554626,0.5850493907928467,-1.1152546405792236,1.8163671284650056,-0.5418173817229642,1.5920564899895304
1687086979.8141708,0.8114628791809082,0.536301851272583,0.23218132555484772,0.21798652410507202,0.42039358615875244,0.20153449475765228,0.1284252256155014,-0.00319513026624918,-0.1135796308517456,1.8494773897405938,-0.5660494243895947,1.6168274865180439
1687086979.906919,0.8132684230804443,0.5395610332489014,0.21787190437316895,0.1298467516899109,-0.020609736442565918,-0.07448507845401764,0.2457437515258789,-0.11368722468614578,0.05467792600393295,1.832546724717013,-0.5699156506252943,1.5966475247243639
1687086979.912705,0.8162848353385925,0.5387052297592163,0.20850804448127747,-0.018387556076049805,0.004675388336181641,-0.15456819534301758,0.6696498394012451,0.17599579691886902,0.15049871802330017,1.8208840716180372,-0.5688995564950883,1.5719277823178335
1687086979.996265,0.8148907423019409,0.5442553758621216,0.19934728741645813,-0.03742480278015137,-0.07816046476364136,0.047555238008499146,0.3029692471027374,0.12933921813964844,-0.06686869263648987,1.8107151863149349,-0.5755012568372541,1.5343718784199856
1687086980.012811,0.809062123298645,0.5520371794700623,0.20167559385299683,-0.006678879261016846,-0.06966125965118408,0.07281467318534851,0.09197614341974258,0.09154043346643448,-0.2780420780181885,1.815088598228796,-0.5848054686660674,1.5330791163328696
1687086980.0523539,0.800144374370575,0.5663514733314514,0.1975213885307312,0.08665060997009277,-0.07388949394226074,-0.01021982729434967,0.18529793620109558,-0.028022069483995438,-0.31869542598724365,1.812814863574735,-0.602072115033808,1.5296348220531688
1687086980.148481,0.7927996516227722,0.581430971622467,0.1827746331691742,0.175400972366333,-0.13453173637390137,-0.15831483900547028,0.5220987200737,-0.16161110997200012,-0.19960159063339233,1.7973806394471799,-0.6204864246725553,1.505531466947683
1687086980.1644568,0.7880105376243591,0.5926225781440735,0.16684570908546448,0.2775563597679138,-0.1372547149658203,-0.06174317002296448,0.3172451853752136,-0.1336645931005478,-0.229520782828331,1.7794451651086616,-0.6343108961280567,1.4842372907989199
1687086980.202863,0.7827070951461792,0.6078559756278992,0.13371890783309937,0.5718156695365906,-0.30631178617477417,-0.12132881581783295,0.900115430355072,-0.6011922359466553,-0.43441569805145264,1.7400043084858876,-0.6533576597112258,1.4572633187331152
1687086980.29488,0.7604514956474304,0.6447304487228394,0.07768963277339935,0.45652830600738525,-0.4400950074195862,-0.01964522898197174,1.353664517402649,-0.2979685962200165,-1.2580878734588623,1.6726056085971077,-0.7006706260132488,1.387590858263799
1687086980.3009272,0.6985841989517212,0.7151784896850586,0.022356975823640823,0.6336911916732788,-0.41770851612091064,0.06919574737548828,0.8487446308135986,-0.36617040634155273,-2.626319646835327,1.6027886750395377,-0.7968794317214413,1.3067793737910551
1687086980.353756,0.5624847412109375,0.8268062472343445,0.001481344224885106,0.10533136129379272,-0.41842013597488403,0.02354300022125244,1.1417537927627563,0.5567560791969299,-4.263565540313721,1.5734298930169894,-0.9734058663148922,1.252332615642343
1687086980.416459,0.34402790665626526,0.9388794302940369,-0.012249630875885487,-0.49823325872421265,-0.22194534540176392,0.08588850498199463,-0.6259825825691223,-0.1537713259458542,-5.374216079711914,1.5352048599646693,-1.21936055605066,1.1989365844847562
1687086980.5062451,0.09583038836717606,0.9950142502784729,0.027622750028967857,-1.6928763389587402,0.03017789125442505,0.36436033248901367,1.5554494857788086,3.3031201362609863,-4.9783782958984375,1.8514352862222538,-1.470897389962381,1.4655296930061317
1687086980.512008,-0.09214548021554947,0.9950706362724304,-0.03665090724825859,-0.8307213187217712,0.32363951206207275,0.4942009449005127,-1.1402966976165771,2.01771879196167,-2.3158669471740723,-1.1922306868218293,-1.4714644916341808,-1.7224120468517417
1687086980.595366,-0.10831853002309799,0.992128849029541,0.06282882392406464,0.565746545791626,0.3283209204673767,-0.032982587814331055,0.6907514929771423,-1.1578153371810913,0.8522090911865234,-2.0964082479828727,-1.4452454906371184,-2.68483458307497
1687086980.601592,-0.08487488329410553,0.9960485696792603,-0.026141280308365822,-0.1593267321586609,-0.1822669506072998,0.05282890796661377,0.30804839730262756,-0.11749261617660522,-0.0916886106133461,-1.272018318937142,-1.4818693018025086,-1.807347907111128
1687086980.6568298,-0.09886091947555542,0.9950079917907715,0.013614686205983162,-0.1284186840057373,-0.008878350257873535,-0.013019561767578125,-0.17647701501846313,0.17449671030044556,-0.03426680713891983,-1.7076510426251537,-1.4708349145120996,-2.2629620278446003
1687086980.748321,-0.09239030629396439,0.9956397414207458,-0.012850203551352024,-0.0020005255937576294,0.07151395082473755,0.007860543206334114,0.22089441120624542,0.01725338213145733,0.1168217733502388,-1.4325968717232311,-1.4773786219848992,-1.974865958374363
1687086980.765542,-0.08800491690635681,0.9960908889770508,-0.007616795599460602,0.0432966947555542,0.021502375602722168,-0.024808168411254883,0.20873092114925385,-0.1701522022485733,0.11272178590297699,-1.484461805917558,-1.4823470138292656,-2.028746653255599
1687086980.802026,-0.088625468313694,0.9958545565605164,-0.02047189325094223,-0.029416464269161224,-0.06152850389480591,0.036493659019470215,-0.020393874496221542,-0.008906584233045578,-0.07797333598136902,-1.343784720460367,-1.4797107050681677,-1.88433417965173
1687086980.863308,-0.08838587999343872,0.9959375262260437,-0.01720190979540348,-0.0046164244413375854,0.0513644814491272,-0.003458496183156967,0.12066632509231567,-0.13332191109657288,0.053863637149333954,-1.3785764216903262,-1.4806273942251598,-1.918352646416732
1687086980.928934,-0.08334655314683914,0.9963788390159607,-0.01680869050323963,0.02405095100402832,0.02794361114501953,-0.05901229381561279,-0.12573687732219696,-0.128265842795372,0.15243245661258698,-1.371793302565723,-1.4856686669825336,-1.9065861258235384
1687086980.9344668,-0.07112996280193329,0.9974459409713745,-0.006474689114838839,-0.011267445981502533,0.017507553100585938,-0.07023119926452637,0.2731972932815552,-0.05141938477754593,0.19169767200946808,-1.4800203092229356,-1.4993098106864713,-2.0088782219771413
1687086980.982341,-0.062362972646951675,0.9979698657989502,-0.012920639477670193,0.004852656275033951,-0.10151606798171997,-0.03798270225524902,-0.42380404472351074,-0.01585402898490429,0.30800649523735046,-1.366502269562273,-1.5070650324648782,-1.8957790209572796
1687086981.0768461,-0.025033412501215935,0.9996077418327332,0.012552724219858646,-0.04147961735725403,0.1818649172782898,0.030431270599365234,-0.48008179664611816,-1.0265827178955078,1.4520263671875,-2.035594302031226,-1.5427865679665518,-2.5469111553058603
1687086981.1642199,0.08595800399780273,0.9960914850234985,0.020313210785388947,-0.29489657282829285,0.13424891233444214,-0.09308242797851562,-0.23367346823215485,-1.927538514137268,3.0306384563446045,1.80285460185746,-1.4823536141491642,1.3560448311902835
1687086981.179617,0.28370440006256104,0.9587814807891846,0.015799235552549362,-1.0426002740859985,0.044437944889068604,-0.08635592460632324,-0.054136358201503754,-2.176643133163452,4.5332441329956055,1.6264279437726064,-1.2826822711206476,1.3071484311592136
1687086981.25315,0.4901500642299652,0.8713398575782776,-0.02280116267502308,-1.462775707244873,0.2337474226951599,0.07010340690612793,0.6465920805931091,-0.17967720329761505,4.329875469207764,1.52431109983162,-1.0579263587934276,1.2466210676534921
1687086981.266724,0.6381059288978577,0.7696426510810852,-0.02170220948755741,-0.9721361398696899,-0.10735023021697998,0.19855159521102905,0.12601016461849213,1.5181338787078857,2.7126293182373047,1.5367990758832049,-0.8782812347244414,1.2196980989160808
1687086981.312251,0.6998905539512634,0.7132049202919006,0.03862401470541954,-0.3839116096496582,-0.21708077192306519,0.09920859336853027,0.872883677482605,3.438157796859741,0.17744308710098267,1.6259262029827062,-0.7940598225825585,1.2082842923843902
1687086981.406647,0.662333607673645,0.7403700947761536,0.11474402248859406,1.01384437084198,-0.49276578426361084,0.35215961933135986,0.15833500027656555,1.4227882623672485,-1.124276876449585,1.742335761561119,-0.8336207416357433,1.1716330038765774
1687086981.4123468,0.5888698101043701,0.7834259271621704,0.19868524372577667,1.4589663743972778,-0.5242097973823547,0.6618951559066772,-1.1386204957962036,0.419201523065567,-0.9156890511512756,1.8962032719110897,-0.9001593309268137,1.2255514882285643
1687086981.4653149,0.6165483593940735,0.7675334811210632,0.17538662254810333,1.4388716220855713,-0.09829831123352051,-0.2984030246734619,0.49913686513900757,-2.1259384155273438,1.432449221611023,1.847940899558191,-0.8749843444640386,1.2580811482012315
1687086981.556624,0.6787246465682983,0.7234057784080505,0.1265568882226944,0.016755640506744385,-0.07588398456573486,0.018874630331993103,-1.058251976966858,-1.6738978624343872,0.8519791960716248,1.755142103715003,-0.8087225802495795,1.2642933625974142
1687086981.562459,0.7101194262504578,0.6965844631195068,0.1024719774723053,-0.6456357836723328,0.35065674781799316,0.006170645356178284,0.9325279593467712,1.1294022798538208,0.41373637318611145,1.7141094961313879,-0.7706259167712113,1.2201823682085808
1687086981.613099,0.7071743607521057,0.6936337351799011,0.1370275914669037,-0.030645430088043213,-0.2021329402923584,0.14339840412139893,-0.6287725567817688,-0.3615211844444275,-0.08660000562667847,1.7621922284094031,-0.7665214402698529,1.2467326470517512
1687086981.738312,0.7059468030929565,0.6963523030281067,0.12935438752174377,0.004166722297668457,-0.057833075523376465,-0.13915061950683594,-0.30925747752189636,-0.039564743638038635,-0.15156957507133484,1.7520212759071603,-0.7703023955105496,1.2507499833132842
1687086981.7561688,0.7015870213508606,0.697931170463562,0.1437622457742691,0.04275190830230713,-0.10451698303222656,-0.07308351993560791,-0.13462774455547333,0.07837989181280136,-0.12350635230541229,1.7729086063113493,-0.7725046532625593,1.2852010879050864
1687086981.823964,0.6913675665855408,0.7045252919197083,0.1601717472076416,-0.07707923650741577,-0.04356038570404053,-0.0728456974029541,-0.6410225033760071,0.44325292110443115,-0.278062105178833,1.7984538324206658,-0.7817539840962828,1.2977360531072804
1687086981.828689,0.6786235570907593,0.7040842771530151,0.2091301530599594,-0.0012096166610717773,-0.04279893636703491,-0.09067615866661072,-0.7432944178581238,0.3376736342906952,-0.23479868471622467,1.8697298831949922,-0.7811327663034038,1.377164511427744
1687086981.916872,0.6650890707969666,0.7173169851303101,0.20763634145259857,-0.028156697750091553,0.23153555393218994,-0.12519308924674988,1.4696274995803833,0.9014253616333008,-0.1833130270242691,1.873401752298323,-0.799943832208778,1.3390389725352203
1687086981.935433,0.6457390785217285,0.7267016172409058,0.23436161875724792,0.07833617925643921,-0.2394581437110901,0.0787334144115448,-1.7390238046646118,0.15499378740787506,-0.49369773268699646,1.91894816812982,-0.8135082445161026,1.3609364252200487
1687086982.0042071,0.6159533858299255,0.7264018058776855,0.30486351251602173,-0.10228151082992554,-0.1725078821182251,-0.316536545753479,-0.45572903752326965,1.0760101079940796,-0.7341777682304382,2.0303923896418214,-0.8130719022718772,1.480931859962449
1687086982.019083,0.570239782333374,0.7615376710891724,0.30803707242012024,-0.011112034320831299,0.17745757102966309,-0.10982537269592285,1.6540107727050781,1.2349562644958496,-0.7363350987434387,2.066075642892587,-0.8656823530281789,1.453364678724598
1687086982.061579,0.508107602596283,0.7905358076095581,0.34187614917755127,-0.01468425989151001,-0.4015742540359497,0.0039032399654388428,-1.56268310546875,1.0584412813186646,-1.4016411304473877,2.1630619721995514,-0.9116834571509554,1.4978028872099869
1687086982.156282,0.41975685954093933,0.806717574596405,0.4159456789493561,-0.07120037078857422,-0.2147986888885498,-0.32639193534851074,-0.27901923656463623,1.5140101909637451,-2.0129666328430176,2.3516340929743027,-0.9385762138013142,1.6590714184458042
1687086982.161662,0.2755791246891022,0.8495082855224609,0.44988012313842773,-0.23270189762115479,-0.39496415853500366,-0.3824514150619507,-0.25963157415390015,2.3942480087280273,-2.9510867595672607,2.591988121608786,-1.0150525601085871,1.834903573151685
1687086982.2135382,0.061301339417696,0.8710511922836304,0.4873519539833069,-0.2824317216873169,-0.39683854579925537,-0.5327468514442444,0.2286258339881897,3.739190101623535,-3.682587146759033,3.016465270137208,-1.0573383037488575,2.154460672668978
1687086982.305252,-0.22386819124221802,0.86737459897995,0.4444594979286194,-0.4581233561038971,-0.2552835941314697,-0.2880110740661621,0.26543790102005005,4.63795804977417,-4.671619892120361,-2.675000301385154,-1.0499023212425382,2.5794417745519715
1687086982.323124,-0.5315507054328918,0.7480468153953552,0.3973408341407776,-0.5803266763687134,-0.2623138427734375,0.1607494354248047,-1.925736904144287,4.960279941558838,-5.327152252197266,-2.2127035701103375,-0.8451140498845906,2.854515096917255
1687086982.394588,-0.7949289679527283,0.5515357255935669,0.2527765929698944,-1.1149067878723145,0.25312113761901855,0.4411930739879608,-0.2127198874950409,5.94406270980835,-4.770726680755615,-1.8786716298785866,-0.5842041645428849,2.926449313261572
1687086982.516042,-0.9262192249298096,0.37476447224617004,0.04086094722151756,-1.007969617843628,0.6078099012374878,0.6626760959625244,-0.8842899799346924,3.287299156188965,-3.10349178314209,-1.61488358815001,-0.3841427077309355,2.981869913476791
1687086982.533791,-0.9591702818870544,0.2827194929122925,-0.0078668724745512,-0.06618976593017578,0.19871050119400024,0.6832208633422852,-2.6258676052093506,0.4169060289859772,-0.8132215738296509,-1.5625947628787618,-0.28662807966721,2.8343783485173324
1687086982.607744,-0.9645609259605408,0.2638258934020996,0.004222592804580927,0.3080974221229553,0.5706924200057983,0.2689402103424072,0.29436787962913513,-0.02621522918343544,-0.32601067423820496,-1.5751740344853122,-0.26698649172197264,2.8164502321193225
1687086982.6125069,-0.9710274338722229,0.23892487585544586,-0.004509050399065018,0.06265658140182495,0.3148469924926758,0.325569212436676,-0.21305882930755615,0.4042584300041199,-0.4471593499183655,-1.5661527733970573,-0.24125851414582553,2.7880226775143377
1687086982.616201,-0.9713950157165527,0.23720410466194153,-0.01122494600713253,0.17535918951034546,0.5350736379623413,0.1469823718070984,1.0079371929168701,-0.4450216591358185,0.4054969847202301,-1.5592413504515836,-0.23948680759770022,2.8314726197114948
1687086982.664013,-0.9652931094169617,0.2610830068588257,0.006687710992991924,-0.051735639572143555,0.05298855900764465,0.05576646327972412,0.2400655448436737,-0.33804619312286377,0.4668278694152832,-1.5777243819636564,-0.26414396695380704,2.853211249691665
1687086982.814911,-0.9590481519699097,0.2830171585083008,0.011296297423541546,-0.0006379485130310059,0.00775417685508728,-0.12488269805908203,0.37036800384521484,-0.1761089563369751,0.46142953634262085,-1.582574436952359,-0.28693842817137777,2.8747201269755793
1687086982.83362,-0.953090488910675,0.3025236129760742,0.009872048161923885,-0.01813119649887085,-0.07075801491737366,0.021423695608973503,0.5932360291481018,-0.024053672328591347,0.2908778786659241,-1.5811538896019748,-0.3073392184099221,2.897131526076312
1687086982.87533,-0.9493220448493958,0.31424829363822937,0.005966565106064081,-0.03352701663970947,-0.13869601488113403,-0.04496800899505615,0.1563943326473236,0.04191712662577629,0.21070842444896698,-1.5770813239939578,-0.31966473742371077,2.917841157309332
1687086982.878298,-0.9466597437858582,0.322222501039505,-0.002793616382405162,-0.08324742317199707,-0.08619967103004456,-0.013594329357147217,0.2068537175655365,0.22937694191932678,0.10415386408567429,-1.567845310576755,-0.32807628011952306,2.925539138288565
1687086982.881184,-0.9466586709022522,0.3216709494590759,-0.019113007932901382,0.04585599899291992,-0.12278792262077332,0.010186610743403435,0.007910333573818207,0.2830926477909088,-0.08945118635892868,-1.5506091021964052,-0.3274936988595133,2.933866791086732
1687086982.932411,-0.9479737877845764,0.3177995979785919,-0.018677979707717896,0.13135403394699097,-0.08847537636756897,0.008134128525853157,-0.09187967330217361,-0.15716783702373505,-0.061796970665454865,-1.551095821341207,-0.3234078542157846,2.9300680744960803
1687086983.0252218,-0.9496897459030151,0.31281471252441406,-0.0153714120388031,-0.06660658121109009,-0.03229719400405884,-0.014612078666687012,0.1047440692782402,-0.02943316288292408,-0.1347615122795105,-1.5546120200550062,-0.3181550400914596,2.9310501047808413
1687086983.177047,-0.9522217512130737,0.3047736883163452,-0.019661657512187958,-0.045977652072906494,0.017522335052490234,-0.020575759932398796,-0.059496402740478516,0.1616588681936264,-0.21406634151935577,-1.5501510687374995,-0.30970080819869444,2.9322818506716355
1687086983.182977,-0.9545773267745972,0.2970762252807617,-0.022976521402597427,0.03660851716995239,0.048123329877853394,0.0017667990177869797,-0.08657171577215195,0.022394822910428047,-0.08892063051462173,-1.5467311349958834,-0.3016291646005057,2.930291263618192
1687086983.243494,-0.9550156593322754,0.2957455515861511,-0.02189130149781704,-0.018235445022583008,0.03515639901161194,0.015864018350839615,-0.21663996577262878,0.04762168973684311,0.01613692380487919,-1.5478778884834608,-0.30023589324132743,2.9208803263227483
1687086983.247724,-0.9550865888595581,0.2957811951637268,-0.01797153614461422,-0.05292421579360962,-0.004429936408996582,0.11770296096801758,-0.790688693523407,0.027052786201238632,-0.06460867822170258,-1.5519818909258722,-0.30027320101486066,2.8961595187059177
1687086983.250955,-0.956688642501831,0.290911465883255,-0.010834665037691593,-0.01253443956375122,0.05935400724411011,0.05578702688217163,0.1196141466498375,-0.07794585824012756,-0.14659568667411804,-1.5594716368095904,-0.2951793549245038,2.871739498286485
1687086983.325399,-0.9569221138954163,0.29033875465393066,-0.0017881704261526465,0.07468956708908081,0.030828148126602173,-0.09333515167236328,0.051382292062044144,-0.1486845463514328,0.04494529590010643,-1.5689276602328261,-0.29458081120296625,2.884779847630533
1687086983.4475908,-0.9572281241416931,0.2893202602863312,0.002850269665941596,0.02909696102142334,0.022706657648086548,-0.10436701774597168,0.13255266845226288,0.03678698465228081,-0.03498447686433792,-1.573773946406731,-0.29351665121518516,2.8844960227883476
1687086983.466289,-0.9573086500167847,0.2890673875808716,0.0003048128273803741,0.010973870754241943,-0.008412569761276245,-0.08909571170806885,0.10698012262582779,0.07049187272787094,0.019046321511268616,-1.5711147328053656,-0.29325248403379733,2.887255838766614
1687086983.5718799,-0.9566683173179626,0.2908463776111603,-0.013936188071966171,-0.005703568458557129,-0.029860109090805054,-0.04213988780975342,0.02623760886490345,0.16800138354301453,-0.03799939155578613,-1.5562299388905496,-0.29511134759501023,2.898938421176956
1687086983.5773292,-0.9573729038238525,0.28754764795303345,-0.027445970103144646,0.0013335347175598145,-0.010936439037322998,-0.011189281940460205,0.13227926194667816,0.2029435783624649,-0.09549464285373688,-1.5421361734479058,-0.29166536673027893,2.9005584216987526
1687086983.625352,-0.9586869478225708,0.2820045053958893,-0.03731765225529671,-0.002235233783721924,-0.06671833992004395,0.06756055355072021,-0.18603463470935822,0.12683111429214478,-0.08445935696363449,-1.5318901762026378,-0.2858827719412586,2.899169536362157
1687086983.6300302,-0.9595988392829895,0.2782207131385803,-0.041987575590610504,-0.018687725067138672,0.03260070085525513,0.021815422922372818,-0.00503584137186408,0.1027458906173706,-0.08267732709646225,-1.5270688756635897,-0.28194119828046493,2.8972720748393272
1687086983.633982,-0.9615604877471924,0.2716148793697357,-0.04033186659216881,-0.03734081983566284,-0.01619809865951538,0.01596355438232422,-0.21472695469856262,0.1413746327161789,-0.11746273934841156,-1.5288767191511936,-0.27507058413969615,2.8886253021926307
1687086983.717952,-0.9623566269874573,0.26873576641082764,-0.04062734916806221,0.013168513774871826,0.04171943664550781,0.02475816383957863,-0.02297276258468628,0.06458785384893417,-0.0520392544567585,-1.528604858238281,-0.27208026639590377,2.880653598098639
1687086983.835266,-0.9632383584976196,0.2654123604297638,-0.041569408029317856,0.00956416130065918,0.024962306022644043,0.011692643165588379,0.051014628261327744,0.10467198491096497,-0.06289930641651154,-1.5276671991366244,-0.26863161085078424,2.880551228427684
1687086983.853815,-0.9632439017295837,0.26544803380966187,-0.0412113219499588,0.0019860267639160156,0.01938772201538086,0.08234900236129761,-0.11466110497713089,-0.01894219219684601,-0.022040555253624916,-1.5280385105704237,-0.26866858800994525,2.878546346637452
1687086983.922709,-0.9630771279335022,0.26706334948539734,-0.034048646688461304,0.022983312606811523,0.04505506157875061,0.013433996587991714,0.011778042651712894,-0.16632987558841705,0.06291310489177704,-1.5354570271509207,-0.2703444141413801,2.8730742833315785
1687086983.926682,-0.9620679616928101,0.2717827558517456,-0.023644771426916122,0.01490926742553711,-0.004952430725097656,-0.007223723456263542,0.15294905006885529,-0.12933507561683655,0.07544498890638351,-1.5462242464855813,-0.2752450453968244,2.875690456333062
1687086984.045555,-0.9612142443656921,0.2747012674808502,-0.024624168872833252,-0.02061253786087036,-0.030621767044067383,-0.024264991283416748,0.22146402299404144,-0.04677189886569977,0.022801004350185394,-1.5451841552394687,-0.2782789988862129,2.8899618853046736
1687086984.051604,-0.9614390134811401,0.27398765087127686,-0.023786867037415504,-0.014574229717254639,-0.06492707133293152,-0.026368800550699234,-0.01371668092906475,-0.012948177754878998,-0.052662111818790436,-1.5460604716554325,-0.27753692663825713,2.8951323495248125
1687086984.168624,-0.9627230167388916,0.2694742977619171,-0.02340804971754551,0.022369682788848877,-0.03972280025482178,-0.03907668590545654,-0.044105030596256256,-0.0023999102413654327,-0.05590520799160004,-1.5464866986331605,-0.2728470893443273,2.889798405160097
1687086984.188035,-0.963932454586029,0.2646964490413666,-0.027744820341467857,-0.011043012142181396,0.013898402452468872,-0.04688596725463867,0.08097672462463379,0.09868858754634857,-0.106524758040905,-1.5420213204904007,-0.2678891156106694,2.8957170100075955
1687086984.225552,-0.9658704400062561,0.25628674030303955,-0.03756658360362053,-0.03051316738128662,0.005752354860305786,0.037230849266052246,-0.12986798584461212,0.18715538084506989,-0.15528154373168945,-1.53192190061452,-0.25917866997285444,2.8932952033157906
1687086984.228622,-0.966678261756897,0.2524144947528839,-0.04265720769762993,0.007480502128601074,0.06759271025657654,0.008508037775754929,-0.04385441169142723,0.09435176104307175,-0.07416053116321564,-1.5266973183029173,-0.25517473198193275,2.8894330039753617
1687086984.231513,-0.9673591256141663,0.25040555000305176,-0.03890223801136017,0.05738598108291626,0.02492395043373108,0.03072357177734375,-0.04992961511015892,-0.03684084117412567,-0.012465426698327065,-1.5306030953003469,-0.25309913417295027,2.8840052546242725
1687086984.3137522,-0.9670458436012268,0.25195765495300293,-0.03659774363040924,-0.028788387775421143,0.01967918872833252,-0.0033497773110866547,0.11366146057844162,-0.03463686630129814,0.009776761755347252,-1.5329694897971033,-0.25470262975030733,2.888277644008019
1687086984.4064,-0.9670039415359497,0.2523382902145386,-0.03504902496933937,-0.005789518356323242,0.0009879767894744873,-9.196624159812927e-05,0.06972361356019974,-0.047354165464639664,0.03717978298664093,-1.534567221443995,-0.2550959993387812,2.8916049795472536
1687086984.413193,-0.9644903540611267,0.26310959458351135,-0.02305314876139164,-0.02638477087020874,0.07906860113143921,0.256802499294281,-0.16303451359272003,-0.8571158051490784,0.5427915453910828,-1.5468989807687117,-0.26624395915237375,2.8945258423093616
1687086984.462522,-0.9514260292053223,0.30431634187698364,0.046688903123140335,-0.010045409202575684,0.3608294427394867,0.5734587907791138,-0.06854642182588577,-2.4182796478271484,1.3249924182891846,-1.6198295446050759,-0.30922063565555785,2.889837516685696
1687086984.5584168,-0.8974639177322388,0.38922935724258423,0.2075062096118927,-0.12405091524124146,0.4444497227668762,0.9009838104248047,0.7509481906890869,-4.522811412811279,2.127429723739624,-1.7980173998967928,-0.3997948157829484,2.8886533131550514
1687086984.5641131,-0.7664911150932312,0.49934011697769165,0.4039192199707031,-0.4591710567474365,0.2920873761177063,0.5555076599121094,-0.19084586203098297,-4.876479148864746,2.8331947326660156,-2.055787870013948,-0.5228369697492948,2.850793232246169
1687086984.6143441,-0.5577374696731567,0.6048924326896667,0.5683603286743164,-0.6880509257316589,0.24094778299331665,0.10720711946487427,0.9728829264640808,-4.649866104125977,2.8770370483398438,-2.365627585589137,-0.6496307663010423,2.7626228999822424
1687086984.7370691,-0.31820037961006165,0.6806442737579346,0.659902811050415,-0.8239962458610535,-0.05222642421722412,0.06574416160583496,-0.820489764213562,-4.746119499206543,3.007700204849243,-2.692292019987546,-0.7486417019760424,2.6159280986307474
1687086984.7556129,-0.07988185435533524,0.70823734998703,0.7014402747154236,-0.9727456569671631,0.00875777006149292,-0.17577505111694336,1.1858807802200317,-4.3103928565979,2.3644094467163086,-3.028198560541205,-0.7869982945037962,2.4405788215177138
1687086984.8295069,0.15801802277565002,0.731055736541748,0.6637677550315857,-0.8696421384811401,-0.1710888147354126,0.06561756134033203,-0.3316996693611145,-4.155956745147705,2.311675548553467,2.9078807256539996,-0.8198679579926421,2.2612975124019803
1687086984.846158,0.3486701548099518,0.6929381489753723,0.6310826539993286,-0.8427954912185669,-0.08533334732055664,-0.11606818437576294,0.23657581210136414,-3.480952024459839,2.04661226272583,2.6368357290741704,-0.7655562703242444,2.1361587434985423
1687086984.980486,0.5330450534820557,0.6410689949989319,0.5521712899208069,-0.9048712849617004,-0.053331077098846436,-0.047563254833221436,-0.09389478713274002,-2.987534523010254,2.1171762943267822,2.373817035764981,-0.6958902896278366,2.029380861672895
1687086985.0002851,0.6583311557769775,0.5957878232002258,0.46004021167755127,-0.7052060961723328,0.12853163480758667,-0.06418150663375854,0.9348400235176086,-2.290863275527954,1.9878405332565308,2.180714836136339,-0.6382462187574127,1.9152842539829615
1687086985.00318,0.7340207695960999,0.5649456977844238,0.3768945634365082,-0.44900190830230713,-0.23518818616867065,-0.29704540967941284,0.5191746950149536,-0.8210012912750244,1.0597909688949585,2.0451584771281754,-0.6003674320448258,1.8211795149287928
1687086985.0617251,0.7524407505989075,0.5407785773277283,0.37602004408836365,0.13629209995269775,-0.6385570168495178,-0.5986764430999756,-0.5440503358840942,-0.10151443630456924,-0.12314607948064804,2.0342309161858956,-0.5713624473392193,1.8313680748074241
1687086985.065319,0.7444124817848206,0.5630528330802917,0.3589172959327698,0.40883153676986694,-0.08925223350524902,-0.675506591796875,1.580693006515503,0.396087110042572,0.033114947378635406,2.020060945012355,-0.5980752117510664,1.782623492368292
1687086985.1568642,0.7426252961158752,0.5802277326583862,0.3344297707080841,0.20134437084197998,-0.2566041946411133,0.04684162139892578,0.4788201153278351,-0.24886387586593628,-0.006375256925821304,1.9939283561313002,-0.6190082630103163,1.7448151867502666
1687086985.1619549,0.7496297359466553,0.5825626850128174,0.31412675976753235,-0.11777859926223755,0.1905084252357483,0.20543500781059265,0.35529693961143494,0.0804852545261383,0.2290579378604889,1.9676101711615137,-0.6218781294758812,1.6982482784073125
1687086985.213231,0.7515035271644592,0.5803536176681519,0.3137384057044983,-0.10089945793151855,0.007170677185058594,-0.0444665253162384,0.27221983671188354,0.058679647743701935,-0.04235413670539856,1.9662810731943918,-0.619162817194926,1.6976288194086493
1687086985.309304,0.7452751994132996,0.5917991995811462,0.307145893573761,0.0055182576179504395,-0.04727417230606079,-0.11467146873474121,0.4106094241142273,0.2374504953622818,-0.21021519601345062,1.9617106536360407,-0.633289041290743,1.673388427873691
1687086985.315261,0.7362607717514038,0.6069594025611877,0.29919886589050293,0.19670730829238892,-0.04268956184387207,-0.12160184979438782,0.5890882611274719,0.11312093585729599,-0.09924837201833725,1.9567873444182515,-0.6522290124541282,1.6464555123707751
1687086985.427532,0.7379240393638611,0.6171968579292297,0.2730121612548828,0.4343627691268921,-0.16643714904785156,-0.1426411271095276,0.7343947887420654,-0.4388579726219177,0.013662740588188171,1.925152727894066,-0.6651750221611277,1.6176742951549654
1687086985.5767689,0.7484784722328186,0.6207200884819031,0.23342379927635193,0.6204791069030762,-0.25894951820373535,-0.20034274458885193,0.4026342034339905,-0.4983255863189697,0.24542991816997528,1.873102048986992,-0.6696608128019682,1.568442396042534
1687086985.5833058,0.7605383992195129,0.6213581562042236,0.18840128183364868,0.5385794639587402,-0.23012292385101318,0.023497551679611206,0.8207321763038635,-0.8098719120025635,-0.023252934217453003,1.8136288281154098,-0.670474882161589,1.5365244726851188
1687086985.588074,0.7541534304618835,0.6453232765197754,0.12169767916202545,0.3977782726287842,-0.20187246799468994,0.07532382011413574,1.4947160482406616,-0.6450406312942505,-0.854886531829834,1.730787030047082,-0.7014464260625765,1.462875468713196
1687086985.668364,0.7103569507598877,0.7013913989067078,0.058676015585660934,0.17755192518234253,-0.21100455522537231,0.05443739518523216,0.6309607028961182,-0.017364364117383957,-1.9329625368118286,1.6532099807622174,-0.7773477123012142,1.3729848408997687
1687086985.6859279,0.6161629557609558,0.7868935465812683,0.03378525376319885,-0.001386404037475586,-0.10923564434051514,0.19323492050170898,1.9109829664230347,0.3841365575790405,-2.9726736545562744,1.6255731586506903,-0.9057587137046497,1.316195836274719
1687086985.688762,0.46620285511016846,0.8840858936309814,-0.03235814347863197,-0.4068155884742737,-0.14202046394348145,0.011301036924123764,1.334563136100769,0.6305708885192871,-4.402655601501465,1.5014995957633657,-1.084534354722798,1.1323931859916725
1687086985.753199,0.24156710505485535,0.968521773815155,-0.06009052321314812,-0.9391378164291382,-0.0766456127166748,-0.06210184097290039,1.0708235502243042,0.4544408321380615,-4.552405834197998,1.3269917353751308,-1.31922221355707,0.9393151003092064
1687086985.767521,0.0707525908946991,0.9939521551132202,-0.08398152887821198,-1.4712042808532715,0.17207854986190796,0.3374910354614258,-0.3569258451461792,2.7236101627349854,-2.325237512588501,0.7001109140880304,-1.4607606219649083,0.18745084179297913
1687086985.878292,0.07035668939352036,0.9963344931602478,-0.04865366220474243,0.7033401727676392,0.05794084072113037,-0.18294423818588257,0.7329717874526978,-1.3495618104934692,0.7038291692733765,0.9657785366261353,-1.485148972516008,0.4225222060577554
1687086986.001041,0.09133841097354889,0.9914535880088806,-0.09315045177936554,-0.2179863452911377,-0.3100724220275879,0.020579636096954346,-0.16097496449947357,-0.2071424424648285,0.09461122006177902,0.775576539525912,-1.4399635869130822,0.24975083779223453
1687086986.018785,0.07835092395544052,0.9944746494293213,-0.06986378133296967,-0.11338505893945694,0.007112085819244385,-0.06897591799497604,0.0336809940636158,0.10561845451593399,-0.1883140653371811,0.8425981948102396,-1.4656256396948497,0.3087665356473428
1687086986.021661,0.07508014887571335,0.9953148365020752,-0.06092057377099991,0.03685835748910904,-0.011641740798950195,-0.0425645187497139,-0.11891573667526245,0.09276660531759262,0.030250025913119316,0.8891383648040144,-1.4739581632336187,0.3542075449319088
1687086986.0518541,0.0793367549777031,0.9949412941932678,-0.06162314489483833,0.07013833522796631,0.023033499717712402,-0.0065836310386657715,-0.1741759479045868,0.001578357769176364,-0.03724145144224167,0.9104070914635983,-1.470168236086778,0.3787631233123282
1687086986.0547209,0.07227248698472977,0.9961074590682983,-0.05045989900827408,0.027184300124645233,-0.02918875217437744,-0.01443576067686081,0.0557747446000576,-0.19113662838935852,-0.047286950051784515,0.9612864332477296,-1.4825346824596233,0.4274361288124992
1687086986.178175,0.07262390106916428,0.9961561560630798,-0.048975035548210144,-0.0434032678604126,-0.06286764144897461,0.05527698993682861,-0.4126881957054138,-0.02784675732254982,-0.024887049570679665,0.9774828646932755,-1.4830886313206526,0.45040630806472987
1687086986.184608,0.08176331222057343,0.9963613152503967,-0.024058040231466293,-0.034140586853027344,0.0687326192855835,-0.04616284370422363,-0.480241984128952,-0.5434011816978455,0.6555646657943726,1.2846322476244267,-1.4854626749720412,0.7711838139394691
1687086986.266045,0.1484934687614441,0.9888259172439575,-0.013153974898159504,-0.19065344333648682,0.1837661862373352,-0.1188955307006836,-0.3095959722995758,-1.1881440877914429,2.0857961177825928,1.482444088692289,-1.4211636398866223,1.0103156360913126
1687086986.2849789,0.2842465937137604,0.9586869478225708,-0.011090793646872044,-0.596990704536438,0.17055487632751465,-0.18013238906860352,-0.16306406259536743,-1.1655548810958862,3.2805206775665283,1.5317978982305542,-1.2823498527189747,1.1280244626601956
1687086986.3855228,0.4404524862766266,0.8976652026176453,-0.014104926027357578,-0.7078627347946167,0.08300191164016724,-0.008981587365269661,-0.33219072222709656,-0.8250484466552734,3.309481620788574,1.538783549382443,-1.1144424170308906,1.1836438680503882
1687086986.4035048,0.5740429162979126,0.8177366256713867,-0.04220636188983917,-0.6532818675041199,0.05030524730682373,0.07926994562149048,0.5267517566680908,-0.9254292845726013,2.819995880126953,1.4974036431792819,-0.957467705064782,1.1966467601399684
1687086986.472752,0.6699694991111755,0.7397943735122681,-0.06200950965285301,-0.5496997237205505,-0.10647839307785034,0.21851897239685059,-0.16345970332622528,-0.18539707362651825,1.9627407789230347,1.4785035504944346,-0.8327646658475168,1.1952286883219234
1687086986.477213,0.7248613238334656,0.6877750754356384,-0.03925991430878639,-0.41312432289123535,-0.08911186456680298,0.1845388412475586,-0.6539426445960999,0.42538073658943176,0.9632883071899414,1.5166872308203232,-0.7584196299377401,1.2492759078735705
1687086986.571404,0.7322143316268921,0.6810412406921387,0.006708842236548662,-0.11855161190032959,0.015568256378173828,0.18394970893859863,0.13411276042461395,1.5210614204406738,-0.6735138893127441,1.5799584723491926,-0.7491836505129152,1.2677790448691826
1687086986.589758,0.6780236959457397,0.7306931614875793,0.07982024550437927,0.5739904642105103,-0.1766619086265564,0.19828641414642334,-0.8827599883079529,1.5900095701217651,-2.1268813610076904,1.687981815026733,-0.8193367319399886,1.294077186500825
1687086986.652226,0.5849839448928833,0.7918376326560974,0.17546160519123077,1.1355969905853271,-0.30035215616226196,0.1059868186712265,-2.237849235534668,0.3363756537437439,-2.160271167755127,1.8622004646487238,-0.913812024007977,1.4493978709387032
1687086986.6664538,0.5340003967285156,0.8196600675582886,0.20736727118492126,1.0425529479980469,0.0693170428276062,-0.33706697821617126,0.6930200457572937,-0.5933927893638611,-0.2319873869419098,1.9412002697195998,-0.9608173210106833,1.5522655711858373
1687086986.7112288,0.5650859475135803,0.8137279748916626,0.13610531389713287,0.547081470489502,-0.01853156089782715,-0.18088984489440918,0.540030300617218,-1.461073398590088,0.9121676087379456,1.8071521574629106,-0.9505374190899708,1.4628488217166775
1687086986.808814,0.6096476316452026,0.7864222526550293,0.09934727102518082,-0.12972813844680786,0.1820530891418457,0.03961445391178131,0.20344850420951843,-0.14027529954910278,0.8828445076942444,1.7323349075927819,-0.9049952967081659,1.4200048233433025
1687086986.813857,0.6358119249343872,0.7641940116882324,0.10840081423521042,-0.2624903917312622,0.04786336421966553,0.13059759140014648,-0.33670875430107117,-0.015172373503446579,0.5295416116714478,1.7396645708130125,-0.8697908080239282,1.4276801319169947
1687086986.92725,0.6496798396110535,0.7517428398132324,0.11313167214393616,-0.26172512769699097,0.0487789511680603,-0.01101982593536377,0.16599245369434357,0.42006999254226685,0.1567649394273758,1.7432020920296174,-0.8507009134843471,1.419901478672277
1687086986.9337912,0.6474851965904236,0.7522069811820984,0.12226057052612305,-0.02562844753265381,-0.06432551145553589,-0.03906963765621185,-0.09379613399505615,0.11950242519378662,-0.0747639536857605,1.7574227485876404,-0.8514050490459126,1.4192217442737265
1687086987.046052,0.6432484984397888,0.7545891404151917,0.12971718609333038,-0.02065938711166382,0.0292699933052063,-0.08342207968235016,0.2245820164680481,0.4490003287792206,-0.04360981658101082,1.7697870886348996,-0.8550277458277596,1.4145179034315345
1687086987.0507941,0.6377532482147217,0.758867621421814,0.1318742334842682,0.034961044788360596,-0.03848487138748169,-0.0889817327260971,0.3561195731163025,0.3708295226097107,-0.18520981073379517,1.7747019565618753,-0.8615725526599565,1.3959247490464788
1687086987.137504,0.616722822189331,0.7756936550140381,0.13398663699626923,-0.08934849500656128,-0.2093636393547058,-0.37881386280059814,0.49439510703086853,1.182711124420166,-0.7311626672744751,1.7847276694124627,-0.8878134728332387,1.3633975326053607
1687086987.156167,0.551798939704895,0.815322756767273,0.17540323734283447,-0.14229893684387207,-0.5225372910499573,-0.42695966362953186,-0.18787063658237457,2.0336227416992188,-1.962538242340088,1.8785707398370435,-0.953286382245645,1.3780780440651432
1687086987.256973,0.41219550371170044,0.8665856122970581,0.2812899053096771,-0.2672218382358551,-0.7177667617797852,-0.2948855459690094,-2.056419610977173,2.5933806896209717,-3.303607702255249,2.169624996057231,-1.04831905799738,1.58568628354177
1687086987.26271,0.18587994575500488,0.8845851421356201,0.42773565649986267,-0.5216343402862549,-0.4798457622528076,-0.3731396794319153,-1.8241528272628784,4.522645473480225,-4.095978260040283,2.7316463743796344,-1.0856037374468728,2.025653466597851
1687086987.350308,-0.12278717011213303,0.8454508185386658,0.5197461247444153,-0.4052889943122864,-0.3721690773963928,-0.24261599779129028,-2.1821024417877197,5.439464092254639,-4.411705493927002,-2.9096016291988294,-1.0074087337113369,2.472988431097333
1687086987.368861,-0.4546511769294739,0.7182111740112305,0.5267491936683655,-0.5200954079627991,-0.3191481828689575,-0.04873710870742798,-2.202393054962158,6.461544990539551,-4.276795864105225,-2.429527150183478,-0.8012280633262738,2.7038903957785463
1687086987.371764,-0.7606384754180908,0.5589403510093689,0.33017364144325256,-1.1082427501678467,0.22313350439071655,0.18845725059509277,0.7383853197097778,7.734228134155273,-5.064516544342041,-1.980327838322155,-0.5931073531168921,2.84288362450793
1687086987.402636,-0.9387252330780029,0.3440994620323181,-0.019753167405724525,-2.336176872253418,0.5749525427818298,0.8943105936050415,0.2786525785923004,6.860380172729492,-4.250597953796387,-1.549756888048043,-0.35127950904085486,2.955377791952482
1687086987.461879,-0.9589155912399292,0.28063327074050903,-0.04154284670948982,0.5439070463180542,-0.3883451819419861,0.8078544735908508,-3.9777424335479736,-0.22042784094810486,0.2286948412656784,-1.5275006629324028,-0.2844538252177821,2.70438598520834
1687086987.5871968,-0.9644783735275269,0.2576886713504791,-0.05812077596783638,0.8203744292259216,1.0814988613128662,0.16018682718276978,2.65677547454834,-0.1940063238143921,-0.07271929085254669,-1.5106077537862683,-0.2606293285273256,2.814305047858817
1687086987.605447,-0.9715307354927063,0.21123000979423523,-0.10728291422128677,-0.40560537576675415,-0.11113248765468597,0.5196211338043213,-2.4664430618286133,1.3811081647872925,-0.9201645255088806,-1.460815237456174,-0.2128332005778109,2.724427269407954
1687086987.7717419,-0.9703490734100342,0.20533202588558197,-0.12752024829387665,0.23736268281936646,0.8239189386367798,0.23474371433258057,1.2189314365386963,-0.242926687002182,0.3388601541519165,-1.4401282437968306,-0.20680294244392103,2.712678329405083
1687086987.7903981,-0.967254102230072,0.22128474712371826,-0.12430904060602188,-0.059128403663635254,0.20222285389900208,0.20515011250972748,0.41629934310913086,-0.06462720036506653,0.37487244606018066,-1.4429795026574541,-0.22313168191548577,2.773572246248437
1687086987.885067,-0.9639175534248352,0.23894596099853516,-0.11733613908290863,-0.0630599856376648,-0.05391794443130493,0.13206082582473755,-0.39084362983703613,-0.04897357523441315,0.3105306923389435,-1.4496638878198214,-0.24128021775883476,2.7472385247044637
1687086987.902518,-0.9600143432617188,0.2578366696834564,-0.109053835272789,0.12319183349609375,-0.0945676863193512,0.022750064730644226,-0.011994946748018265,-0.3371334671974182,0.3638075590133667,-1.4576851490511609,-0.2607824875103811,2.7546745514888147
1687086987.9057531,-0.9582042098045349,0.27074214816093445,-0.09242958575487137,-0.011766433715820312,-0.2137964367866516,0.009955763816833496,-0.2463103085756302,-0.2881787419319153,0.1624332070350647,-1.4746325946789236,-0.27416388318188,2.747491467683491
1687086987.908596,-0.9579470157623291,0.2778477668762207,-0.07168206572532654,-0.01269519329071045,-0.10174617171287537,0.030254416167736053,-0.28136953711509705,-0.39700159430503845,0.11924546211957932,-1.49610667887748,-0.28155293777662577,2.733493497496255
1687086987.971044,-0.955542802810669,0.29254183173179626,-0.03684099391102791,-0.018563032150268555,0.06922870874404907,0.17020279169082642,0.2974611520767212,-1.1854947805404663,0.5501218438148499,-1.5322603692955956,-0.2968838684031865,2.7329549391573584
1687086987.9851809,-0.943922221660614,0.3291800320148468,0.02552025206387043,-0.02647566795349121,0.14947283267974854,0.29734039306640625,3.2748541831970215,-2.411992073059082,0.8695806264877319,-1.5978261361670776,-0.3354350665456949,2.8052246390004725
1687086988.061979,-0.9220777153968811,0.3845849931240082,0.043206602334976196,-0.14155131578445435,0.30207571387290955,0.07663595676422119,8.522796630859375,-2.586209774017334,0.808874785900116,-1.6176199512806442,-0.3947581889032886,3.1297282712192156
1687086988.0657248,-0.90045166015625,0.43403562903404236,-0.028280308470129967,-0.11869806051254272,0.018524765968322754,0.1832333207130432,6.941242694854736,-1.9256694316864014,1.2603940963745117,-1.539399842929738,-0.4489675282723726,-2.6931576576322294
1687086988.219493,-0.865141749382019,0.49887531995773315,-0.05150838568806648,0.02157491445541382,-0.16511982679367065,-0.05914837121963501,2.4109926223754883,-1.185462236404419,1.9118212461471558,-1.5113290144807616,-0.522300598287025,-2.4426702711301265
1687086988.238536,-0.8213814496994019,0.5680226683616638,-0.0517956018447876,0.013092875480651855,-0.17297261953353882,0.0865093395113945,0.6629442572593689,-1.0839612483978271,1.4402645826339722,-1.5078205831828855,-0.6041012893668847,-2.352431996447256
1687086988.343616,-0.7922428846359253,0.609807014465332,-0.022061316296458244,-0.025490939617156982,-0.23679065704345703,0.006604192778468132,1.103528618812561,-1.0910987854003906,0.6489342451095581,-1.5429568644548528,-0.6558171005325275,-2.306708127708244
1687086988.348565,-0.7852337956428528,0.6183051466941833,-0.033263396471738815,-0.008818209171295166,-0.2741889953613281,-0.10572892427444458,2.2561943531036377,-1.161421537399292,-0.05174843594431877,-1.5284605014100798,-0.666584366997637,-2.195463342386423
1687086988.352263,-0.798762857913971,0.5982934236526489,-0.06342560797929764,0.009578347206115723,-0.2781946063041687,-0.15891021490097046,2.0852367877960205,-1.039128303527832,-0.7202500700950623,-1.4915577848096888,-0.6413696224503529,-2.048063111197545
1687086988.424172,-0.8267278671264648,0.5587140917778015,-0.06602704524993896,0.02641969919204712,-0.2925397753715515,-0.11752092838287354,0.5719602108001709,-0.41386717557907104,-0.9997168779373169,-1.4910999721475986,-0.5928345279941793,-1.97618371604669
1687086988.429181,-0.8574041724205017,0.5081362724304199,-0.08158081769943237,0.09078747034072876,-0.12678861618041992,-0.03495055437088013,0.8266136050224304,-0.0791507437825203,-1.2644275426864624,-1.4759333006521105,-0.5330194803731967,-1.9413753904977322
1687086988.5151439,-0.8945550918579102,0.4376758933067322,-0.09061475843191147,-0.17845815420150757,-0.10834544897079468,0.12110185623168945,-0.10736946761608124,0.10884791612625122,-1.8392258882522583,-1.4698447789630895,-0.4530122140974066,-1.9256945711256757
1687086988.535304,-0.9322755932807922,0.35081422328948975,-0.08827070146799088,-0.23198527097702026,0.07702702283859253,0.12844711542129517,-1.2358405590057373,0.23695288598537445,-1.883102536201477,-1.4763946999626367,-0.3584404523510285,-1.9717010896609364
1687086988.6018329,-0.9561530947685242,0.2827286124229431,-0.07639192044734955,-0.14569926261901855,0.21232753992080688,0.003805875778198242,-1.3008939027786255,0.1932383030653,-1.2153373956680298,-1.4910706008409882,-0.2866375952448236,-2.0560221740608955
1687086988.61679,-0.9675610065460205,0.24339278042316437,-0.06771618127822876,-0.10835134983062744,0.22213761508464813,0.022916443645954132,-0.4541645050048828,-0.06818228960037231,-0.577532172203064,-1.5009237846363737,-0.24586229918343258,-2.10313747826827
1687086988.662626,-0.9721479415893555,0.2265131175518036,-0.060166966170072556,-0.013997018337249756,0.2365606427192688,0.040712058544158936,0.41368621587753296,-0.23745965957641602,-0.13360808789730072,-1.5089844177950409,-0.22849624718300698,-2.1054622468734228
1687086988.754112,-0.9730556011199951,0.22446991503238678,-0.05268607661128044,0.07667815685272217,0.17675994336605072,0.06045282259583473,0.38017362356185913,-0.22504951059818268,0.048550255596637726,-1.516704163948634,-0.22639903806028858,-2.0791926065093884
1687086988.771838,-0.97242271900177,0.22898437082767487,-0.04427419975399971,0.1689864993095398,0.13974428176879883,0.040306925773620605,0.2391025573015213,-0.3010329604148865,0.18156881630420685,-1.5252979603945571,-0.23103419615453338,-2.066019547546277
1687086988.811252,-0.970395028591156,0.23892751336097717,-0.03531147912144661,0.09965240955352783,0.12728340923786163,0.018038515001535416,-0.1504151076078415,-0.07399505376815796,0.27074870467185974,-1.5344236083625646,-0.24126123279945275,-2.059207342940639
