Timestamp,gravityX,gravityY,gravityZ,accelerationX,accelerationY,accelerationZ,rotationRateX,rotationRateY,rotationRateZ,attitudeRoll,attitudePitch,attitudeYaw
1687086933.404418,-0.9005075693130493,0.3842501938343048,0.20356234908103943,0.003519773483276367,0.005062460899353027,0.015614867210388184,0.12338267266750336,0.03806910291314125,-0.024411514401435852,-1.7931127078998965,-0.3943955372770848,2.904109535117134
1687086933.410445,-0.9006296396255493,0.3847613036632538,0.20205247402191162,0.013864994049072266,-0.003718852996826172,0.025334030389785767,0.08149412274360657,0.01858220435678959,-0.010565368458628654,-1.7914880109282696,-0.39494919731701994,2.9092366797751636
1687086933.496258,-0.9004918932914734,0.38503044843673706,0.2021532654762268,0.009286999702453613,-0.0066429972648620605,0.026133447885513306,0.07712642103433609,-0.016259418800473213,-0.01787760853767395,-1.7916272404575386,-0.39524081339839157,2.91283488991887
1687086933.514164,-0.8996252417564392,0.38517701625823975,0.20570166409015656,0.006070494651794434,-0.0005030035972595215,0.0363180935382843,0.03207169473171234,-0.06638824939727783,-0.006707991473376751,-1.7955846437195278,-0.39539962632541215,2.915166435586752
1687086933.55178,-0.8985897898674011,0.38469716906547546,0.2110552191734314,0.0025022029876708984,-0.012459129095077515,0.019382953643798828,0.03121103160083294,-0.11234554648399353,-0.013888726942241192,-1.801488707053901,-0.39487972404922317,2.91623029960787
1687086933.644363,-0.897026002407074,0.38437607884407043,0.2181720733642578,-0.0027846693992614746,-0.012519508600234985,0.0024242252111434937,0.03466338291764259,-0.14561180770397186,-0.011113179847598076,-1.809380977827317,-0.39453188922101096,2.917704523849927
1687086933.6617231,-0.8957348465919495,0.3836338222026825,0.2246861308813095,-0.0026567578315734863,-0.018430083990097046,-0.022781863808631897,0.012217364273965359,-0.12876686453819275,-0.012927591800689697,-1.8165654312920785,-0.39372800786517803,2.9180079650693984
1687086933.702394,-0.8948224186897278,0.38285115361213684,0.22960326075553894,-0.011213898658752441,-0.013039261102676392,-0.03313112258911133,-0.026311103254556656,-0.1062094122171402,-0.015599008649587631,-1.8219684804475407,-0.3928806435517397,2.9184717008525656
1687086933.854927,-0.8949773907661438,0.3814651668071747,0.23130013048648834,-0.016231656074523926,-0.0029099583625793457,-0.04073309898376465,0.002891906537115574,-0.09736005961894989,-0.019919030368328094,-1.823704889592255,-0.39138079634502854,2.9192197263493442
1687086933.861034,-0.8953266739845276,0.38076576590538025,0.23110076785087585,-0.019529223442077637,-0.0010814070701599121,-0.05130648612976074,-0.005228504538536072,-0.0792669951915741,-0.008110838942229748,-1.8234016195525644,-0.39062431592786856,2.9212444793397294
1687086933.95006,-0.8965761661529541,0.37982162833213806,0.2277863323688507,-0.0171506404876709,0.003280729055404663,-0.06041273474693298,-0.022480012848973274,0.018794914707541466,-0.023496825248003006,-1.819594785161677,-0.38960347364807324,2.923063890163584
1687086933.968077,-0.8992169499397278,0.3781496584415436,0.2200254648923874,0.0016798973083496094,0.008538424968719482,-0.04509881138801575,0.01591198518872261,0.09605998545885086,-0.03210405632853508,-1.8107670036057957,-0.38779671532145216,2.92481185570421
1687086933.971284,-0.9020912051200867,0.3771427571773529,0.2097490429878235,-0.0010764598846435547,0.0014277100563049316,-0.02151656150817871,0.010363521054387093,0.15166649222373962,-0.018845882266759872,-1.7992513117267643,-0.38670930362068157,2.9272934249943408
1687086934.0012279,-0.9045271873474121,0.376661479473114,0.19989076256752014,-0.0062697529792785645,0.0061203837394714355,0.005080550909042358,-0.0006904444890096784,0.15978553891181946,-0.018706437200307846,-1.7882899929676626,-0.3861896873164,2.928916459014109
1687086934.093687,-0.9062610864639282,0.3764028251171112,0.192384272813797,-0.002338707447052002,0.0042123496532440186,0.03355264663696289,0.027027569711208344,0.14600135385990143,-0.011320959776639938,-1.779974553005911,-0.38591048417713114,2.9294229364511915
1687086934.098442,-0.9077136516571045,0.37579047679901123,0.18664678931236267,0.013762414455413818,-0.0029573440551757812,0.03770314157009125,0.04306863993406296,0.12254314124584198,-0.02810009941458702,-1.7735927158268463,-0.38524961588603146,2.931106449591523
1687086934.153152,-0.9084759950637817,0.37512364983558655,0.18426445126533508,0.015516519546508789,-0.0032671093940734863,0.04136727750301361,0.061399225145578384,0.07617422193288803,-0.030967790633440018,-1.7709097185541143,-0.38453017454849286,2.9334519494119027
1687086934.27664,-0.9087335467338562,0.3739953637123108,0.18528509140014648,0.001827538013458252,-0.009005218744277954,0.04228447377681732,0.03721844032406807,0.008596262894570827,-0.027250444516539574,-1.7719330483852154,-0.38331329551601284,2.9342303085701253
1687086934.282032,-0.9078024625778198,0.37355729937553406,0.19065584242343903,-0.003299891948699951,-0.004920274019241333,0.030672937631607056,0.010510262101888657,-0.04773476719856262,-0.012045498937368393,-1.777806810034919,-0.38284098271972883,2.9338353059994504
1687086934.366493,-0.9063764214515686,0.37312886118888855,0.19813306629657745,0.005390644073486328,-0.001974165439605713,0.018022924661636353,-0.015257302671670914,-0.08845079690217972,-0.0029974631033837795,-1.7860100202727016,-0.38237916665825117,2.9316845840792096
1687086934.383078,-0.9051940441131592,0.3726120889186859,0.20441223680973053,-0.007602214813232422,0.005912691354751587,-0.010320380330085754,-0.03066328912973404,-0.08718399703502655,0.00024168659001588821,-1.7928925094060366,-0.38182223550850897,2.9304570316456777
1687086934.51902,-0.9039242267608643,0.3726430833339691,0.20989924669265747,-0.009100496768951416,0.014655381441116333,-0.02830447256565094,-0.030796514824032784,-0.0962311401963234,0.021847112104296684,-1.798961608295226,-0.3818556411906878,2.9284453586079904
1687086934.536391,-0.902885913848877,0.3737684488296509,0.2123533934354782,-0.0060343146324157715,0.013301193714141846,-0.03913569450378418,-0.04796981066465378,-0.05436301603913307,0.029196584597229958,-1.8017921665347287,-0.3830686165360827,2.9272319621553207
1687086934.6081738,-0.902260422706604,0.3750822842121124,0.21269440650939941,-0.0028601884841918945,0.011285334825515747,-0.043428704142570496,-0.07835891842842102,-0.04068697988986969,0.04808569699525833,-1.802304761611559,-0.3844855479147612,2.9244764124212184
1687086934.6129742,-0.903680145740509,0.3752826750278473,0.2062167525291443,-0.08403670787811279,0.03173026442527771,-0.05253024399280548,0.2822682857513428,0.15222029387950897,-0.09048901498317719,-1.795151262175266,-0.3847017231803951,2.930561183906156
1687086934.6172729,-0.9082516431808472,0.37284329533576965,0.1899116039276123,0.060168325901031494,-0.001215606927871704,0.0025780051946640015,0.05527488887310028,0.24196836352348328,-0.08475261926651001,-1.7769223451539364,-0.38207138893728493,2.9447182450398977
1687086934.696391,-0.9123498201370239,0.36968812346458435,0.1759214997291565,0.0189325213432312,0.005433887243270874,-0.015292167663574219,0.2862773537635803,0.19083471596240997,-0.09385013580322266,-1.761280935896124,-0.37867333235072975,2.9523662803718804
1687086934.7119231,-0.9148660898208618,0.36790531873703003,0.16632919013500214,-0.021855592727661133,-0.027786999940872192,0.02561114728450775,-0.05593710392713547,0.11557997018098831,-0.019613351672887802,-1.7506391392457785,-0.37675533365116265,2.9607452237742664
1687086934.75124,-0.9158464074134827,0.367686927318573,0.16134290397167206,-0.004762053489685059,0.011188685894012451,-0.008739709854125977,0.21856071054935455,0.06905034184455872,-0.03452097997069359,-1.7451751421481796,-0.37652047320900905,2.963406978790533
1687086934.844462,-0.9172226786613464,0.3665534555912018,0.1560160368680954,0.007814109325408936,-0.026313066482543945,-0.002100706100463867,0.16434961557388306,0.11802227795124054,-0.05515589937567711,-1.7392799319985293,-0.37530191879386754,2.9739614853243266
1687086934.861318,-0.9185498952865601,0.36597907543182373,0.14941652119159698,0.008561551570892334,-0.02227500081062317,-0.0024743229150772095,0.032173946499824524,0.11136879026889801,-0.015465211123228073,-1.732049626230246,-0.37468465305732757,2.978614231198602
1687086934.901493,-0.9192788004875183,0.36541739106178284,0.1462753564119339,-0.005266427993774414,-0.0141143798828125,-0.0011948347091674805,-0.03443983569741249,0.08947829157114029,-0.00040647340938448906,-1.7285931365112936,-0.37408115956097016,2.978557373209645
1687086934.9962912,-0.9192514419555664,0.365821897983551,0.14543472230434418,0.00842374563217163,0.0004347860813140869,-0.004245147109031677,-0.05525021255016327,0.03344043716788292,0.055338069796562195,-1.727705731663372,-0.37451576448353335,2.9741711440431287
1687086935.013725,-0.9179763197898865,0.36892908811569214,0.14563816785812378,0.0162431001663208,0.011823385953903198,-0.011345639824867249,-0.04075523838400841,-0.015475954860448837,0.10297706723213196,-1.7281363090696775,-0.3778565559435835,2.9719718143351117
1687086935.084566,-0.9160067439079285,0.3734952211380005,0.14639891684055328,-0.011559665203094482,0.009378165006637573,-0.016836538910865784,-0.12026895582675934,0.03939385712146759,0.11044931411743164,-1.729278974114269,-0.3827740737757874,2.9661809647795585
1687086935.176842,-0.9154589176177979,0.3762877881526947,0.14262674748897552,-0.018394172191619873,0.013055384159088135,0.0012331008911132812,-0.11959713697433472,0.15125532448291779,0.04610680416226387,-1.7253518885387062,-0.3857863439437965,2.959463285650591
1687086935.181117,-0.9162999391555786,0.37678343057632446,0.13575205206871033,0.011423230171203613,0.010637134313583374,0.026326775550842285,-0.12182675302028656,0.17578980326652527,0.02831827476620674,-1.7178788608313655,-0.3863213582847834,2.9524451479194727
1687086935.2648602,-0.9166072010993958,0.3774603009223938,0.13173724710941315,0.024670004844665527,0.00967031717300415,0.030417919158935547,-0.08335380256175995,0.12751133739948273,0.02183970995247364,-1.7135415149010904,-0.38705218572379135,2.9465214339482397
1687086935.280673,-0.9159573912620544,0.37886345386505127,0.13222761452198029,0.00874626636505127,0.009197920560836792,0.041005343198776245,-0.08331131935119629,0.07336702197790146,0.0546252466738224,-1.7141658723874498,-0.3885678928680795,2.940961221386294
1687086935.355835,-0.9146316051483154,0.3812488317489624,0.1345297396183014,0.003651440143585205,0.0006175637245178223,0.020453810691833496,0.02714494802057743,0.032393526285886765,0.036207519471645355,-1.7168354327434772,-0.3911467853734899,2.936415161523219
1687086935.3609529,-0.9134942889213562,0.38281065225601196,0.13778243958950043,0.0007135868072509766,-0.007230937480926514,0.02446424961090088,-0.15073540806770325,0.04149583354592323,0.049542441964149475,-1.7204980199505173,-0.3928367856997577,2.9335907606701084
1687086935.446032,-0.9136096835136414,0.3829095959663391,0.1367378830909729,0.006093382835388184,0.007318556308746338,-0.011081710457801819,0.020818375051021576,0.1087178960442543,-0.029406007379293442,-1.719361295427023,-0.3929438855231199,2.92947434951019
1687086935.463262,-0.9146213531494141,0.3811349868774414,0.1349213421344757,0.011499464511871338,-0.01240643858909607,0.01755976676940918,-0.03444972261786461,0.09002929925918579,-0.024598149582743645,-1.71725610895491,-0.3910236306311242,2.92761661633015
1687086935.503326,-0.9153438210487366,0.3799119293689728,0.13346301019191742,-0.016907036304473877,-0.009306579828262329,-0.0009557157754898071,0.01895727589726448,-0.006580711808055639,-0.017004093155264854,-1.715582467779319,-0.3897010876856034,2.9268815616801054
1687086935.630446,-0.9144060611724854,0.38019049167633057,0.13898321986198425,-0.0006328225135803223,-0.019961178302764893,-0.0032563507556915283,-0.1465604454278946,-0.08994971960783005,0.057655178010463715,-1.7216347422526768,-0.39000225802849725,2.9226850689150816
1687086935.645576,-0.9128533005714417,0.3815594017505646,0.14529716968536377,-0.00668710470199585,-0.007749676704406738,-0.03103935718536377,-0.1557607352733612,-0.07414989918470383,0.05558622255921364,-1.7286403938813375,-0.39148273982441845,2.91464173310181
1687086935.714786,-0.9111261367797852,0.3837442696094513,0.15029655396938324,0.026910006999969482,0.021193325519561768,-0.04076899588108063,-0.43498241901397705,-0.004054950550198555,0.15148691833019257,-1.7342810047621535,-0.3938475819432121,2.899857680019548
1687086935.7294831,-0.9078254103660583,0.3897204101085663,0.15482483804225922,-0.0048331618309021,0.11540648341178894,-0.042489662766456604,-0.038154661655426025,-0.1286110281944275,0.19308751821517944,-1.7397158645965076,-0.40032796876149934,2.884899551598473
1687086935.804235,-0.9029870629310608,0.400682657957077,0.1551373451948166,-0.041516661643981934,0.13393941521644592,-0.0385143905878067,0.6875641345977783,-0.2267356812953949,0.2085804045200348,-1.7409398829235014,-0.41226181718644017,2.901210379488848
1687086935.8090081,-0.8957388401031494,0.4191380441188812,0.1482408046722412,0.007600963115692139,0.09464064240455627,-0.03820966184139252,1.254701018333435,-0.32002970576286316,0.24777111411094666,-1.7348053263671845,-0.4324957322239514,2.9464566348311663
1687086935.927391,-0.893251359462738,0.43743038177490234,0.10371390730142593,-0.03654289245605469,0.2130211889743805,-0.1141204833984375,5.356916904449463,-0.6526921391487122,-0.25194409489631653,-1.686387064682881,-0.4527391792337318,3.111119568783669
1687086935.942622,-0.8977185487747192,0.4397774040699005,-0.02640049159526825,0.005811929702758789,0.2753256857395172,-0.021054325625300407,9.535102844238281,-1.1830240488052368,-0.23699951171875,-1.5413963725124853,-0.4553507951398636,-2.745427926366471
1687086936.0159411,-0.9098355174064636,0.37779501080513,-0.17166851460933685,-0.051971614360809326,0.2646610140800476,0.35721540451049805,11.07669734954834,-2.278292417526245,0.13673816621303558,-1.3843078994539397,-0.38741364689582586,-2.169697068045427
1687086936.030847,-0.926400363445282,0.3034970462322235,-0.22287175059318542,-0.17517733573913574,0.08656340837478638,0.522554337978363,8.870624542236328,-2.9434878826141357,1.3391717672348022,-1.334704683975487,-0.30836066690891767,-1.622941712639583
1687086936.140411,-0.9319402575492859,0.30087170004844666,-0.20239417254924774,-0.42221611738204956,0.11761590838432312,0.37898409366607666,7.326991558074951,-2.9605066776275635,2.239467144012451,-1.3569421535009427,-0.30560657783574124,-1.201776514137584
1687086936.1455688,-0.9114157557487488,0.3711933493614197,-0.17758549749851227,-0.4296485185623169,0.4006115198135376,0.5861090421676636,5.630074501037598,-2.8105661869049072,3.4593493938446045,-1.378361634357433,-0.380293846349632,-0.8182818752689413
1687086936.224228,-0.8522635102272034,0.5014650225639343,-0.1489287167787552,-0.34352195262908936,0.09051501750946045,0.3889646530151367,1.5032193660736084,-1.9671802520751953,3.649531364440918,-1.39779817581318,-0.5252912991360407,-0.5738676243461753
1687086936.2292619,-0.7627870440483093,0.6434698700904846,-0.06404948979616165,0.05717498064041138,-0.3051519989967346,0.05489414930343628,-1.7238231897354126,-1.3394997119903564,3.3307087421417236,-1.4870251154964533,-0.699022690416919,-0.5810742181809447
1687086936.317572,-0.6591466665267944,0.7507634162902832,0.04335630685091019,0.13613659143447876,-0.2938085198402405,-0.19141244888305664,-2.5633962154388428,-0.6729872226715088,2.817234754562378,-1.636478125322774,-0.8492170129818737,-0.7152575126975236
1687086936.334074,-0.5553328990936279,0.8194910287857056,0.14156170189380646,0.044407784938812256,-0.14459478855133057,-0.3905395269393921,-1.7264636754989624,-0.15714386105537415,2.39694881439209,-1.820393834772205,-0.9605222954812833,-0.9258457286759998
1687086936.405167,-0.4671412408351898,0.8605935573577881,0.20287366211414337,-0.04222756624221802,-0.3156716823577881,-0.387154221534729,-1.4196985960006714,0.25971052050590515,1.7323025465011597,-1.980507304832054,-1.0364339743389044,-1.1241254659603084
1687086936.409988,-0.4019855856895447,0.8762724995613098,0.2656199634075165,-0.07959693670272827,-0.2557128667831421,-0.3433331251144409,-1.0333534479141235,0.31384411454200745,1.3005508184432983,-2.15470539978847,-1.0680705162059183,-1.343033729970919
1687086936.496906,-0.3603939414024353,0.8881711363792419,0.28507521748542786,-0.032077282667160034,-0.261172354221344,-0.3349715769290924,-0.4204651415348053,0.30605849623680115,0.8088747262954712,-2.2400314792220497,-1.0933497847557094,-1.4544237177429407
1687086936.513262,-0.3421548902988434,0.8982006907463074,0.27598094940185547,-0.09748125076293945,-0.12015509605407715,-0.21796715259552002,1.036638617515564,0.855331301689148,0.48390254378318787,-2.249546603502058,-1.1156590915056612,-1.5014195708184264
1687086936.551138,-0.33157193660736084,0.9305287003517151,0.15548689663410187,0.005796939134597778,0.22590434551239014,0.049026474356651306,2.8670573234558105,-0.0631333738565445,0.05454620346426964,-2.009287533759687,-1.1958538176748548,-1.2535282344290892
1687086936.6456928,-0.3289170265197754,0.9382108449935913,0.10758102685213089,-0.07679876685142517,-0.33841848373413086,0.6328668594360352,-0.5270830988883972,-0.0756041407585144,0.2142227292060852,-1.8869051820468539,-1.2174235497879913,-1.1135977947978584
1687086936.661756,-0.3176195025444031,0.9430173635482788,0.09917569905519485,0.014412224292755127,0.30132150650024414,-0.0958799198269844,0.9932558536529541,0.04412186145782471,0.23748816549777985,-1.8734505904965228,-1.2315849442920093,-1.0996912663093088
1687086936.701997,-0.308154821395874,0.9487491250038147,0.07011077553033829,-0.041896969079971313,-0.13040506839752197,0.11314713954925537,-0.06308802217245102,0.3993208408355713,0.18047776818275452,-1.7945061711976042,-1.2492539225281265,-1.0299483195512535
1687086936.799932,-0.3040754199028015,0.9494632482528687,0.07782967388629913,-0.04109349846839905,-0.020020008087158203,0.04964219778776169,-0.22991099953651428,0.3890664279460907,0.103427454829216,-1.8213719487275892,-1.2515213815282131,-1.0810596210766101
1687086936.81515,-0.30283990502357483,0.9494295120239258,0.08289400488138199,-0.04162713885307312,-0.026288092136383057,0.0133584663271904,-0.32656440138816833,0.3046090602874756,0.05229482054710388,-1.8379741808352317,-1.2514138738468168,-1.1141418628938478
1687086936.850894,-0.3014757037162781,0.949404776096344,0.08799190074205399,-0.005103737115859985,0.06498408317565918,-0.05871035158634186,-0.027819549664855003,0.08940421789884567,0.03218672797083855,-1.8547783875538668,-1.251335075719273,-1.142673960723614
1687086936.947526,-0.3016727864742279,0.9485358595848083,0.09629607200622559,-0.015191107988357544,-0.058078885078430176,-0.00425507128238678,-0.2912386357784271,0.04609069600701332,0.011731203645467758,-1.8797797801718579,-1.2485798616013175,-1.1729654038821165
1687086936.963624,-0.3019624948501587,0.9475533366203308,0.10469620674848557,-0.005807161331176758,0.012117624282836914,-0.03143882751464844,-0.17039430141448975,-0.09563659131526947,-0.05564507097005844,-1.9045454375390027,-1.2454915488183629,-1.198044204606536
1687086937.001117,-0.30469805002212524,0.9445787072181702,0.12218712270259857,-0.01646876335144043,-0.017760097980499268,0.027638770639896393,-0.3632541596889496,-0.06746269017457962,-0.081271231174469,-1.952173533856265,-1.2363089229218869,-1.2430424880444928
1687086937.093899,-0.30818992853164673,0.9418319463729858,0.1340581625699997,0.01787629723548889,0.00546419620513916,-0.030557870864868164,-0.3141748607158661,-0.08350231498479843,-0.08071766793727875,-1.981094309766527,-1.2280401617034726,-1.2715075839726353
1687086937.099296,-0.3183227479457855,0.9319865107536316,0.17341163754463196,-0.05620411038398743,-0.11632800102233887,0.058125123381614685,-1.2572898864746094,-0.08983922749757767,-0.39389485120773315,-2.069612794297987,-1.1998549478517186,-1.356935117154615
1687086937.1555228,-0.3405342996120453,0.9106902480125427,0.23383690416812897,-0.049724429845809937,-0.01676928997039795,-0.14986786246299744,-0.9301643967628479,0.3966095447540283,-0.407564252614975,-2.172524253868136,-1.144951995990912,-1.4753434784011275
1687086937.246807,-0.36005398631095886,0.9000822305679321,0.24538379907608032,0.08954626321792603,0.06732499599456787,-0.0502544641494751,-0.17294371128082275,0.23022188246250153,-0.2528712749481201,-2.169011289336536,-1.1199582169875437,-1.4884970227343832
1687086937.2630749,-0.36956411600112915,0.8920181393623352,0.2602422833442688,0.044918209314346313,0.06412816047668457,0.10053649544715881,-0.4432002305984497,-0.10276193171739578,-0.12168288975954056,-2.1843268670373326,-1.1017906567599112,-1.5110384511393906
1687086937.304459,-0.377456396818161,0.8795900940895081,0.28956538438796997,-0.09124776721000671,-0.03368854522705078,-0.03449949622154236,-0.7313958406448364,-0.2675335705280304,-0.4371519684791565,-2.2251829234707023,-1.0749999151213883,-1.5460732471741871
1687086937.396061,-0.4190513491630554,0.8516958355903625,0.3146584928035736,-0.25396791100502014,-0.10375583171844482,-0.41850998997688293,-0.8710708022117615,0.9517334699630737,-1.1561496257781982,-2.214862233745535,-1.019212897102017,-1.5582267721753942
1687086937.411752,-0.5038524270057678,0.807412326335907,0.30694958567619324,-0.12538939714431763,-0.272103488445282,-0.5708656311035156,-0.34037283062934875,2.047119379043579,-1.7747327089309692,-2.117956943847597,-0.9397528707066204,-1.5297778039916738
1687086937.4515362,-0.6228610277175903,0.7477670907974243,0.22997446358203888,-0.05310320854187012,-0.2014414668083191,-0.2590426206588745,0.6218725442886353,3.1912426948547363,-2.5443084239959717,-1.9244924358288502,-0.8446926537998285,-1.447200083069505
1687086937.546479,-0.7472173571586609,0.6571412682533264,0.09915268421173096,0.028070807456970215,-0.2771364450454712,-0.0465557724237442,-0.30492520332336426,3.6600053310394287,-2.9829485416412354,-1.7027215189412188,-0.7170198878135351,-1.3747803754238779
1687086937.5631561,-0.84244704246521,0.5387170314788818,-0.008179874159395695,-0.03755772113800049,-0.29680413007736206,0.24391287565231323,-2.526212453842163,3.9812800884246826,-2.9148802757263184,-1.5610869725404468,-0.5689135115863093,-1.4555438487672747
1687086937.600747,-0.8947665095329285,0.43155571818351746,-0.11468517035245895,-0.2904294729232788,0.19081982970237732,0.39126598834991455,-3.6159276962280273,4.094071388244629,-2.26770281791687,-1.443318088655089,-0.4462166584925897,-1.6411308666838753
1687086937.696926,-0.8953683376312256,0.38910579681396484,-0.21659210324287415,-0.40448206663131714,0.30126288533210754,0.824456512928009,-4.268139362335205,3.723999500274658,-1.1244581937789917,-1.3334529720423338,-0.39966067855757714,-1.8769849125636529
1687086937.7123919,-0.8592826128005981,0.41195404529571533,-0.3031952977180481,-0.33746421337127686,0.15622222423553467,0.3252442479133606,-3.739495038986206,3.1606009006500244,-0.22258703410625458,-1.2315874522191117,-0.42459750365780813,-2.0719480784910695
1687086937.751858,-0.821419358253479,0.4868244230747223,-0.2971062958240509,-0.15611964464187622,-0.4164051413536072,0.6241326928138733,-6.1645073890686035,2.040959119796753,-0.0641007125377655,-1.2237377751945988,-0.5084505832158259,-2.345586638332421
1687086937.846056,-0.8076115846633911,0.5487552285194397,-0.21594195067882538,-0.07846617698669434,-0.010257422924041748,0.3328548073768616,-3.789924383163452,0.9356490969657898,-0.41923782229423523,-1.3095248884200668,-0.5808745381612217,-2.6429384401147833
1687086937.862685,-0.8186086416244507,0.5482758283615112,-0.17109492421150208,0.003880918025970459,-0.09618842601776123,0.12914854288101196,-2.218461036682129,0.33928191661834717,-0.8868116736412048,-1.3647553994519972,-0.5803011376508873,-2.806373686532053
1687086937.900372,-0.844048261642456,0.5198881030082703,-0.13152487576007843,-0.07225722074508667,-0.05093979835510254,0.01963222026824951,-1.8513007164001465,0.3323526084423065,-1.0883864164352417,-1.416213270719335,-0.5467199223552475,-2.9366675089264436
1687086937.9968681,-0.8723118305206299,0.478984534740448,-0.09821274131536484,-0.04988354444503784,-0.11155298352241516,0.12049055844545364,-2.13676118850708,0.24593812227249146,-1.215671420097351,-1.4586794486057093,-0.49949753462264473,-3.0631299845041924
1687086938.012927,-0.8989888429641724,0.43193015456199646,-0.07249326258897781,-0.13812047243118286,0.208389550447464,-0.05609249323606491,-0.9969151616096497,0.15410999953746796,-1.1726841926574707,-1.4903317609739648,-0.44663175858535725,3.1299960446231543
1687086938.051913,-0.920412003993988,0.3872499167919159,-0.053656138479709625,-0.010053515434265137,0.13669103384017944,-0.0068144723773002625,-0.9985324144363403,-0.011789817363023758,-0.9499314427375793,-1.512566446700851,-0.39764688548555777,3.0677031771770173
1687086938.146415,-0.9354333877563477,0.35164737701416016,-0.036169834434986115,0.018929600715637207,0.2763737738132477,-0.11971396207809448,-0.7244008183479309,-0.08581768721342087,-0.6589282751083374,-1.5321491858187688,-0.35933027699169295,3.0265703119764096
1687086938.162827,-0.9449284672737122,0.3266802728176117,-0.01974937506020069,0.013043761253356934,0.25721246004104614,-0.08062291145324707,-0.00669602258130908,-0.1430414319038391,-0.4666040539741516,-1.5498989788875477,-0.3327889959819577,2.995167503017655
1687086938.201339,-0.9504349827766418,0.31059396266937256,-0.014294574968516827,0.04619938135147095,0.2126297950744629,-0.0692625641822815,-0.0578133687376976,-0.11688907444477081,-0.2240581065416336,-1.555757426877291,-0.3158178450206834,3.003296317117239
1687086938.326233,-0.9528384804725647,0.3032758831977844,-0.011055787093937397,0.011584997177124023,0.2061234414577484,-0.08071058988571167,0.09694739431142807,-0.005839420948177576,-0.07756879925727844,-1.5591938445441442,-0.3081285911152021,2.998871370153416
1687086938.331798,-0.9528130292892456,0.3032117187976837,-0.014487161301076412,0.01259702444076538,0.1236223578453064,-0.06421768665313721,0.07913973927497864,0.07855790108442307,0.07004447281360626,-1.5555928777787236,-0.3080612275656448,3.0053326770633673
1687086938.416377,-0.9505613446235657,0.3099159896373749,-0.019627759233117104,-0.0029451847076416016,0.03401705622673035,0.012761352583765984,-0.11389192938804626,0.11004000902175903,0.07808747887611389,-1.5501506619882888,-0.3151046768496961,3.0066461001665457
1687086938.432162,-0.9486241936683655,0.315752238035202,-0.020314037799835205,-0.024901866912841797,-0.0320914089679718,0.053166210651397705,-0.34463924169540405,0.07756077498197556,0.07717583328485489,-1.5493853888023124,-0.3212493554454596,2.9889579181075145
1687086938.503921,-0.9467315673828125,0.3214838206768036,-0.018640385940670967,0.022552549839019775,0.005237281322479248,0.02486598491668701,0.13342510163784027,-0.09410637617111206,0.13414058089256287,-1.5511096724376694,-0.3272960840404785,2.9872424686545407
1687086938.5092912,-0.9456431865692139,0.32491764426231384,-0.01369366142898798,-0.015172243118286133,-0.042569100856781006,0.004080653190612793,0.138827383518219,-0.10134317725896835,0.0888896957039833,-1.5563165479974146,-0.3309246359562515,2.9943025532004115
1687086938.595972,-0.9447362422943115,0.32770898938179016,-0.008943386375904083,-0.008602261543273926,-0.056194186210632324,-0.024183452129364014,0.14636847376823425,-0.044056542217731476,0.03251994401216507,-1.5613300663961396,-0.33387763769184114,3.0002559284623542
1687086938.6124291,-0.9457435607910156,0.3247767388820648,-0.009444301947951317,0.006153106689453125,-0.006234347820281982,-0.02562040090560913,0.2382630705833435,-0.04375912621617317,0.027466170489788055,-1.560810546329505,-0.33077565471316556,3.0099781501465293
1687086938.6531792,-0.9467347860336304,0.3216634690761566,-0.015030579641461372,-0.010647475719451904,0.0034402310848236084,-0.030837299302220345,0.1963510513305664,-0.008822085335850716,0.013624764047563076,-1.5549214296461922,-0.3274857900943662,3.0232603057034066
1687086938.744868,-0.9468156099319458,0.32099831104278564,-0.022361166775226593,0.0019915103912353516,0.011460095643997192,-0.028587935492396355,0.08811138570308685,0.03633997216820717,0.005353677552193403,-1.5471834808287175,-0.3267833981042357,3.0321976675803173
1687086938.760503,-0.9464779496192932,0.3215813934803009,-0.02765822224318981,-0.0010929107666015625,0.013211637735366821,-0.017202619463205338,0.06328614056110382,0.024134228006005287,0.0357232466340065,-1.5415823840623675,-0.3273991217478788,3.0357613884059553
1687086938.837792,-0.9456727504730225,0.32347121834754944,-0.03269509971141815,9.5367431640625e-06,-0.001739799976348877,0.0005753710865974426,-0.03385443985462189,0.0525924451649189,0.03303089737892151,-1.5362367170029414,-0.32939563412209827,3.037338369059087
1687086938.95648,-0.9446872472763062,0.32595187425613403,-0.036351289600133896,0.007736504077911377,0.006018310785293579,0.0004931651055812836,-0.03876855596899986,0.05401649698615074,0.04516234248876572,-1.532335592750504,-0.33201843172341766,3.0366821760862956
1687086938.9626,-0.9438510537147522,0.3281837999820709,-0.037956032902002335,0.003589153289794922,-0.0018136203289031982,0.00768255814909935,-0.017426280304789543,0.0435824953019619,0.03571552410721779,-1.530603977637311,-0.334380255740311,3.0347061774782222
1687086939.078557,-0.9431385397911072,0.33010411262512207,-0.03899746760725975,0.0023427605628967285,-0.008815139532089233,0.010036293417215347,0.0074987756088376045,0.02826422080397606,0.034912530332803726,-1.529471256487017,-0.3364138711665578,3.0341924034741425
1687086939.092715,-0.9426385164260864,0.3316502273082733,-0.037958163768053055,7.253885269165039e-05,-0.013107746839523315,0.018274303525686264,-0.0171657744795084,0.017380090430378914,0.029135385528206825,-1.5305500769682754,-0.33805225546478973,3.0331011276004367
1687086939.0960422,-0.9423381090164185,0.3327539265155792,-0.035690873861312866,0.012711584568023682,-0.008687794208526611,0.01214652881026268,-0.09341204166412354,-0.017247546464204788,0.024369340389966965,-1.5329396137426659,-0.3392224127934261,3.0312068327007435
1687086939.164635,-0.9422607421875,0.3332487642765045,-0.03301485627889633,0.01007080078125,0.009585648775100708,0.006952822208404541,-0.000848869327455759,-0.022448377683758736,0.012094777077436447,-1.535772733051296,-0.3397471996306247,3.0282124533836416
1687086939.178355,-0.942364513874054,0.3330606520175934,-0.03192862495779991,0.011654853820800781,0.01009419560432434,0.0023418106138706207,-0.006601280532777309,-0.016162652522325516,0.01202729344367981,-1.5369278850615453,-0.33954769288915143,3.0288922540229186
1687086939.260498,-0.9421848654747009,0.33358851075172424,-0.031720273196697235,0.014999926090240479,0.033675163984298706,0.00906098261475563,0.5672515034675598,-0.09468530863523483,-0.005837298464030027,-1.5371423193642406,-0.340107588175305,3.0360460882824936
1687086939.265809,-0.9437334537506104,0.32648932933807373,-0.0526471808552742,0.06458312273025513,0.310061514377594,-0.0881304144859314,4.799116611480713,-0.6803483366966248,-0.14633439481258392,-1.5150680213439043,-0.332586988369478,-3.1311330049292097
1687086939.346146,-0.9483660459518433,0.2918303906917572,-0.12424436211585999,-0.022626876831054688,0.6774688959121704,-0.16782408952713013,11.912528038024902,-1.7532539367675781,0.33995580673217773,-1.4405293489311002,-0.29613996689995215,-2.6848991931369945
1687086939.3624191,-0.9557452201843262,0.22972562909126282,-0.18378528952598572,-0.015735983848571777,0.7391006946563721,0.43766099214553833,13.694705963134766,-3.15312123298645,2.2452774047851562,-1.3808200192484734,-0.2317957616405448,-1.9858241809322823
1687086939.402195,-0.9435890316963196,0.26983484625816345,-0.1919080913066864,-0.6960287690162659,0.17506569623947144,0.8070051074028015,8.844494819641113,-1.6067363023757935,3.4120750427246094,-1.370151928511003,-0.27322151670569333,-1.368001853458156
1687086939.525424,-0.9061009883880615,0.3613669276237488,-0.21998819708824158,-0.4611321687698364,-0.219185471534729,0.6193411946296692,3.5203311443328857,-1.3227392435073853,3.1869900226593018,-1.3326192116342008,-0.36973347618405084,-1.0268590833471445
1687086939.5310102,-0.8564356565475464,0.4699219763278961,-0.21375522017478943,-0.22907447814941406,0.05195915699005127,0.5118966102600098,2.9014341831207275,-1.8303422927856445,3.447502851486206,-1.326206393234826,-0.4892023855758835,-0.8236813886359553
1687086939.648747,-0.7846990823745728,0.587607204914093,-0.19739559292793274,-0.2383110523223877,-0.08719515800476074,0.13561266660690308,0.7954883575439453,-1.7220722436904907,3.386441707611084,-1.3243539207815234,-0.6280984332763722,-0.6493184084948384
1687086939.6646671,-0.6896345615386963,0.7144325375556946,-0.1182803213596344,0.005003392696380615,-0.23849564790725708,0.017114467918872833,-1.7936999797821045,-1.0950576066970825,3.1331801414489746,-1.4009374124737846,-0.7958127495639956,-0.6558142828551204
1687086939.7340221,-0.5919649600982666,0.805794894695282,-0.01648891530930996,0.17256200313568115,-0.29100918769836426,-0.15643906593322754,-2.233792304992676,-0.9661148190498352,2.4058001041412354,-1.5429489803295473,-0.937016572958306,-0.7728510092893437
1687086939.748193,-0.5004910230636597,0.8611165285110474,0.08936942368745804,0.101504385471344,-0.27392780780792236,-0.2557055950164795,-1.336010456085205,-0.5258051753044128,1.7418969869613647,-1.7474974877205218,-1.0374616832173567,-0.9778215168068589
1687086939.8252249,-0.4301101565361023,0.8928387761116028,0.13358110189437866,0.03231367468833923,-0.37622207403182983,-0.34670066833496094,-0.12219377607107162,0.15327084064483643,1.2848256826400757,-1.8719257235517677,-1.103609430000466,-1.107152507511378
1687086939.830168,-0.3908258080482483,0.911767840385437,0.12623247504234314,0.007616698741912842,-0.380578875541687,-0.3176541328430176,-0.39740777015686035,0.5008623600006104,0.7009292840957642,-1.883208365448879,-1.147568038980406,-1.1356209334087344
1687086939.9148679,-0.38039693236351013,0.9135679602622986,0.14384637773036957,-0.17328345775604248,-0.1719754934310913,-0.04118536412715912,0.005749878007918596,0.0008651250973343849,-0.1009717509150505,-1.9323241275307013,-1.1519726146262543,-1.2039540392831376
1687086939.930192,-0.3877285420894623,0.9150026440620422,0.1115192249417305,-0.15217310190200806,0.1830350160598755,-0.07642412185668945,1.157015085220337,0.23126348853111267,-0.17956946790218353,-1.8508587514623884,-1.1555145461294254,-1.1197997650126712
1687086940.007093,-0.3874894380569458,0.9170470237731934,0.09421664476394653,0.08838677406311035,-0.02086782455444336,0.1821962594985962,-0.44165024161338806,0.0909857377409935,0.16653351485729218,-1.8093141665221986,-1.1606112388148262,-1.0785184947327335
1687086940.012471,-0.38034653663635254,0.9194542765617371,0.09970025718212128,0.020925849676132202,0.07219910621643066,0.09648191928863525,0.11587317287921906,-0.06877610087394714,0.10268273949623108,-1.8271585304588482,-1.1666903409884735,-1.1014341604491718
1687086940.0958052,-0.38055622577667236,0.9189096093177795,0.1038351058959961,-0.07636803388595581,-0.1386515498161316,0.03706441819667816,-0.33462288975715637,0.21561869978904724,-0.043437086045742035,-1.8371634224623101,-1.1653072582828974,-1.118430012813249
1687086940.1111588,-0.3825569152832031,0.9169092178344727,0.11369893699884415,-0.024135470390319824,0.06883901357650757,0.04926490783691406,-0.17057660222053528,0.15679341554641724,0.014193294569849968,-1.8596895919499858,-1.1602658551987863,-1.1527378815186242
1687086940.152647,-0.3837575912475586,0.9161714315414429,0.1155853196978569,-0.019272685050964355,-0.007968366146087646,-0.0215911865234375,-0.20968474447727203,0.047402553260326385,-0.06135978549718857,-1.8633477855882945,-1.1584210806063693,-1.1607981690263582
1687086940.216742,-0.38858920335769653,0.9121713638305664,0.1301599144935608,-0.02753305435180664,-0.015153050422668457,-0.02305854856967926,-0.34534215927124023,-0.07876329123973846,-0.11374825984239578,-1.8940057158601185,-1.1485517173951536,-1.1965463036024195
1687086940.307198,-0.39534077048301697,0.9046769738197327,0.15894918143749237,-0.017439842224121094,0.010224580764770508,0.019746407866477966,-0.5733728408813477,-0.2807738780975342,-0.37298354506492615,-1.9530739554553265,-1.1306209880635438,-1.2439449980246127
1687086940.31313,-0.41763827204704285,0.8908369541168213,0.1788518726825714,-0.008341312408447266,0.007326006889343262,-0.18280397355556488,-0.19919010996818542,-0.10607196390628815,-0.6624060273170471,-1.9754130554690117,-1.0991840249345144,-1.261706761770768
1687086940.364728,-0.463807076215744,0.8635717034339905,0.19780400395393372,-0.031264156103134155,-0.3464820384979248,-0.33398881554603577,-0.8718060851097107,0.5208739638328552,-1.4199068546295166,-1.97391906919143,-1.0423108281402793,-1.2715385262783037
1687086940.457605,-0.5508377552032471,0.8088358640670776,0.20582012832164764,-0.009998857975006104,-0.3853740692138672,-0.2351476103067398,-0.36350777745246887,0.8542414307594299,-2.424701690673828,-1.9283822848648828,-0.9421697345771222,-1.2586167630788356
1687086940.463553,-0.6682301759719849,0.7171496152877808,0.19790135324001312,0.0029622912406921387,-0.464799702167511,-0.23118075728416443,-1.1565418243408203,1.413317084312439,-2.967876672744751,-1.8587241302109032,-0.7997036848918185,-1.2403734284158074
1687086940.514791,-0.7924946546554565,0.5890252590179443,0.15811701118946075,-0.22517478466033936,-0.1727961301803589,-0.3140771687030792,-1.6943870782852173,3.1167263984680176,-3.2291922569274902,-1.767728444976609,-0.6298521042367744,-1.286669280915031
1687086940.6069288,-0.8915493488311768,0.4488371014595032,0.060702722519636154,-0.3256441354751587,0.1233675479888916,0.07761812210083008,-2.074786424636841,4.092954635620117,-2.653001070022583,-1.6387781841677527,-0.46546355981235277,-1.381635375395923
1687086940.612674,-0.9332085847854614,0.34806594252586365,-0.08928458392620087,-0.402240514755249,0.22038501501083374,0.2622734308242798,-3.756695508956909,4.761553764343262,-1.8645328283309937,-1.475411820946709,-0.3555072559954375,-1.5236110389841866
1687086940.664853,-0.9150851368904114,0.33044761419296265,-0.23113490641117096,-0.3676295876502991,0.10807469487190247,0.5905404686927795,-5.65797233581543,4.437554359436035,-0.5582780241966248,-1.323388137703228,-0.3367777963815061,-1.7857214482389112
1687086940.757551,-0.8617835640907288,0.41735735535621643,-0.2883433699607849,-0.26202619075775146,0.07031354308128357,0.7507305145263672,-6.813631057739258,3.1963155269622803,0.46085914969444275,-1.2479160153812943,-0.43053535614352134,-2.1097296787331548
1687086940.7632608,-0.8159304857254028,0.5262661576271057,-0.23937684297561646,0.04903900623321533,0.1599215269088745,0.46207886934280396,-4.679296016693115,1.3335676193237305,0.6842469573020935,-1.2854248950480227,-0.5542034591489327,-2.42709203134839
1687086940.814224,-0.7938802242279053,0.5790095329284668,-0.1857474446296692,-0.012348413467407227,0.07682842016220093,0.08116370439529419,-1.5831799507141113,0.4551639258861542,0.220619335770607,-1.340956755990844,-0.6175133731840063,-2.5932881297201362
1687086940.905569,-0.7898935675621033,0.5923280119895935,-0.15879420936107635,0.012107312679290771,-0.24825769662857056,0.07073581218719482,-1.835321307182312,0.33890485763549805,-0.19817237555980682,-1.372408262208605,-0.6339452539576127,-2.6802132749016345
1687086940.911376,-0.8007621765136719,0.5887243151664734,-0.11037983745336533,-0.07509231567382812,-0.17287659645080566,0.10935747623443604,-1.1714330911636353,0.15225520730018616,-0.5616788268089294,-1.433816077441415,-0.6294797901606326,-2.7947403764654233
1687086940.996825,-0.8192543983459473,0.5672137141227722,-0.08420628309249878,-0.06175750494003296,-0.1905810832977295,0.11670750379562378,-1.3936342000961304,0.11987802386283875,-0.8195974230766296,-1.468371963513407,-0.6031187150773347,-2.863020457173275
1687086941.115691,-0.8446927666664124,0.5324053168296814,-0.055122289806604385,-0.025363266468048096,-0.11155277490615845,-0.05933385714888573,-1.117246389389038,0.2839837968349457,-1.0467908382415771,-1.5056315193838887,-0.5614395551827529,-2.950110640854836
1687086941.13198,-0.873019814491272,0.48621106147766113,-0.03788187727332115,-0.16828566789627075,-0.005986601114273071,-0.007055219262838364,-0.492902010679245,0.16917388141155243,-1.1976468563079834,-1.5274317547271994,-0.5077485476299546,-3.005862738660016
1687086941.2380152,-0.8986794948577881,0.4376746714115143,-0.02856062538921833,-0.023805677890777588,0.02915254235267639,-0.09691237658262253,-0.7198217511177063,0.059315212070941925,-1.0526283979415894,-1.5390263614445867,-0.4530108672227568,-3.0366630600475384
1687086941.243001,-0.9194793105125427,0.3927491009235382,-0.01748565211892128,0.0025940537452697754,0.15871873497962952,-0.0927743911743164,0.0596734955906868,-0.09945915639400482,-0.9411841034889221,-1.5517817115481825,-0.40361899930408035,-3.064678823836016
1687086941.247679,-0.9345060586929321,0.3556251525878906,-0.015135037712752819,-0.037722885608673096,0.1487540602684021,-0.09938216209411621,-0.2283840924501419,-0.06722474843263626,-0.6785702109336853,-1.5546019812934484,-0.36358286475467916,-3.0606415017729525
1687086941.360934,-0.9445855617523193,0.32823970913887024,-0.004083532840013504,-0.02504938840866089,0.17983213067054749,-0.06502354145050049,-0.15425580739974976,-0.13724155724048615,-0.4929342567920685,-1.5664732592121162,-0.3344394258056118,-3.0805298210314382
1687086941.366086,-0.9506007432937622,0.3104082942008972,0.002225498203188181,0.03131967782974243,0.2067120373249054,-0.08608782291412354,0.09276242554187775,-0.16795632243156433,-0.2537899315357208,-1.573137471590725,-0.31562250934294495,-3.0775629715481756
1687086941.44592,-0.9531316161155701,0.3024555742740631,0.007780056446790695,0.029288291931152344,0.15134075284004211,-0.08205986022949219,-0.009959476999938488,-0.06668522953987122,-0.12211975455284119,-1.5789587708919028,-0.3072678296464975,-3.0783969283239805
1687086941.461532,-0.953935980796814,0.29995569586753845,0.005733623169362545,0.02066260576248169,0.16523900628089905,-0.06925594806671143,0.04500758647918701,0.05254580080509186,0.023051396012306213,-1.5768067446058915,-0.304646197086871,-3.0735339807038136
1687086941.565083,-0.9520915746688843,0.30580756068229675,-0.0017507222946733236,0.0053144097328186035,0.10415023565292358,-0.04684853553771973,0.06623214483261108,0.13103848695755005,0.1234051063656807,-1.5689575117950898,-0.3107864934398841,-3.071088928504958
1687086941.580752,-0.9482719898223877,0.31730613112449646,-0.009855472482740879,-0.00485306978225708,0.03273046016693115,-0.007860005833208561,0.051447123289108276,0.06774885207414627,0.20822326838970184,-1.5604036145451445,-0.32288745507419037,-3.069085275193256
1687086941.6267772,-0.9441295266151428,0.329020619392395,-0.019100314006209373,-0.008339285850524902,0.012364208698272705,-0.021488070487976074,0.270526647567749,0.10838337242603302,0.18011797964572906,-1.550568478075511,-0.33526627736539105,-3.0549783375638477
1687086941.630455,-0.9412786960601807,0.33654412627220154,-0.02706168219447136,-0.02296990156173706,-0.0771295428276062,0.03014397621154785,-0.07186535000801086,0.19299910962581635,0.10969771444797516,-1.5420543282821122,-0.3432445240829647,-3.055194686340493
1687086941.634066,-0.9398216009140015,0.339735209941864,-0.0362677238881588,-0.004819512367248535,-0.0540601909160614,0.0022405944764614105,0.06904452294111252,0.16615216434001923,0.04467013478279114,-1.5322254557982422,-0.3466353471522367,-3.051678284929218
1687086941.681906,-0.9398853182792664,0.3391897976398468,-0.03956637531518936,0.006963133811950684,-0.07148972153663635,0.04039037600159645,-0.010984926484525204,0.13939446210861206,0.01740724965929985,-1.5287241463318055,-0.3460555119950928,-3.0537796009954015
1687086941.7441459,-0.9412225484848022,0.33501380681991577,-0.043192844837903976,0.0015711784362792969,-0.050391703844070435,0.026820186525583267,-0.04153576120734215,0.14240868389606476,-0.04371245577931404,-1.524938347146044,-0.3416198719219043,-3.0540783013729
1687086941.806222,-0.94300776720047,0.33008119463920593,-0.042219895869493484,0.012298047542572021,-0.020434707403182983,0.05068850889801979,-0.08091284334659576,0.0635429248213768,-0.03707260638475418,-1.526054680204797,-0.33638960172204524,-3.060581084327536
1687086941.8688421,-0.9442686438560486,0.32692644000053406,-0.038414403796195984,0.01142263412475586,0.007546097040176392,0.0240863598883152,-0.10143119096755981,-0.043112318962812424,-0.005289858672767878,-1.5301370981990465,-0.33304947622146486,-3.064490161113152
1687086941.957587,-0.9449548721313477,0.32599151134490967,-0.028102589771151543,0.0015650391578674316,0.024838507175445557,0.0052449703216552734,0.04706760495901108,-0.08429818600416183,-0.001504761166870594,-1.541065479400036,-0.332060330720532,-3.069667505107593
1687086941.96415,-0.9446401596069336,0.3274400234222412,-0.020922621712088585,-0.0013130903244018555,0.026594310998916626,-0.011212347075343132,0.12867535650730133,-0.10069378465414047,0.030660152435302734,-1.5486511720777212,-0.33359297136067395,-3.0682426698115037
1687086942.015496,-0.9433897137641907,0.33109137415885925,-0.019851084798574448,0.025543212890625,0.13100570440292358,-0.047119736671447754,1.4104169607162476,-0.401353120803833,0.1110101193189621,-1.5497571372849033,-0.33745994144604774,-3.037161522967854
1687086942.1139588,-0.9414423704147339,0.3356028199195862,-0.03250940889120102,0.005681931972503662,0.34655651450157166,-0.09004920721054077,5.141393184661865,-1.2646417617797852,0.23527507483959198,-1.5362785500580212,-0.3422450980514399,-2.868977130316907
1687086942.1288,-0.9372304081916809,0.34069862961769104,-0.07431992143392563,-0.01615387201309204,0.3464503884315491,-0.04845225811004639,8.416021347045898,-2.131350040435791,0.837405800819397,-1.4916645272114046,-0.34765988115580054,-2.500148995940601
1687086942.162418,-0.9266875386238098,0.35684579610824585,-0.1179455891251564,-0.20920711755752563,0.34368520975112915,0.1642712950706482,10.025940895080566,-2.640364646911621,1.897019624710083,-1.444200444580218,-0.3648892027731155,-1.9949409814099166
1687086942.256913,-0.8995872139930725,0.3888336718082428,-0.19887492060661316,-0.508600652217865,0.21066895127296448,0.515784740447998,8.420271873474121,-1.7581920623779297,2.53585147857666,-1.3532222782753294,-0.39936531542941783,-1.4607336474085428
1687086942.2621999,-0.8714083433151245,0.4175065755844116,-0.2575570046901703,-0.26585960388183594,-0.11788496375083923,0.5547524690628052,5.554206848144531,-1.5977826118469238,2.114331007003784,-1.283414134911814,-0.4306995541305808,-1.0782060383061463
1687086942.315603,-0.8488482236862183,0.4409325420856476,-0.2916078567504883,-0.026487350463867188,-0.04702684283256531,0.425015389919281,4.226868152618408,-1.9770134687423706,2.3889312744140625,-1.2398938402592115,-0.4566373948506009,-0.7725473200842712
1687086942.4071178,-0.818128764629364,0.49491754174232483,-0.2927832007408142,-0.049531757831573486,-0.009291291236877441,0.32430776953697205,2.893035888671875,-1.6179746389389038,2.6113791465759277,-1.2271282349566153,-0.5177399480942416,-0.546543990507708
1687086942.412971,-0.7691661715507507,0.5721724629402161,-0.2846083641052246,-0.030958831310272217,-0.04099881649017334,0.15992870926856995,0.5550537109375,-1.3429174423217773,2.72562313079834,-1.216397093378128,-0.6091523544330336,-0.3736824873207492
1687086942.4643822,-0.7082184553146362,0.6753382682800293,-0.2057783007621765,0.09533405303955078,-0.2272639274597168,-0.05519282817840576,-2.7095448970794678,-0.8562586903572083,2.018612861633301,-1.28802457588477,-0.7414232526908409,-0.3997526001236446
1687086942.5571542,-0.6436028480529785,0.762225329875946,-0.06919243931770325,0.15844982862472534,-0.2269776463508606,-0.06500869244337082,-3.2406036853790283,-0.2565455436706543,1.9190986156463623,-1.4636997026399878,-0.8667439764391066,-0.6065641451403824
1687086942.563268,-0.5751806497573853,0.8176376223564148,0.02520974911749363,0.03985673189163208,0.10564106702804565,-0.04445112124085426,-1.4331430196762085,-0.2523011267185211,1.603521704673767,-1.6145975655060738,-0.9572957087824634,-0.779670077434654
1687086942.614949,-0.5129837393760681,0.8522081971168518,0.10290161520242691,-0.04089498519897461,-0.2870684266090393,-0.15487313270568848,-1.8232178688049316,-0.12028773874044418,1.2404431104660034,-1.7687632664418709,-1.0201913957427817,-0.9505142256884097
1687086942.7071261,-0.4678749442100525,0.8675488829612732,0.16867642104625702,-0.08150237798690796,-0.10099315643310547,-0.3069058656692505,-1.0483112335205078,0.161337748169899,0.8830118775367737,-1.916808663106858,-1.0502526054857202,-1.1239833089392277
1687086942.713311,-0.44250038266181946,0.8742077946662903,0.19988489151000977,-0.07193431258201599,-0.17381417751312256,-0.38312768936157227,-1.003332257270813,0.6390953063964844,0.4265289306640625,-1.9950770783998149,-1.0638018569463012,-1.239486473810784
1687086942.76472,-0.44043782353401184,0.8754264712333679,0.19910471141338348,-0.09082728624343872,-0.12202388048171997,-0.09471943974494934,0.7831200361251831,0.14867468178272247,0.00018501421436667442,-1.9953627678206352,-1.066317400673198,-1.266603140754177
1687086942.857355,-0.44072842597961426,0.8844630122184753,0.15324322879314423,-0.01788961887359619,-0.006685972213745117,0.044602155685424805,0.5639205574989319,-0.08166056871414185,0.005736533086746931,-1.9054246301042521,-1.085341942173247,-1.162649460790199
1687086942.863363,-0.4358431398868561,0.8862443566322327,0.15688163042068481,0.050192564725875854,0.059312403202056885,0.050012245774269104,-0.05417775362730026,0.19749271869659424,0.2175745964050293,-1.9163074135422578,-1.089173471751624,-1.1799088950855299
1687086942.912833,-0.4261266887187958,0.8923444151878357,0.1487865447998047,0.021540015935897827,-0.03470891714096069,0.10840022563934326,0.021770039573311806,0.06304733455181122,0.1514207124710083,-1.9067229184217172,-1.1025129045377895,-1.172076373516495
1687086943.007989,-0.42554256319999695,0.8900783658027649,0.16332192718982697,-0.09134882688522339,-0.1362636685371399,0.16101884841918945,-0.6006090641021729,0.1243397518992424,-0.029754508286714554,-1.9372569861700093,-1.0975170027004508,-1.2128552187217099
1687086943.014015,-0.428077757358551,0.8861842155456543,0.17727622389793396,-0.043327152729034424,0.10339397192001343,-0.03866542875766754,-0.29324400424957275,0.2203514128923416,0.027862660586833954,-1.9634168698824064,-1.0890437006314888,-1.2527133857780628
1687086943.065277,-0.4295792281627655,0.8837311863899231,0.1856895238161087,-0.03521859645843506,0.008038103580474854,-0.01706470549106598,-0.3580746054649353,0.21454551815986633,-0.03324229270219803,-1.9787993740320267,-1.0837758146211,-1.2834008226331433
1687086943.157362,-0.43368202447891235,0.8796176910400391,0.19542905688285828,0.006497085094451904,0.012334823608398438,-0.034616708755493164,-0.21230866014957428,0.13345253467559814,-0.017964322119951248,-1.9941719742554618,-1.0750578569164233,-1.31204396827904
1687086943.1625981,-0.43432363867759705,0.8778108954429626,0.20201633870601654,0.024487972259521484,-0.020328164100646973,-0.017842918634414673,-0.23082411289215088,-0.08940328657627106,0.015967227518558502,-2.0061597110491856,-1.071272829362031,-1.3271986792167998
1687086943.215133,-0.43547582626342773,0.8742945194244385,0.21440453827381134,0.0026452243328094482,0.04060697555541992,-0.10530440509319305,0.021000538021326065,0.0022559042554348707,-0.29980313777923584,-2.0283015627465693,-1.0639805300711578,-1.339746358555585
1687086943.3065062,-0.45428866147994995,0.8643870949745178,0.21553856134414673,0.09280800819396973,-0.21202796697616577,-0.15988978743553162,-0.2523746192455292,0.10385346412658691,-0.7511051297187805,-2.0137981553696584,-1.0439301886328443,-1.3265377980691337
1687086943.312345,-0.5157633423805237,0.8305345177650452,0.2102394551038742,0.02966409921646118,-0.5458054542541504,-0.2578621804714203,0.44163990020751953,0.3604586720466614,-1.8934627771377563,-1.9578610377090884,-0.9800666979368052,-1.2743937753665637
1687086943.367137,-0.619989275932312,0.7681963443756104,0.1596468687057495,0.022379040718078613,-0.4711230993270874,-0.36680036783218384,0.8122624754905701,0.9695625305175781,-2.931464910507202,-1.822820698092436,-0.8760190551955551,-1.1435523215115273
1687086943.457361,-0.7538757920265198,0.6482001543045044,0.1072745993733406,-0.05297839641571045,-0.4928351640701294,-0.3277336359024048,-1.2864776849746704,2.2821476459503174,-3.8706119060516357,-1.7121448353219595,-0.7052183754020301,-1.1026341836431806
1687086943.463476,-0.8757189512252808,0.48019951581954956,0.05024683102965355,-0.36936771869659424,0.02474445104598999,0.1161043718457222,-4.172058582305908,4.061495304107666,-3.722935438156128,-1.6281112872750914,-0.5008821565663508,-1.2404867275878564
1687086943.513344,-0.9347758293151855,0.3449958860874176,-0.08468674123287201,-0.2753528356552124,0.3751732409000397,-0.024352610111236572,-4.504031658172607,4.811495304107666,-2.383223533630371,-1.4804471920085738,-0.352234402101661,-1.4561604370875305
1687086943.638153,-0.9188081622123718,0.32654058933258057,-0.22172638773918152,-0.7421719431877136,0.16645559668540955,1.0980234146118164,-9.772714614868164,5.251396656036377,-0.5970021486282349,-1.3340040124893913,-0.3326412227177983,-1.854607150482853
1687086943.64388,-0.8578931093215942,0.46120333671569824,-0.22651927173137665,-0.29007136821746826,0.10332605242729187,0.8141963481903076,-9.127118110656738,3.154048442840576,0.9120177626609802,-1.3126465353225465,-0.4793509112524399,-2.348854750740042
1687086943.7255101,-0.8233089447021484,0.5588646531105042,-0.09915986657142639,0.09830278158187866,0.00902169942855835,0.5209128260612488,-5.761610984802246,0.6358098387718201,0.3875400424003601,-1.4509330237268008,-0.5930160704995591,-2.7945423711083746
1687086943.731452,-0.8201243281364441,0.5716322660446167,-0.025153573602437973,-0.04042559862136841,0.15099340677261353,-0.04613548517227173,-0.691577136516571,0.015196451917290688,-0.3596724271774292,-1.5401354983858293,-0.6084938102256485,-2.969740989981738
1687086943.8445039,-0.8386150002479553,0.5445043444633484,-0.015487882308661938,-0.03170055150985718,-0.21161872148513794,-0.0239865779876709,-0.7391868233680725,-0.11611291021108627,-0.7106456160545349,-1.552330020420553,-0.5757980961713988,-2.9923558471216904
1687086943.86042,-0.8597415685653687,0.5105072855949402,0.01504824310541153,-0.10851997137069702,-0.29297810792922974,-0.01707768626511097,-1.5686744451522827,0.1983318030834198,-0.9140344858169556,-1.5882977557089228,-0.5357746107143535,-3.070760199499225
1687086943.9338179,-0.8823074102401733,0.4692007303237915,0.0372038297355175,-0.08764797449111938,0.06352931261062622,-0.11128520965576172,-0.7221909165382385,0.05675920844078064,-0.8978192806243896,-1.6129378793994724,-0.4883854953502298,-3.1304664746603303
1687086943.949209,-0.9021387100219727,0.42902761697769165,0.04561606049537659,-0.015478968620300293,0.0334966778755188,-0.1244276762008667,-0.3254656195640564,-0.022656312212347984,-0.8134891986846924,-1.6213176534398148,-0.4434160197025814,3.1285155946780403
1687086944.025562,-0.9166033267974854,0.39556029438972473,0.058051444590091705,-0.03499561548233032,0.12784653902053833,-0.10517061501741409,-0.026746978983283043,-0.17426103353500366,-0.6394453048706055,-1.6340450759420975,-0.40667783234369287,3.1142342389940727
1687086944.0306911,-0.9259212017059326,0.3722394108772278,0.06409063190221786,-0.03893774747848511,0.18009814620018005,-0.13252627849578857,0.03729367256164551,-0.13495835661888123,-0.3974621891975403,-1.639904332640668,-0.38142066155475324,3.1233892334213382
1687086944.117639,-0.9321851134300232,0.35592812299728394,0.06592539697885513,0.011744379997253418,0.1600019931793213,-0.10753607004880905,-0.023979123681783676,0.03155657276511192,-0.27463823556900024,-1.641400132988275,-0.36390704562073356,3.123237484495931
1687086944.1338758,-0.9361953139305115,0.3462020754814148,0.06068382412195206,-0.004890561103820801,0.18167570233345032,-0.09886132925748825,0.24378317594528198,0.06702173501253128,-0.15469740331172943,-1.635525391390204,-0.35351980532959715,3.1306129471013775
1687086944.2034411,-0.9383469223976135,0.34203481674194336,0.050169989466667175,0.017189204692840576,0.12543335556983948,-0.028594020754098892,0.30547353625297546,0.18078364431858063,-0.06590905040502548,-1.6242118201231237,-0.3490814725846226,-3.1386962588790848
1687086944.217963,-0.9391607642173767,0.341585636138916,0.03600147366523743,0.03623729944229126,0.08083862066268921,-0.005911111831665039,0.0399530753493309,0.1915919929742813,0.02379942312836647,-1.60911122938915,-0.34860350423552006,-3.127408943322717
1687086944.264013,-0.9381726980209351,0.3452216386795044,0.025565531104803085,0.012910425662994385,0.07900312542915344,0.0016409121453762054,0.2541075348854065,0.14037321507930756,0.12409897893667221,-1.5980399306477178,-0.3524749173105534,-3.122251291477127
1687086944.355157,-0.9353864192962646,0.35329973697662354,0.01521318405866623,-0.013237178325653076,0.00873023271560669,0.0181119441986084,0.03172242268919945,0.1720484495162964,0.1828136146068573,-1.5870589559025883,-0.3610959618304214,-3.1108759187074786
1687086944.360635,-0.9326085448265076,0.3608242869377136,0.006856715772300959,0.028693199157714844,-0.035445988178253174,0.06524109840393066,-0.21812689304351807,0.16959744691848755,0.1385042816400528,-1.5781483846140765,-0.36915158004160276,-3.1167948629836992
1687086944.4783149,-0.9300468564033508,0.36737528443336487,0.006926282308995724,0.014382362365722656,-0.027760475873947144,0.08812069892883301,-0.43907707929611206,-0.012097335420548916,0.1836642473936081,-1.5782434290094736,-0.37618538370796567,-3.1339014758756485
1687086944.539962,-0.9255326986312866,0.3779914379119873,0.02261524647474289,-0.004734516143798828,-0.052460551261901855,0.04510331153869629,-0.7407338619232178,-0.23715455830097198,0.29419249296188354,-1.595226307622448,-0.38762581514028416,3.1186207840947597
1687086944.545172,-0.9183635115623474,0.39246460795402527,0.050793662667274475,0.0007914304733276367,-0.042840003967285156,-0.012082092463970184,-0.4157588481903076,-0.44400256872177124,0.34955108165740967,-1.626048917355912,-0.4033096528826718,3.082484436489669
1687086944.549701,-0.9117308855056763,0.4045722782611847,0.07119026780128479,-0.010708630084991455,-0.057434916496276855,-0.07697343826293945,0.16792495548725128,-0.3855668306350708,0.18363356590270996,-1.6487207608259302,-0.4165110782393067,3.0780523820039285
1687086944.595708,-0.907848060131073,0.4107556641101837,0.08421330899000168,-0.04959523677825928,-0.08775767683982849,-0.0321197435259819,-0.06986340880393982,-0.221160888671875,0.07599380612373352,-1.6632930921190203,-0.4232827283810322,3.0802831979044485
1687086944.656075,-0.9070977568626404,0.41071823239326477,0.09210948646068573,-0.05210024118423462,-0.04308834671974182,-0.03229498863220215,-0.09252562373876572,-0.052192993462085724,-0.0457434356212616,-1.6719925289614697,-0.42324167293414694,3.074487542322153
1687086944.71634,-0.9091665744781494,0.40644198656082153,0.0906701385974884,-0.005735158920288086,-0.006005674600601196,-0.041475772857666016,0.04738778620958328,0.02916153334081173,-0.09980539232492447,-1.6701965127090186,-0.418556499799676,3.076007834934492
1687086944.809816,-0.9124115109443665,0.4007979929447174,0.08286113291978836,0.022854745388031006,0.026173323392868042,-0.026998765766620636,0.2548682689666748,0.016340011730790138,-0.12898938357830048,-1.6613634199471854,-0.41238769434659617,3.087334852194612
1687086944.816016,-0.9157450199127197,0.3946836292743683,0.07507335394620895,0.03125399351119995,0.017761439085006714,0.0014189556241035461,0.07763539999723434,0.07284270226955414,-0.1808702051639557,-1.652594034091652,-0.4057234877969123,3.097672155968736
1687086944.947474,-0.9197481870651245,0.3869524300098419,0.06580887734889984,0.026300430297851562,0.030695825815200806,0.017244696617126465,0.18527019023895264,0.12960301339626312,-0.2573740482330322,-1.6422255658182432,-0.397324256482646,3.105692472774835
1687086944.96215,-0.9246603846549988,0.37647053599357605,0.05721038579940796,0.034325361251831055,0.03675264120101929,0.026819705963134766,0.3403409421443939,0.08645010739564896,-0.275669127702713,-1.6325893403173841,-0.38598357976781505,3.1196863707590996
1687086945.039662,-0.9293745756149292,0.3658626675605774,0.04906335100531578,0.00638580322265625,0.05834686756134033,0.04979836568236351,0.35723641514778137,-0.003847680753096938,-0.21987949311733246,-1.6235391570964377,-0.3745595538224754,3.141236437936608
1687086945.042671,-0.9324755072593689,0.35840702056884766,0.045097533613443375,0.015925884246826172,0.06104174256324768,0.0517195463180542,0.27205586433410645,-0.06324218213558197,-0.13304626941680908,-1.6191219113485824,-0.36656100380401596,-3.124913899512692
1687086945.131932,-0.9341410398483276,0.3542313575744629,0.0435979850590229,0.008420765399932861,0.05731341242790222,0.031780485063791275,0.3941520154476166,-0.1056797131896019,-0.08164055645465851,-1.6174342202999743,-0.36209201392899815,-3.1069752917221467
1687086945.14638,-0.9346790909767151,0.3528274595737457,0.04344812035560608,0.025575697422027588,0.03900289535522461,0.04358804225921631,0.31743374466896057,-0.16868405044078827,0.0027537927962839603,-1.6172474200088178,-0.3605911975669393,-3.0873801171179043
1687086945.226361,-0.933651328086853,0.35506656765937805,0.04714774340391159,-0.0031161904335021973,0.013036400079727173,0.03221321105957031,0.3044849634170532,-0.21315355598926544,0.06056037172675133,-1.6212517039631027,-0.36298526723635754,-3.07292886212101
1687086945.231532,-0.9316648840904236,0.3594547510147095,0.05284862592816353,0.005990386009216309,0.0037806928157806396,0.01580072194337845,0.330310583114624,-0.25914818048477173,0.0734909176826477,-1.6274605332025367,-0.36768352562335727,-3.053648826941526
1687086945.3467112,-0.9292899370193481,0.363872230052948,0.06338071823120117,-0.0062416791915893555,-0.025966405868530273,0.017048358917236328,0.0838380753993988,-0.31786924600601196,0.07526591420173645,-1.6388942538559637,-0.37242173411727325,-3.043784194840108
1687086945.363851,-0.9269668459892273,0.367346853017807,0.07608424127101898,-0.05740821361541748,0.0017632246017456055,-0.009235493838787079,0.10794457793235779,-0.28485581278800964,0.05429192632436752,-1.6526914520976623,-0.376154824264102,-3.0384323633770522
1687086945.473788,-0.9248142242431641,0.3701542019844055,0.08777501434087753,-0.04800981283187866,-0.022055506706237793,-0.03147006034851074,-0.012456340715289116,-0.2373739331960678,0.06046966463327408,-1.665423838836291,-0.3791750218584801,-3.037983146280449
1687086945.4788098,-0.9224851131439209,0.37345102429389954,0.0977499857544899,0.016021728515625,-0.004600435495376587,-0.07420565187931061,0.16231344640254974,-0.23396901786327362,0.05985020846128464,-1.6763661349348742,-0.38272642060225676,-3.033845120187299
1687086945.526659,-0.9204505085945129,0.3772284984588623,0.10232033580541611,-0.0014091730117797852,-0.00535660982131958,-0.06357824802398682,0.2260216474533081,-0.1115809753537178,0.058383289724588394,-1.681505124871692,-0.3868018862247373,-3.022734305617158
1687086945.531426,-0.9195094704627991,0.3803287148475647,0.0992605909705162,-0.011719346046447754,-0.019900858402252197,-0.04338286072015762,0.2065054178237915,-0.0005236371653154492,0.026944885030388832,-1.6783294269398155,-0.39015170398663634,-3.011785215505826
1687086945.535094,-0.9206364750862122,0.3810739517211914,0.08491769433021545,-0.006655335426330566,-0.03032022714614868,-0.010134346783161163,0.10320461541414261,0.06930305808782578,0.012288441881537437,-1.6627741000071228,-0.39095760818776765,-2.9986810571496334
1687086945.5790238,-0.9214496612548828,0.38102197647094727,0.07584596425294876,0.017992079257965088,-0.02538543939590454,0.013692617416381836,0.06758452951908112,0.0436774380505085,0.02097327634692192,-1.6529227482825954,-0.3909013885084068,-2.992242358991865
1687086945.645115,-0.9219135046005249,0.38052603602409363,0.07263388484716415,0.008339166641235352,-0.02701038122177124,0.034925349056720734,0.037226997315883636,0.018384255468845367,0.012598328292369843,-1.6494199280910995,-0.3903650427949481,-2.988935037358246
1687086945.7351232,-0.9218923449516296,0.3801378309726715,0.07489770650863647,3.266334533691406e-05,-0.031917065382003784,0.03989410400390625,-0.11343413591384888,-0.02143363654613495,0.010633554309606552,-1.6518617221526066,-0.3899452947311626,-2.991555287816228
