Timestamp,gravityX,gravityY,gravityZ,accelerationX,accelerationY,accelerationZ,rotationRateX,rotationRateY,rotationRateZ,attitudeRoll,attitudePitch,attitudeYaw
1687086905.295443,-0.9038974046707153,0.40852653980255127,0.12678849697113037,0.009717226028442383,0.008816450834274292,-0.011401548981666565,0.0404171422123909,-0.1042008027434349,-0.29119396209716797,-1.7101557726045586,-0.4208391609797601,2.875878734498746
1687086905.3107328,-0.9092608690261841,0.39549440145492554,0.12972448766231537,0.0013783574104309082,0.03207194805145264,-0.008279815316200256,0.04068941995501518,-0.0893503725528717,-0.28539004921913147,-1.7125102279581115,-0.4066060833518192,2.8813643701117115
1687086905.4176512,-0.9137581586837769,0.3838050365447998,0.13319076597690582,0.02491837739944458,0.05409166216850281,-0.00010369718074798584,0.08537474274635315,-0.1288391649723053,-0.2420169711112976,-1.715538492534557,-0.393913414107879,2.8871018886332913
1687086905.43169,-0.9165052771568298,0.3751341700553894,0.138896644115448,0.00903463363647461,0.07066652178764343,0.0067026615142822266,0.08139093965291977,-0.19212183356285095,-0.15056434273719788,-1.7212021038064782,-0.38454149894450834,2.893576358771799
1687086905.567665,-0.9169525504112244,0.370243102312088,0.14872047305107117,0.009573519229888916,0.056728243827819824,0.0029365867376327515,-0.12419014424085617,-0.2020900845527649,-0.06361106038093567,-1.7315861334206897,-0.37927070074474234,2.893006827068164
1687086905.581347,-0.916138231754303,0.3673593997955322,0.16042931377887726,0.007950425148010254,0.05677378177642822,-0.00842130184173584,-0.1592947393655777,-0.20459778606891632,-0.022445570677518845,-1.7441533263731797,-0.3761683210153131,2.8861026339856894
1687086905.5850039,-0.9145799875259399,0.3664218783378601,0.1711094081401825,0.004347503185272217,0.04338333010673523,-0.010266542434692383,-0.17905916273593903,-0.1771152764558792,0.01498984731733799,-1.7557488414474802,-0.375160518477881,2.876947060286027
1687086905.6604118,-0.9125935435295105,0.36735445261001587,0.17950908839702606,0.0071218013763427734,0.04002457857131958,-0.01825428009033203,-0.05544839799404144,-0.18732471764087677,0.04424611106514931,-1.7650188469193206,-0.3761629985264429,2.8713212593800646
1687086905.672204,-0.9102134704589844,0.37020957469940186,0.185623437166214,-0.0032080411911010742,0.01908782124519348,-0.012985482811927795,-0.09195929020643234,-0.1491716057062149,0.07425977289676666,-1.7719716528057117,-0.3792346308301251,2.867961984879973
1687086905.675696,-0.9079312086105347,0.3737076222896576,0.18974626064300537,0.0021236538887023926,0.015421956777572632,-0.015719860792160034,-0.0961734801530838,-0.11453000456094742,0.07732533663511276,-1.7768185763959983,-0.3830030675756816,2.8637462630576103
1687086905.7106462,-0.9062142372131348,0.3766966760158539,0.1920294463634491,0.004343569278717041,0.0003021359443664551,-0.017514705657958984,-0.03023076057434082,-0.07488107681274414,0.06513967365026474,-1.7796103695853385,-0.38622769644101773,2.861054881062921
1687086905.8052568,-0.9049604535102844,0.3793219327926636,0.1927729994058609,0.0146712064743042,-0.01549142599105835,-0.013589024543762207,0.02095579355955124,-0.02987273782491684,0.03060033731162548,-1.7806774277561503,-0.38906334844741003,2.8604395973090866
1687086905.8093781,-0.9054526686668396,0.3791460692882538,0.19079752266407013,-0.0003090500831604004,-0.03298527002334595,0.006345987319946289,0.017356116324663162,0.030878931283950806,-0.05051784589886665,-1.7784785904908065,-0.38887329398141157,2.8621907519742864
1687086905.8645039,-0.9072368741035461,0.37577688694000244,0.18897879123687744,0.003138422966003418,-0.028883635997772217,0.02058541774749756,-0.03191963583230972,0.034631382673978806,-0.0936230793595314,-1.77616118940868,-0.38523494998855673,2.8627619462760303
1687086905.956959,-0.9091940522193909,0.3705670237541199,0.18985722959041595,0.0030511021614074707,-0.008277714252471924,0.018242090940475464,-0.07001878321170807,0.012663043104112148,-0.09897001087665558,-1.7766573916154385,-0.3796194195333642,2.86103375776429
1687086905.962513,-0.9107487797737122,0.36507463455200195,0.19302071630954742,0.005277037620544434,0.0037759244441986084,0.014727696776390076,-0.03068474493920803,-0.004184095188975334,-0.10252117365598679,-1.7796423124695229,-0.37371297863124714,2.8578697888803397
1687086906.049385,-0.9123872518539429,0.35977867245674133,0.19521433115005493,0.012027204036712646,0.009667009115219116,0.007956370711326599,-0.01541043445467949,0.01919942907989025,-0.11748500168323517,-1.7815781834794584,-0.3680306813499987,2.85697557269993
1687086906.136374,-0.9145492315292358,0.35421130061149597,0.19527949392795563,0.0018142461776733398,0.02440500259399414,0.009585022926330566,-0.0346662700176239,0.05487405136227608,-0.12299055606126785,-1.781162607960285,-0.3620705407203257,2.8566299495911536
1687086906.1420999,-0.9167068600654602,0.3494129180908203,0.19380106031894684,-0.006663382053375244,0.04351601004600525,0.010987147688865662,-0.08534322679042816,0.06875193119049072,-0.06938719004392624,-1.779138650522851,-0.35694447024330467,2.855331634443309
1687086906.226458,-0.9177985787391663,0.34699350595474243,0.19298025965690613,0.0017829537391662598,0.04669845104217529,0.013562679290771484,-0.05514932796359062,0.05407778173685074,-0.008776362985372543,-1.7780416371110785,-0.35436350920138193,2.8506214218636097
1687086906.2397962,-0.9173383712768555,0.34845080971717834,0.19254229962825775,0.013926446437835693,0.03585699200630188,0.005501538515090942,0.003648410551249981,0.021245194599032402,0.06615252047777176,-1.7776854062206844,-0.35591780750059215,2.8487581173553695
1687086906.3168879,-0.9154797792434692,0.35330730676651,0.1925366371870041,0.0022872090339660645,0.017557471990585327,0.024366945028305054,0.03991590440273285,0.011327125132083893,0.10662820190191269,-1.778087595412926,-0.3611040578561341,2.8482289619733514
1687086906.330256,-0.9136586785316467,0.3588303327560425,0.19096709787845612,-0.020179152488708496,0.003581017255783081,0.015606269240379333,0.027932394295930862,0.02863556146621704,0.09746304899454117,-1.7768436173897133,-0.3670144847942795,2.850077631462082
1687086906.407629,-0.9114062190055847,0.36444154381752014,0.19110354781150818,-0.02871805429458618,0.013335436582565308,0.018323272466659546,0.03324493393301964,0.037776630371809006,0.14692343771457672,-1.777481898885891,-0.3730330331230367,2.848789019811413
1687086906.4135308,-0.9069844484329224,0.37307292222976685,0.19543658196926117,0.027513742446899414,0.07355168461799622,0.07063089311122894,-0.24914394319057465,-0.107887402176857,0.3008393347263336,-1.7830307893016983,-0.3823188614785213,2.8395717380956644
1687086906.464009,-0.8978381752967834,0.3875848352909088,0.20896059274673462,-0.008121848106384277,0.12016654014587402,0.0701378583908081,-0.3802725076675415,-0.19073259830474854,0.4715218245983124,-1.7994630971996481,-0.39801018023899937,2.8178061699791734
1687086906.556532,-0.8843169212341309,0.4085979461669922,0.22590148448944092,0.004632413387298584,0.1282672882080078,0.05556216835975647,-0.06135913357138634,-0.3480376899242401,0.5708324909210205,-1.8209006778248693,-0.42091739898233416,2.7986507655182606
1687086906.562573,-0.8676347732543945,0.43430113792419434,0.24205802381038666,-0.017786860466003418,0.044641584157943726,0.01709720492362976,-0.04403412342071533,-0.3580176532268524,0.6053568124771118,-1.8428645894944427,-0.4492622930809733,2.7898490904135738
1687086906.615453,-0.851191520690918,0.458275705575943,0.2558438777923584,-0.03572547435760498,-0.03220471739768982,-0.052444249391555786,0.006230062339454889,-0.22070442140102386,0.518222987651825,-1.8627773124722187,-0.4760542338540585,2.7780406751759985
1687086906.7062268,-0.8381516933441162,0.4778629243373871,0.2629612982273102,-0.02876114845275879,-0.11471912264823914,-0.10372066497802734,0.023642491549253464,-0.0647507905960083,0.3633052706718445,-1.8748100295656138,-0.49822027950454956,2.7715791918157273
1687086906.71239,-0.8335460424423218,0.48838376998901367,0.25822892785072327,-0.05395090579986572,-0.18838080763816833,-0.17830348014831543,0.14566202461719513,0.27306661009788513,0.05194227397441864,-1.871215534751535,-0.5102366485339836,2.7717463003003773
1687086906.763346,-0.8482547998428345,0.47733888030052185,0.2293717861175537,-0.1726803183555603,-0.42822086811065674,-0.2691361606121063,-0.22649621963500977,1.2329845428466797,-0.6705630421638489,-1.8348849954663113,-0.49762379046259086,2.775801827655697
1687086906.8555899,-0.8730614185333252,0.44915860891342163,0.18978923559188843,0.03675788640975952,-0.2425699532032013,0.2397150844335556,-0.46365275979042053,-0.2282351702451706,-0.062210507690906525,-1.7848496462038153,-0.46582339292072916,2.7887661450939016
1687086906.861474,-0.8472053408622742,0.46769702434539795,0.2519969642162323,0.18918538093566895,0.46551513671875,-0.1303691864013672,-2.079357147216797,-0.7973153591156006,1.5250725746154785,-1.8599073991201758,-0.486683488229656,2.6819775457505406
1687086906.915061,-0.7568734884262085,0.5247402787208557,0.38960182666778564,-0.04895830154418945,1.3660218715667725,1.0459754467010498,-2.722238063812256,-2.45790433883667,3.079080820083618,-2.0461754467640607,-0.552410006569292,2.4905322065304087
1687086907.006023,-0.5874464511871338,0.6016227602958679,0.5412545800209045,0.13217002153396606,1.3724830150604248,0.7482808232307434,-0.9972778558731079,-3.5842936038970947,3.8088088035583496,-2.3152925108654783,-0.6455310995186617,2.2791572119240717
1687086907.1014361,-0.31483539938926697,0.6833433508872986,0.6587265133857727,-0.4971153438091278,1.0724549293518066,1.1418564319610596,0.44257503747940063,-4.695942401885986,4.900324821472168,-2.695743767534472,-0.7523321646554105,2.0233351163054007
1687086907.115244,0.041111867874860764,0.7707761526107788,0.6357781291007996,-0.9806413054466248,0.7173677682876587,0.8211005330085754,1.841355562210083,-4.970069408416748,5.621031284332275,3.07701869764207,-0.8800585372582305,1.662551594668209
1687086907.118857,0.4042985737323761,0.736888587474823,0.5417913198471069,-1.3199174404144287,0.5388529300689697,0.8306452631950378,0.7697123289108276,-4.200848579406738,6.0170793533325195,2.5005115185034876,-0.8284561822380866,1.2140795020251345
1687086907.1502829,0.6849886178970337,0.6107626557350159,0.3971889913082123,-1.2833621501922607,0.3110511302947998,0.31738001108169556,1.9463014602661133,-2.843374013900757,5.523542881011963,2.096266069177992,-0.6570234400092335,0.8787517375140749
1687086907.215067,0.8736478090286255,0.4259355962276459,0.23519764840602875,-1.024969458580017,0.41517454385757446,0.5141309499740601,1.3340965509414673,-3.2469520568847656,5.207244873046875,1.833774801811648,-0.4399957202778261,0.6701912449067824
1687086907.306592,0.9742320775985718,0.20528049767017365,0.0934436172246933,-1.2615857124328613,0.5290334224700928,0.06872677803039551,2.285543203353882,-1.8723276853561401,4.926441669464111,1.6664189608331421,-0.2067503019115446,0.5342138131947543
1687086907.425859,0.9994264841079712,-0.03385571390390396,-0.00031783635495230556,-0.986990749835968,0.45751601457595825,0.021558105945587158,2.4231607913970947,-1.3394334316253662,4.793320655822754,1.5704783080570632,0.03386218546815505,0.40276861166146016
1687086907.431623,0.9620561599731445,-0.2701306939125061,-0.03843173384666443,-0.8271839022636414,0.28754109144210815,-0.07823693007230759,1.455217719078064,-0.7388672232627869,4.572873115539551,1.5308700605148622,0.27352877020855565,0.30777482635368125
1687086907.519343,0.8792251348495483,-0.475029319524765,-0.036192428320646286,-0.8368211388587952,0.34580278396606445,-0.06710958480834961,0.5289176106452942,-0.30668920278549194,4.426506996154785,1.529655548751758,0.49499735076406826,0.25249474459459104
1687086907.525356,0.7566932439804077,-0.6522428393363953,-0.044663455337285995,-0.7725470066070557,0.31929606199264526,-0.03880215063691139,-0.39345428347587585,-0.04521007090806961,4.269137859344482,1.5118402061864875,0.710539518011771,0.27364483254154076
1687086907.530299,0.6018590331077576,-0.7959045171737671,-0.06558524817228317,-0.49480342864990234,0.3037934899330139,-0.0039490386843681335,0.11697894334793091,-0.5064976215362549,4.308342456817627,1.4622535041506837,0.9205001872301617,0.3270340977318501
1687086907.6358628,0.4310300946235657,-0.9010772109031677,-0.04767221957445145,-0.44696030020713806,0.006256163120269775,-0.014568325132131577,0.7722798585891724,-0.24084138870239258,3.5683114528656006,1.4606433485624537,1.122247099295521,0.30874729483672536
1687086907.6422029,0.2912587523460388,-0.9566385746002197,0.00329149654135108,-0.2521199584007263,-0.2509571313858032,0.06761610507965088,1.1454111337661743,-0.6116923093795776,2.3723771572113037,1.5820967823437089,1.2752343282210643,0.1573893473800754
1687086907.7578712,0.2151363641023636,-0.9764392375946045,0.016811734065413475,-0.23497274518013,-0.5696727633476257,0.09192240238189697,-0.25134244561195374,-0.39424967765808105,0.8902712464332581,1.6487823858081,1.3532928870376508,0.06675417482722633
1687086907.762875,0.19583065807819366,-0.9806360006332397,0.0018442460568621755,-0.04203730821609497,-0.3509069085121155,0.050935983657836914,-0.25453346967697144,-0.5871945023536682,-0.013231565244495869,1.5802136037861263,1.3736829777493902,0.11208023087788709
1687086907.8461251,0.20414727926254272,-0.9787951707839966,-0.016854217275977135,0.005005002021789551,-0.1163892149925232,0.05120176076889038,-0.4264526963233948,-0.5031884908676147,-0.23898138105869293,1.488424033398298,1.3644946275147665,0.17965537219709085
1687086907.861151,0.21232415735721588,-0.976208508014679,-0.04399403557181358,-0.0011119544506072998,0.0023468732833862305,-0.22993171215057373,-0.26216864585876465,-0.016667833551764488,-0.17188459634780884,1.366485250977609,1.3522261734514767,0.28635050676274937
1687086907.9406629,0.22181659936904907,-0.9735889434814453,-0.054055459797382355,-0.06500202417373657,0.05377388000488281,-0.11101412773132324,-0.5625203847885132,0.1868361383676529,-0.23959007859230042,1.3317611202148698,1.3404567294148522,0.3284474767369999
1687086907.9456348,0.2369648814201355,-0.967764675617218,-0.08531814813613892,-0.04316294193267822,-0.04308432340621948,0.02258925884962082,-0.2158118039369583,0.11040976643562317,-0.3802137076854706,1.2252004444661242,1.316198582524354,0.44698332764562
1687086908.025495,0.2600817084312439,-0.9621991515159607,-0.08080930262804031,-0.05366078019142151,0.0036268234252929688,-0.06117367744445801,0.021959541365504265,-0.07555694133043289,-0.594662070274353,1.2695454187322237,1.2949650904546295,0.3989998893009785
1687086908.030484,0.30385562777519226,-0.9469146728515625,-0.10499640554189682,-0.24782535433769226,-0.07356256246566772,-0.1789848804473877,-0.6781563758850098,0.26265016198158264,-1.3108515739440918,1.238094024625808,1.2434989222603565,0.4365340367482299
1687086908.115425,0.396926611661911,-0.9081246256828308,-0.13326223194599152,-0.5660855770111084,-0.12486481666564941,-0.19364207983016968,-1.163490891456604,0.7565018534660339,-2.590146780014038,1.2468856675996336,1.1387830259970664,0.4466583202291786
1687086908.1274729,0.546599805355072,-0.8228597044944763,-0.15533952414989471,-0.7005610466003418,0.00883394479751587,-0.0981089323759079,-0.7037139534950256,1.0926226377487183,-3.928215742111206,1.2939042500130198,0.966425367678201,0.44988176765769994
1687086908.2088141,0.7256660461425781,-0.675933837890625,-0.12853804230690002,-0.7541695237159729,0.01116955280303955,-0.021165892481803894,-0.2738363444805145,1.3920629024505615,-5.106479167938232,1.39548360488044,0.7422311011538774,0.40205321300384744
1687086908.214756,0.8937296867370605,-0.4399411678314209,-0.08774247765541077,-0.9143139123916626,0.03680405020713806,0.008763022720813751,-0.6347259283065796,1.6747708320617676,-6.227914333343506,1.4729343020828145,0.45553314757942664,0.3858877434884858
1687086908.265573,0.9921913146972656,-0.12470252811908722,-0.0023304137866944075,-0.9359475374221802,0.0988541916012764,0.12539255619049072,-0.23917937278747559,1.9287716150283813,-6.942277908325195,1.5684475765686268,0.12502801648423867,0.39143801990198923
1687086908.359398,0.9647315740585327,0.232504203915596,0.12342856079339981,-1.2021126747131348,0.148141548037529,-0.0572969987988472,-0.23202228546142578,3.31498384475708,-7.271139144897461,1.6980458532923575,-0.2346516648527378,0.42373078914894513
1687086908.3652759,0.7800808548927307,0.5608011484146118,0.2774450182914734,-1.0276548862457275,0.23138940334320068,-0.013925790786743164,0.34728139638900757,3.9238340854644775,-7.528791904449463,1.9125061879869947,-0.595353088772919,0.5137385066227756
1687086908.4149961,0.4547717273235321,0.7951838374137878,0.4010801613330841,-1.0145251750946045,0.42388659715652466,0.29003608226776123,0.13632230460643768,4.124134063720703,-7.3259172439575195,2.293541928515682,-0.9193106601930935,0.7659442478805609
1687086908.5076962,0.06832122057676315,0.8958669900894165,0.4390377998352051,-0.757942259311676,0.5759193301200867,0.5318483710289001,0.16182880103588104,3.3628556728363037,-6.8517374992370605,2.987215044258721,-1.1103786244916853,1.3566817562769389
1687086908.6025438,-0.2904515862464905,0.8582909107208252,0.4230532646179199,-0.8069452047348022,0.8092045783996582,0.5735744833946228,-0.3171519935131073,3.1444149017333984,-6.046882152557373,-2.5399436393821953,-1.031929878524057,2.0202841516976595
1687086908.607755,-0.579778254032135,0.7406683564186096,0.33951056003570557,-0.5637763738632202,0.8017052412033081,0.40394341945648193,1.7778949737548828,2.908107042312622,-5.460287094116211,-2.1005505478008257,-0.8340645640702925,2.3798466166511645
1687086908.612803,-0.786686360836029,0.5917775630950928,0.17585162818431854,-0.5108447670936584,0.7925759553909302,0.3903104066848755,2.3396618366241455,2.132674217224121,-4.816275119781494,-1.7907155422187664,-0.6332621741579822,2.652771005656187
1687086908.652591,-0.8994536399841309,0.433490514755249,0.0553988441824913,-0.38808298110961914,0.9810448884963989,0.4526883363723755,1.3796879053115845,0.8991332054138184,-2.9735822677612305,-1.6323102841643276,-0.44836255388421614,2.7980221250872908
1687086908.717327,-0.939563512802124,0.3398265242576599,0.041691917926073074,0.017291784286499023,0.5190906524658203,0.25368762016296387,1.0541940927505493,-0.24992479383945465,-1.6386070251464844,-1.6151409449184024,-0.346732424814778,2.8511822213185387
1687086908.834347,-0.9626930952072144,0.26945680379867554,0.024793749675154686,0.016358375549316406,0.5707682967185974,-0.0062390584498643875,2.364520311355591,-0.5633692145347595,-1.2449290752410889,-1.5965452079118934,-0.27282893260953,2.952693313940787
1687086908.8488631,-0.9738560914993286,0.22630703449249268,0.019722789525985718,0.0012916326522827148,0.8050649166107178,-0.1129082441329956,-0.4046493470668793,0.26648956537246704,-0.7042771577835083,-1.5910458219973758,-0.22828467181001733,3.0165576686089355
1687086908.926126,-0.9752081632614136,0.22108140587806702,0.009581285528838634,0.14413833618164062,0.7215912342071533,-0.1548144817352295,0.6879494190216064,0.11226630955934525,0.4233195185661316,-1.5806208724013115,-0.2229231712835742,3.0212591561873032
1687086908.932005,-0.9688398241996765,0.2475791573524475,0.007349792867898941,-0.05066096782684326,-0.046392083168029785,0.07829773426055908,-0.5299421548843384,0.07184673845767975,0.6499040126800537,-1.5783823610398504,-0.25018081875194403,3.0156559235814977
1687086909.0189052,-0.9609498977661133,0.2762695848941803,0.015824105590581894,-0.02824687957763672,-0.09940505027770996,-0.006470441818237305,-0.6686394214630127,0.036410242319107056,0.4305928647518158,-1.5872619877186342,-0.27991045257142755,2.9932248927671656
1687086909.024064,-0.9565629959106445,0.2903525233268738,0.02612757682800293,0.023747503757476807,-0.19150614738464355,-0.01802515983581543,-0.6318362951278687,-0.08862323313951492,0.24408982694149017,-1.598103552978452,-0.29459520138577433,2.9497185030179067
1687086909.074681,-0.9547757506370544,0.2955181896686554,0.03273740038275719,-0.047985851764678955,-0.16899242997169495,0.046104662120342255,-0.4584991931915283,-0.007884119637310505,0.03310637176036835,-1.605070950171308,-0.2999978995408959,2.925779464775767
1687086909.1697679,-0.9554511308670044,0.2927502989768982,0.03755166381597519,-0.044426679611206055,-0.11594679951667786,-0.0050961971282958984,-0.3046364188194275,0.06916521489620209,-0.10788377374410629,-1.6100786574202608,-0.29710188689421746,2.9032181739516054
1687086909.174693,-0.9576163291931152,0.2852046489715576,0.040359463542699814,-0.02555304765701294,-0.05273708701133728,-0.011093143373727798,-0.3019474148750305,0.004829544574022293,-0.16831356287002563,-1.6129171558062074,-0.28921994245412824,2.8909984897093612
1687086909.2231932,-0.9603198766708374,0.27504852414131165,0.04619255289435387,0.007118701934814453,-0.008172452449798584,0.029277320951223373,-0.6201579570770264,0.015987485647201538,-0.17543438076972961,-1.6188604952606553,-0.2786401729389248,2.8652663124694575
1687086909.314466,-0.9606746435165405,0.27091774344444275,0.06089281290769577,0.07874709367752075,0.09289750456809998,0.03369642049074173,-0.8610146045684814,-0.16305969655513763,0.07411372661590576,-1.6340971096969659,-0.2743463011638997,2.8255600168514423
1687086909.329039,-0.9584146738052368,0.27427056431770325,0.07884587347507477,0.005976438522338867,0.2023223340511322,-0.010257728397846222,-0.8256059288978577,-0.08548134565353394,0.22913414239883423,-1.6528784586959684,-0.2778310964468674,2.7845483833188696
1687086909.371719,-0.9522817134857178,0.28873711824417114,0.09894565492868423,-0.04019564390182495,0.3092547357082367,0.0376051664352417,-1.0743911266326904,-0.13417327404022217,0.5249956250190735,-1.674328576859694,-0.29290750348918937,2.732510350010335
1687086909.464491,-0.9420484304428101,0.3149558901786804,0.11553122848272324,0.004212796688079834,0.41188114881515503,0.04065775126218796,-0.6837363839149475,-0.19359101355075836,0.8926081657409668,-1.6928252909893866,-0.3204101711230508,2.681450249177353
1687086909.479846,-0.9150021076202393,0.3716113269329071,0.15708670020103455,0.004861056804656982,0.3784496486186981,0.38652288913726807,-1.3646701574325562,-1.0374641418457031,1.9763665199279785,-1.740817928891922,-0.38074404337383094,2.614943747415508
1687086909.5229049,-0.8391533493995667,0.4824744462966919,0.2510775625705719,-0.06741708517074585,0.913079023361206,0.25313377380371094,-0.6900310516357422,-2.4556634426116943,3.373744249343872,-1.8615221824471397,-0.503477507914372,2.5384787611490096
1687086909.650177,-0.6897653341293335,0.6112268567085266,0.388104647397995,-0.5035939812660217,0.6267795562744141,0.31614944338798523,-0.6458035707473755,-3.218733072280884,4.029138088226318,-2.0833087151258964,-0.6576098124854455,2.3990091517082237
1687086909.665837,-0.467953085899353,0.7265612483024597,0.5031185150146484,-0.7307467460632324,0.38290512561798096,0.487359881401062,-0.06444802135229111,-3.518651247024536,4.421469688415527,-2.3923916833567236,-0.8133038991125294,2.1997122345900544
1687086909.7656589,-0.20200778543949127,0.817832350730896,0.5388347506523132,-0.8171725273132324,0.33446550369262695,0.168410062789917,0.6135116815567017,-3.288526773452759,4.562525272369385,-2.7829118853816794,-0.9576340888616092,1.9163966902346037
1687086909.780875,0.07711317390203476,0.8436285853385925,0.5313608646392822,-0.8953047394752502,0.35008174180984497,0.3021199107170105,0.6028167009353638,-2.9762141704559326,4.756863117218018,2.9974748629030374,-1.0040058794147846,1.5054933209487704
1687086909.857621,0.3449467420578003,0.8095448017120361,0.47502514719963074,-0.7401494383811951,0.1858927607536316,0.3124351501464844,0.6407475471496582,-3.0441274642944336,4.468104362487793,2.513521105324404,-0.9433763327075099,1.101196027018362
1687086909.863385,0.5865719318389893,0.7243716716766357,0.36224207282066345,-0.7978756427764893,0.44727450609207153,0.23114171624183655,1.6300853490829468,-2.6900594234466553,4.710546493530273,2.1240260586123942,-0.8101225226385069,0.7909695487251954
1687086910.004261,0.7720337510108948,0.5892794728279114,0.2381465584039688,-0.7338104248046875,0.22795075178146362,0.28329208493232727,0.8461552262306213,-2.1648290157318115,4.456522464752197,1.870002361382203,-0.6301667380728931,0.580189742655401
1687086910.008379,0.906638503074646,0.4003356099128723,0.13318461179733276,-0.8010934591293335,0.4253480136394501,0.334131121635437,0.34496408700942993,-2.126467704772949,4.585901737213135,1.7166524910506402,-0.4118830670268799,0.510555243346087
1687086910.03508,0.9821490049362183,0.183704674243927,0.04044492542743683,-0.7568378448486328,0.4899250864982605,0.04993295669555664,1.5875171422958374,-1.40949547290802,4.759180068969727,1.611953102158121,-0.18475395210895068,0.42455069782784005
1687086910.0388231,0.9985595941543579,-0.045516934245824814,-0.028408031910657883,-0.7753234505653381,0.27252197265625,0.13285446166992188,1.307970643043518,-1.0541833639144897,4.445376396179199,1.542354988296186,0.04553266741073166,0.354116245986825
1687086910.0421638,0.96250981092453,-0.2659034729003906,-0.05357217416167259,-0.7532508969306946,0.2966042160987854,-0.024781696498394012,0.6033852696418762,-0.42301711440086365,4.372394561767578,1.515194858063922,0.2691410088453693,0.3039378866022967
1687086910.0904078,0.885082483291626,-0.45953813195228577,-0.07384631782770157,-0.6528134346008301,0.10234525799751282,-0.05725716054439545,-0.4825845956802368,-0.22535230219364166,4.092167377471924,1.4875547366987618,0.47747508277755707,0.3348205491183185
1687086910.156997,0.7740849256515503,-0.6293367743492126,-0.06875676661729813,-0.6130590438842773,0.3399539589881897,-0.0798332616686821,0.9684215188026428,-0.20330810546875,3.9812002182006836,1.4822055415389084,0.6806994722609939,0.32877035923397957
1687086910.2147012,0.6428775787353516,-0.7618054747581482,-0.07975534349679947,-0.39980506896972656,-0.08846008777618408,-0.009767957031726837,-0.4091256558895111,-0.11742950230836868,3.4668729305267334,1.4473670536442302,0.8660955872739541,0.36298155387324516
1687086910.3078551,0.5202794075012207,-0.8513521552085876,-0.06714747846126556,-0.3356328010559082,-0.04415559768676758,-0.09245944023132324,0.7136951684951782,-0.3298535645008087,2.55808687210083,1.4424454073937456,1.0185573991920125,0.3524953760408057
1687086910.312666,0.4236077070236206,-0.9046390652656555,-0.04674097150564194,-0.23691639304161072,-0.2015162706375122,-0.07018709182739258,0.5624250173568726,-0.2679084837436676,1.750793695449829,1.4609006508545523,1.1305320345470384,0.31815797387117756
1687086910.3663669,0.36397114396095276,-0.9304870367050171,-0.041457097977399826,-0.16949790716171265,-0.27581167221069336,0.01896566152572632,-0.09259279817342758,-0.288745254278183,0.8660197257995605,1.4573829485346093,1.1957401931421268,0.3033971949667442
1687086910.4272408,0.33986809849739075,-0.9395390152931213,-0.04190458357334137,-0.07618093490600586,-0.2020013928413391,-0.042247653007507324,0.3589940071105957,-0.3485349416732788,0.19490474462509155,1.448118870629151,1.2212817148857276,0.2967437308629667
1687086910.550348,0.33701297640800476,-0.9407250881195068,-0.03819049894809723,0.000694572925567627,-0.1326696276664734,0.041898369789123535,-0.1320570558309555,-0.3865561783313751,-0.04367724806070328,1.4579571309322379,1.2247617908326414,0.26687323359770354
1687086910.565422,0.3390340209007263,-0.9383753538131714,-0.06713680177927017,0.0015269219875335693,-0.03792756795883179,0.06471068412065506,-0.7521805167198181,-0.3101484179496765,-0.06542861461639404,1.3753016736489307,1.217899284072305,0.33732251775140226
1687086910.668302,0.34075695276260376,-0.933056652545929,-0.11528097093105316,0.0032066404819488525,-0.004244804382324219,-0.0036917850375175476,-0.7466360926628113,-0.060674477368593216,-0.008617584593594074,1.2445748351270642,1.2028184298456528,0.4628488882218966
1687086910.682373,0.34041252732276917,-0.9329972863197327,-0.11676950007677078,0.03200870752334595,0.07565182447433472,-0.12625718116760254,0.17297960817813873,0.0592556893825531,0.01302347518503666,1.2403500985554214,1.2026534052049922,0.4686946682431629
1687086910.758068,0.343268483877182,-0.9328216314315796,-0.10959208011627197,-0.0795050859451294,-0.01421499252319336,-0.10938679426908493,0.11649750918149948,0.24539782106876373,-0.1394897997379303,1.2617643057035028,1.202165635991327,0.4545773671466049
1687086910.763577,0.35925397276878357,-0.9258977770805359,-0.11683261394500732,-0.14315900206565857,-0.044561147689819336,0.12743747234344482,-0.9113913178443909,0.039118409156799316,-0.5274974703788757,1.2563754431202039,1.1834051481857597,0.4695347572438646
1687086910.8487182,0.39729925990104675,-0.9011855721473694,-0.17325672507286072,-0.2508300840854645,-0.07066196203231812,-0.03942026197910309,-1.1828311681747437,0.3556429445743561,-1.089888334274292,1.1595731658600466,1.1224971420530372,0.5845241521280462
1687086910.864104,0.46258416771888733,-0.8632767796516418,-0.2019137293100357,-0.29089224338531494,-0.01828444004058838,-0.1362972855567932,-0.8256224393844604,0.4625455439090729,-1.6727272272109985,1.1592332633213844,1.0417261625752392,0.6101338730474654
1687086910.907083,0.552157461643219,-0.8013685941696167,-0.2300657331943512,-0.41699516773223877,0.004325926303863525,-0.12146618962287903,-0.5697231292724609,0.3531971573829651,-2.5075061321258545,1.1760050166485805,0.9295796990418423,0.6112889298290901
1687086910.9111009,0.6700873970985413,-0.7038600444793701,-0.23571959137916565,-0.6444069147109985,0.06544762849807739,-0.14986997842788696,-0.549554705619812,0.30017390847206116,-3.5904221534729004,1.2325416410177072,0.7808170973538596,0.5565761799403558
1687086910.998692,0.8084843754768372,-0.5437210202217102,-0.2252122163772583,-0.7621892094612122,0.12772071361541748,-0.1607130765914917,-0.41064733266830444,1.0353716611862183,-4.706449031829834,1.2991225141089953,0.5748644578227956,0.5070592787595535
1687086911.086802,0.9348162412643433,-0.30867472290992737,-0.17560897767543793,-0.8389148116111755,0.19853684306144714,-0.10225355625152588,-0.08404254168272018,1.7847312688827515,-5.818366527557373,1.3851064121863017,0.3137994164849207,0.45667465908797555
1687086911.092825,0.9971047043800354,-0.006400267127901316,-0.07577145099639893,-0.6337623596191406,0.18013685941696167,-0.02388370782136917,-0.2007886916399002,2.055891990661621,-6.563985347747803,1.4949506250366487,0.006400310856405357,0.4177345429203808
1687086911.178282,0.9404302835464478,0.3356223404407501,0.05430057272315025,-0.8070380091667175,0.177973210811615,0.047597646713256836,-0.10241346061229706,3.1443305015563965,-7.247544765472412,1.6284724215809112,-0.3422658275301513,0.4277771613596672
1687086911.19361,0.7368675470352173,0.6558108329772949,0.16412797570228577,-0.6193139553070068,0.354641318321228,0.14538119733333588,2.7129244804382324,3.126582622528076,-7.524351596832275,1.7899561778065893,-0.7152562117524787,0.4237062060860565
1687086911.2668571,0.4057713449001312,0.908417284488678,0.1006358191370964,-0.4685308337211609,0.23843324184417725,0.6283681392669678,2.8365681171417236,1.2024611234664917,-8.130119323730469,1.8139022588915645,-1.1394825754956792,0.32141666147956033
1687086911.28088,0.02281220071017742,0.9997390508651733,-0.0010980555089190602,-0.5403903722763062,0.5698714256286621,0.32554566860198975,1.81703782081604,0.22806474566459656,-7.435719013214111,1.5226988783274567,-1.5479505702092202,-0.007751369405857945
1687086911.323422,-0.30881375074386597,0.9469524025917053,-0.08896693587303162,-0.4403623044490814,0.8691485524177551,0.265877366065979,1.300392508506775,-0.2090810090303421,-6.103359699249268,-1.2902992773387416,-1.2436164674030121,-2.8405489840825586
1687086911.384478,-0.566848635673523,0.817646861076355,-0.10067858546972275,-0.43556225299835205,0.575709342956543,0.23762625455856323,0.06458869576454163,-0.09334663301706314,-5.508664131164551,-1.3950183178168505,-0.9573117719898276,-2.9324891566117426
1687086911.476629,-0.7552116513252258,0.6440244913101196,-0.12201502919197083,-0.3201209306716919,0.7430298924446106,-0.024988174438476562,0.28126633167266846,0.08288135379552841,-4.669568061828613,-1.4106164665373162,-0.6997474168332289,-2.968427841896866
1687086911.491528,-0.8664946556091309,0.48471835255622864,-0.11931130290031433,-0.33664560317993164,0.6225508451461792,0.06286907196044922,-0.9755866527557373,0.4217830300331116,-3.1456212997436523,-1.4339625523051232,-0.5060411459547902,-3.028605705491377
1687086911.5647159,-0.9162400960922241,0.3906610310077667,-0.08881432563066483,-0.043247759342193604,0.4793034791946411,0.250862717628479,-2.195770740509033,-0.33497217297554016,-1.5431278944015503,-1.4741647621794758,-0.4013495730233875,-3.130820878463389
1687086911.5806952,-0.9390987753868103,0.3411811888217926,-0.0410972498357296,-0.06935465335845947,0.4265037178993225,-0.09580457210540771,-0.2304801493883133,-0.3780958652496338,-1.0300042629241943,-1.5270617945475384,-0.34817318778158507,3.06348767235806
1687086911.622676,-0.9541710019111633,0.2976292371749878,-0.031214527785778046,0.1190117597579956,0.39664554595947266,-0.16975903511047363,0.8698858022689819,-0.590419352054596,-0.6688753366470337,-1.5380942228065146,-0.30220839454470927,3.0959122506904078
1687086911.7149692,-0.9612457156181335,0.2753538489341736,-0.013672420755028725,-0.022473156452178955,0.35191962122917175,-0.07405036687850952,-0.1653130203485489,-0.32537877559661865,-0.3400633931159973,-1.556573636926731,-0.27895777060018523,3.1158572811151823
1687086911.73089,-0.9633764624595642,0.26812979578971863,0.0034445212222635746,0.0012947320938110352,0.3431219160556793,-0.24575412273406982,-0.09126107394695282,-0.04219033569097519,0.01783868297934532,-1.5743717789942355,-0.27145120191162625,3.097445910343083
1687086911.770603,-0.9612219929695129,0.2757410705089569,0.004389252979308367,-0.004354238510131836,0.14048811793327332,-0.07563257217407227,-0.41502469778060913,0.06825512647628784,0.2269946187734604,-1.5753626212295153,-0.2793605869765789,3.0907238176409733
1687086911.926805,-0.9575316905975342,0.2882441580295563,0.006954366806894541,-0.010699450969696045,0.030237257480621338,-0.048412442207336426,-0.27603012323379517,0.028590990230441093,0.290014386177063,-1.5780590048679148,-0.2923926501010238,3.0685758906186344
1687086911.943161,-0.9534832239151001,0.3013139069080353,0.008924614638090134,-0.004707694053649902,-0.07960373163223267,0.04994368553161621,-0.31847870349884033,0.04985005408525467,0.19796088337898254,-1.5801560653914712,-0.3060702926945389,3.054757434494693
1687086911.946947,-0.9515070915222168,0.30752280354499817,0.007980427704751492,-0.007217764854431152,-0.02602878212928772,0.03819262981414795,-0.36205965280532837,0.10175314545631409,0.1072356253862381,-1.579183275118947,-0.31258858056167504,3.0393641087994268
1687086912.012178,-0.9507009983062744,0.30990591645240784,0.011216576211154461,-0.02880638837814331,-0.0756988525390625,0.04733133316040039,-0.31153419613838196,0.04903925582766533,0.03348454087972641,-1.5825939952623813,-0.3150940723688236,3.0149542045980686
1687086912.0240688,-0.9501480460166931,0.31150540709495544,0.013514102436602116,0.012297332286834717,-0.025449007749557495,-0.00875342171639204,0.0339890718460083,-0.09280266612768173,0.04367150366306305,-1.5850185228239515,-0.31677684638218395,3.0129362801343533
1687086912.1041489,-0.9501079320907593,0.31142881512641907,0.01752304472029209,-0.015697121620178223,-0.07427680492401123,0.01706862449645996,-0.1710185706615448,-0.02713356353342533,-0.05724791809916496,-1.5892374510658283,-0.31669624784495853,3.007135522738502
1687086912.226287,-0.9518188834190369,0.30625492334365845,0.015776146203279495,0.013540565967559814,-0.013911843299865723,-0.006407259032130241,-0.112760990858078,0.01242758147418499,-0.10076487064361572,-1.587369543840001,-0.3112564222265842,3.0038017663255863
1687086912.23272,-0.9548467397689819,0.2964784502983093,0.019187601283192635,0.007184445858001709,-0.03273040056228638,0.008720636367797852,-0.017439913004636765,-0.05037882924079895,-0.1613195538520813,-1.5908885777826478,-0.30100320318366763,2.9978034464229095
1687086912.350678,-0.9578524231910706,0.28659340739250183,0.019559143111109734,-0.023241758346557617,-0.022418111562728882,0.03186297416687012,-0.03836428374052048,-0.02359524741768837,-0.2365807145833969,-1.5912132760863098,-0.2906691891319317,2.9984822481204985
1687086912.3663301,-0.9613273739814758,0.2747557461261749,0.018940068781375885,0.02184385061264038,0.07331237196922302,-0.029590727761387825,0.33622199296951294,-0.02013956941664219,-0.2004908323287964,-1.5904957745747619,-0.27833564807297373,3.0078320924916273
1687086912.369894,-0.9633017182350159,0.26754751801490784,0.021628260612487793,0.050338029861450195,0.021331787109375,0.0006495695561170578,-0.07279276847839355,-0.0670587569475174,-0.11072003841400146,-1.5932447741146065,-0.2708468514323844,3.0121638464353406
1687086912.439044,-0.9639328718185425,0.26524460315704346,0.021871106699109077,-0.026820063591003418,0.03222537040710449,-0.022893432527780533,-0.21427780389785767,-0.007427425589412451,-0.08645586669445038,-1.5934818841085003,-0.26845759129755703,3.007686577890725
1687086912.443931,-0.9645293951034546,0.26297762989997864,0.02292661741375923,-0.0034270882606506348,0.0034559965133666992,-0.09232354164123535,-0.18889766931533813,0.13199380040168762,-0.022151609882712364,-1.5945615968462632,-0.2661071827201637,2.9991759484853504
1687086912.448478,-0.9635663032531738,0.2662654221057892,0.025353239849209785,0.20235109329223633,-0.0016475915908813477,-0.029366254806518555,-0.8224972486495972,-0.008474161848425865,0.24937349557876587,-1.5971021367810427,-0.2695164924215475,2.9721988319610606
1687086912.4940329,-0.9519988894462585,0.30103737115859985,0.055447451770305634,0.022692978382110596,0.2035706639289856,0.23974907398223877,-2.9471991062164307,-0.575675368309021,1.5544888973236084,-1.6289737876984136,-0.3057802973546572,2.883420473759287
1687086912.5556521,-0.9068453311920166,0.39687761664390564,0.1418430656194687,-0.21864283084869385,1.3123202323913574,0.18066667020320892,-1.1137875318527222,-1.1836432218551636,3.2659361362457275,-1.7259528873874581,-0.4081125537127951,2.736588396087322
1687086912.615724,-0.7800989747047424,0.5851675271987915,0.22141437232494354,-0.03266036510467529,1.811164140701294,0.44203782081604004,1.0302940607070923,-2.95988130569458,5.251099586486816,-1.8473517153252312,-0.6250866011921449,2.707084831157074
1687086912.7055612,-0.5326142907142639,0.7945908904075623,0.2914571166038513,-0.8047118186950684,1.185633659362793,0.5661783218383789,0.9958552718162537,-3.231597900390625,6.694065093994141,-2.071502565824796,-0.9183335040648598,2.606656429861599
1687086912.798472,-0.17685309052467346,0.9413424730300903,0.28739678859710693,-1.3168145418167114,0.8093897104263306,0.5955072045326233,1.4439274072647095,-2.624264717102051,7.2066969871521,-2.58995399641878,-1.226586687460992,2.1974036779716375
1687086912.8152251,0.20125925540924072,0.9456953406333923,0.2552545964717865,-1.4391286373138428,0.4663529396057129,0.6354771852493286,-0.2947329580783844,-2.3493735790252686,6.988077640533447,2.4739250807231445,-1.2397271056471826,1.0563543907377144
1687086912.883719,0.5186585783958435,0.822547197341919,0.23325753211975098,-1.3565492630004883,0.331520676612854,0.36691638827323914,-0.16776739060878754,-2.032036542892456,6.166114807128906,1.9934276410588916,-0.9658755762897865,0.6387184620658098
1687086912.897913,0.7588711380958557,0.6305441856384277,0.16287606954574585,-1.1945401430130005,0.44234704971313477,0.3061639070510864,0.11329539120197296,-1.992140531539917,5.695816516876221,1.782218258468514,-0.6822541327345638,0.5034043002122418
1687086912.973521,0.9101385474205017,0.4042489528656006,0.09072169661521912,-1.039060115814209,0.356340616941452,0.1634591817855835,0.24542967975139618,-1.4583613872528076,5.245070457458496,1.6701471488100934,-0.416157543224421,0.435636031097367
1687086912.978324,0.9869308471679688,0.15996704995632172,0.019439227879047394,-0.9396134614944458,0.422445684671402,0.2197575569152832,-0.30229803919792175,-1.4768763780593872,4.915964603424072,1.5904904267847138,-0.16065726954452308,0.4307747819458214
1687086913.0666652,0.9962126612663269,-0.07732884585857391,-0.039757341146469116,-0.8292357325553894,0.3899661898612976,-0.054694537073373795,0.13221725821495056,-1.1519149541854858,4.666355609893799,1.530909007518918,0.07740611905184924,0.4318713823082358
1687086913.083243,0.9491856098175049,-0.300512433052063,-0.0934821143746376,-0.8024876713752747,0.3458310663700104,-0.034859538078308105,-0.2672866880893707,-0.9483375549316406,4.480022430419922,1.4726262640343366,0.3052298819167787,0.45093111179466894
1687086913.1867142,0.857151985168457,-0.4969539940357208,-0.1353769600391388,-0.6992388963699341,0.2843075692653656,-0.12083332240581512,-0.3616085350513458,-0.6721553206443787,4.2379655838012695,1.4141521358922249,0.5200851111743555,0.4979721714576694
1687086913.27848,0.7356934547424316,-0.6593025922775269,-0.15516097843647003,-0.5153261423110962,0.1649484634399414,-0.169973224401474,0.39127030968666077,-0.6430709958076477,3.7048518657684326,1.3629381092628063,0.7198908335145465,0.5316348395667634
1687086913.2954412,0.6149564385414124,-0.7706445455551147,-0.16713902354240417,-0.45219099521636963,-0.0528569221496582,-0.08475302159786224,-0.028699908405542374,-0.3755877912044525,2.8607945442199707,1.3054168719191916,0.8798519166770365,0.5848038895936042
1687086913.299032,0.5100811123847961,-0.8452849388122559,-0.15909232199192047,-0.2557934522628784,-0.08397513628005981,-0.19520150125026703,0.6166324615478516,-0.525208592414856,2.0604629516601562,1.2684616912637843,1.007098194587699,0.6059392581402747
1687086913.365508,0.43154171109199524,-0.8887330293655396,-0.15467765927314758,-0.20395687222480774,-0.1985623836517334,-0.16149966418743134,0.46533071994781494,-0.4450623691082001,1.2534915208816528,1.226630992376991,1.094573995778739,0.6278513484445083
1687086913.377722,0.3905389904975891,-0.9093745946884155,-0.14323797821998596,-0.11137941479682922,-0.2480960488319397,0.03180307149887085,0.45860183238983154,-0.500167965888977,0.5596461296081543,1.219260489655672,1.1417781404171274,0.6057991923344963
1687086913.421993,0.3703441023826599,-0.9210185408592224,-0.12070589512586594,-0.04968070983886719,-0.0014666914939880371,0.01912815123796463,0.4206697642803192,-0.6115676164627075,0.1508481353521347,1.2557243859808633,1.170687356125525,0.5368878398581147
1687086913.5159612,0.36606132984161377,-0.9147250056266785,-0.17110584676265717,-0.10023796558380127,-0.20076870918273926,0.01011037826538086,-1.132007122039795,-0.018880806863307953,0.06285468488931656,1.1335474633450926,1.1548267785298183,0.649688950757829
1687086913.532483,0.3624158501625061,-0.9202578067779541,-0.14758171141147614,0.039287030696868896,0.24192839860916138,-0.17450082302093506,1.16096830368042,-0.015074236318469048,0.029327984899282455,1.1840843798450416,1.1687387283960093,0.5940203419776899
1687086913.639265,0.36114501953125,-0.9222286939620972,-0.13808786869049072,-0.018905669450759888,-0.14164447784423828,0.09870494902133942,-0.3627384901046753,0.025021176785230637,0.012201836332678795,1.2055875916950956,1.1738055844956408,0.5735571947472686
1687086913.644875,0.3622046709060669,-0.9209298491477966,-0.14386071264743805,0.002892434597015381,0.037812232971191406,0.02230924367904663,0.07639262080192566,-0.040940605103969574,-0.05351203680038452,1.1927227199591952,1.1704597262881171,0.5857148675036657
1687086913.727641,0.36544379591941833,-0.9193289875984192,-0.14589346945285797,-0.04536023736000061,-0.01543956995010376,0.006214514374732971,-0.16809335350990295,0.010438619181513786,-0.08808620274066925,1.1909601784047803,1.166371768124587,0.5873645465509308
1687086913.7451549,0.373183012008667,-0.9149095416069031,-0.15386740863323212,-0.045790404081344604,-0.0465010404586792,0.015775367617607117,-0.09213700145483017,0.02821263298392296,-0.2010279893875122,1.1797224100103452,1.1552837488920147,0.6001105361337911
1687086913.783539,0.37958768010139465,-0.911923348903656,-0.15591248869895935,0.04312652349472046,0.003506779670715332,0.008009091019630432,-0.13278977572917938,-0.018403662368655205,-0.13251908123493195,1.181064328019261,1.1479469359091174,0.5989743439474464
1687086913.8753672,0.38237065076828003,-0.9103755354881287,-0.15814228355884552,0.02633604407310486,0.030614852905273438,-0.009139776229858398,-0.0293943602591753,-0.017544889822602272,-0.07681133598089218,1.178634956484371,1.144190791788656,0.6018097392085331
1687086913.8814502,0.3872917592525482,-0.9083571434020996,-0.15777194499969482,-0.04177179932594299,0.005113363265991211,-0.04022608697414398,-0.05385732650756836,-0.026606788858771324,-0.147715225815773,1.1839506927347705,1.139338771820342,0.5971513914854776
1687086913.936674,0.4107610881328583,-0.8973029255867004,-0.1616254299879074,-0.26996827125549316,-0.10046923160552979,-0.1917986273765564,-0.07815586030483246,-0.02803289145231247,-1.1504377126693726,1.1959250326667792,1.1136209296986923,0.5760681579780924
1687086914.026918,0.48900938034057617,-0.8519065976142883,-0.18741630017757416,-0.6798510551452637,-0.1394568681716919,-0.34664130210876465,-0.9377551674842834,0.36728742718696594,-2.4885079860687256,1.2048063060016787,1.019615207566822,0.5764554365687142
1687086914.044345,0.6232216954231262,-0.7559103965759277,-0.20048482716083527,-0.8456032872200012,0.12697362899780273,-0.20379674434661865,-0.8068358898162842,1.0328888893127441,-3.7059409618377686,1.259560182482238,0.857043588949456,0.5534978084639737
1687086914.0833058,0.7758548259735107,-0.5999501347541809,-0.19521453976631165,-0.6621770262718201,0.13602203130722046,0.07433441281318665,-0.7371886372566223,1.0665128231048584,-4.653666973114014,1.3243008834893095,0.6434388115736945,0.536865696821523
1687086914.170816,0.9148601293563843,-0.3762897253036499,-0.1464134156703949,-0.800815999507904,0.2027362883090973,0.07196581363677979,-0.11771977692842484,1.4805264472961426,-5.722779750823975,1.4121029102585747,0.3857884234302067,0.488165859674584
1687086914.17576,0.994839608669281,-0.07333870977163315,-0.07010890543460846,-0.8541537523269653,0.08771251887083054,0.09310395270586014,0.3156247138977051,1.9381837844848633,-6.86676549911499,1.5004400737340653,0.0734046118293311,0.4546514870112885
1687086914.2679071,0.9570087194442749,0.2874644994735718,0.03870907053351402,-0.9916157722473145,0.11326181888580322,0.10730218887329102,0.4637872278690338,2.3365132808685303,-7.568004608154297,1.6112222719727678,-0.29157854178900244,0.42038617034148595
1687086914.38714,0.7569553256034851,0.6384037733078003,0.13949613273143768,-0.9916355609893799,0.1597071886062622,0.1661221981048584,1.6841449737548828,3.190284013748169,-8.36230754852295,1.753037466827063,-0.692422627133985,0.42800390941976335
1687086914.391988,0.4140309691429138,0.8870592713356018,0.2042158842086792,-0.7750539779663086,0.4271801710128784,0.3506852388381958,-1.3538837432861328,2.8811068534851074,-7.934288501739502,2.029019868560302,-1.090935655071162,0.5958097532431158
1687086914.4790611,0.025893963873386383,0.9513823390007019,0.3069217801094055,-0.5856016874313354,0.8590576648712158,0.5368891954421997,-0.8100950717926025,3.044807195663452,-6.780453681945801,3.057425315678086,-1.2576931854559577,1.5299105454252202
1687086914.496879,-0.30366450548171997,0.8945801258087158,0.3278934359550476,-0.50578373670578,0.9493529200553894,0.5102260112762451,-0.5850741863250732,2.7888996601104736,-5.594541072845459,-2.3945394439997583,-1.1074908153899707,2.2668264612179776
1687086914.500304,-0.5713596940040588,0.7768473029136658,0.26468124985694885,-0.3714655637741089,0.7588581442832947,0.367154598236084,0.7748323082923889,2.3377015590667725,-5.242613792419434,-2.004612504369777,-0.8896435259211442,2.5804349304184044
1687086914.5309129,-0.7627431154251099,0.627413809299469,0.15676207840442657,-0.3432289958000183,0.7606474757194519,0.31235405802726746,0.924740731716156,2.0922844409942627,-4.213308811187744,-1.7734978107098174,-0.6782275637883552,2.744921642206997
1687086914.68963,-0.8715432286262512,0.48627111315727234,0.062870554625988,-0.233101487159729,0.7432820796966553,0.3254655599594116,0.835595428943634,1.1580225229263306,-2.727545976638794,-1.6428086341692887,-0.5078172574943496,2.8273197928323097
1687086914.69552,-0.9131295084953308,0.40590599179267883,0.03787875175476074,0.02902001142501831,0.5264211893081665,0.33991360664367676,0.002219441579654813,-0.3491738736629486,-1.0463348627090454,-1.612254899903268,-0.41796993953827266,2.856721031386236
1687086914.808662,-0.9252859950065613,0.37339234352111816,0.06650963425636292,-0.014243245124816895,0.2758384644985199,0.034900180995464325,-0.17184968292713165,-0.5730201601982117,-0.5144884586334229,-1.6425529953723645,-0.38266316734826933,2.846684586705808
1687086914.8136,-0.9333239793777466,0.34949788451194763,0.08220551162958145,0.012105047702789307,0.425618052482605,-0.047781698405742645,0.8583091497421265,-0.2972998321056366,-0.5882405042648315,-1.6586478313088597,-0.3570351476527324,2.866847864047375
1687086914.818342,-0.9424275159835815,0.32574373483657837,0.07563652098178864,0.10546791553497314,0.3700873851776123,-0.058226361870765686,0.63514643907547,0.01577492617070675,-0.5068028569221497,-1.6508817963305726,-0.33179826833066633,2.9160611501007123
1687086914.987,-0.9470479488372803,0.313715398311615,0.06843070685863495,0.03388571739196777,0.27771517634391785,-0.03962218761444092,0.15379168093204498,-0.0022342046722769737,-0.01088223047554493,-1.6429278211561376,-0.31910346159308695,2.935177570552638
1687086914.992698,-0.9436920881271362,0.3230331242084503,0.071377694606781,0.003598153591156006,0.10630336403846741,-0.07137775421142578,-0.21797877550125122,-0.0923202708363533,0.339916467666626,-1.6462892128393198,-0.3289326792310749,2.931788065241755
1687086915.048131,-0.9374088048934937,0.33857059478759766,0.08145435899496078,-0.05949366092681885,0.01161852478981018,-0.06787407398223877,-0.11535059660673141,-0.055039212107658386,0.30585530400276184,-1.6574717225216071,-0.3453973466224473,2.9196200149765477
1687086915.063401,-0.9324684739112854,0.35054096579551697,0.08731285482645035,0.0022317171096801758,-0.10888758301734924,-0.06433308124542236,-0.3457213342189789,-0.05547328665852547,0.21963629126548767,-1.6641603554774231,-0.3581486555979046,2.9060635277272047
1687086915.066313,-0.9304000735282898,0.3548112213611603,0.09200183302164078,-0.03180372714996338,-0.18411126732826233,-0.07591915875673294,-0.30410701036453247,0.1562773883342743,0.01011200062930584,-1.6693600718995074,-0.36271213684390297,2.886545908668765
1687086915.079072,-0.9326309561729431,0.3504776060581207,0.08581800758838654,0.03275918960571289,-0.10153058171272278,-0.037279851734638214,0.019984474405646324,0.11224308609962463,-0.10798406600952148,-1.662555041808712,-0.35808101524341857,2.8795950097770544
1687086915.0979261,-0.9366088509559631,0.3423547148704529,0.07454533874988556,-0.02808225154876709,-0.06736093759536743,0.011315815150737762,0.17000170052051544,0.1720086932182312,-0.22044318914413452,-1.6502195914662534,-0.34942191593199745,2.8861619015801607
1687086915.192466,-0.9409574270248413,0.33217474818229675,0.06525832414627075,-0.019216954708099365,0.0004819929599761963,0.046985261142253876,-0.0716383159160614,0.12179002165794373,-0.2318161129951477,-1.6400385628037115,-0.33860830847635603,2.8913587729549
1687086915.286011,-0.944635272026062,0.3223845064640045,0.06109235808253288,0.016366899013519287,0.08224797248840332,0.025333404541015625,0.08229164034128189,0.07283517718315125,-0.16955725848674774,-1.6353793448653178,-0.32824739650462,2.8912941858134964
1687086915.2917671,-0.9472320675849915,0.31551218032836914,0.056598514318466187,0.02251899242401123,0.08681625127792358,0.041744351387023926,0.03904347121715546,0.06225016713142395,-0.12001345306634903,-1.6304768450127662,-0.32099635723727576,2.8937693854030475
1687086915.3769321,-0.9479610323905945,0.313969224691391,0.052848875522613525,0.015023469924926758,0.10923323035240173,0.0265578031539917,0.2148599475622177,0.03996068984270096,-0.017685862258076668,-1.6264887261046996,-0.31937079873559016,2.9005019831683825
1687086915.3940182,-0.9465594291687012,0.3183893859386444,0.051509059965610504,0.0019794702529907227,0.06933632493019104,0.007725473493337631,0.247934952378273,-0.00017232843674719334,0.06388095766305923,-1.6251598516320576,-0.3240299550278519,2.9135163711983822
1687086915.4318771,-0.9446669816970825,0.32430198788642883,0.04931703954935074,0.011897385120391846,0.018791794776916504,0.0168602392077446,0.16227640211582184,-0.012661831453442574,0.0885535478591919,-1.6229547181048434,-0.3302737360336117,2.922130650640459
1687086915.525456,-0.9425588846206665,0.33061593770980835,0.047702305018901825,0.03109055757522583,0.0003623366355895996,-0.002170093357563019,0.17269721627235413,-0.04413096234202385,0.11724122613668442,-1.621362549748193,-0.33695612871706193,2.9322793606494497
1687086915.531573,-0.9405829906463623,0.3362031877040863,0.04765217378735542,-0.02763277292251587,-0.03456750512123108,-0.00710953027009964,0.13763359189033508,-0.008431532420217991,0.09881848841905594,-1.6214154278141542,-0.3428824872351586,2.9383310004802956
1687086915.582552,-0.9389973878860474,0.34053874015808105,0.04813636094331741,0.0005209445953369141,-0.06642994284629822,-0.014200806617736816,-0.09154559671878815,-0.0005305805243551731,0.07079670578241348,-1.6220150621218419,-0.34748981853553285,2.9407740250067187
1687086915.675681,-0.938800036907196,0.3411285877227783,0.04780671000480652,-0.010937392711639404,-0.009829849004745483,-0.009675033390522003,-0.016742298379540443,0.0018325562123209238,0.04892165958881378,-1.6216755879985543,-0.3481172392949713,2.9393730000818583
1687086915.6821852,-0.9383506774902344,0.341765433549881,0.05190612003207207,-0.0020636916160583496,-0.029036641120910645,-0.0015368461608886719,-0.3784783184528351,-0.020186839625239372,0.07967323064804077,-1.6260563460752646,-0.3487948003284639,2.9288992219693757
1687086915.732966,-0.9367733001708984,0.3445584177970886,0.06111634150147438,0.03281211853027344,0.003631770610809326,-0.04584228992462158,-0.1268269419670105,-0.11458329111337662,0.09632949531078339,-1.6359453339290293,-0.3517683644449434,2.9123240123546044
1687086915.826366,-0.9356275200843811,0.3466279208660126,0.06670999526977539,-0.007930278778076172,-0.03121355175971985,-0.019850246608257294,-0.1395585834980011,-0.0072316452860832214,0.014898979105055332,-1.6419756118851137,-0.3539737434971253,2.906168968032329
1687086915.832374,-0.9360355138778687,0.3459852933883667,0.06427518278360367,0.0017247796058654785,-0.010597199201583862,-0.03391028195619583,0.009164749644696712,0.032036855816841125,-0.034159641712903976,-1.6393561646228638,-0.3532887434334678,2.902285561536702
1687086915.888046,-0.9374202489852905,0.34340354800224304,0.057596396654844284,-0.006778359413146973,-0.024952709674835205,-0.022348642349243164,0.053365349769592285,0.03479640558362007,-0.05296081304550171,-1.6321605716014917,-0.35053842380615885,2.9064991687272363
1687086916.007211,-0.9389944076538086,0.3400382399559021,0.05160584673285484,-0.01968461275100708,-0.022121459245681763,0.013518564403057098,-0.025001991540193558,0.06072695180773735,-0.07464911788702011,-1.6256997211294566,-0.34695756293960056,2.9086655505536463
1687086916.012667,-0.9405645728111267,0.3361653983592987,0.04828132688999176,-0.0007807016372680664,-0.0039053261280059814,0.02677667886018753,-0.06315509974956512,0.05742741376161575,-0.07158637791872025,-1.6220835960481113,-0.3428423798211048,2.906597186816413
1687086916.098165,-0.941940188407898,0.33231353759765625,0.048128142952919006,0.006378114223480225,0.017692506313323975,0.022275924682617188,0.030502794310450554,-0.021514330059289932,-0.057715944945812225,-1.621846622920583,-0.3387554529022962,2.905588641972113
1687086916.116188,-0.9428732991218567,0.32951170206069946,0.04910940304398537,-0.00903087854385376,0.023759663105010986,0.015892978757619858,0.11096218228340149,-0.056738629937171936,-0.05808936804533005,-1.6228341422181531,-0.335786360246855,2.9089457267186223
