Timestamp,gravityX,gravityY,gravityZ,accelerationX,accelerationY,accelerationZ,rotationRateX,rotationRateY,rotationRateZ,attitudeRoll,attitudePitch,attitudeYaw
1687105779.541399,-0.9045981764793396,0.42451801896095276,0.03855213150382042,-0.008609652519226074,-0.011447519063949585,0.005347363650798798,0.1204257383942604,-0.20933951437473297,0.03241371363401413,-1.6133885160208425,-0.43842950115814777,0.10147846176414335
1687105779.559468,-0.9034242033958435,0.4268472194671631,0.040323406457901,0.011792242527008057,0.04962360858917236,-0.0050756968557834625,0.5531971454620361,-0.20078082382678986,0.036832697689533234,-1.6154006916999475,-0.44100356666056484,0.12100529787133374
1687105779.5981112,-0.9021669030189514,0.42956793308258057,0.03957407921552658,-0.010888457298278809,-0.03015395998954773,-0.006004814058542252,0.36361974477767944,-0.1952683925628662,0.04076365754008293,-1.6146338109453802,-0.4440142506609194,0.1442665922725988
1687105779.6411161,-0.9008176922798157,0.4326513111591339,0.03660829737782478,-0.00894176959991455,0.010662227869033813,-0.016405705362558365,0.7075499296188354,-0.19558455049991608,0.047859251499176025,-1.6114129426551809,-0.4474315100488891,0.1737713500755853
1687105779.6856952,-0.8997379541397095,0.4352151155471802,0.03254719451069832,-0.013851463794708252,-0.05751436948776245,-0.0128481425344944,0.3131943643093109,-0.16822008788585663,0.02805931307375431,-1.6069546400844226,-0.4502771801978153,0.2041021105410988
1687105779.7574701,-0.8987378478050232,0.43718644976615906,0.033734533935785294,-0.00015729665756225586,-0.006858229637145996,-0.013852361589670181,0.2605934739112854,-0.13901028037071228,0.03560477867722511,-1.6083141669330383,-0.45246792845047096,0.21859377452393935
1687105779.849901,-0.8983306288719177,0.43811604380607605,0.0325004979968071,0.0051116943359375,-0.015432387590408325,-0.026061296463012695,0.17684561014175415,-0.05507328733801842,-0.016976872459053993,-1.6069593264219313,-0.45350178384121287,0.23216253538061982
1687105779.870671,-0.8992636799812317,0.43624505400657654,0.03186004236340523,-0.01032799482345581,-0.0441095232963562,-0.0313260555267334,-0.06927016377449036,0.026356281712651253,-0.058542557060718536,-1.606210548345864,-0.45142146488198975,0.2335658324423502
1687105779.883281,-0.9011196494102478,0.43273675441741943,0.02688119374215603,0.0025293827056884766,0.008150726556777954,-0.02111327089369297,0.13209757208824158,0.04447656124830246,-0.07858883589506149,-1.600618364292974,-0.44752628111193316,0.2373565033715546
1687105779.9548311,-0.9034984707832336,0.42804232239723206,0.021687811240553856,0.006388425827026367,-0.006487816572189331,-0.012334227561950684,0.20486152172088623,-0.014599652960896492,-0.07284925878047943,-1.5947959769150193,-0.4423255064049162,0.24459286094080426
1687105780.003855,-0.9042934775352478,0.42676812410354614,0.011041148565709591,-0.02064836025238037,0.07645133137702942,0.0020966511219739914,0.8479555249214172,-0.07055004686117172,0.0007167039439082146,-1.5830054155963282,-0.44091610277951937,0.2758964186115088
1687105780.042193,-0.9039508700370789,0.4276352524757385,0.0008689196547493339,-0.002100706100463867,-0.0443345308303833,0.031540751457214355,0.2355443388223648,-0.06016487255692482,0.020301323384046555,-1.5717575730284454,-0.44187512950857494,0.3097978017301566
1687105780.13656,-0.9030514359474182,0.42953237891197205,7.195614307420328e-05,0.02068150043487549,0.06741577386856079,0.015720844268798828,0.326218843460083,-0.12370496243238449,0.09754125028848648,-1.5708760079035216,-0.44397490084247676,0.3227236323202533
1687105780.153154,-0.9004859924316406,0.43484508991241455,0.005890656728297472,0.014011383056640625,-0.039642512798309326,-0.006531476974487305,-0.260237455368042,-0.14448420703411102,0.12882965803146362,-1.5773378752043516,-0.44986625034461686,0.3241046530373318
1687105780.190074,-0.8976287245750427,0.44048452377319336,0.015360122546553612,-0.00103759765625,0.02240598201751709,-0.026193857192993164,-0.1530689150094986,-0.058334194123744965,0.1247929185628891,-1.5879065458091208,-0.4561383141296286,0.31151607208768484
1687105780.2423592,-0.8950393795967102,0.44546833634376526,0.02150258608162403,0.0074661970138549805,-0.018085002899169922,-0.04815971851348877,-0.4950734078884125,0.06501801311969757,0.12593914568424225,-1.5948158854855878,-0.461697305845924,0.2959140782713273
1687105780.317545,-0.8918585181236267,0.4512764513492584,0.03062141314148903,0.03391796350479126,0.031328409910202026,-0.00770271010696888,-0.4286791980266571,0.04533558711409569,0.18216972053050995,-1.6051172278819525,-0.46819521790164514,0.2648826606133092
1687105780.3514519,-0.8869368433952332,0.46027207374572754,0.0386357419192791,0.0032698512077331543,0.024072349071502686,-0.002716541290283203,-0.14920787513256073,-0.11831994354724884,0.22558823227882385,-1.6143296755167211,-0.4783016242675103,0.24857227953132116
1687105780.39225,-0.880996584892273,0.47082775831222534,0.04653877019882202,-0.044006288051605225,0.012311100959777832,-0.010985858738422394,-0.02049223519861698,-0.15928766131401062,0.2449687272310257,-1.623572413756085,-0.4902288067268647,0.24566758510127232
1687105780.4409242,-0.8760729432106018,0.4791823625564575,0.053667210042476654,-0.03266412019729614,-0.03791359066963196,-0.010500200092792511,-0.04322817549109459,-0.07683104276657104,0.12172695249319077,-1.631978710371986,-0.49972290637145916,0.24025590329118957
1687105780.496932,-0.8752302527427673,0.48094606399536133,0.05160479620099068,-0.013136565685272217,-0.026173114776611328,-0.02774011343717575,0.24757996201515198,-0.0017273302655667067,-0.022156720981001854,-1.6296895344052267,-0.5017334361774205,0.24837143545458543
1687105780.5446138,-0.8773961067199707,0.4776409864425659,0.04511169344186783,0.007843554019927979,-0.05916878581047058,-0.010062221437692642,0.12985572218894958,0.053158555179834366,-0.09763230383396149,-1.6221665175453706,-0.49796764559299084,0.25981627472938346
1687105780.605011,-0.8804759383201599,0.4725983440876007,0.03759293630719185,0.053678274154663086,-0.051486313343048096,-0.02274608239531517,0.127397358417511,0.10716933012008667,-0.127610981464386,-1.613466564632241,-0.49223683995812745,0.26803573595738345
1687105780.642441,-0.884604811668396,0.4654654860496521,0.028572214767336845,-0.038658857345581055,-0.0191916823387146,0.0019758976995944977,0.163241907954216,0.12584127485752106,-0.1917814314365387,-1.6030845136839356,-0.4841604660329093,0.2773425422176963
1687105780.735005,-0.8891489505767822,0.4571022093296051,0.02171359583735466,-0.019511878490447998,-0.02800995111465454,0.010207770392298698,-0.021310359239578247,0.11970382183790207,-0.1815594881772995,-1.5952121258686112,-0.4747343625365854,0.28085568063024696
1687105780.751698,-0.8936883211135864,0.44840994477272034,0.015809765085577965,0.0124015212059021,0.01852431893348694,0.0028517283499240875,0.042313624173402786,0.1483556032180786,-0.19013386964797974,-1.5884849500823925,-0.46498560346004447,0.2818762001600944
1687105780.817054,-0.8978347182273865,0.44021159410476685,0.010311191901564598,0.02005767822265625,0.011646807193756104,0.017307162284851074,-0.09158425778150558,0.1504879742860794,-0.15669502317905426,-1.5822803323231667,-0.45583433229850456,0.2798666590661341
1687105780.8560019,-0.9001919031143188,0.4354352653026581,0.007107792422175407,-0.015518546104431152,0.031956613063812256,0.021410822868347168,-0.06667091697454453,0.12038865685462952,-0.09144970774650574,-1.578692026441177,-0.45052172362085735,0.27490715315755826
1687105780.896975,-0.9012761116027832,0.43318334221839905,0.007317278068512678,-0.015716075897216797,-0.00030681490898132324,0.032187700271606445,-0.17758305370807648,0.09969449788331985,-0.04286079853773117,-1.5789149457312701,-0.44802170450065115,0.26565997404016045
1687105780.9675221,-0.9019571542739868,0.43176504969596863,0.0071992091834545135,0.020029842853546143,0.019284576177597046,0.03842449188232422,-0.10981705784797668,0.09549564123153687,-0.05845260992646217,-1.578777921305036,-0.4464487267340129,0.2583462241210381
1687105781.044771,-0.9033101797103882,0.4288972020149231,0.008816218934953213,0.02083343267440796,0.014751970767974854,0.03969144821166992,-0.1550966501235962,0.07801204174757004,-0.06443074345588684,-1.5805559190866882,-0.44327164247205164,0.2492408451616417
1687105781.061139,-0.9042102694511414,0.4269438683986664,0.011089070700109005,-0.008997857570648193,0.03533640503883362,0.026508569717407227,0.053441908210515976,0.03214048966765404,-0.04257131367921829,-1.5830595311603366,-0.4411104176978956,0.24338464188692582
1687105781.09513,-0.9048751592636108,0.4254782199859619,0.012999176047742367,-0.02494955062866211,-0.012545019388198853,0.0011914949864149094,0.033226121217012405,-0.003254520008340478,-0.04847421124577522,-1.5851610511211556,-0.4394902683737199,0.2439047326250608
1687105781.167379,-0.9055855870246887,0.42397958040237427,0.012489110231399536,0.02564173936843872,0.02162274718284607,-0.01769232749938965,0.42416509985923767,-0.09541338682174683,-0.022482559084892273,-1.584586651278477,-0.4378348981274918,0.25406266081239304
1687105781.20441,-0.9043436646461487,0.4266049563884735,0.013058863580226898,0.020280003547668457,0.01824966073036194,0.026690244674682617,0.4678204357624054,-0.4205145835876465,0.17172767221927643,-1.585235479787659,-0.4407356916907162,0.2803618903096619
1687105781.24291,-0.8948627710342407,0.44496065378189087,0.035082001239061356,0.011760294437408447,0.09932032227516174,0.18032634258270264,0.34776434302330017,-1.050165057182312,0.7081369757652283,-1.6099800388068308,-0.46113032465788406,0.3061053103607388
1687105781.3345098,-0.8637486100196838,0.49835559725761414,0.0746992826461792,-0.024206101894378662,0.4077264666557312,0.2472306489944458,2.078697443008423,-1.892996072769165,1.6100362539291382,-1.6570643454335803,-0.5217010121805342,0.3609684888590805
1687105781.351511,-0.794322669506073,0.5976952910423279,0.10868223756551743,-0.173786461353302,0.32259273529052734,0.2779144048690796,1.993011474609375,-2.5001778602600098,2.7144196033477783,-1.7067757665599048,-0.640623298042629,0.47473414497602895
1687105781.411732,-0.6658762693405151,0.7342059016227722,0.1324782371520996,-0.37803852558135986,0.507584810256958,0.3072495460510254,2.2487990856170654,-2.8439412117004395,3.869957208633423,-1.7671851744354798,-0.8244963453212724,0.5911366623939204
1687105781.450531,-0.4693621098995209,0.8694725036621094,0.15400320291519165,-0.5575697422027588,0.3452797532081604,0.3631172180175781,1.078610897064209,-2.979081392288208,4.790917873382568,-1.8878400909312427,-1.0541334321612454,0.6233526138186828
1687105781.497328,-0.20748834311962128,0.9641868472099304,0.1652042716741562,-0.7900702953338623,0.31193625926971436,0.16086091101169586,0.7140206098556519,-2.815250873565674,5.31864070892334,-2.243221928074076,-1.302360285505306,0.40228810677732246
1687105781.544814,0.07428433746099472,0.9881428480148315,0.13437092304229736,-0.6646621823310852,-0.02407735586166382,0.020093798637390137,1.077559471130371,-2.629518508911133,5.1702880859375,2.636578935028163,-1.4166494525369977,-0.8837405536853727
1687105781.635007,0.3267405033111572,0.9432411193847656,0.059471290558576584,-0.6774485111236572,-0.2803993821144104,0.08116888999938965,0.5216240286827087,-2.3603649139404297,4.698644161224365,1.7508392060402405,-1.2322581222518,-1.6615640896175121
1687105781.652509,0.5304901003837585,0.8476908206939697,-0.0007335853879339993,-0.7538787722587585,-0.07996010780334473,-0.03231698274612427,0.39802005887031555,-2.1063952445983887,4.163802623748779,1.569413483015709,-1.0116170818418466,-1.7371496731787166
1687105781.7152948,0.6784110069274902,0.7322642803192139,-0.059560470283031464,-0.67001873254776,-0.17698174715042114,-0.05054694041609764,-0.3288777768611908,-1.4734145402908325,3.3179776668548584,1.483226772188133,-0.8216408994454031,-1.7306771641335121
1687105781.7732139,0.7667586207389832,0.6373475790023804,-0.07661090791225433,-0.5074813365936279,-0.42021501064300537,-0.15208780765533447,-1.2380542755126953,-0.5959585309028625,1.9142533540725708,1.4712115478770476,-0.6910511892521153,-1.6698704419971735
1687105781.811024,0.7966652512550354,0.6028623580932617,-0.04337456822395325,-0.24541103839874268,-0.6426572799682617,-0.35695499181747437,-1.11223566532135,0.277360737323761,0.038250893354415894,1.516404867877215,-0.6470839141879887,-1.5823008373126117
1687105781.8477988,0.7783974409103394,0.6277253031730652,0.0076226117089390755,-0.0033731460571289062,-0.37471944093704224,-0.1625603437423706,-0.26310622692108154,0.4801047742366791,-0.9314042329788208,1.580588712256681,-0.6786276384791693,-1.5157259432975327
1687105781.938333,0.7533711194992065,0.6574236154556274,0.015036421827971935,0.15039163827896118,0.05861026048660278,0.04839444160461426,-0.4831693470478058,0.07481327652931213,-0.46364909410476685,1.5907525289289577,-0.7173944817738155,-1.5216449066371416
1687105781.954175,0.7502399682998657,0.660892128944397,0.019007258117198944,0.17151284217834473,0.22755074501037598,0.017949577420949936,0.0005259638419374824,-0.1839522123336792,0.16063401103019714,1.5961258125741522,-0.7220068533296192,-1.5057421928802712
1687105781.99541,0.7572555541992188,0.6529885530471802,0.013027221895754337,0.0587538480758667,-0.0062754154205322266,-0.06663131713867188,0.2551233470439911,0.024001935496926308,0.20672233402729034,1.5879978329928646,-0.7115237630899424,-1.5103921906610993
1687105782.064096,0.763261079788208,0.6460471153259277,0.007453444413840771,-0.009431183338165283,-0.06747967004776001,-0.06671857833862305,0.1366443932056427,0.24337172508239746,0.15960854291915894,1.5805612785511167,-0.7023943411609446,-1.531378149154227
1687105782.102205,0.7672070264816284,0.6410162448883057,0.022174693644046783,-0.028834104537963867,-0.08942627906799316,0.07143795490264893,-0.22459450364112854,0.26622551679611206,0.08265191316604614,1.5996914240265239,-0.6958215818344611,-1.523386054435821
1687105782.146428,0.7661170363426208,0.6414340138435364,0.04033492133021355,0.0366477370262146,-0.16284215450286865,-0.0039122141897678375,-0.49469709396362305,0.08812396973371506,-0.12241814285516739,1.6233962736362706,-0.6963660200195785,-1.5006485394203115
1687105782.235265,0.7595552206039429,0.6487545371055603,0.04683421179652214,0.26694929599761963,-0.11846590042114258,-0.11121094226837158,0.023894403129816055,-0.18933504819869995,-0.26025158166885376,1.6323784086656596,-0.7059466873857692,-1.4836832128315658
1687105782.268135,0.7501243352890015,0.6605854034423828,0.03066217340528965,0.4930700659751892,-0.2132893204689026,-0.1176220178604126,0.08481661230325699,-0.460593044757843,-0.3135775327682495,1.6116497037777355,-0.7215982388732699,-1.4889784022272472
1687105782.3379478,0.7351553440093994,0.6777635216712952,0.013526053167879581,0.5288063883781433,-0.12815731763839722,-0.007742883637547493,0.11502058804035187,-0.5971196889877319,-0.6637858748435974,1.5891931563688868,-0.7447166948467386,-1.482693992791583
1687105782.353287,0.704580545425415,0.708524763584137,-0.0394836962223053,0.44928908348083496,-0.08886533975601196,0.10268563032150269,0.8596760630607605,-0.6249417066574097,-1.173191785812378,1.5148162900570847,-0.7874054737055162,-1.5411731612905017
1687105782.4248009,0.6454300284385681,0.7591994404792786,-0.08388248085975647,0.1865553855895996,-0.00523221492767334,0.13806641101837158,1.489536166191101,-0.3519474267959595,-1.72065269947052,1.4415570083595153,-0.8620822251745708,-1.6106031099637401
1687105782.471489,0.56009840965271,0.8172324299812317,-0.13572390377521515,-0.12001973390579224,0.00918358564376831,0.055066004395484924,1.2862924337387085,0.28869906067848206,-2.5772907733917236,1.3330573960101788,-0.9565922477398435,-1.7449339300455668
1687105782.547027,0.4461187720298767,0.8760170340538025,-0.18322661519050598,-0.513974666595459,0.02681487798690796,0.04974277317523956,1.0578124523162842,0.8410841822624207,-2.9765267372131348,1.181089179554871,-1.0675405819234736,-1.9564780940348383
1687105782.568464,0.32111045718193054,0.9280521273612976,-0.1886989325284958,-0.6872756481170654,0.06909441947937012,0.019662082195281982,0.6902066469192505,1.2574713230133057,-2.825303554534912,1.0395109755590428,-1.1891484071769545,-2.173667016916796
1687105782.600439,0.2160326987504959,0.9520628452301025,-0.21657823026180267,-0.556593656539917,-0.044882118701934814,-0.04793284833431244,0.2386929839849472,1.430116891860962,-2.177032709121704,0.7841371706871114,-1.2599100322180528,-2.5174488351598727
1687105782.6973228,0.14470888674259186,0.9743842482566833,-0.17214734852313995,-0.23569706082344055,-0.11609262228012085,0.0009437203407287598,-0.9824124574661255,1.027587652206421,-1.2020522356033325,0.6990177090925874,-1.3439664599230798,-2.673908818896144
1687105782.71906,0.11393272131681442,0.9830666184425354,-0.14352454245090485,-0.02366173267364502,0.07670199871063232,0.016128957271575928,-0.015234889462590218,0.2984972298145294,-0.227883979678154,0.670961549425389,-1.3865065307703266,-2.736749258181737
1687105782.749948,0.11798756569623947,0.9799202680587769,-0.16073353588581085,-0.0034856200218200684,0.08218300342559814,-0.021547913551330566,0.5665342211723328,-0.08735903352499008,0.2613230049610138,0.6332192283553876,-1.3700611212860367,-2.777100028640901
1687105782.834955,0.1266687661409378,0.9767948985099792,-0.17270392179489136,-0.0415399968624115,-0.10643362998962402,-0.010721981525421143,0.047051653265953064,0.019973749294877052,0.09823001176118851,0.6328212414492345,-1.3549472554166602,-2.7761113369421664
1687105782.854824,0.13019268214702606,0.9757847189903259,-0.1757669597864151,-0.004628106951713562,-0.028091847896575928,-0.05087178945541382,0.025940509513020515,0.06607519090175629,0.08591049909591675,0.6375301696068828,-1.3502803813042168,-2.773928503799121
1687105782.924471,0.13449877500534058,0.976699709892273,-0.16723521053791046,-0.007850855588912964,-0.07774347066879272,-0.013749226927757263,-0.1972731351852417,0.024932578206062317,0.08654919266700745,0.6773265014194725,-1.3545033233994703,-2.7363923006756874
1687105782.977752,0.13970281183719635,0.9772459864616394,-0.15960392355918884,-0.032357245683670044,-0.0744597315788269,0.01981818675994873,-0.24997256696224213,-0.06842293590307236,0.1426934152841568,0.7190051793134864,-1.3570635283554235,-2.692845154519016
1687105783.015489,0.150198295712471,0.9789398312568665,-0.1382644921541214,-0.039511069655418396,-0.069668710231781,0.031758204102516174,-0.33780497312545776,-0.3660461902618408,0.44358155131340027,0.8267449277055298,-1.365201899059822,-2.5721430688446922
1687105783.053931,0.180877223610878,0.9744158387184143,-0.13340549170970917,-0.06520035862922668,-0.07565796375274658,0.030301883816719055,-0.878361701965332,-0.6387243866920471,1.0068272352218628,0.9353127389580929,-1.3441071731769771,-2.4347450500182295
1687105783.150727,0.247519850730896,0.9648693203926086,-0.08809758722782135,-0.2401650995016098,0.06970715522766113,-0.09581661969423294,-0.49061262607574463,-0.9876816868782043,1.870994210243225,1.2288561667947464,-1.3049454868673296,-2.0897971663885264
1687105783.168765,0.3393697738647461,0.9390397667884827,-0.055067528039216995,-0.4623250961303711,-0.13633596897125244,-0.0021224021911621094,-1.573251485824585,-0.912305474281311,2.090465545654297,1.4099342688917411,-1.2198267186737104,-1.8518427573802267
1687105783.20332,0.43205586075782776,0.8999288082122803,-0.05878781899809837,-0.42079490423202515,0.12285256385803223,-0.08743709325790405,0.33849307894706726,-0.9323949813842773,1.9513428211212158,1.4355614913587225,-1.119606179679032,-1.7712488757865081
1687105783.251931,0.5103570818901062,0.8579557538032532,-0.058714114129543304,-0.447979211807251,-0.050414979457855225,0.002256639301776886,-0.4339064657688141,-0.5339792966842651,1.7747060060501099,1.4562547303284465,-1.0312770373468643,-1.7073139322305517
1687105783.3078609,0.5783452391624451,0.8125518560409546,-0.07263866811990738,-0.28505611419677734,0.11463320255279541,0.02683180570602417,0.08855196088552475,-0.4534234404563904,1.5494376420974731,1.4458531501284746,-0.9485167789966296,-1.6883216150254068
1687105783.378773,0.6297775506973267,0.7719843983650208,-0.08614224195480347,-0.3338943123817444,0.1586492657661438,0.06380336731672287,0.34071096777915955,-0.009376750327646732,1.0666440725326538,1.4348578989085954,-0.8819571063296875,-1.688446121272271
1687105783.433768,0.6603900194168091,0.7461844682693481,-0.08422315865755081,-0.05969732999801636,-0.008040666580200195,0.11364210397005081,-0.38277244567871094,0.25896474719047546,0.3954816162586212,1.4439456424518942,-0.8423122732380071,-1.683241550983569
1687105783.471035,0.6581015586853027,0.7506703734397888,-0.0582759827375412,0.1596168875694275,0.03379911184310913,0.1584499478340149,-0.4165618121623993,0.6866027116775513,-0.5705509185791016,1.4824750435541263,-0.8490761976883598,-1.661534210278227
1687105783.5182052,0.6341069340705872,0.7727957367897034,-0.026360586285591125,0.5040308237075806,0.0950019359588623,0.00190073624253273,0.33652234077453613,1.1577863693237305,-0.7579065561294556,1.5292490472555889,-0.8832345844124163,-1.6633455503815975
1687105783.558131,0.6112321615219116,0.791443407535553,-0.0035557998344302177,0.7461286783218384,0.0339503288269043,-0.07716315984725952,0.2233281433582306,1.1854796409606934,-0.28889000415802,1.564978963399413,-0.9131668549735464,-1.6967590301501803
1687105783.602827,0.6176038980484009,0.7864362001419067,0.009125443175435066,0.6796829700469971,-0.1288588047027588,-0.1096503734588623,0.492464542388916,0.38791218400001526,0.5354239344596863,1.585570811563369,-0.905017834239478,-1.7247333865440353
1687105783.686424,0.6432660818099976,0.7655667066574097,-0.010779825039207935,0.28954941034317017,-0.3051176071166992,-0.08548784255981445,0.3066009283065796,-0.1845458298921585,0.6869875192642212,1.5540399375731704,-0.8719217123402416,-1.7649005131117812
1687105783.7300959,0.6653292775154114,0.7459390759468079,-0.030192827805876732,-0.007477164268493652,-0.11208909749984741,0.03318357467651367,0.3487430512905121,0.05841028690338135,0.47999340295791626,1.5254471624199255,-0.8419437599089058,-1.7957145144959972
1687105783.7692962,0.6787981390953064,0.73378986120224,-0.028031570836901665,-0.0997576117515564,-0.054941534996032715,0.10427981615066528,0.05323578044772148,0.1852717101573944,0.283145010471344,1.5295238911878957,-0.8238836779926384,-1.8007576050971166
1687105783.810223,0.6843937039375305,0.7285723686218262,-0.02806338295340538,-0.10748946666717529,0.006733417510986328,0.045733094215393066,-0.1621958464384079,0.09107733517885208,0.0023032817989587784,1.5298145495886104,-0.8162353838218024,-1.8089897623119688
1687105783.870523,0.680570125579834,0.7324541807174683,-0.018305577337741852,-0.026914119720458984,-0.011918962001800537,-0.006901919841766357,0.07526944577693939,-0.046839725226163864,-0.1708560436964035,1.5439053928976827,-0.8219197948571573,-1.7920036980905034
1687105783.910112,0.6719971299171448,0.7403373718261719,-0.017895478755235672,-0.01826488971710205,-0.08675771951675415,-0.0008423328399658203,-0.281196266412735,0.02314477413892746,-0.27088919281959534,1.5441723296763517,-0.8335720962068226,-1.790563547580092
1687105783.955184,0.6622316837310791,0.7491618394851685,-0.014340236783027649,0.031097114086151123,0.013563930988311768,0.01945197582244873,0.090570367872715,0.019619304686784744,-0.2702653706073761,1.549145300598397,-0.846795799831066,-1.7853405577054913
1687105784.03726,0.6493896245956421,0.7604544162750244,-0.0014452275354415178,0.017465174198150635,-0.15970063209533691,-0.035969316959381104,-0.9019322395324707,0.15325869619846344,-0.4485197365283966,1.5685708137524985,-0.8640126083058897,-1.7638392744395857
1687105784.057359,0.6187993288040161,0.7820876240730286,0.07366204261779785,-0.06745356321334839,-0.3888688087463379,-0.19159722328186035,-2.0020530223846436,0.641209602355957,-1.21334707736969,1.6892790440210508,-0.8980088559722077,-1.6314756540169226
1687105784.132895,0.5403561592102051,0.8218889832496643,0.1803153157234192,-0.14721351861953735,-0.5688219666481018,-0.3587973117828369,-1.969799280166626,1.4731085300445557,-2.377674102783203,1.8928742859077201,-0.964719135826801,-1.4418532856806938
1687105784.172604,0.38585394620895386,0.8686191439628601,0.3108331263065338,-0.301991730928421,-0.5583165884017944,-0.4212609827518463,-1.6839393377304077,2.7343199253082275,-3.511361837387085,2.2489255834929724,-1.0524086206675711,-1.1449540846170263
1687105784.214418,0.16214708983898163,0.8971632122993469,0.4108603596687317,-0.4077525734901428,-0.024970948696136475,-0.19432297348976135,-1.1771442890167236,3.5873188972473145,-3.760859966278076,2.7657046369874476,-1.1133045652142775,-0.746203803729244
1687105784.258136,-0.08474714308977127,0.8753044605255127,0.47608768939971924,-0.4330903887748718,0.0015110969543457031,-0.09556421637535095,-1.0803471803665161,4.2297492027282715,-3.396061420440674,-2.9654304360326336,-1.0660650857567808,-0.34889690454176714
1687105784.3374329,-0.3301897346973419,0.8192797303199768,0.468781054019928,-0.517573356628418,0.11745738983154297,0.256682813167572,-0.6841469407081604,4.23344612121582,-3.202979564666748,-2.527947774092431,-0.9601536939543133,-0.08732147970054052
1687105784.374785,-0.539975643157959,0.7434206604957581,0.39465415477752686,-0.3686089515686035,0.2171352505683899,0.18482884764671326,-0.4731614589691162,4.23486328125,-2.8561434745788574,-2.2019440145871667,-0.8381703415090924,0.05572600511404238
1687105784.415503,-0.712693989276886,0.6439064145088196,0.2783016264438629,-0.382368266582489,0.14268410205841064,0.19516336917877197,-0.3713264465332031,4.28259801864624,-2.8555874824523926,-1.9430797845949612,-0.699593055611325,0.12064230243553162
1687105784.4585161,-0.8394371271133423,0.5284624695777893,0.12677766382694244,-0.4377387762069702,0.17768371105194092,0.3056715726852417,-0.6755915284156799,3.99678111076355,-2.781522750854492,-1.7206905116933016,-0.5567884822464423,0.1379722902095844
1687105784.511442,-0.9054597020149231,0.42433449625968933,-0.009100707247853279,-0.4257780909538269,0.3785218894481659,0.39728426933288574,-0.7934926152229309,2.806997299194336,-1.763929843902588,-1.5607457406948182,-0.4382268147096549,0.10109577917930954
1687105784.5874639,-0.9257906675338745,0.36858445405960083,-0.08400769531726837,0.04770827293395996,0.3408271372318268,0.3258899450302124,-0.2488713413476944,1.1634349822998047,-0.7936994433403015,-1.4803025938451293,-0.3774858000763976,0.06283638957088487
1687105784.634803,-0.9306647777557373,0.3451542258262634,-0.12137343734502792,0.10177689790725708,0.3579096496105194,0.31464123725891113,0.20361703634262085,0.461566686630249,-0.23962944746017456,-1.4411124038014216,-0.35240309344198434,0.06379740789833561
1687105784.656631,-0.9296159148216248,0.3422915041446686,-0.1365676373243332,0.020543038845062256,0.20232513546943665,0.17720180749893188,0.2099316567182541,0.12491297721862793,0.14461462199687958,-1.42493210473797,-0.3493546406505625,0.07174068665337995
1687105784.729858,-0.9259054064750671,0.35018277168273926,-0.14167360961437225,0.020418226718902588,0.05240505933761597,0.11681698262691498,0.06851913034915924,-0.059700217097997665,0.22604842483997345,-1.4189630487093479,-0.35776621989334184,0.08520622928578905
1687105784.7609801,-0.9225231409072876,0.3607475161552429,-0.13715815544128418,0.013648569583892822,-0.01913374662399292,0.050732359290122986,0.001420786022208631,-0.09907250106334686,0.2275407910346985,-1.4232003205572294,-0.3690692404711983,0.0861325606727708
1687105784.835607,-0.919427752494812,0.3703007102012634,-0.13240037858486176,0.005609452724456787,-0.0754551887512207,-0.010742366313934326,-0.018534280359745026,-0.06637576967477798,0.16453932225704193,-1.427776492098465,-0.37933272556289976,0.08586342155735288
1687105784.874251,-0.9179975986480713,0.37496665120124817,-0.12915188074111938,-0.00032198429107666016,-0.08157074451446533,-0.01621858775615692,0.022128727287054062,-0.06642938405275345,0.07160645723342896,-1.431024994470918,-0.384360814404025,0.08713918875852592
1687105784.9388862,-0.9180922508239746,0.3753649592399597,-0.12730950117111206,-0.00036472082138061523,-0.05966070294380188,-0.018915459513664246,-0.020156944170594215,-0.007337878458201885,0.030045296996831894,-1.43300757467868,-0.38479050748087995,0.08676879810636573
1687105784.9747992,-0.9196170568466187,0.37144652009010315,-0.1277962327003479,-0.0020442605018615723,-0.029710769653320312,-0.017620012164115906,0.08706511557102203,-0.030128123238682747,-0.0456446036696434,-1.4327138826914092,-0.3805665123475026,0.08881017369128644
1687105785.034699,-0.9215496778488159,0.3664802312850952,-0.12821213901042938,0.0022382140159606934,-0.019907444715499878,-0.0089949369430542,0.026897383853793144,-0.03862529247999191,-0.044019538909196854,-1.432557025236321,-0.37522323140820496,0.09172413020908174
1687105785.0766668,-0.9226855039596558,0.3635224401950836,-0.12846393883228302,0.0038317441940307617,0.012957572937011719,-0.009795963764190674,0.06151847913861275,-0.040088433772325516,-0.04483899846673012,-1.4324573219314827,-0.37204623684707927,0.09514315752211039
1687105785.117568,-0.923879861831665,0.3604000508785248,-0.12867611646652222,-0.00747072696685791,0.02782920002937317,-0.004899308085441589,0.04449049383401871,-0.020487457513809204,-0.04707279056310654,-1.4324085978402104,-0.36869674284088416,0.10005201031047774
1687105785.1629748,-0.9241946935653687,0.359677255153656,-0.12843796610832214,0.007065236568450928,0.04483315348625183,0.00543685257434845,0.11141280084848404,-0.03829159960150719,-0.02307031862437725,-1.4327079364242683,-0.36792197772642554,0.10220002054251731
1687105785.231683,-0.9239820241928101,0.35979384183883667,-0.1296371966600418,0.009034395217895508,0.021034985780715942,-0.005631998181343079,0.09072510153055191,-0.017159173265099525,0.010087302885949612,-1.4314034946507717,-0.36804693015435885,0.10810321972990167
1687105785.285455,-0.9231666922569275,0.3617921769618988,-0.12988336384296417,-0.0014701485633850098,0.012154877185821533,-0.009871900081634521,0.09047769010066986,-0.008655077777802944,0.0229777991771698,-1.4310204776837538,-0.37018959123908385,0.1115586423628805
1687105785.334653,-0.9223536849021912,0.3630094528198242,-0.13224045932292938,0.010076582431793213,-0.0042754411697387695,-0.010505542159080505,0.08897407352924347,0.012922873720526695,0.008195259608328342,-1.4283939321895187,-0.371495643654999,0.11701515735908839
1687105785.3732,-0.9217947125434875,0.3635147213935852,-0.1347278356552124,-0.0060465335845947266,0.005854696035385132,0.006645560264587402,0.04259378835558891,0.007165741175413132,0.01200278103351593,-1.425665756807134,-0.37203796751486085,0.12256853578142651
1687105785.414195,-0.9217424988746643,0.3631477653980255,-0.13606789708137512,0.001881718635559082,-0.0099526047706604,0.009007930755615234,0.05099153518676758,-0.0028781043365597725,0.002195423934608698,-1.4242345375016712,-0.37164407506143554,0.12425963583649581
1687105785.4848762,-0.9217142462730408,0.36322221159935,-0.13606016337871552,0.015632152557373047,0.014493763446807861,0.025495007634162903,0.12128407508134842,-0.04872109368443489,0.042679332196712494,-1.424238310309268,-0.37172396875527086,0.12894273094982553
1687105785.534038,-0.9217304587364197,0.3636321723461151,-0.13484986126422882,-0.012198925018310547,-0.009460538625717163,-0.0017010420560836792,-0.008169257082045078,-0.03474806621670723,-0.020756762474775314,-1.42552617360132,-0.3721640442432122,0.1314966583013179
1687105785.5842628,-0.9220190048217773,0.3638680875301361,-0.13221518695354462,0.01700502634048462,0.018349260091781616,0.012784615159034729,0.10706545412540436,-0.05509769916534424,0.014305682852864265,-1.4283697997739249,-0.37241728615697056,0.1349695962237793
1687105785.6259189,-0.9222966432571411,0.3636341691017151,-0.13091608881950378,0.0038701295852661133,-0.0013447999954223633,0.008662641048431396,0.013772527687251568,-0.03760303929448128,0.012785019353032112,-1.4297925539324068,-0.37216616223107496,0.13680784674858845
1687105785.674605,-0.9221997857093811,0.36460572481155396,-0.1288800835609436,0.007938981056213379,0.004473775625228882,-0.018474027514457703,0.05559640750288963,-0.07476571947336197,0.02753293886780739,-1.431942757612851,-0.37320932943070767,0.1381260405651529
1687105785.71879,-0.9219086170196533,0.3670387268066406,-0.12396332621574402,0.015338242053985596,0.0009268820285797119,0.023011155426502228,0.007793464232236147,-0.15911200642585754,0.08148092776536942,-1.4371342497941606,-0.37582355154092606,0.1400579351517019
1687105785.786464,-0.920940637588501,0.3719273805618286,-0.11635410785675049,0.006313621997833252,0.006719380617141724,0.04567539691925049,-0.10920453071594238,-0.2517721951007843,0.14706306159496307,-1.4451195309377343,-0.3810844944358099,0.1406629242275949
1687105785.830769,-0.9180589318275452,0.38672685623168945,-0.08723635971546173,0.04749917984008789,0.04511207342147827,0.21067994832992554,-0.38538604974746704,-0.8800879120826721,0.47141191363334656,-1.4760581651953177,-0.3970796268504265,0.12763245108856372
1687105785.870278,-0.9066666960716248,0.42121586203575134,-0.023079801350831985,0.005665719509124756,0.1514769196510315,0.2637108564376831,0.2550338804721832,-1.7570737600326538,1.0285248756408691,-1.545346160981862,-0.43478550862301585,0.1204038377725701
1687105785.927966,-0.8739827871322632,0.4832759499549866,0.05097716674208641,-0.11175030469894409,0.3301396071910858,0.31950628757476807,1.7385355234146118,-2.577255964279175,1.6981241703033447,-1.629057741628062,-0.5043927898996604,0.17597130041194503
1687105785.968432,-0.8048222064971924,0.5796873569488525,0.12737293541431427,-0.2513759136199951,0.2623993754386902,0.26610541343688965,1.0798708200454712,-3.075204610824585,2.566760301589966,-1.7277567049310387,-0.6183449161558003,0.259146937762488
1687105786.0325541,-0.678732693195343,0.6988265514373779,0.22574998438358307,-0.4144221544265747,0.38840776681900024,0.28717416524887085,0.9899526238441467,-3.605355978012085,3.363485097885132,-1.8918913791299752,-0.773755658841962,0.265308362037115
1687105786.072657,-0.4883575439453125,0.8214864730834961,0.29439231753349304,-0.6126861572265625,0.29419034719467163,0.16453099250793457,1.2529581785202026,-3.7287304401397705,3.9507498741149902,-2.11328774205321,-0.9640129278008133,0.22032271463182737
1687105786.1471019,-0.24884115159511566,0.9245190620422363,0.28869137167930603,-0.5852042436599731,0.11724424362182617,0.07097351551055908,2.1378188133239746,-3.5199997425079346,4.311733722686768,-2.4301945986615774,-1.1797718151662746,0.06903681566239869
1687105786.183845,0.001061142305843532,0.9784272909164429,0.20658905804157257,-0.6696555018424988,-0.058947861194610596,0.1298368275165558,2.043126344680786,-3.1633644104003906,4.241753578186035,3.1364562104132196,-1.3627064799486885,-0.5008413089252934
1687105786.2348871,0.22819530963897705,0.9697718620300293,0.08642642199993134,-0.755600094795227,-0.15467780828475952,0.11309755593538284,1.872102975845337,-2.5168144702911377,3.971606492996216,1.9328408416933545,-1.3242941754539055,-1.5817476483915107
1687105786.293009,0.4040142893791199,0.9147516489028931,0.0013899941695854068,-0.6775280237197876,-0.3686090111732483,0.02833414077758789,0.7300317883491516,-1.7929691076278687,3.17466402053833,1.574236771210247,-1.1548928171472514,-1.8474386772093103
1687105786.3333821,0.5224474668502808,0.8505415320396423,-0.06023052707314491,-0.5037554502487183,-0.3807539939880371,-0.06473898887634277,0.05372074246406555,-1.0617808103561401,2.1777584552764893,1.4560177037352948,-1.0170142034566034,-1.8983455813668262
1687105786.3769488,0.5855384469032288,0.8086832165718079,-0.0563555508852005,-0.2459389567375183,-0.4121837019920349,-0.12343871593475342,-0.8265637159347534,-0.5996506214141846,0.9619346857070923,1.4748461826661432,-0.9419102032187685,-1.8264857508306473
1687105786.4368958,0.6041991710662842,0.7955520153045654,-0.045172177255153656,-0.04221796989440918,-0.35788416862487793,-0.24878835678100586,-0.48166412115097046,-0.11391995847225189,0.08638373762369156,1.4961714394948513,-0.9199180805698371,-1.77847208041531
1687105786.4842858,0.6016201376914978,0.7981567978858948,-0.031607579439878464,0.1361117959022522,-0.164825439453125,-0.17083072662353516,-0.2597663402557373,-0.09746179729700089,-0.10815565288066864,1.5183071514133624,-0.9242294678123164,-1.7458101772978267
1687105786.524701,0.5986573100090027,0.8003942966461182,-0.031275976449251175,0.19325852394104004,-0.10251843929290771,-0.12738490104675293,-0.053006503731012344,-0.11885730177164078,-0.003203469328582287,1.5186002432195487,-0.9279526563401687,-1.7383915637507317
1687105786.577966,0.6012294888496399,0.797846794128418,-0.04431147128343582,0.13932526111602783,0.019581735134124756,-0.0676422119140625,0.6943014860153198,-0.016550417989492416,0.16752685606479645,1.4972279103424377,-0.9237150414256442,-1.7611391895266053
1687105786.618335,0.6093482375144958,0.7910440564155579,-0.05425746366381645,0.13451766967773438,-0.11207377910614014,0.026303410530090332,0.05830377712845802,-0.009223707020282745,0.18819992244243622,1.481988737408948,-0.9125137811936529,-1.7808057328903033
1687105786.6953,0.6135736107826233,0.7872191071510315,-0.06175347417593002,0.18961846828460693,-0.171633780002594,0.023209810256958008,-0.19285069406032562,-0.2050047665834427,0.057435713708400726,1.4704885268778216,-0.9062863744900459,-1.7893003593324346
1687105786.7374701,0.6186653971672058,0.7825363278388977,-0.0699281096458435,0.2285025715827942,0.02389061450958252,0.005963325500488281,0.11980175971984863,-0.4394631087779999,0.2803637981414795,1.4582434493018204,-0.8987292304793832,-1.7836776361361324
1687105786.778146,0.631812334060669,0.7712789177894592,-0.07708350569009781,0.15937107801437378,-0.040154099464416504,0.0400657132267952,-0.8482956290245056,-0.4493006467819214,0.38775309920310974,1.4493925186592627,-0.8808479943697068,-1.7648009282206027
1687105786.818295,0.6435102224349976,0.7616460919380188,-0.0760904997587204,0.17436087131500244,0.08333981037139893,0.018763244152069092,-0.27739647030830383,-0.4425228536128998,0.2642970681190491,1.4530999423280782,-0.8658496694576404,-1.7310398347846956
1687105786.878611,0.6490913033485413,0.75704425573349,-0.07459428161382675,0.19024884700775146,0.029729366302490234,0.06466084718704224,-0.11510715633630753,-0.48907768726348877,0.1558230072259903,1.4563771795651983,-0.8587772940329643,-1.6957495409223993
1687105786.918433,0.6496511101722717,0.7534589767456055,-0.10125653445720673,0.250998854637146,-0.002238333225250244,0.06754989176988602,-0.16246774792671204,-0.3480282425880432,-0.09820308536291122,1.4161774328481673,-0.853307187209186,-1.7186522047762804
1687105786.986515,0.6294249296188354,0.769525408744812,-0.10795775800943375,0.19805914163589478,0.02594578266143799,0.007860124111175537,0.3660155236721039,-0.22534877061843872,-0.8295066952705383,1.4009311097347708,-0.8780976280797236,-1.7230780209930103
1687105787.034971,0.5838387608528137,0.8064364194869995,-0.09376861900091171,0.01459568738937378,-0.07390773296356201,0.022327005863189697,-0.10760263353586197,0.09153381735086441,-1.4968602657318115,1.4115492283258355,-0.9381006144107839,-1.7039460464055587
1687105787.09593,0.5115692615509033,0.8489888906478882,-0.1323426216840744,-0.020587265491485596,-0.08052587509155273,0.10051287710666656,0.006862422917038202,0.3288232684135437,-1.9525617361068726,1.3176469627524539,-1.0140688941778624,-1.8275288344878613
1687105787.134155,0.4251042902469635,0.898806095123291,-0.1069294735789299,-0.3613683581352234,0.4071936011314392,-0.023838333785533905,1.5461775064468384,0.8681439161300659,-2.1071417331695557,1.324371559922172,-1.1170381982644815,-1.8577797841597155
1687105787.17259,0.33081331849098206,0.9344215989112854,-0.131979301571846,-0.42132851481437683,-0.26181429624557495,0.06490172445774078,-0.6439707279205322,1.1185412406921387,-2.192661762237549,1.1911919792832129,-1.2066316116368796,-2.0543475672716247
1687105787.246918,0.24347913265228271,0.9638552069664001,-0.10817205160856247,-0.3875678479671478,0.06034529209136963,-0.08459223806858063,0.34330540895462036,1.170214295387268,-1.8727558851242065,1.1527122600922348,-1.301112534573413,-2.1580871021157804
1687105787.335738,0.16437217593193054,0.9816179275512695,-0.09699466824531555,-0.25475001335144043,-0.1962023377418518,-0.054570846259593964,-0.6672550439834595,0.9393791556358337,-1.3454725742340088,1.0376941297806173,-1.3787616480852753,-2.3309829775543376
1687105787.353308,0.12200075387954712,0.9907399415969849,-0.059580471366643906,-0.022772878408432007,0.01376122236251831,0.03106183558702469,0.13878583908081055,0.4211124777793884,-0.5337622761726379,1.1165027950108914,-1.4346025414171224,-2.2884019684713373
1687105787.3792272,0.10970648378133774,0.9908329248428345,-0.07883364707231522,0.008182898163795471,-0.06274759769439697,0.035910725593566895,0.16258969902992249,0.08350860327482224,-0.1171472817659378,0.9477045285636958,-1.4352888972399347,-2.4679337562256882
1687105787.42032,0.10950026661157608,0.9906148314476013,-0.0818038210272789,0.007885590195655823,0.013260841369628906,-0.011442601680755615,-0.018823765218257904,-0.02965887449681759,0.0702923908829689,0.9291762280786402,-1.433684012249986,-2.4876124999190257
1687105787.493242,0.11300093680620193,0.9901338815689087,-0.08285697549581528,0.011114008724689484,-0.011435389518737793,-0.04121224582195282,0.160813108086586,0.023241447284817696,0.06836798787117004,0.9381072504486819,-1.43020923806298,-2.478358786786162
1687105787.532219,0.11521387845277786,0.9894273281097412,-0.08808734267950058,0.0033011212944984436,-0.07057362794876099,-0.0022446513175964355,0.04081479832530022,0.012465543113648891,0.027415627613663673,0.9180449587992829,-1.4252533784231005,-2.4999780727494647
1687105787.573635,0.11750639230012894,0.9885667562484741,-0.09448797255754471,-0.0011276304721832275,-0.1059221625328064,-0.018365979194641113,0.026790857315063477,-0.005572490859776735,0.02312447503209114,0.8935547772600826,-1.4194353643586144,-2.523897320523668
1687105787.637373,0.1188473254442215,0.9878988265991211,-0.09965529292821884,-0.01031157374382019,-0.1082906723022461,-0.010528385639190674,0.11999963223934174,-0.07232198119163513,0.025444554165005684,0.873007664246174,-1.415067960575937,-2.542606544744816
1687105787.6760101,0.12223010510206223,0.9876543879508972,-0.09797266125679016,-0.027885019779205322,-0.22584408521652222,0.02941495180130005,-0.503068745136261,-0.18738265335559845,0.18653345108032227,0.8951153603041797,-1.4134996485224514,-2.512109354238533
1687105787.722465,0.1383800506591797,0.9900058507919312,-0.027189161628484726,-0.06242181360721588,-0.19638103246688843,0.011640489101409912,-1.8324947357177734,-0.40029165148735046,0.5494056344032288,1.3767859257943986,-1.4292983182992443,-2.0145469093413086
1687105787.776072,0.18957731127738953,0.9818249344825745,0.008964450098574162,-0.12861843407154083,0.1828327178955078,0.0208359956741333,-0.7317594289779663,-0.9481227397918701,1.4828146696090698,1.6180476423584025,-1.379849425506239,-1.7360014941499502
1687105787.848495,0.26995357871055603,0.9623537063598633,0.031623296439647675,-0.3096722960472107,0.05786401033401489,-0.134635329246521,-0.23834733664989471,-0.7374798655509949,1.6500014066696167,1.6874083215301654,-1.2955331860639603,-1.6205297569388848
1687105787.886621,0.36754536628723145,0.9288151264190674,0.04703829064965248,-0.5111458897590637,0.003313601016998291,-0.034358151257038116,-0.5523961186408997,-1.2288851737976074,2.313804864883423,1.698083946737736,-1.1912022302906298,-1.556330976579736
1687105787.933739,0.4689556360244751,0.8832034468650818,-0.005690834019333124,-0.5068432092666626,0.08632475137710571,-0.02157658338546753,0.8217145800590515,-1.1513702869415283,2.128366708755493,1.5586618002801298,-1.0826493919661844,-1.643923393330238
1687105787.984223,0.5519126653671265,0.8319738507270813,-0.05667072534561157,-0.531679630279541,0.0033989548683166504,-0.03157084062695503,0.38724276423454285,-0.9492856860160828,1.6113264560699463,1.4684743167594005,-0.9826559397847847,-1.6880115525368302
1687105788.026681,0.5974023938179016,0.7968329787254333,-0.09037475287914276,-0.2669275403022766,0.006908416748046875,0.08935242891311646,0.46047544479370117,-0.4262320399284363,0.7559789419174194,1.4206552415359808,-0.9220353025983109,-1.7037588058160902
1687105788.094917,0.6111026406288147,0.7845165729522705,-0.10529578477144241,-0.1049075722694397,-0.07310611009597778,0.09075421094894409,-0.12814146280288696,-0.15781526267528534,0.010683850385248661,1.4001671681506098,-0.9019161582649423,-1.7118685084144998
1687105788.134067,0.5908467173576355,0.7994372844696045,-0.10862767696380615,0.09140413999557495,0.06079208850860596,0.13835179805755615,-0.00664486363530159,0.25049734115600586,-0.9932165145874023,1.388975908803056,-0.926357967488378,-1.7278848796711077
1687105788.23735,0.5417118072509766,0.8375043272972107,-0.07165668904781342,0.24233055114746094,0.23701953887939453,0.07441854476928711,-0.4103473424911499,1.0094956159591675,-1.4478657245635986,1.4392815931977025,-0.9926999353007929,-1.7049236541628834
1687105788.254293,0.47968247532844543,0.8771043419837952,-0.02434627152979374,0.5139088034629822,0.22960036993026733,0.01862424612045288,-0.0032333543058484793,1.4067875146865845,-1.4857136011123657,1.5200848678250558,-1.0697997273564508,-1.6859872215656193
1687105788.274705,0.4215633273124695,0.9067988991737366,0.0003085238568019122,0.7787997722625732,-0.021300911903381348,-0.04916715621948242,-0.08382619917392731,0.8327820897102356,-0.9837595224380493,1.5715281831566184,-1.1356274743161483,-1.6963306176681732
1687105788.3457751,0.3962427079677582,0.9181303977966309,-0.005303842946887016,0.7289251089096069,-0.025903284549713135,-0.14975589513778687,0.733668863773346,-0.157732754945755,-0.15349696576595306,1.5574117876101874,-1.1633364985877104,-1.7279290342360127
1687105788.38444,0.40352654457092285,0.9145700335502625,-0.026976920664310455,0.39157840609550476,-0.260212242603302,-0.08920347690582275,-0.1421198695898056,-0.28719478845596313,0.4019230902194977,1.5040427570136257,-1.1544434393106782,-1.7695554998815695
1687105788.42382,0.4267650544643402,0.9027919769287109,-0.053273607045412064,0.014427512884140015,-0.007436811923980713,-0.022394713014364243,0.8498759269714355,0.0313246063888073,0.5254487991333008,1.4466075062910941,-1.126217675168411,-1.8238744262242432
1687105788.495453,0.4464394450187683,0.8927357196807861,-0.06094936281442642,-0.1316811442375183,-0.12004590034484863,0.09412199258804321,-0.007712791208177805,0.4264187216758728,0.3106812834739685,1.4351119141651678,-1.1033806168317328,-1.851987616745658
1687105788.534809,0.45766982436180115,0.8868796229362488,-0.06310810893774033,-0.08225789666175842,0.05164259672164917,0.09408349543809891,0.22388368844985962,0.2886837422847748,0.16583402454853058,1.4337703875921095,-1.090546641740578,-1.8744704910303753
1687105788.575454,0.4637390971183777,0.884466826915741,-0.051617395132780075,-0.014978140592575073,-0.03678011894226074,0.00764155387878418,-0.41195347905158997,0.139732226729393,0.0767386332154274,1.4599456383197578,-1.0853501266059864,-1.8566929409596953
1687105788.635606,0.46383756399154663,0.8852193355560303,-0.03523409366607666,-0.0028085410594940186,-0.04049283266067505,-0.058149635791778564,-0.13653814792633057,0.13598871231079102,-0.07513744384050369,1.494979794558319,-1.0869653137777968,-1.8243890565572045
1687105788.677634,0.454232782125473,0.8908462524414062,-0.008097067475318909,-0.04137575626373291,-0.22942358255386353,-0.11836773157119751,-0.9740080237388611,0.5444849729537964,-0.4456806182861328,1.552972404962413,-1.0992045034218803,-1.7770367640345444
1687105788.742142,0.41578829288482666,0.9071316719055176,0.06505578756332397,-0.01464998722076416,-0.43526893854141235,-0.20560455322265625,-1.5501372814178467,1.1299554109573364,-1.2232418060302734,1.7260016963819758,-1.1364176160497834,-1.6300042334403737
1687105788.782038,0.335506796836853,0.9246209859848022,0.18030880391597748,-0.05224263668060303,-0.37734925746917725,-0.27236509323120117,-1.8550697565078735,1.837790608406067,-1.813086986541748,2.063931646087547,-1.180039253098736,-1.3428266302105463
1687105788.8846312,0.21889202296733856,0.9303556084632874,0.29415059089660645,-0.13467882573604584,-0.2146269679069519,-0.30367210507392883,-1.9667118787765503,2.6429083347320557,-2.059760570526123,2.501846387621472,-1.1953815026805288,-0.9923547621685355
1687105788.901815,0.06153987720608711,0.9093605875968933,0.4114321172237396,-0.2915966510772705,-0.12069469690322876,-0.28429585695266724,-1.7793819904327393,3.433776617050171,-2.3886096477508545,2.9931185829513267,-1.14174441382545,-0.624634164566465
1687105788.932878,-0.127423495054245,0.8643857836723328,0.4864160120487213,-0.3721340298652649,-0.011144876480102539,-0.23945248126983643,-1.4740939140319824,4.112492084503174,-2.2102224826812744,-2.885385808108325,-1.0439275519168734,-0.3829534395995271
1687105788.976834,-0.3274643123149872,0.8214545845985413,0.4668829143047333,-0.4358566701412201,0.11480951309204102,0.05254155397415161,-0.45508816838264465,4.269270420074463,-2.2503697872161865,-2.5299383035478384,-0.9639570367533664,-0.21500086506002147
1687105789.0479178,-0.5084682106971741,0.7609997391700745,0.4029136300086975,-0.3934788703918457,0.04521358013153076,0.050196051597595215,-0.7442172169685364,4.308135509490967,-2.0785038471221924,-2.2408900595761314,-0.8648527098357066,-0.12079184436907855
1687105789.086906,-0.6536802649497986,0.6751274466514587,0.3419136106967926,-0.5042939186096191,0.10770934820175171,0.4466453492641449,-1.8489658832550049,3.576227903366089,-1.8558058738708496,-2.0527208037196427,-0.7411374900052218,-0.13870248900253318
1687105789.137804,-0.7586953639984131,0.6070806384086609,0.23629355430603027,-0.25021588802337646,0.1268671154975891,0.029422909021377563,0.36119145154953003,3.4867818355560303,-1.485893964767456,-1.8727217893201078,-0.6523816203511242,-0.13088936926012898
1687105789.187345,-0.8320358991622925,0.5443409085273743,0.10681327432394028,-0.14709001779556274,0.05333048105239868,0.32362186908721924,-0.6461588144302368,3.149360179901123,-1.5683481693267822,-1.6984737966948973,-0.5756032465085954,-0.11910843545631357
1687105789.228454,-0.8753993511199951,0.48336541652679443,-0.005791752133518457,-0.23727142810821533,0.11345145106315613,0.31218814849853516,-0.7764904499053955,2.6272809505462646,-1.1598378419876099,-1.564180297636092,-0.5044950111904346,-0.15136426591752541
1687105789.3065438,-0.8925961256027222,0.4445718824863434,-0.0750207006931305,-0.05517303943634033,0.16371965408325195,0.3516014814376831,-0.6834936738014221,1.4771181344985962,-0.6773880124092102,-1.4869456452372187,-0.46069625413241444,-0.2054293942995753
1687105789.343134,-0.8974431753158569,0.4250135123729706,-0.11814877390861511,0.07482665777206421,0.20795148611068726,0.3236388564109802,0.020825110375881195,0.5885416865348816,-0.2342475950717926,-1.4398986679722248,-0.43897679892218644,-0.21718304346296288
1687105789.385402,-0.8972601294517517,0.4254673719406128,-0.11790608614683151,0.10453552007675171,0.16996103525161743,0.39013808965682983,-0.570458710193634,-0.2677336037158966,0.09023699909448624,-1.4401381416343617,-0.4394782734858532,-0.23168476975528016
1687105789.463142,-0.8946985602378845,0.4366845190525055,-0.09391842782497406,0.04553192853927612,0.17516222596168518,0.07623346149921417,-0.1407099962234497,-0.389406681060791,0.28893303871154785,-1.4662072187058264,-0.4519099324880772,-0.251995698385493
1687105789.49292,-0.8883332014083862,0.45292961597442627,-0.07562301307916641,-0.06039726734161377,0.017193615436553955,0.009201467037200928,0.07594002783298492,-0.2985527515411377,0.3800773322582245,-1.4858719677430232,-0.4700485917813491,-0.2530782912408194
1687105789.550601,-0.8814138770103455,0.4668388068675995,-0.07190877944231033,-0.03042072057723999,-0.11516961455345154,0.0027559474110603333,0.09579522162675858,-0.08971282094717026,0.24259938299655914,-1.4893931675395458,-0.48571277741215985,-0.24240746171783908
1687105789.591613,-0.8777597546577454,0.4742436110973358,-0.06804851442575455,-0.012117505073547363,-0.14178526401519775,0.01423073559999466,-0.025013750419020653,-0.08250755071640015,0.08469656109809875,-1.4934258669970375,-0.4941046983114185,-0.24207406281822466
1687105789.638143,-0.8778613805770874,0.474447101354599,-0.06526543945074081,-0.0070569515228271484,-0.121816486120224,-0.021892793476581573,0.029679588973522186,-0.05712185800075531,-0.03771643713116646,-1.496586903709605,-0.49433584622701626,-0.240568378122387
1687105789.680307,-0.8807728290557861,0.4692273736000061,-0.06375597417354584,-0.0014902949333190918,-0.06721940636634827,-0.013285689055919647,0.05184907466173172,-0.024613073095679283,-0.11585591733455658,-1.4985359633641648,-0.4884156502356139,-0.23956701572842243
1687105789.739368,-0.8845676779747009,0.46166756749153137,-0.06635475903749466,-0.0005335807800292969,-0.018018394708633423,-0.030431799590587616,0.06558618694543839,0.009093825705349445,-0.17106065154075623,-1.495922781483643,-0.47987417649319297,-0.235268711671875
1687105789.781529,-0.8886733055114746,0.4531652629375458,-0.07000724971294403,0.0035414695739746094,0.03923577070236206,-0.00997936725616455,0.22842943668365479,-0.019882122054696083,-0.1404578685760498,-1.4921814174668353,-0.4703129222538334,-0.22679949715661432
1687105789.850899,-0.8911523222923279,0.44765132665634155,-0.0738629624247551,0.023140907287597656,0.051631420850753784,-0.020970456302165985,0.10786120593547821,0.018471792340278625,-0.09784369170665741,-1.4881005738363198,-0.4641370834467851,-0.21852352213254086
1687105789.888459,-0.8918415904045105,0.44562652707099915,-0.07768788188695908,0.023097753524780273,0.0888276994228363,-0.022577635943889618,0.14458246529102325,0.00613634055480361,-0.003979647532105446,-1.483906148323663,-0.4618739928541183,-0.21114849204770664
1687105789.933819,-0.8894354701042175,0.44974657893180847,-0.08143913000822067,0.02829056978225708,0.07295837998390198,0.004809446632862091,0.3430665135383606,-0.049302615225315094,0.140214204788208,-1.4794882040475459,-0.46648157623111836,-0.19764545224124352
1687105789.993984,-0.8854568600654602,0.4561723470687866,-0.08872904628515244,-0.02680504322052002,-0.0003466308116912842,-0.012848727405071259,0.03603522107005119,0.0566585473716259,0.06276156008243561,-1.4709226475368615,-0.4736891633677453,-0.18259246679731156
1687105790.034569,-0.8837175965309143,0.45923393964767456,-0.09026216715574265,-0.013010859489440918,-0.036672383546829224,0.015097327530384064,-0.03198777139186859,0.020119933411478996,0.044668447226285934,-1.469010155140841,-0.4771326249428366,-0.18309300827751535
1687105790.108625,-0.882951557636261,0.460722416639328,-0.09017536789178848,-0.0067122578620910645,-0.046339452266693115,0.0199085995554924,0.015554981306195259,-0.006399890407919884,0.01472180150449276,-1.4690197375270593,-0.4788089639207826,-0.18382416477916327
1687105790.146116,-0.884274959564209,0.4585857093334198,-0.0880749449133873,-0.002688109874725342,-0.05781364440917969,0.02444576472043991,-0.006273885257542133,-0.03348248451948166,-0.05694979056715965,-1.471522433549548,-0.4764030497464332,-0.18439889347662947
1687105790.1825671,-0.8868700861930847,0.4542217254638672,-0.08452226221561432,-0.006318390369415283,-0.05221372842788696,0.021839141845703125,-0.04263002797961235,-0.06513555347919464,-0.09987960755825043,-1.4757793144011238,-0.4714984289374649,-0.1870558985367057
1687105790.2527862,-0.8903453946113586,0.44758421182632446,-0.08338848501443863,-0.004857361316680908,0.003663957118988037,-0.019333727657794952,0.20403194427490234,-0.05050017312169075,-0.12279058247804642,-1.477410173502002,-0.4640620033709312,-0.1833767124660741
1687105790.288804,-0.8940467238426208,0.4402145743370056,-0.08301451802253723,-0.012752532958984375,0.010606229305267334,-0.02654360979795456,0.17925336956977844,-0.06284991651773453,-0.11865083873271942,-1.4782092492285817,-0.45583764234772794,-0.17507909901260565
1687105790.3343902,-0.895661473274231,0.43666329979896545,-0.08435528725385666,0.01733499765396118,0.026791900396347046,0.046635501086711884,0.168246790766716,-0.11083946377038956,-0.01639903336763382,-1.4768912214531682,-0.45188632318462046,-0.16508443589470664
1687105790.3843498,-0.8960317969322205,0.43587392568588257,-0.0845036432147026,0.0002799034118652344,0.03402039408683777,-0.006164126098155975,0.10795415192842484,-0.06246040761470795,-0.007879114709794521,-1.4767656914867506,-0.4510090582898809,-0.15712688561693713
1687105790.455807,-0.8955641388893127,0.43783873319625854,-0.07913514226675034,0.012492060661315918,0.050564587116241455,0.03682249039411545,0.1241815909743309,-0.19086609780788422,0.06313793361186981,-1.4826617776194402,-0.4531933384834884,-0.15405344784198294
1687105790.49481,-0.8926527500152588,0.44557926058769226,-0.0680457055568695,0.012983500957489014,0.025245964527130127,0.11327271908521652,0.2578080892562866,-0.5845649242401123,0.3101351261138916,-1.4947148219890163,-0.4618211843791823,-0.14181733175859174
1687105790.53656,-0.8835585117340088,0.4671223759651184,-0.033481158316135406,0.01948380470275879,0.058176636695861816,0.2678408622741699,0.6784027218818665,-1.3876688480377197,0.7014160752296448,-1.5329209113054014,-0.4860334353762185,-0.12017731709661135
1687105790.636554,-0.8590672016143799,0.5117217302322388,0.012023881077766418,-0.05406463146209717,0.19968879222869873,0.3806610107421875,2.266094923019409,-2.44248104095459,1.4198445081710815,-1.584791851212224,-0.5371875599402569,-0.030996510755495265
1687105790.65329,-0.8021227121353149,0.5928162336349487,0.07188969850540161,-0.26988351345062256,0.1324339509010315,0.3834477663040161,1.9549440145492554,-3.2885377407073975,2.22094464302063,-1.6601818249682936,-0.6345512902233444,0.09605170575818606
1687105790.684283,-0.7015336155891418,0.6967588663101196,0.14959101378917694,-0.3779035806655884,0.22725224494934082,0.30972909927368164,1.907426357269287,-3.9126389026641846,2.7223308086395264,-1.7808841681382679,-0.7708690304866939,0.19214673725630457
1687105790.7598991,-0.5516499280929565,0.810297966003418,0.19773514568805695,-0.4335031509399414,0.2680252194404602,0.25027820467948914,2.4851441383361816,-4.173961162567139,3.299722909927368,-1.9149729940128266,-0.9446604248992116,0.28585795472628733
1687105790.80756,-0.35196638107299805,0.9145486950874329,0.19929945468902588,-0.5427021980285645,0.18503010272979736,0.2541917562484741,2.006469249725342,-4.273951530456543,3.83365797996521,-2.086026648733006,-1.1543906776245203,0.3353896304074194
1687105790.84577,-0.1226777508854866,0.9801032543182373,0.15603674948215485,-0.663149893283844,0.04133516550064087,0.12577781081199646,1.6408007144927979,-3.8159120082855225,4.11206579208374,-2.475316603824753,-1.3709808744938463,0.1441217952379979
1687105790.935647,0.09900201112031937,0.9895816445350647,0.10453107953071594,-0.6287719011306763,-0.1353183388710022,0.0723944902420044,0.833483099937439,-3.329301357269287,3.830930233001709,2.3833532339070054,-1.4263213368109409,-1.112776857925355
1687105790.953316,0.2920830547809601,0.9559765458106995,0.02821243554353714,-0.6564782857894897,-0.1821424961090088,0.04632674902677536,1.1167497634887695,-2.556485414505005,3.4773900508880615,1.66708806129374,-1.2729697934514959,-1.6946214454764006
1687105791.000915,0.43768224120140076,0.898083508014679,-0.04336027801036835,-0.5714713931083679,-0.3602723479270935,-0.07581084966659546,0.34065529704093933,-1.6153748035430908,2.7367300987243652,1.4720505949281955,-1.1153925338244264,-1.7903799295668148
1687105791.042567,0.5323323607444763,0.8436126112937927,-0.07028631865978241,-0.3751973509788513,-0.4473569989204407,-0.2251238226890564,-0.7201483249664307,-0.8766293525695801,1.6473808288574219,1.439521005858224,-1.0039760236566668,-1.755887680875487
1687105791.086564,0.5763903260231018,0.8140816688537598,-0.07102843374013901,-0.21201050281524658,-0.27402740716934204,-0.1737987995147705,0.021603552624583244,-0.3579750061035156,0.5775402784347534,1.4481847306327278,-0.9511461971960056,-1.7081051230916935
1687105791.186329,0.5848307013511658,0.8087745308876038,-0.062102869153022766,-0.06894636154174805,-0.15951305627822876,-0.15174901485443115,-0.22498172521591187,-0.10352195054292679,-0.013130202889442444,1.465003309795846,-0.9420654156554836,-1.6747348098959034
1687105791.232053,0.5808335542678833,0.8119417428970337,-0.05816163122653961,-0.007148921489715576,-0.06108736991882324,-0.12036614865064621,-0.36376890540122986,0.028047941625118256,-0.14809633791446686,1.4709942442233659,-0.9474708199571942,-1.6645392612940635
1687105791.252501,0.5772268176078796,0.8153243064880371,-0.04533561319112778,0.059934377670288086,0.06056058406829834,-0.10255259275436401,-0.031819190829992294,0.0954461395740509,-0.02413931116461754,1.4924168512654,-0.953289080726566,-1.6428647148592659
1687105791.2844381,0.5798583626747131,0.8138924837112427,-0.036649931222200394,0.10086667537689209,-0.03294777870178223,-0.04487776383757591,-0.18899203836917877,0.12109985947608948,0.1365918517112732,1.507675314676039,-0.9508204416468911,-1.630800597911951
1687105791.376982,0.5884894132614136,0.8076899647712708,-0.03628919646143913,0.15075302124023438,-0.0429958701133728,-0.05170821771025658,0.09659550338983536,0.013425057753920555,0.27977454662323,1.5092093212022368,-0.9402236019525453,-1.6326083764314367
1687105791.393118,0.6044658422470093,0.7957733869552612,-0.03695621341466904,0.21297800540924072,-0.08948981761932373,-0.04524284601211548,0.31419891119003296,-0.16894082725048065,0.4849139153957367,1.509733705466756,-0.9202835577560268,-1.627116947583946
1687105791.463115,0.6225886344909668,0.7785939574241638,-0.07857894152402878,0.3568424582481384,-0.23664766550064087,-0.04631423205137253,-0.1045738235116005,-0.3029859960079193,0.36871299147605896,1.4452469212517098,-0.892422047501772,-1.6911809880332584
1687105791.540244,0.6337354779243469,0.7668872475624084,-0.1013086661696434,0.3172990679740906,0.23437929153442383,-0.05791677534580231,0.5766912698745728,-0.3484606146812439,0.3246598243713379,1.4122780249081461,-0.8739768427068454,-1.7128015306337208
1687105791.557667,0.6397207379341125,0.7621137499809265,-0.09970008581876755,0.2826578617095947,-0.04202091693878174,-0.02220238745212555,0.23499812185764313,-0.16983965039253235,0.06548784673213959,1.4161906651775185,-0.8665716593333107,-1.6903284656351896
1687105791.591663,0.6354996562004089,0.7631277441978455,-0.11737152189016342,0.1740248203277588,-0.15376806259155273,0.050965316593647,-0.47242510318756104,0.11145384609699249,-0.3305791914463043,1.3881626553375175,-0.8681392217981699,-1.724176237486216
1687105791.643614,0.6155796647071838,0.7774010896682739,-0.12926490604877472,0.18730735778808594,0.07126230001449585,0.0842820256948471,0.2384682148694992,0.14264997839927673,-0.8503937721252441,1.3638147401059453,-0.8905234021369084,-1.7642085649667054
1687105791.70718,0.5716720819473267,0.8115792274475098,-0.12054131925106049,-0.0005203485488891602,-0.025934696197509766,0.10795283317565918,0.889661967754364,0.31498146057128906,-1.2568296194076538,1.3629830432059844,-0.9468500842679227,-1.7816100524746528
1687105791.743503,0.5148083567619324,0.8465248942375183,-0.13552841544151306,-0.11888855695724487,-0.002973318099975586,0.18273913860321045,-0.11409648507833481,0.37782028317451477,-1.6301125288009644,1.3133771710495539,-1.0094231666385458,-1.8607835907879462
1687105791.83498,0.43605634570121765,0.8909082412719727,-0.12703220546245575,-0.20020127296447754,-0.08001053333282471,0.03381635248661041,0.288793683052063,0.7758923172950745,-2.189918041229248,1.2873211400201503,-1.099340998293167,-1.9208761097918454
1687105791.8520741,0.3340313136577606,0.9381711483001709,-0.09087167680263519,-0.4611523449420929,-0.024398744106292725,-0.023035161197185516,-0.11039283126592636,1.3087834119796753,-2.4401352405548096,1.3051790777628356,-1.2173088604896896,-1.9594058071422988
1687105791.8909578,0.22241051495075226,0.9684647917747498,-0.11229151487350464,-0.44859158992767334,-0.03413873910903931,-0.030744358897209167,0.45675474405288696,1.126657247543335,-2.3416590690612793,1.1032491339867716,-1.3189932640579567,-2.23599392784663
1687105791.942906,0.1340389847755432,0.9862323999404907,-0.09684684872627258,-0.2941189408302307,-0.04171335697174072,-0.06341618299484253,-0.323479562997818,0.9468435645103455,-1.3748173713684082,0.9451106820014595,-1.4046678747254786,-2.454195857193678
1687105792.016735,0.09780094027519226,0.9920939207077026,-0.07864068448543549,0.03574395179748535,1.71661376953125e-05,-0.0006897374987602234,-0.023628907278180122,0.2583821713924408,-0.2470860332250595,0.8935669313659009,-1.4449667311265157,-2.535822888838414
1687105792.050599,0.09542030841112137,0.9918742179870605,-0.08414573222398758,0.009865321218967438,-0.09120893478393555,0.004723787307739258,0.3764021098613739,0.016998909413814545,0.03844284638762474,0.8481037252893235,-1.443228152937605,-2.58646457566821
1687105792.0905719,0.09771016985177994,0.9898083209991455,-0.1035955548286438,-0.012901835143566132,-0.08882266283035278,-0.022029995918273926,0.18176285922527313,0.01823093183338642,0.057730384171009064,0.7561704432698895,-1.42790465067548,-2.680397508942467
1687105792.162973,0.0999460443854332,0.9896145462989807,-0.10331470519304276,-0.005188979208469391,-0.07637602090835571,-0.016634583473205566,0.015600521117448807,0.02908402308821678,0.017909472808241844,0.7688265797729656,-1.4265500404636084,-2.668292878774585
1687105792.20069,0.09905780851840973,0.9893649220466614,-0.10650915652513504,0.01314004510641098,-0.0841069221496582,-0.006970390677452087,0.12003212422132492,0.0015922111924737692,-0.02711818926036358,0.7491662173979832,-1.4248240240754646,-2.6893425889631644
1687105792.24473,0.09823237359523773,0.9882606863975525,-0.11701056361198425,-0.008144482970237732,-0.06852179765701294,0.0031342357397079468,0.18528249859809875,-0.04319410026073456,-0.01663738489151001,0.6983766421900727,-1.4174185241753887,-2.739726096144865
1687105792.3043408,0.09783487766981125,0.9877322912216187,-0.12170970439910889,-0.009440727531909943,-0.08146703243255615,0.027654588222503662,0.09513556212186813,-0.19572483003139496,0.056534696370363235,0.6770767558225367,-1.4139979211970577,-2.756322631366767
1687105792.343154,0.10592357814311981,0.9858085513114929,-0.13023711740970612,-0.02987378090620041,0.008408308029174805,0.0470615029335022,0.002509486163035035,-0.331561803817749,0.35846590995788574,0.6828062426501406,-1.4021243768974179,-2.7366422029930852
1687105792.437801,0.13833563029766083,0.9826436638832092,-0.12359088659286499,-0.10479681193828583,0.006797194480895996,-0.056432247161865234,-0.13835948705673218,-0.3448609709739685,1.00156569480896,0.8416322423880732,-1.384212541243601,-2.5582180736020566
1687105792.454438,0.20019981265068054,0.9720743298530579,-0.12243949621915817,-0.17854762077331543,-0.07842814922332764,-0.024014286696910858,-0.32856032252311707,-0.46428635716438293,1.4551469087600708,1.0219008743810825,-1.33391392656663,-2.351786695798119
1687105792.493324,0.2736900746822357,0.9529274702072144,-0.13047261536121368,-0.2586906850337982,0.029601216316223145,-0.04276043176651001,0.027819637209177017,-0.5721339583396912,1.7285209894180298,1.1259482976724682,-1.2627490484767927,-2.2160167970482156
1687105792.545502,0.354227215051651,0.9252246618270874,-0.1359495222568512,-0.2540075480937958,0.04672962427139282,-0.08170180022716522,0.1048172190785408,-0.5941133499145508,1.8710136413574219,1.2043400785306846,-1.1816272829650807,-2.1012982881414706
1687105792.61799,0.4393537640571594,0.8877671360969543,-0.1372503638267517,-0.4840315282344818,-0.001887679100036621,-0.05874870717525482,-0.3321284353733063,-0.4437544047832489,1.9768500328063965,1.2680103383724517,-1.0924712551019584,-2.0031695169232497
1687105792.656209,0.5184527635574341,0.8386704325675964,-0.1668495386838913,-0.3410540819168091,0.10455161333084106,0.00037616491317749023,0.6059226393699646,-0.6187719702720642,1.8598355054855347,1.259441422742771,-0.994837450471374,-1.9805964538905463
1687105792.744533,0.5787197351455688,0.7921915650367737,-0.19369103014469147,-0.3996730446815491,-0.01826566457748413,0.04241541028022766,0.13981115818023682,-0.3330947458744049,1.209313154220581,1.2478263103829086,-0.9143917700099531,-1.9639348125216438
1687105792.761276,0.610586404800415,0.767948567867279,-0.19349201023578644,-0.16899710893630981,0.005458354949951172,0.12179103493690491,-0.09221649169921875,0.07762441784143448,0.4508417844772339,1.2639121495094503,-0.8756321316857076,-1.9365277044492495
1687105792.7952662,0.6172444224357605,0.7658319473266602,-0.18030694127082825,-0.03899741172790527,0.018118739128112793,0.03428037464618683,0.02568032033741474,0.23737962543964386,-0.1794390231370926,1.2865882055818594,-0.8723341062921655,-1.9160831985475426
1687105792.868243,0.5961611866950989,0.7877304553985596,-0.15515269339084625,0.05863916873931885,-0.013820052146911621,0.10421891510486603,-0.6934522986412048,0.6396446824073792,-0.9913212656974792,1.3161913710020385,-0.9071161011050911,-1.9070580789715528
1687105792.907146,0.5609688758850098,0.8222043514251709,-0.0964033231139183,0.12102264165878296,0.4162750840187073,0.06777788698673248,-0.376751571893692,1.5449167490005493,-1.1395329236984253,1.4006072606983448,-0.9652730763599342,-1.8654815684664514
1687105792.945969,0.5189914703369141,0.853921115398407,-0.038295645266771317,0.38152122497558594,0.19827920198440552,0.0381125807762146,-0.4935828447341919,1.9557965993881226,-1.1371595859527588,1.4971412291098014,-1.0234741653358819,-1.8602792778591288
1687105793.035475,0.4799439609050751,0.8772760033607483,0.006382776889950037,0.7973693013191223,0.02865368127822876,-0.012959240935742855,0.18399032950401306,0.7433925867080688,-0.6261867880821228,1.5840945471123546,-1.0701572406014428,-1.8469681305863992
1687105793.0533009,0.4662677049636841,0.8846024870872498,-0.008545635268092155,0.7720136046409607,-0.17451941967010498,-0.1249229907989502,0.6693341135978699,-0.6252370476722717,0.009330765344202518,1.552470634061551,-1.0856409849545958,-1.878790085901437
1687105793.097512,0.4767685532569885,0.8771896958351135,-0.05683334544301033,0.343711793422699,-0.1854172945022583,-0.06554216146469116,0.5341565608978271,-0.39101555943489075,0.4794275164604187,1.4521508776101366,-1.0699774736091696,-1.9595515352219477
1687105793.143868,0.500895619392395,0.8617533445358276,-0.08052779734134674,-0.07305443286895752,-0.014860033988952637,0.05619001388549805,0.6242973804473877,0.23257388174533844,0.5467952489852905,1.4113926836896848,-1.0387156424421045,-2.0032653138716716
1687105793.198776,0.5206145644187927,0.8493579030036926,-0.08689901977777481,-0.172821044921875,-0.0420154333114624,0.1532747745513916,0.12150032073259354,0.33101287484169006,0.3029181659221649,1.4054048537059767,-1.0147675736193489,-2.0297077003971533
1687105793.2669148,0.5295446515083313,0.8444951176643372,-0.08006548136472702,-0.08365237712860107,-0.022839903831481934,0.07756304740905762,-0.15742185711860657,0.10158194601535797,0.08487845212221146,1.4207360747638267,-1.0056217722198086,-2.0237440767777852
1687105793.337,0.530514121055603,0.8448340892791748,-0.06935438513755798,-0.017666280269622803,-0.04174882173538208,-0.031033150851726532,-0.3466980457305908,0.04276594519615173,-0.043059006333351135,1.440803015734087,-1.0062549623445816,-2.002688852387991
1687105793.354024,0.5265796184539795,0.8484144806861877,-0.053914617747068405,-0.011839628219604492,-0.011958181858062744,-0.10335767269134521,-0.20442984998226166,0.21087807416915894,-0.1596601903438568,1.4687654128357523,-1.0129827458722003,-1.9771177710428318
1687105793.419693,0.5146759152412415,0.8571662902832031,-0.019344160333275795,-0.020703256130218506,-0.19968050718307495,-0.12315768003463745,-1.192065954208374,0.48755234479904175,-0.46530112624168396,1.5332288793622135,-1.0297423392439207,-1.9210891607336684
1687105793.497817,0.4849035143852234,0.8727671504020691,0.05608855187892914,-0.027658700942993164,-0.17009997367858887,-0.16305255889892578,-1.3359217643737793,0.8949204087257385,-0.8860025405883789,1.6859540775206905,-1.0608426593910982,-1.7843897362264238
1687105793.5062041,0.4304942488670349,0.8886902928352356,0.15781114995479584,-0.032056719064712524,-0.23688054084777832,-0.16638658940792084,-1.7894036769866943,1.4294154644012451,-1.18218994140625,1.9221658965151016,-1.0944807736526785,-1.582492036694264
1687105793.5515342,0.35167190432548523,0.8981413841247559,0.26394882798194885,-0.03732562065124512,-0.27463680505752563,-0.31418073177337646,-1.6989198923110962,1.9148924350738525,-1.6395924091339111,2.214652037837246,-1.1155241996384517,-1.3490225082910128
1687105793.6382,0.23066313564777374,0.9013355374336243,0.3665904700756073,-0.14146029949188232,-0.2634877562522888,-0.1774425506591797,-1.2274607419967651,2.565838098526001,-2.0985188484191895,2.5799701716531023,-1.1228432708018887,-1.069124478000613
1687105793.655133,0.06610798090696335,0.901358962059021,0.4279976189136505,-0.21724632382392883,-0.17304158210754395,-0.24089425802230835,-0.8577339053153992,3.0735363960266113,-2.5737626552581787,2.9883449331051466,-1.122897242846698,-0.7734680278855623
1687105793.6969,-0.11698663979768753,0.8838207125663757,0.45296257734298706,-0.36741891503334045,0.09394717216491699,0.09902417659759521,-0.6839503645896912,3.3153107166290283,-2.3576698303222656,-2.888845738463662,-1.0839671826719686,-0.49955925165825493
1687105793.778539,-0.2963710129261017,0.8395118713378906,0.45539382100105286,-0.23756450414657593,-0.06506747007369995,0.06779932975769043,-0.7385558485984802,3.5418789386749268,-2.211843252182007,-2.5646541557436926,-0.9963841660055905,-0.3284533130532306
1687105793.814361,-0.45421308279037476,0.7834722995758057,0.4241006076335907,-0.35839366912841797,0.12619549036026,0.23520106077194214,-0.9042209982872009,3.1992671489715576,-1.9958962202072144,-2.321923497002734,-0.9002338953614729,-0.2347262505409358
1687105793.862812,-0.5897163152694702,0.7176340818405151,0.370453417301178,-0.1722922921180725,0.1480274200439453,0.1592859923839569,-0.7505709528923035,2.9229674339294434,-1.898362398147583,-2.131685720655953,-0.8003990552739108,-0.1882386988964777
1687105793.975461,-0.6959090232849121,0.650356650352478,0.30454397201538086,-0.17248398065567017,0.14061319828033447,0.12665417790412903,-0.549771249294281,2.731678009033203,-1.5274202823638916,-1.983307779047179,-0.7080538352875771,-0.17569443826367429
1687105793.992873,-0.7774943113327026,0.5922462344169617,0.2115349918603897,-0.10186970233917236,0.13227152824401855,0.11141729354858398,-0.2609349489212036,2.6624627113342285,-1.4936437606811523,-1.8364390402500304,-0.6338437153002767,-0.16017420535065513
1687105794.021534,-0.8397070169448853,0.5306513905525208,0.11533033102750778,-0.13433772325515747,0.1506076455116272,0.16855943202972412,-0.14303572475910187,2.4562039375305176,-1.3996661901474,-1.7072882623943801,-0.559368894020286,-0.15696587408103255
1687105794.0609422,-0.8799810409545898,0.47468745708465576,0.01746237277984619,-0.1594017744064331,0.0933360755443573,0.1748594045639038,-0.48757076263427734,2.1289560794830322,-1.1020839214324951,-1.5906377549076287,-0.49460891210366736,-0.16254780780045724
1687105794.125274,-0.8982264995574951,0.43731439113616943,-0.044103316962718964,-0.04070776700973511,0.1295343041419983,0.2660118341445923,-0.878290593624115,1.3404055833816528,-0.6438356637954712,-1.5217352869417702,-0.4526101907070204,-0.20258924677328802
1687105794.161998,-0.9048449993133545,0.41956478357315063,-0.07225608825683594,0.05462527275085449,0.1815093457698822,0.20502275228500366,-0.5672053694725037,0.7079100608825684,-0.2813546657562256,-1.4911107551674732,-0.4329658244141255,-0.2484415686222905
1687105794.2354,-0.9059932231903076,0.4137602746486664,-0.08932202309370041,0.04599273204803467,0.20519715547561646,0.13244330883026123,0.023000646382570267,0.37143802642822266,-0.04273702949285507,-1.4725237486620857,-0.42658061183804424,-0.26421096867432287
1687105794.271755,-0.9031060934066772,0.4168049097061157,-0.10331052541732788,0.00823909044265747,0.05722463130950928,0.12203298509120941,0.0671691745519638,0.202631875872612,0.16222357749938965,-1.4568967656045193,-0.42992751913004584,-0.26212751820875413
1687105794.316222,-0.8986071348190308,0.42376819252967834,-0.11369171738624573,0.01996028423309326,0.017744839191436768,0.07255399227142334,0.08715726435184479,0.12763185799121857,0.14741432666778564,-1.4449450567730528,-0.4376014871312249,-0.2544670873483175
1687105794.3751369,-0.8949781060218811,0.43173933029174805,-0.11231806874275208,0.0068097710609436035,-0.07442432641983032,0.05560111999511719,-0.13278841972351074,-0.06572633236646652,0.17210157215595245,-1.4459509068906617,-0.44642020462442933,-0.2577781662030043
1687105794.412736,-0.892073929309845,0.43900153040885925,-0.1071515828371048,-0.01620537042617798,-0.042486727237701416,0.04427005350589752,-0.06459444761276245,-0.07476698607206345,0.10902214050292969,-1.4512538999933162,-0.45448708636071466,-0.2617730838865015
1687105794.449749,-0.8921770453453064,0.44003525376319885,-0.10192751884460449,-0.023075759410858154,-0.08517688512802124,-0.0190746933221817,-0.0601981021463871,-0.05609763041138649,0.01054183766245842,-1.4570436778346143,-0.4556379400283256,-0.26466397707347017
1687105794.539398,-0.8937767148017883,0.438005656003952,-0.09650963544845581,0.011177897453308105,-0.04876929521560669,-0.010530821979045868,0.01579839363694191,-0.06692367047071457,-0.038333624601364136,-1.4632335038095419,-0.4533790014035243,-0.26939827315936943
1687105794.555287,-0.8965053558349609,0.4325028657913208,-0.09601810574531555,0.010076522827148438,-0.021034419536590576,-0.020910024642944336,0.12244707345962524,-0.08196213841438293,-0.06812360882759094,-1.4641003986697054,-0.4472668479902138,-0.2630052555943218
1687105794.6247048,-0.8986579775810242,0.42847883701324463,-0.0939125269651413,0.010413408279418945,-0.0023162364959716797,0.02250136435031891,0.21344701945781708,-0.2061474472284317,-0.013625150546431541,-1.4666711928621312,-0.4428085702467779,-0.25566904842611604
1687105794.6643128,-0.8997253775596619,0.42726996541023254,-0.08907599002122879,0.0033783912658691406,-0.023873478174209595,-0.002263180911540985,0.24884895980358124,-0.303532212972641,0.029175641015172005,-1.4721143725391195,-0.441471078769889,-0.24142211884397158
1687105794.703723,-0.8997766375541687,0.43027040362358093,-0.07258910685777664,0.0074121952056884766,-0.036456406116485596,0.038149960339069366,0.13804441690444946,-0.45791441202163696,0.0795896127820015,-1.4902960772247158,-0.4447923002421867,-0.23425363883407802
1687105794.775416,-0.9009585380554199,0.4292568266391754,-0.06334292888641357,-0.007076740264892578,-0.006771564483642578,-0.0158960223197937,0.20875319838523865,-0.20977045595645905,-0.10560261458158493,-1.500605668266347,-0.44366978347332353,-0.2217500590702092
1687105794.83687,-0.9040539264678955,0.42381012439727783,-0.055420100688934326,-0.004271209239959717,0.014178067445755005,0.01232922449707985,-0.02745666727423668,-0.18848970532417297,-0.10556119680404663,-1.5095711784831765,-0.4376477991990171,-0.2196493207371594
1687105794.876361,-0.906306803226471,0.41962674260139465,-0.05021345615386963,0.009700357913970947,0.05876675248146057,-0.041827619075775146,0.11006177961826324,-0.1044481173157692,-0.08204562216997147,-1.5154484328856572,-0.43303405250215316,-0.21678313385403802
1687105794.918744,-0.9078123569488525,0.4166471064090729,-0.04776817187666893,0.0060179829597473145,0.05709242820739746,-0.03285926207900047,0.060296621173620224,-0.08678168058395386,-0.04872627928853035,-1.5182258148475147,-0.42975391803669666,-0.2113106422308725
1687105794.960177,-0.9074234366416931,0.41761302947998047,-0.04671277478337288,0.006773412227630615,0.040120065212249756,-0.012186169624328613,-0.03877536952495575,-0.04740988463163376,-0.0016983840614557266,-1.5193632508282844,-0.43081672114887076,-0.21019362965876068
1687105795.0183048,-0.9063133001327515,0.4200167953968048,-0.04671179875731468,-0.0038581490516662598,0.029980123043060303,-0.01636803150177002,0.06691937148571014,-0.017184872180223465,0.016910454258322716,-1.51930144014121,-0.43346381524341693,-0.2094386311920216
1687105795.059458,-0.9051614999771118,0.4224466383457184,-0.04713239520788193,-0.0028127431869506836,-0.009040355682373047,-0.014650464057922363,-0.008478982374072075,-0.004882266279309988,0.017312191426753998,-1.51877260786697,-0.4361429686382085,-0.20861614789289418
1687105795.140164,-0.9041556119918823,0.42443445324897766,-0.04856257140636444,0.008159399032592773,0.002231806516647339,-0.0063996389508247375,0.01486548874527216,0.02853037416934967,0.017179831862449646,-1.5171374720225566,-0.438337183470297,-0.20842742909814996
1687105795.176045,-0.9038867950439453,0.42470061779022217,-0.051168061792850494,-0.006590008735656738,-0.008578181266784668,-0.020685620605945587,0.008306922391057014,0.01942456141114235,0.011058490723371506,-1.514247752469276,-0.4386311738790376,-0.2072748822858581
1687105795.218275,-0.9035557508468628,0.4252559244632721,-0.05238601192831993,0.007208764553070068,-0.010903596878051758,-0.00732165202498436,0.0015627325046807528,0.04668278992176056,0.0017083319835364819,-1.5128835373224778,-0.439244628845647,-0.20813630948836703
1687105795.258625,-0.9038581252098083,0.4242357909679413,-0.05535729601979256,-0.0036736130714416504,-0.01243165135383606,-0.0050827860832214355,-0.027331233024597168,0.06344292312860489,-0.0239584818482399,-1.5096271717588672,-0.438117801683358,-0.20954378396527396
1687105795.304206,-0.9042812585830688,0.4227284789085388,-0.05979851633310318,-0.004761040210723877,0.015091866254806519,-0.0011146031320095062,0.058438532054424286,0.0672694742679596,-0.02188621088862419,-1.5047642390220362,-0.4364539210819939,-0.206780473358677
1687105795.387301,-0.9047164916992188,0.4212753176689148,-0.0633651539683342,0.015220701694488525,0.01566004753112793,-0.0076493024826049805,-0.0241538155823946,0.07745153456926346,-0.029714837670326233,-1.5008718271373187,-0.4348510489624671,-0.20623023608463836
1687105795.434762,-0.9048417806625366,0.4204160273075104,-0.06716818362474442,0.019664227962493896,0.03292250633239746,-0.00386153906583786,-0.009327732026576996,0.10948239266872406,-0.03826771304011345,-1.4967002647594827,-0.4339037801535081,-0.20717654870408655
1687105795.4521089,-0.9048075675964355,0.4197816550731659,-0.07146032899618149,0.021293163299560547,0.02559182047843933,-0.0023311972618103027,-0.0989854484796524,0.12932361662387848,-0.03938797116279602,-1.4919814425387883,-0.4332047238426748,-0.2110926425495894
1687105795.504101,-0.9042511582374573,0.42040830850601196,-0.07474320381879807,0.01118481159210205,0.036226123571395874,0.008169062435626984,-0.05109754949808121,0.10552633553743362,-0.010923240333795547,-1.4883262340190804,-0.4338952785912681,-0.21535681330967796
1687105795.5739121,-0.9036596417427063,0.4210997223854065,-0.07793812453746796,0.010013401508331299,0.01905524730682373,0.020549774169921875,-0.07229951024055481,0.09946931153535843,-0.026768051087856293,-1.484762022601868,-0.43465745475538425,-0.21854954510960295
1687105795.611767,-0.9033198356628418,0.42156434059143066,-0.07935245335102081,0.009337902069091797,0.02313774824142456,0.014731407165527344,0.02645130455493927,0.06071653962135315,-0.021648788824677467,-1.4831758864697822,-0.43516974759039034,-0.2223509789592136
1687105795.684613,-0.9032872319221497,0.42107510566711426,-0.08226611465215683,0.009778439998626709,0.010397583246231079,0.01990336924791336,0.11271055787801743,0.03925705328583717,-0.0181770920753479,-1.4799727406632512,-0.43463028982138213,-0.2179663505374508
1687105795.736044,-0.903404712677002,0.42040836811065674,-0.0843600332736969,0.010170519351959229,-0.010053873062133789,0.01616848260164261,0.008825705386698246,0.04493863880634308,-0.03274032101035118,-1.477686223445922,-0.4338953462362,-0.2143646487283078
1687105795.7582278,-0.9040172100067139,0.41888728737831116,-0.08535932749509811,0.0033519864082336426,0.0024993419647216797,0.013978667557239532,0.09725543856620789,0.033257175236940384,-0.04665813222527504,-1.4766532085813215,-0.4322195567103817,-0.21284356690273493
1687105795.829358,-0.9050717353820801,0.4162823259830475,-0.08691317588090897,0.003903031349182129,-0.017997562885284424,0.004057891666889191,0.0308521781116724,0.019938617944717407,-0.05676669627428055,-1.4750608392134654,-0.42935268071863636,-0.20920490673068604
1687105795.868372,-0.9060723781585693,0.4140644967556,-0.08708154410123825,-0.005746960639953613,0.0006082653999328613,0.007445886731147766,0.0940050482749939,0.013010447844862938,-0.04742792248725891,-1.4749817946004233,-0.4269148099568998,-0.20750404509295525
1687105795.914892,-0.9072370529174805,0.4111366868019104,-0.08881256729364395,-0.0024461746215820312,-0.015140652656555176,0.0009066462516784668,0.08514950424432755,0.01244761049747467,-0.06602004915475845,-1.4732137913886976,-0.42370065315837957,-0.20291892618010413
1687105795.979672,-0.9084780216217041,0.40823671221733093,-0.08950234949588776,0.007598996162414551,-0.019580096006393433,0.0029697343707084656,0.06467059254646301,-0.00916072353720665,-0.052207496017217636,-1.4725942221070838,-0.4205216400083761,-0.20007173934394984
1687105796.037108,-0.9099591374397278,0.40473341941833496,-0.09036190807819366,-0.012175261974334717,-0.018655598163604736,0.0012658238410949707,0.042244914919137955,-0.01192987710237503,-0.07321664690971375,-1.4718175643876328,-0.41668728631080404,-0.19614594761228626
