Timestamp,gravityX,gravityY,gravityZ,accelerationX,accelerationY,accelerationZ,rotationRateX,rotationRateY,rotationRateZ,attitudeRoll,attitudePitch,attitudeYaw
1687096184.408987,-0.8788086175918579,0.4452389180660248,0.1716325283050537,0.00292360782623291,-0.00012475252151489258,-0.004045471549034119,-0.008457368239760399,-0.008924048393964767,0.011752240359783173,-1.7636699227273787,-0.46144107641061216,2.253377373127449
1687096184.409832,-0.878417432308197,0.44595375657081604,0.17177781462669373,-0.0009921789169311523,0.002105236053466797,-0.005808249115943909,0.008971955627202988,-0.006473008077591658,0.008680950850248337,-1.7639130066594018,-0.4622395466487345,2.253532211081189
1687096184.497169,-0.8782255053520203,0.44662147760391235,0.17102386057376862,0.0011350512504577637,0.002063274383544922,-0.00609181821346283,0.0811137929558754,-0.013147045858204365,-0.0030358261428773403,-1.7631271727512452,-0.4629856944653986,2.2558865326087982
1687096184.501484,-0.8782336711883545,0.4471580982208252,0.16957376897335052,-0.003663301467895508,-0.0028984248638153076,-0.009387239813804626,0.014997623860836029,0.02634650096297264,0.008480014279484749,-1.7615341123232715,-0.4635855567680282,2.2583260140739254
1687096184.524759,-0.8783994913101196,0.44751930236816406,0.16775056719779968,-0.0032988786697387695,-0.010675549507141113,0.0004925429821014404,0.0219881571829319,0.0340377539396286,-9.682821109890938e-05,-1.7594971895902463,-0.463989429379073,2.258330721175216
1687096184.6172729,-0.878881573677063,0.4473370313644409,0.16570034623146057,0.0025540590286254883,-0.013163387775421143,0.005548730492591858,-0.00984567403793335,0.022304844111204147,-0.007917999289929867,-1.757144378196431,-0.46378560890349363,2.260240114292756
1687096184.621876,-0.8793011903762817,0.4466974139213562,0.16519810259342194,0.0012801885604858398,-0.014217585325241089,0.015221580862998962,0.0017230978701263666,0.009525931440293789,-0.012621408328413963,-1.7565058495438812,-0.4630705806749921,2.2595331965028698
1687096184.73807,-0.8796336054801941,0.44570252299308777,0.16611400246620178,0.0014597773551940918,-0.006142556667327881,0.005714908242225647,-0.004278867971152067,-0.025567317381501198,-0.020587921142578125,-1.7574428398368893,-0.4619588956996508,2.260091998087841
1687096184.741961,-0.8801413178443909,0.444091796875,0.16773056983947754,0.00375288724899292,-0.013336181640625,-0.0030732154846191406,-0.0393441766500473,0.007383418269455433,-0.02530018612742424,-1.7591105860258973,-0.4601603781818009,2.258062484771705
1687096184.858527,-0.8807594776153564,0.44245654344558716,0.1688036322593689,-0.004112839698791504,0.010897338390350342,0.0027658939361572266,0.015255951322615147,-0.037191394716501236,-0.03155748173594475,-1.7601569668695223,-0.4583360913238167,2.258354499073106
1687096184.8596768,-0.8810498714447021,0.4412788152694702,0.17036332190036774,-8.392333984375e-05,0.014791101217269897,-0.002043977379798889,-0.0484846793115139,-0.006487344857305288,-0.0033015429507941008,-1.7618030396446949,-0.457023241015808,2.2570342146068256
1687096184.946621,-0.8807464241981506,0.4416104853153229,0.17107117176055908,0.008127093315124512,0.015191763639450073,-0.006230741739273071,-0.0036956360563635826,-0.01640034094452858,0.012194858863949776,-1.7626418568339357,-0.4573928967685903,2.2555129410007475
1687096184.948708,-0.8801681399345398,0.4424366354942322,0.17191249132156372,-0.0013474225997924805,0.0016094446182250977,0.0011218935251235962,-0.02291140705347061,-0.013360807672142982,0.015129595063626766,-1.763685736967419,-0.45831387702066034,2.2545926147656514
1687096185.003509,-0.879579484462738,0.4434647858142853,0.17227432131767273,0.0026265978813171387,0.0007337629795074463,7.34180212020874e-05,-0.0034684683196246624,-0.01904645748436451,0.010779389180243015,-1.7642078381396793,-0.4594606885151964,2.253982533655909
1687096185.0943608,-0.8791456818580627,0.44389963150024414,0.17336606979370117,-0.00543665885925293,-0.007147312164306641,0.0018656253814697266,-0.03341438248753548,-0.021390149369835854,0.009714590385556221,-1.7654965374156986,-0.4599459001158351,2.253136348719412
1687096185.096277,-0.8789092302322388,0.4438932538032532,0.17457672953605652,0.0006287693977355957,-0.0039061009883880615,-0.004258409142494202,-0.02127170003950596,-0.007943139411509037,-1.6866717487573624e-05,-1.7668731251448326,-0.4599388004807319,2.2513401624267986
1687096185.152281,-0.8789363503456116,0.44350606203079224,0.1754227876663208,-0.0016331076622009277,0.0005857944488525391,-0.0069202035665512085,-0.010068047791719437,-0.01815112493932247,-0.006011908873915672,-1.7677931157805882,-0.45950673039981843,2.2513437381234724
1687096185.214048,-0.8788452744483948,0.4433918595314026,0.17616619169712067,0.0016480088233947754,0.0029277503490448,-0.005969986319541931,-0.013757058419287205,-0.0027530603110790253,0.0037539699114859104,-1.7686263536537472,-0.45937931666893617,2.249917311622539
1687096185.218972,-0.8787112832069397,0.4435403048992157,0.17646010220050812,-0.0047113895416259766,-0.00039458274841308594,-0.006080746650695801,-0.012268884107470512,0.0005604446632787585,0.010813742876052856,-1.7689772638581236,-0.4595449340116317,2.248974907459804
1687096185.273991,-0.8785623908042908,0.4438978433609009,0.1763022541999817,-0.0017322897911071777,0.0008042752742767334,-0.003923892974853516,-0.014697953127324581,0.011477119289338589,0.01082552783191204,-1.7688372774329002,-0.4599438940208805,2.248136744505614
1687096185.3044748,-0.8785125017166138,0.4444594383239746,0.17513205111026764,0.0025056004524230957,-0.00013878941535949707,-0.004111766815185547,-0.03235497698187828,0.030351407825946808,0.008228212594985962,-1.7675674388691278,-0.4605707183024222,2.247793179456553
1687096185.364728,-0.8785362243652344,0.4447254538536072,0.1743360459804535,-0.007449984550476074,0.004004985094070435,0.0042525529861450195,-0.02001521922647953,0.01467530895024538,0.005417712964117527,-1.766690685526503,-0.4608677131253036,2.245897239021751
1687096185.394215,-0.87851482629776,0.444837361574173,0.17415840923786163,0.00998467206954956,0.005022227764129639,0.007329344749450684,-0.025631560012698174,0.0026774578727781773,0.009927908889949322,-1.766500785320746,-0.4609926634032843,2.2452268340441366
1687096185.452046,-0.8781543374061584,0.4451165795326233,0.17525966465473175,0.006267189979553223,0.005826383829116821,0.006273865699768066,-0.01581488363444805,-0.009060601703822613,0.013511725701391697,-1.7677854107295041,-0.46130445284272414,2.2434829359371324
1687096185.487578,-0.8778588771820068,0.4453034996986389,0.1762612760066986,-0.0036869049072265625,-0.007208466529846191,0.0029527992010116577,0.00645819865167141,-0.022129621356725693,-0.0023625788744539022,-1.7689469980544004,-0.46151318156386373,2.243360746257392
1687096185.544606,-0.877767026424408,0.44509291648864746,0.17724889516830444,0.0010123252868652344,-0.001687765121459961,-0.0019256919622421265,-0.006430968642234802,-0.0030897727701812983,-0.009077140130102634,-1.7700484856315222,-0.46127801427878445,2.2425930075123888
1687096185.6643481,-0.8779430985450745,0.44461891055107117,0.17756634950637817,4.392862319946289e-05,-0.0002218782901763916,-0.002197369933128357,-0.024009695276618004,-0.0028319344855844975,-5.341880023479462e-05,-1.7703569996054136,-0.46074876916275775,2.2420594523900266
1687096185.669833,-0.8779178857803345,0.44457897543907166,0.17779068648815155,0.007327675819396973,0.008958011865615845,-0.0016739219427108765,0.012268416583538055,-0.012241902761161327,-0.0029324288479983807,-1.7706080445498338,-0.4607041779138349,2.2415544987038634
1687096185.790971,-0.8777596354484558,0.44471848011016846,0.17822156846523285,-0.003221571445465088,0.0019367039203643799,0.0014656633138656616,-0.001486277556978166,-0.015005221590399742,-0.0011324649676680565,-1.7711146181261224,-0.46085991836307805,2.2421401861412913
1687096185.792517,-0.8776358962059021,0.4448787569999695,0.17843158543109894,-0.0004919767379760742,-0.0008785426616668701,-0.002970948815345764,-0.013045728206634521,0.007809946313500404,-0.0023653751704841852,-1.771371909671562,-0.4610388809690824,2.2418501366482704
1687096185.908465,-0.8776618242263794,0.4447658061981201,0.17858533561229706,-0.01372593641281128,0.0015079379081726074,0.005603179335594177,-0.007125787436962128,-0.0020944385323673487,-0.0006207381375133991,-1.7715343840585003,-0.4609127536155221,2.240525686236432
1687096185.910106,-0.8778703808784485,0.44433391094207764,0.17863602936267853,0.014604449272155762,-0.0023783743381500244,0.002805948257446289,0.009434014558792114,-0.016598569229245186,-0.01106492429971695,-1.7715434063510063,-0.46043059441648926,2.2417514116706925
1687096185.997642,-0.8779496550559998,0.44401293992996216,0.17904280126094818,0.0016376972198486328,0.002123415470123291,0.0026127994060516357,0.0072251888923347,-0.019231058657169342,-0.008219735696911812,-1.7719706200166998,-0.4600723555564808,2.242519080955727
1687096186.0038772,-0.8778904676437378,0.4436139762401581,0.18031834065914154,-0.00035953521728515625,-0.004359245300292969,-0.0009667873382568359,-0.03722057119011879,-0.003199117723852396,0.0027955640107393265,-1.773378360913433,-0.45962715487780165,2.241698174888367
1687096186.026808,-0.8777543306350708,0.44350093603134155,0.18125659227371216,-0.004066169261932373,0.0023761093616485596,-0.006558910012245178,-0.03391745314002037,0.0017083334969356656,-0.0009135534055531025,-1.7744343669546354,-0.4595010071666631,2.2392519919234015
1687096186.085281,-0.8780712485313416,0.44300344586372375,0.180936798453331,-0.00393223762512207,-0.008646875619888306,-0.0019514858722686768,0.026764269918203354,0.013301007449626923,-0.01768900454044342,-1.7740135304961984,-0.45894601450837164,2.238903813618347
1687096186.1183472,-0.8788429498672485,0.442099928855896,0.17939478158950806,0.007459402084350586,-0.012763381004333496,0.002672910690307617,0.029413316398859024,0.024871310219168663,-0.036843191832304,-1.7721561242910433,-0.45793846244233544,2.2402309281115933
1687096186.175329,-0.8798888921737671,0.44072747230529785,0.1776365041732788,0.00029599666595458984,-0.0009081065654754639,0.009207025170326233,-0.019023992121219635,0.0406215563416481,-0.018435820937156677,-1.7700038753007856,-0.45640895103572127,2.241514747824379
1687096186.205467,-0.8802240490913391,0.44034844636917114,0.17691463232040405,0.008275866508483887,0.009251773357391357,0.00887608528137207,-0.03336618095636368,0.02506745234131813,0.0037312665954232216,-1.7691418881853305,-0.4559867218235804,2.2395861526634055
1687096186.265254,-0.8800467252731323,0.44061794877052307,0.17712469398975372,0.0007439255714416504,0.015802890062332153,0.0080404132604599,0.010419117286801338,-0.008789625018835068,0.016728956252336502,-1.7694102195276813,-0.4562869361645,2.2393569479531004
1687096186.294609,-0.8792731761932373,0.4418219029903412,0.1779661476612091,-0.0029594898223876953,0.004528224468231201,-0.00020144879817962646,-0.006980645004659891,-0.005120655056089163,0.0244684349745512,-1.7704998849018532,-0.4576285316021886,2.2386034819505203
1687096186.354971,-0.8785141110420227,0.44314688444137573,0.17841960489749908,0.0013017058372497559,-0.008439242839813232,-0.0006244182586669922,-0.014776250347495079,0.009600212797522545,0.019812896847724915,-1.771163641761888,-0.4591060151159186,2.237175491503076
1687096186.476709,-0.8781803250312805,0.4437749683856964,0.1785021871328354,0.0007998943328857422,-0.011249303817749023,0.0063729435205459595,-0.026595357805490494,0.0020243842154741287,0.01871108077466488,-1.7713280944576368,-0.4598067692312315,2.2361621450334113
1687096186.479409,-0.8781508803367615,0.443569153547287,0.17915698885917664,0.0017319321632385254,-0.011165618896484375,0.001720428466796875,0.013093730434775352,-0.018523966893553734,-0.008593843318521976,-1.7720506045112268,-0.45957714111567327,2.2352406117645596
1687096186.599657,-0.8783393502235413,0.4430433511734009,0.17953278124332428,-0.0027181506156921387,-0.007450789213180542,-0.005781188607215881,0.013526760041713715,0.0023459610529243946,-0.014141807332634926,-1.7724192825823024,-0.4589905526286831,2.2361220560246875
1687096186.605387,-0.8788239359855652,0.4420597553253174,0.17958727478981018,-0.0040038228034973145,-0.0024082064628601074,-0.0047066062688827515,-0.04678105562925339,0.03674204275012016,-0.00012019695714116096,-1.7723706307470888,-0.45789367970388956,2.233915608638236
1687096186.7169418,-0.8792441487312317,0.44164514541625977,0.17854739725589752,-0.002805352210998535,0.01143413782119751,0.0015823990106582642,-0.021064771339297295,0.017403006553649902,-0.0025968041736632586,-1.7711412734325134,-0.45743150250454634,2.2328198652033833
1687096186.7228599,-0.8792238235473633,0.44173604249954224,0.17842170596122742,0.004162967205047607,0.008489787578582764,0.0018301010131835938,-0.0356019027531147,0.016325071454048157,0.016269095242023468,-1.77100848070693,-0.4575328426763766,2.2307528164461297
1687096186.8084788,-0.8788022994995117,0.44255194067955017,0.17847678065299988,0.0043212175369262695,-0.0003217756748199463,0.0003864765167236328,-0.03872818872332573,0.012231881730258465,0.015478670597076416,-1.7711621687505799,-0.45844247800278726,2.228909052513967
1687096186.811471,-0.8785523772239685,0.4430113136768341,0.1785677820444107,-0.008730828762054443,-0.008105337619781494,0.006078481674194336,-0.020835474133491516,0.014527459628880024,0.0019890260882675648,-1.7713171275944537,-0.45895479742069284,2.2270368786562242
1687096186.837446,-0.878603458404541,0.4429270029067993,0.17852604389190674,0.0034203529357910156,0.000523984432220459,0.005891337990760803,-0.013345600105822086,0.0016267078462988138,-0.003795226337388158,-1.7712601562755572,-0.4588607653935911,2.2263308679800495
1687096186.926373,-0.8786530494689941,0.4425913989543915,0.17911246418952942,0.004172027111053467,0.002766847610473633,0.009760603308677673,0.0008581031579524279,-0.01508021168410778,0.0004529813304543495,-1.7718900146117076,-0.4584864785736388,2.2260429716472574
1687096186.928811,-0.8784536719322205,0.44248202443122864,0.1803559958934784,0.0064751505851745605,-0.0030136704444885254,0.0029475539922714233,0.0038019611965864897,-0.013313825242221355,0.0008615101687610149,-1.7732931364582984,-0.45836449398400186,2.225577168870898
1687096187.0467339,-0.8783025145530701,0.4426235556602478,0.18074479699134827,-2.378225326538086e-05,-0.0010495483875274658,-0.004261985421180725,0.03517559915781021,-0.02017435058951378,-0.006662851665169001,-1.773751776386379,-0.45852234870001984,2.2270609952512403
1687096187.049961,-0.878292977809906,0.4424489438533783,0.18121890723705292,-0.0031766891479492188,-0.006612181663513184,-0.0052547454833984375,-0.03488151729106903,0.003309625666588545,-0.0006298595108091831,-1.7742717391966567,-0.45832760961392316,2.227096458497909
1687096187.169162,-0.878397524356842,0.4422612190246582,0.18116994202136993,-0.005116760730743408,0.002837657928466797,-0.007448911666870117,0.014633569866418839,-0.0007845627842471004,-0.003072843886911869,-1.7741947128715079,-0.458118302453172,2.2263569169375916
1687096187.1712751,-0.8787655830383301,0.4416671395301819,0.18083439767360687,0.0076718926429748535,-0.009690821170806885,-0.014483332633972168,0.0078401118516922,0.010076495818793774,-0.02632816508412361,-1.7737455566320761,-0.45745603091119746,2.2273383816725096
1687096187.289695,-0.8797938227653503,0.44052281975746155,0.17861242592334747,-0.009396910667419434,-0.0010848939418792725,-0.012246116995811462,-0.011075521819293499,0.07622191309928894,-0.023960748687386513,-1.771090416614252,-0.4561809626833277,2.2270526967824753
1687096187.291376,-0.8809426426887512,0.43961769342422485,0.17514657974243164,0.003363966941833496,0.0054659247398376465,0.007256746292114258,-0.010479506105184555,0.05316045135259628,-0.01127824280411005,-1.7670543592511958,-0.45517296961237164,2.227404960925612
1687096187.313272,-0.88140469789505,0.4393770396709442,0.173416405916214,0.004680633544921875,0.01191684603691101,0.014739498496055603,-0.008988402783870697,0.01726396754384041,0.004840273410081863,-1.7650649831174843,-0.4549050602885538,2.227160818754234
1687096187.408834,-0.8808615207672119,0.44003793597221375,0.17449773848056793,0.0007957220077514648,0.006602048873901367,0.01451265811920166,-0.004798450972884893,-0.04714478552341461,0.01807505264878273,-1.7663632798634916,-0.45564091749822416,2.2266450636416955
1687096187.412111,-0.8798502087593079,0.44073590636253357,0.17780621349811554,0.0046672821044921875,-0.008134067058563232,0.0012554973363876343,-0.008511963300406933,-0.022326162084937096,0.011395045556128025,-1.7701977257656516,-0.4564183450823504,2.224315748070991
1687096187.434531,-0.8793968558311462,0.4412597715854645,0.17874732613563538,-0.004727721214294434,-0.00044864416122436523,0.0014738887548446655,0.03456253930926323,-0.028382590040564537,0.0014623859897255898,-1.771325743953317,-0.45700201635713034,2.225120635235516
1687096187.525635,-0.8792336583137512,0.4418303668498993,0.17813867330551147,0.0019603967666625977,0.004977375268936157,0.0009534060955047607,0.16755519807338715,-0.02902277000248432,-0.014132685959339142,-1.7706971191176613,-0.45763797736442374,2.230672264602875
1687096187.5283089,-0.8790924549102783,0.44178104400634766,0.17895716428756714,-0.004650712013244629,-0.011513769626617432,-0.0030388832092285156,-0.04105339199304581,-0.00981223490089178,0.008511373773217201,-1.7716225401049863,-0.45758298843426826,2.2310219190979175
1687096187.6762218,-0.8789937496185303,0.4417575001716614,0.1794995814561844,-0.007785975933074951,0.0038144588470458984,-0.013133272528648376,0.000617087003774941,-0.009721487760543823,-0.00860389694571495,-1.772236948225461,-0.45755673618803944,2.230972848928063
1687096187.679525,-0.8794470429420471,0.4411279261112213,0.17882607877254486,-0.0009239315986633301,-0.008983820676803589,-0.01493169367313385,-0.05829150229692459,0.03546711802482605,-0.005610503721982241,-1.771400616022009,-0.45685509921980444,2.230446732493998
1687096187.7690039,-0.8802307844161987,0.44042283296585083,0.176696315407753,-0.0076171159744262695,0.007071703672409058,-0.004592642188072205,0.01325671561062336,0.043304115533828735,-0.014657462015748024,-1.7689020084033507,-0.456069591178411,2.229915790068846
1687096187.777039,-0.8811379671096802,0.4394569993019104,0.17456546425819397,0.0039865970611572266,-6.490945816040039e-05,0.006388187408447266,-0.03258214518427849,0.05180332437157631,-0.012854767963290215,-1.7663774262362097,-0.4549940855788168,2.2293196817584904
1687096187.7957602,-0.8816906809806824,0.4389604330062866,0.17301729321479797,-0.0021440982818603516,0.015537828207015991,0.011949419975280762,-0.005600594915449619,0.011381089687347412,-0.00847619865089655,-1.7645677004543356,-0.45444136665343304,2.229160998998615
1687096187.889934,-0.8812494874000549,0.4391328692436218,0.17481718957424164,-0.0016695261001586914,0.01013156771659851,0.01761111617088318,-0.15974409878253937,0.023683784529566765,0.052037615329027176,-1.7666281571023856,-0.45463328749036475,2.2240880323910104
1687096187.89656,-0.8801173567771912,0.44044893980026245,0.1771947592496872,-0.008752763271331787,0.016780614852905273,0.005712032318115234,-0.07160944491624832,0.00973186083137989,0.043470289558172226,-1.769471203759071,-0.4560986821818298,2.21638360072573
1687096188.0090098,-0.8787619471549988,0.4422444999217987,0.17943571507930756,0.0018240809440612793,-0.0025624632835388184,-0.0024034827947616577,-0.07202516496181488,-0.0012429370544850826,0.0537831149995327,-1.7722188950111808,-0.4580996607190299,2.211557820717009
1687096188.012436,-0.8778492212295532,0.4434059262275696,0.18102988600730896,-0.005009055137634277,-0.030655622482299805,-0.008285388350486755,-0.05901028960943222,0.007576852571219206,0.010733183473348618,-1.7741652441409788,-0.45939501225401186,2.207011574035069
1687096188.100635,-0.8785564303398132,0.4423200786113739,0.18025317788124084,0.002244293689727783,-0.03146195411682129,-0.00808858871459961,0.03671383857727051,0.024575011804699898,-0.05611668899655342,-1.7731577940354493,-0.4581839404843295,2.2079003933993993
1687096188.108903,-0.8797917366027832,0.4399941861629486,0.17991945147514343,-0.00202864408493042,-0.00803324580192566,-0.00856354832649231,-0.17494834959506989,0.026206130161881447,0.020642071962356567,-1.7725172751339902,-0.4555922068070786,2.2060171946665115
1687096188.12676,-0.8798047304153442,0.43934857845306396,0.18142718076705933,-0.0026260018348693848,0.03249886631965637,-0.03474476933479309,-0.17496566474437714,0.10429487377405167,0.04246474802494049,-1.7741587364858156,-0.45487337763250635,2.1953852299403396
1687096188.18643,-0.878380537033081,0.4427230656147003,0.18012192845344543,-0.015921831130981445,0.08928993344306946,-0.07126592099666595,-0.5283870697021484,0.237012580037117,0.2679866850376129,-1.7730538409515706,-0.4586333156328565,2.177661309453487
1687096188.2446961,-0.8729826211929321,0.453532338142395,0.1794697344303131,-0.004611194133758545,0.11546787619590759,-0.10772325098514557,-0.825710654258728,0.4294264316558838,0.4964119493961334,-1.773553616232894,-0.4707247453275051,2.139426364084115
1687096188.275336,-0.8610711693763733,0.4764783978462219,0.1775505244731903,0.005633234977722168,0.2291184663772583,-0.08842422068119049,-1.1807355880737305,0.7496671676635742,0.9506414532661438,-1.7741436347705082,-0.4966448356635886,2.0698655018967878
1687096188.337737,-0.8403046131134033,0.5133137702941895,0.17434611916542053,-0.04549837112426758,0.366080641746521,0.004425510764122009,-1.3052830696105957,0.6871872544288635,1.315470814704895,-1.7753734145149256,-0.539041682517248,1.993952850547848
1687096188.427691,-0.8048677444458008,0.5642531514167786,0.1838643103837967,-0.023394465446472168,0.42054909467697144,0.08166885375976562,-1.0026731491088867,0.3970201313495636,1.6273155212402344,-1.795382967436728,-0.5995283895090063,1.901729234143928
1687096188.456627,-0.7505953311920166,0.627258837223053,0.20773231983184814,-0.11305201053619385,0.42163026332855225,0.09356749057769775,-1.3701128959655762,0.045378249138593674,2.121523380279541,-1.8407950454132866,-0.6780284948227059,1.8099746391460017
1687096188.548376,-0.6769532561302185,0.6933715343475342,0.24692028760910034,-0.1336696743965149,0.41553032398223877,0.1563233882188797,-0.9530880451202393,-0.3784080445766449,2.284458875656128,-1.920552626342066,-0.7661574924737065,1.6998746094788912
1687096188.554388,-0.580153226852417,0.7583603262901306,0.2971721589565277,-0.2757731080055237,0.24856698513031006,0.09745034575462341,-0.868530809879303,-0.6118956208229065,2.511662006378174,-2.0441803687804354,-0.8607939928007134,1.5649604305586853
1687096188.6973472,-0.4685467779636383,0.8048050999641418,0.36435240507125854,-0.3272448182106018,0.1065567135810852,0.07064494490623474,-1.1706653833389282,-0.7708542943000793,2.55151104927063,-2.231742566515217,-0.9353470317741397,1.3698515987107616
1687096188.700982,-0.34763285517692566,0.8384576439857483,0.4196895658969879,-0.3382647931575775,0.06367218494415283,0.06732478737831116,-0.5723726153373718,-0.8748043775558472,2.4921514987945557,-2.449826577171644,-0.9944468884599084,1.1561207345369708
1687096188.791137,-0.22209356725215912,0.8687798976898193,0.44260093569755554,-0.3765391409397125,-0.0010889172554016113,0.05927550792694092,0.09108652919530869,-0.965644896030426,2.349949836730957,-2.67651254843228,-1.0527330731482283,0.9449743245339209
1687096188.795179,-0.09831494837999344,0.8899033069610596,0.445427805185318,-0.3739445209503174,-0.06794285774230957,0.05240517854690552,0.07860908657312393,-0.9658473134040833,2.307678461074829,-2.924355435139343,-1.0971332045220181,0.7198156812716362
1687096188.815463,0.020317135378718376,0.8993202447891235,0.4368177056312561,-0.34517669677734375,-0.07388103008270264,0.05187526345252991,0.2771829068660736,-0.9226053953170776,2.066096067428589,3.0951144477011834,-1.118212538289774,0.47796010898712254
1687096188.9065099,0.1339956670999527,0.8927451372146606,0.4301754832267761,-0.3404012620449066,-0.0696861743927002,0.0649566650390625,-0.14399150013923645,-1.1402807235717773,1.9791910648345947,2.8396275369590587,-1.103401612427942,0.2510374731221454
1687096188.9151301,0.24550458788871765,0.8695451021194458,0.4285072386264801,-0.29996317625045776,-0.027626216411590576,0.04979443550109863,-0.08601421117782593,-1.1660245656967163,1.912344217300415,2.6213155521765694,-1.0542804927114742,0.06901655514991352
1687096188.966936,0.3525371253490448,0.8454548120498657,0.4011525511741638,-0.3161296546459198,0.014606714248657227,0.040375471115112305,0.3257802724838257,-1.2720015048980713,1.9186595678329468,2.420608502838095,-1.0074162617000555,-0.09253809707394639
1687096189.031135,0.45166701078414917,0.814946711063385,0.3631227910518646,-0.27585530281066895,-0.004369497299194336,0.07416316866874695,0.2710781395435333,-1.1693763732910156,1.7331478595733643,2.2479479989004285,-0.9526371958469596,-0.22710435890707353
1687096189.119266,0.5417875647544861,0.7787124514579773,0.31634214520454407,-0.2894684076309204,-0.021800518035888672,0.049074918031692505,0.6060801148414612,-1.3453654050827026,1.6999804973602295,2.0992830127854556,-0.8926109467578699,-0.33463347872800825
1687096189.127699,0.6249145865440369,0.7397874593734741,0.24939139187335968,-0.27519840002059937,-0.030101239681243896,0.05178630352020264,0.7673789858818054,-1.2637711763381958,1.6671018600463867,1.9505100134790248,-0.8327543828761186,-0.44247590014299454
1687096189.2110791,0.6949074268341064,0.6946475505828857,0.1859246790409088,-0.24709266424179077,-0.08209884166717529,0.027667507529258728,0.5360541939735413,-1.136367678642273,1.5330708026885986,1.8322261662714565,-0.7679298040451406,-0.5245967068545041
1687096189.299213,0.7538972496986389,0.645285427570343,0.12347237020730972,-0.22428005933761597,-0.07305037975311279,0.06874227523803711,0.7173627018928528,-1.2587783336639404,1.4417626857757568,1.7331338633384483,-0.7013968287610473,-0.5837846294936484
1687096189.308006,0.8056859374046326,0.5895451903343201,0.057500358670949936,-0.1913214921951294,-0.03957277536392212,0.046487919986248016,0.44774478673934937,-1.0913161039352417,1.50222909450531,1.642043728992948,-0.6304956748382872,-0.6351349112124968
1687096189.327447,0.8480467200279236,0.5299151539802551,-0.0025177989155054092,-0.1396576166152954,-0.007149100303649902,0.03489673137664795,0.8664872050285339,-1.1130119562149048,1.3427317142486572,1.567827396706419,-0.5585004971119152,-0.6704457830912063
1687096189.449542,0.8797315955162048,0.46812427043914795,-0.0832575112581253,-0.16763454675674438,0.019607573747634888,0.09723430871963501,1.2722461223602295,-1.2025715112686157,1.474851369857788,1.4764376957535972,-0.48716690953354586,-0.7360704853354879
1687096189.458849,0.90619295835495,0.39205294847488403,-0.15845657885074615,-0.15312612056732178,-0.001168668270111084,0.05294179916381836,0.8575323224067688,-1.1314630508422852,1.5845930576324463,1.39768685381988,-0.40286214966250644,-0.7819528756050728
1687096189.475793,0.9240720272064209,0.3092035949230194,-0.22468656301498413,-0.17124921083450317,0.024078786373138428,0.03360053896903992,0.6007588505744934,-1.143577218055725,1.800420880317688,1.332276623389345,-0.3143554850614346,-0.8034066653304793
1687096189.59993,0.9345036745071411,0.2119462788105011,-0.2859749495983124,-0.16590332984924316,0.06126224994659424,0.036356210708618164,0.6159306168556213,-1.1530333757400513,1.9776586294174194,1.2738276087990148,-0.21356605491385985,-0.8062685782053992
1687096189.608469,0.9324133396148682,0.10565172880887985,-0.34560510516166687,-0.2140297293663025,0.07249455899000168,0.016457587480545044,0.831072211265564,-1.129099726676941,2.078157901763916,1.2158390514511872,-0.10584927185958908,-0.8085775531673178
1687096189.625092,0.9154456257820129,-0.006068293936550617,-0.40239566564559937,-0.12562036514282227,0.056559592485427856,0.03359055519104004,1.003130316734314,-1.1345655918121338,2.028500556945801,1.1566559465359219,0.006068331394420466,-0.8133087549814771
1687096189.7229428,0.8856528401374817,-0.12188244611024857,-0.4480663239955902,-0.12335455417633057,0.06273938715457916,0.01944679021835327,1.2056032419204712,-1.054722547531128,2.0590591430664062,1.1024267729564674,0.12218624700010333,-0.8153713582866148
1687096189.730442,0.8462635278701782,-0.24588711559772491,-0.4726281762123108,-0.16698825359344482,0.1279214322566986,-0.05508190393447876,1.6312205791473389,-0.6822169423103333,2.027716875076294,1.06145963916038,0.24843479342579655,-0.8343937132610938
1687096189.7443318,0.8072110414505005,-0.35357484221458435,-0.4726469814777374,-0.05921006202697754,-0.14457890391349792,0.0016232132911682129,1.0627834796905518,-0.33985644578933716,1.5775703191757202,1.0410838482247218,0.3613900423159198,-0.8471170417236444
1687096189.841727,0.7734350562095642,-0.42855599522590637,-0.4670522212982178,-0.09930199384689331,-0.14517441391944885,-0.026585012674331665,0.27539458870887756,-0.19461295008659363,1.3026405572891235,1.0275380153722578,0.44289397771978145,-0.8424648976135339
1687096189.845944,0.74283367395401,-0.47390085458755493,-0.47288063168525696,-0.060964345932006836,-0.10864919424057007,-0.0005234479904174805,0.10664871335029602,-0.23631863296031952,0.9759026765823364,1.0039058485815096,0.4937154092451068,-0.8138238082291424
1687096189.95754,0.7157456874847412,-0.5098618865013123,-0.477230429649353,-0.07548713684082031,-0.09643077850341797,-0.015048801898956299,-0.012488861568272114,-0.22025147080421448,0.8372579216957092,0.982729289892201,0.5350242010768572,-0.7921480033953636
1687096189.9617229,0.690680742263794,-0.5327272415161133,-0.48904168605804443,0.0025869011878967285,-0.04100322723388672,0.018323183059692383,0.062153954058885574,-0.3269811272621155,0.57669597864151,0.9546830810650281,0.5618198858341901,-0.7656501797381999
1687096190.079406,0.6702547073364258,-0.5532248616218567,-0.49467241764068604,-0.04443097114562988,-0.11741411685943604,-0.010088503360748291,0.06496704369783401,-0.24369663000106812,0.3289964497089386,0.9349959729241107,0.5862305307622894,-0.7569659093004518
1687096190.0832171,0.6612709164619446,-0.5571238398551941,-0.5023283362388611,-0.048905372619628906,-0.15274548530578613,-0.03890109062194824,-0.017024757340550423,-0.08730944991111755,0.03908892348408699,0.9211536308554857,0.5909183319978804,-0.7473437758464271
1687096190.1705918,0.6622612476348877,-0.554118275642395,-0.5043438673019409,-0.0473628044128418,-0.10480189323425293,-0.005223512649536133,-0.0028918939642608166,-0.06063735485076904,-0.17251253128051758,0.9199452580870406,0.5873033530459691,-0.75014266958477
1687096190.1811008,0.6662383675575256,-0.5479322075843811,-0.5058621764183044,-0.03362441062927246,-0.04340684413909912,-0.04006689786911011,0.0007840672042220831,-0.028833730146288872,-0.25489136576652527,0.9213817270592018,0.5798903706623757,-0.7579689308347318
1687096190.197311,0.6753068566322327,-0.5354902744293213,-0.5071593523025513,-0.05172616243362427,-0.12564235925674438,-0.04522418975830078,-0.29476767778396606,0.09217719733715057,-0.43050500750541687,0.9266518593118873,0.5650881889624675,-0.7651674723492433
1687096190.293041,0.6952013373374939,-0.5094128847122192,-0.5071424841880798,-0.09490549564361572,-0.08473378419876099,-0.10725277662277222,0.05419722571969032,0.23414215445518494,-0.7942078113555908,0.9405512900834382,0.5345023679030929,-0.7784580442041308
1687096190.297339,0.7258098721504211,-0.4746701717376709,-0.4978836178779602,-0.16056352853775024,-0.21331802010536194,-0.08137068152427673,-0.3759983777999878,0.4106507897377014,-1.038217306137085,0.9695488438306717,0.49458927515304374,-0.8035900848261115
1687096190.4103742,0.7664492130279541,-0.4193439185619354,-0.4865246117115021,-0.21420329809188843,-0.1693553924560547,-0.10190021991729736,-0.3199920952320099,0.6475728154182434,-1.3858290910720825,1.0051969575080222,0.43272251489221997,-0.8230146654111279
1687096190.4134378,0.8127421140670776,-0.34819236397743225,-0.46713200211524963,-0.2432537078857422,-0.21137794852256775,-0.037857770919799805,-0.5491021871566772,0.7855169177055359,-1.5680971145629883,1.0491421104738954,0.3556421007864132,-0.8435025875118388
1687096190.527861,0.8580113053321838,-0.2681843340396881,-0.4380567967891693,-0.17814087867736816,-0.06911119818687439,-0.024559378623962402,0.044933684170246124,0.7954015135765076,-1.8878532648086548,1.098745197716496,0.2715078348407814,-0.8736534759675102
1687096190.5309849,0.8963696956634521,-0.1866411715745926,-0.40210235118865967,-0.19234460592269897,-0.1456342339515686,-0.05560046434402466,-0.08459794521331787,0.841740608215332,-1.9360331296920776,1.1491156951219128,0.18774212247071692,-0.9177435764366535
1687096190.622364,0.9274026155471802,-0.09160379320383072,-0.3626748323440552,-0.20673012733459473,-0.024515658617019653,-0.02489858865737915,-0.10888064652681351,0.9023342132568359,-2.024582862854004,1.1980160527890873,0.09173238763292127,-0.9538095707723003
1687096190.63253,0.9473851323127747,0.005987788084894419,-0.32003989815711975,-0.22155511379241943,-0.07190579175949097,-0.05665406584739685,-0.2916872203350067,0.9932252764701843,-1.9599779844284058,1.245018664518425,-0.005987824012000028,-0.9765336987202972
1687096190.6748471,0.9563758969306946,0.10683368146419525,-0.27190354466438293,-0.1253366470336914,-0.03029567003250122,-0.03432530164718628,0.04552144557237625,1.0359731912612915,-2.206937074661255,1.2937990208408363,-0.1070379548351814,-1.0010139408443492
1687096190.706845,0.9513100385665894,0.2159574031829834,-0.2199353575706482,-0.1689310073852539,-0.12457257509231567,0.03997296094894409,-0.39032164216041565,0.9597578048706055,-2.3363037109375,1.3435960270638367,-0.21767226673390902,-1.022278790516955
1687096190.83047,0.9258474111557007,0.33593299984931946,-0.1730761080980301,-0.23044347763061523,-0.02984181046485901,0.04032444953918457,0.05526169016957283,0.8888764977455139,-2.5100226402282715,1.385991294425254,-0.34259561022219637,-1.0357237381531688
1687096190.836101,0.883139431476593,0.4488143026828766,-0.13649336993694305,-0.1651371717453003,-0.09409335255622864,0.051165997982025146,0.026363197714090347,0.8610875606536865,-2.6140003204345703,1.4174548834087757,-0.46543806664573256,-1.0659079567418532
1687096190.8911529,0.821140706539154,0.5619636178016663,-0.09962297230958939,-0.24750185012817383,-0.05326622724533081,0.03188902139663696,0.11660094559192657,0.8365164995193481,-2.604523181915283,1.4500637251326685,-0.5967577856545218,-1.0860354790997
1687096190.9805532,0.7456386089324951,0.6631447076797485,-0.06528357416391373,-0.2143123745918274,-0.032712697982788086,0.08017593622207642,-0.45136314630508423,0.8142541646957397,-2.574530839920044,1.4834651169041837,-0.7250123776826098,-1.1059729273220076
1687096190.986311,0.6581935882568359,0.7525784373283386,-0.02016749605536461,-0.24376487731933594,0.01179516315460205,-0.0020495057106018066,-0.24016010761260986,0.7496864795684814,-2.295062780380249,1.5401652338754945,-0.8519690070359858,-1.0762965092988384
1687096191.0045872,0.5617767572402954,0.8272876739501953,-0.001328767859376967,-0.07866823673248291,-0.05249226093292236,0.15901285409927368,0.18337011337280273,0.6001789569854736,-2.74886417388916,1.5684310360383715,-0.9742622196901555,-1.0860302115363292
1687096191.098783,0.45202335715293884,0.8919710516929626,0.007896325550973415,-0.23563843965530396,0.05727815628051758,-0.0416184663772583,-0.07873313128948212,0.5946407318115234,-2.2177388668060303,1.588263394801298,-1.101686479571296,-1.0955497291493532
1687096191.109484,0.3365986943244934,0.9408876895904541,0.03783590719103813,-0.19534805417060852,-0.08183324337005615,0.12306785583496094,-0.5455370545387268,0.48202499747276306,-2.7267565727233887,1.6827330355390882,-1.2252415680271205,-1.0226703938518957
1687096191.249726,0.221950963139534,0.9734834432601929,0.055384561419487,-0.07487145066261292,0.1223568320274353,0.01515662670135498,0.11995013803243637,0.33152028918266296,-2.272418737411499,1.8153374175208694,-1.3399951525900038,-0.9100285642347663
1687096191.261084,0.10293068736791611,0.9936689138412476,0.04502250254154205,-0.21973666548728943,0.006163060665130615,0.10774827003479004,0.5018503665924072,0.280470609664917,-2.1829967498779297,1.9831278973746824,-1.4582107486148776,-0.7536732104446872
1687096191.341532,-0.00985018815845251,0.9999492168426514,0.0020571311470121145,-0.003913167864084244,0.0938768982887268,0.10623431205749512,0.7973323464393616,-0.1420218050479889,-2.576249361038208,-1.7766789977974493,-1.5607211297919508,1.764271839496211
1687096191.347002,-0.1284785270690918,0.9911257028579712,-0.03409615531563759,-0.15209996700286865,0.14867502450942993,0.09023303538560867,0.8141006827354431,-0.061117034405469894,-2.1247456073760986,-1.3113917454157462,-1.4374735526462148,2.2304136816666973
1687096191.365694,-0.23839262127876282,0.9685069918632507,-0.07185473293066025,-0.09391321241855621,0.18499642610549927,0.02606283873319626,0.5389040112495422,-0.019639387726783752,-2.1704134941101074,-1.2780433399105353,-1.3191628144272416,2.272114435578202
1687096191.462903,-0.3350309729576111,0.939610481262207,-0.06990064680576324,-0.030218541622161865,0.12461364269256592,0.08013904094696045,-0.3968946039676666,-0.16406328976154327,-1.970542073249817,-1.3651076503902102,-1.2214904369483752,2.182561389062157
1687096191.467859,-0.4205089509487152,0.9050764441490173,-0.063313327729702,-0.13391903042793274,0.2583145499229431,0.054722368717193604,0.3089118003845215,-0.07644205540418625,-1.6599383354187012,-1.4213552509182414,-1.1315595029148382,2.1275775964742603
1687096191.5812268,-0.4926929771900177,0.8667091131210327,-0.07789980620145798,-0.018674612045288086,0.1473744511604309,0.050296440720558167,0.6637303829193115,-0.333176851272583,-1.5340745449066162,-1.4139841951139003,-1.0485666293432792,2.149017091344859
1687096191.586472,-0.5589441657066345,0.8235051035881042,-0.09705786406993866,-0.024475395679473877,0.14313894510269165,0.010021530091762543,0.4277431070804596,-0.41646403074264526,-1.4133614301681519,-1.3988656917184075,-0.9675620792791427,2.19083609677954
1687096191.760668,-0.6177855730056763,0.7817111611366272,-0.08525676280260086,-0.11871033906936646,0.06330537796020508,0.09540366381406784,0.21164250373840332,-0.6599754095077515,-1.3004764318466187,-1.4336587264270224,-0.8974049093346885,2.1827804479617594
1687096191.765946,-0.6655859351158142,0.740371823310852,-0.09404630213975906,0.02406090497970581,0.19790631532669067,-0.06588130444288254,0.5349851846694946,-0.49627360701560974,-1.2351734638214111,-1.430427073688748,-0.8336232939810408,2.2208626551129473
1687096191.784666,-0.7101866006851196,0.6997133493423462,-0.07769089937210083,-0.049151599407196045,0.009011507034301758,0.022713251411914825,-0.16671891510486603,-0.3509237766265869,-0.9778327941894531,-1.461834562536654,-0.7749962202993175,2.2116380261212676
1687096191.881293,-0.7443854808807373,0.6643352508544922,-0.06744588166475296,0.023819804191589355,0.1640949249267578,-0.09402281790971756,-0.05871015042066574,-0.39085662364959717,-1.0201148986816406,-1.4804369283172776,-0.7266040960814341,2.209596508888469
1687096191.892202,-0.7752729654312134,0.6311976313591003,-0.023263106122612953,-0.0834762454032898,-0.04977679252624512,0.040535807609558105,-1.3186588287353516,-0.4180178940296173,-0.8762577772140503,-1.540798984679305,-0.683096308141823,2.1473400509529745
1687096191.906948,-0.8033169507980347,0.5954840779304504,0.008966434746980667,-0.02102375030517578,0.13780748844146729,-0.018106698989868164,0.2848341464996338,-0.4178636372089386,-0.957857608795166,-1.5819576275089144,-0.6378681105096135,2.1174844963407207
1687096191.9691482,-0.8332692384719849,0.5527717471122742,0.010278845205903053,0.007997691631317139,0.08800584077835083,-0.028498172760009766,0.6052372455596924,-0.43834155797958374,-1.1435166597366333,-1.5831312641777004,-0.5856866930567493,2.1506246298101472
1687096192.060674,-0.8641368746757507,0.5032086372375488,0.006951331160962582,-0.08202993869781494,0.19121885299682617,-0.04050564765930176,0.7783418893814087,-0.36356884241104126,-1.1839088201522827,-1.5788404011968737,-0.5273077370723552,2.195692934161465
1687096192.0663362,-0.8879106044769287,0.4599555432796478,0.007447655312716961,0.006029009819030762,0.2715660631656647,-0.11587691307067871,0.6232324838638306,-0.2552359104156494,-0.7877140641212463,-1.5791839739013531,-0.47794513858150306,2.22864606286792
1687096192.117059,-0.9014102220535278,0.4328971207141876,-0.007723439950495958,-0.025042295455932617,0.37801593542099,-0.21432268619537354,1.1916743516921997,-0.01992993801832199,-0.34491753578186035,-1.562228361992174,-0.4477041893966221,2.2908788501109085
1687096192.18245,-0.9047813415527344,0.42513543367385864,-0.025107065215706825,0.010112881660461426,0.07860296964645386,-0.07483828067779541,-0.06950341165065765,0.2221146523952484,-0.005119749344885349,-1.5430541279474141,-0.4391114950564384,2.317078138640543
1687096192.195627,-0.9006327986717224,0.4336894452571869,-0.02781585231423378,0.02255070209503174,0.025188088417053223,0.019224882125854492,-0.6303240656852722,0.1960248500108719,0.29263564944267273,-1.5399213539941736,-0.44858329621820153,2.2944421773712396
1687096192.2375069,-0.892818033695221,0.44994670152664185,-0.020579762756824493,-0.006458461284637451,0.013203293085098267,0.02656102366745472,-0.630473256111145,0.11924603581428528,0.3665197789669037,-1.5477500649056508,-0.46670564407143317,2.262691347095321
1687096192.331544,-0.8869016766548157,0.4617590606212616,-0.013554316945374012,-0.0193023681640625,-0.10122445225715637,0.021168172359466553,-0.27223309874534607,0.10197506099939346,0.1164688691496849,-1.5555147427080558,-0.47997733431152306,2.2347384609340835
1687096192.344708,-0.8865957260131836,0.4623327851295471,-0.014004802331328392,0.00384443998336792,-0.06896120309829712,0.035702526569366455,-0.10643293708562851,0.045152127742767334,-0.017382008954882622,-1.5550014872978124,-0.4806242299308408,2.2268776821016307
1687096192.3577409,-0.8861217498779297,0.46330496668815613,-0.011688430793583393,0.03713810443878174,0.003354579210281372,0.01629638671875,-0.0009778800886124372,-0.08644134551286697,0.017281629145145416,-1.5576065450490224,-0.4817209438008934,2.2224841339142194
1687096192.4511251,-0.8863239884376526,0.4629661738872528,-0.009592250920832157,0.003954112529754639,0.044617414474487305,0.005502641201019287,0.2069697231054306,-0.07933458685874939,0.017003662884235382,-1.5599742381683004,-0.48133870509212345,2.22736087639888
1687096192.46438,-0.8850923180580139,0.4652840793132782,-0.011048397049307823,-0.023888826370239258,0.010851144790649414,-0.0022116899490356445,-0.05179312452673912,-0.03308138623833656,0.06481152772903442,-1.5583142128052716,-0.48395550707630586,2.2355652629159
1687096192.569906,-0.8832170963287354,0.46888500452041626,-0.008598219603300095,-0.007865369319915771,0.005205482244491577,-0.026848195120692253,0.10552139580249786,0.0032418924383819103,0.0615680031478405,-1.5610615195160518,-0.4880279919323745,2.2334849721028904
1687096192.5824099,-0.8821064233779907,0.47093257308006287,-0.010513600893318653,-0.0009500980377197266,-0.04855409264564514,-0.0047149658203125,-0.13573063910007477,0.02875579707324505,0.023609766736626625,-1.558878146021845,-0.49034763292809286,2.234818146032695
1687096192.695065,-0.8822935819625854,0.4705747365951538,-0.010834154672920704,-0.005386471748352051,-0.0026639699935913086,-0.0057371268048882484,-0.04669130593538284,0.013694178313016891,-0.0011686170473694801,-1.558517409425309,-0.4899420341742679,2.2304602641862417
1687096192.699603,-0.8829404711723328,0.4693409502506256,-0.011612141504883766,9.769201278686523e-05,0.0010874569416046143,0.005523682571947575,0.059995461255311966,-0.004503290168941021,-0.007140223402529955,-1.557645415569173,-0.48854427904238446,2.2294366858410415
1687096192.784069,-0.8833150863647461,0.4686048626899719,-0.012787191197276115,-0.004242658615112305,-0.005851686000823975,0.0035859365016222,-0.028461968526244164,0.011370903812348843,0.01868331804871559,-1.556320973981713,-0.487710848157634,2.2323756207297794
1687096192.797617,-0.8827458620071411,0.4696881175041199,-0.012350494973361492,0.0068610310554504395,0.01267269253730774,0.01933872699737549,0.08652107417583466,-0.016550898551940918,0.022780124098062515,-1.556806241583578,-0.4889374729472401,2.232899505797428
1687096192.807353,-0.8824092149734497,0.4703103005886078,-0.01272549293935299,0.007317781448364258,0.007442355155944824,0.015792250633239746,0.12159889936447144,-0.06584345549345016,0.02632818929851055,-1.5563760202782024,-0.48964236859489474,2.2388877356974235
1687096192.86874,-0.8808590769767761,0.473269522190094,-0.010144610889256,-0.01400768756866455,-0.01231682300567627,0.014050603844225407,0.025334684178233147,-0.05142538994550705,0.05411474406719208,-1.5592801117101784,-0.49299858285753595,2.240521321953194
1687096192.931303,-0.8802874088287354,0.4743753671646118,-0.007857364602386951,-0.008262217044830322,-0.013437896966934204,-0.004960238002240658,0.0715826004743576,-0.05191323533654213,0.009111983701586723,-1.5618706553749842,-0.494254349264634,2.2436374147277243
1687096193.021877,-0.8803061842918396,0.47435086965560913,-0.007208846043795347,-0.0020331144332885742,-0.006043374538421631,-0.012810945510864258,0.08095373213291168,-0.03252262994647026,0.010337436571717262,-1.562607488566333,-0.4942265019375203,2.247315583525167
1687096193.0360088,-0.8803877234458923,0.47417953610420227,-0.008426093496382236,-0.00619351863861084,-0.009030640125274658,-0.0073212385177612305,0.03255264833569527,0.0031430451199412346,0.002857150509953499,-1.561225729397059,-0.4940319036111126,2.250499977926276
1687096193.076912,-0.88044673204422,0.4740184247493744,-0.01093771681189537,-0.0030216574668884277,0.009440988302230835,-0.005450486205518246,-0.008487195707857609,0.007543407846242189,0.018544567748904228,-1.5583740487883777,-0.4938489216452713,2.2543010865524287
1687096193.1070042,-0.8798624873161316,0.4750940501689911,-0.011287164874374866,0.00046813488006591797,-0.0009730160236358643,-0.0044907331466674805,-0.022709805518388748,0.029009617865085602,0.015508497133851051,-1.557968702712604,-0.49507092064532643,2.2507925167847196
1687096193.169132,-0.8796218037605286,0.47548893094062805,-0.013243980705738068,-7.766485214233398e-05,0.005529075860977173,0.014327109791338444,-0.043697115033864975,0.0010178426746279001,0.027096176519989967,-1.555741015549517,-0.49551972126491195,2.250806569861402
1687096193.199013,-0.8784767985343933,0.4776308536529541,-0.012132897041738033,-0.006380259990692139,-0.0008394718170166016,0.023942947387695312,0.01427936926484108,-0.004910220857709646,0.04972465708851814,-1.5569859152183276,-0.49795611997695705,2.2470990385209
1687096193.2265692,-0.8777470588684082,0.4789668023586273,-0.012269568629562855,0.005310714244842529,-2.3990869522094727e-05,0.005433321930468082,0.047409892082214355,-0.019659671932458878,0.019812364131212234,-1.556818758258783,-0.49947734779047076,2.2499391044039307
1687096193.2915921,-0.8774096965789795,0.479640930891037,-0.009831620380282402,-1.633167266845703e-05,-0.013759613037109375,0.006245613098144531,-0.04855392128229141,-0.03452805429697037,0.022910021245479584,-1.559591516816234,-0.5002454691316336,2.2491751414160133
1687096193.411335,-0.8769392967224121,0.4805253744125366,-0.008510464802384377,-0.001707315444946289,0.0031934380531311035,-0.0023387661203742027,0.0028048737440258265,-0.025349272415041924,0.012446527369320393,-1.561091895152485,-0.5012536937193595,2.249029281803314
1687096193.4173598,-0.8769578337669373,0.4805159568786621,-0.007008157204836607,-0.007334589958190918,-0.005494654178619385,-0.007594704627990723,0.040497925132513046,0.0005724731599912047,0.009514786303043365,-1.5628050556627726,-0.5012429556825978,2.24772229144357
1687096193.53269,-0.8766360282897949,0.48109179735183716,-0.007718642707914114,0.0007512569427490234,-0.008023649454116821,-0.010332763195037842,-0.07681725174188614,0.0177715215831995,0.017514655366539955,-1.5619917116087567,-0.501899692477831,2.2485344581172177
1687096193.5450459,-0.8768402338027954,0.4807112216949463,-0.008234004490077496,0.0010468363761901855,0.012208729982376099,-0.002401650883257389,0.0540560781955719,-0.00501619279384613,-0.012797510251402855,-1.561406062037088,-0.5014656015077997,2.248503624072778
1687096193.649265,-0.8767860531806946,0.480819970369339,-0.00761553505435586,0.0009775757789611816,-0.026565879583358765,-0.001097499392926693,-0.12369048595428467,0.010251066647469997,0.003984066657721996,-1.5621108059318851,-0.5015896317326931,2.2468566328699664
1687096193.661192,-0.8773594498634338,0.4797569215297699,-0.008571476675570011,0.011316537857055664,-0.011037468910217285,-0.005695700645446777,0.04900272935628891,0.015660345554351807,-0.05737955868244171,-1.561027008921507,-0.5003776439947208,2.246275793831459
1687096193.7449632,-0.8785886168479919,0.4774809181690216,-0.009690134786069393,0.005999565124511719,0.0074281394481658936,0.0010687103495001793,-0.03072299249470234,0.046816423535346985,-0.01760491542518139,-1.5597675681329666,-0.4977854649788266,2.246223862455543
1687096193.750709,-0.8787092566490173,0.4772634506225586,-0.009448311291635036,-0.01177823543548584,0.007874459028244019,-0.015591620467603207,-0.0758286863565445,0.008083119988441467,0.014930590987205505,-1.5600442523772222,-0.4975379570989304,2.243763648753802
1687096193.768641,-0.8785237669944763,0.47760874032974243,-0.009262214414775372,0.005064964294433594,0.01787465810775757,-0.010162473656237125,-0.023045631125569344,0.053349003195762634,-0.0029414836317300797,-1.5602537881120901,-0.4979309320011581,2.240706095043616
1687096193.86196,-0.8782177567481995,0.4781406819820404,-0.010715761221945286,0.013563334941864014,0.02224072813987732,0.006381988525390625,-0.0708182156085968,0.0393063984811306,0.03774435818195343,-1.5585952187118193,-0.4985365126219597,2.2380482557677244
1687096193.8676472,-0.8746943473815918,0.48449641466140747,-0.013155573047697544,0.0005335807800292969,0.12631291151046753,-0.08334124088287354,-0.19072943925857544,0.2777983248233795,0.2665543556213379,-1.5557572657273957,-0.5057874092191005,2.2320419775686733
1687096193.9851232,-0.864635705947876,0.5022076964378357,-0.013865466229617596,0.0464596152305603,0.1610918641090393,-0.06694531440734863,-0.855834424495697,0.35621970891952515,0.5329678654670715,-1.5547615075802557,-0.5261498588223191,2.1988573841885164
1687096193.9966059,-0.8462185859680176,0.5327931642532349,-0.006741633173078299,-0.07698380947113037,0.27439677715301514,-0.04123222827911377,-0.8645040988922119,0.3192023038864136,0.8616702556610107,-1.5628297202453927,-0.5618978323359582,2.1489599052407002
1687096194.132864,-0.8183812499046326,0.5746014714241028,0.00921888742595911,0.014975666999816895,0.32733023166656494,-0.010256768204271793,-0.8969541788101196,0.14378197491168976,1.1319595575332642,-1.5820606334917298,-0.6121171366374066,2.0930878758891898
1687096194.1563191,-0.7769158482551575,0.6289395093917847,0.028925254940986633,-0.08464103937149048,0.35598474740982056,0.027242183685302734,-0.8100869059562683,0.03360894322395325,1.539639949798584,-1.6080100124453134,-0.6801883956668968,2.037933931244949
1687096194.2828732,-0.7204714417457581,0.6914349794387817,0.053275592625141144,-0.15336871147155762,0.3768327832221985,0.02034783363342285,-0.6279040575027466,-0.08667436987161636,1.914516806602478,-1.6446074485875248,-0.7634734931673456,1.9858888492088997
1687096194.296679,-0.6436574459075928,0.760913074016571,0.08195275813341141,-0.20889675617218018,0.33428651094436646,0.04275703430175781,-0.7001367211341858,-0.23951269686222076,2.271413803100586,-1.697438478638569,-0.8647191231383369,1.9237909290669504
1687096194.3392692,-0.5434627532958984,0.8302464485168457,0.12385120987892151,-0.2749728560447693,0.2677454948425293,0.02458609640598297,-0.8641752004623413,-0.3884972929954529,2.6069631576538086,-1.7948624062506842,-0.9795496840302246,1.820937263415092
1687096194.4013581,-0.4231413006782532,0.8904615044593811,0.16741998493671417,-0.3445740342140198,0.26671916246414185,0.037307024002075195,-0.7057061791419983,-0.4489471912384033,2.7831180095672607,-1.9475555498732615,-1.0983583304478532,1.6653136190832745
1687096194.465738,-0.2859748303890228,0.9358829259872437,0.20576949417591095,-0.4082542061805725,0.2536311149597168,0.06388354301452637,-0.5040854811668396,-0.6259225010871887,3.0054545402526855,-2.1945144439424626,-1.210756815934279,1.4271225881705458
1687096194.479914,-0.1326870322227478,0.9645275473594666,0.22821088135242462,-0.48840659856796265,0.20116740465164185,0.09454281628131866,-0.16677111387252808,-0.8077056407928467,3.085862636566162,-2.614944781880858,-1.3036477087097644,1.024514650088561
1687096194.5541391,0.0304707121104002,0.9698517918586731,0.24178250133991241,-0.5166004300117493,0.06669288873672485,0.0880664587020874,-0.32555195689201355,-0.8300269246101379,3.1397545337677,3.0162282571161203,-1.3246219424984313,0.39524508017396354
1687096194.568129,0.18871860206127167,0.9496657848358154,0.2500395178794861,-0.5321329236030579,0.006068289279937744,0.0778869092464447,-0.14505410194396973,-0.960334062576294,2.941688299179077,2.4950552123698406,-1.2521672731226021,-0.1001048961411943
1687096194.606258,0.3352881371974945,0.9120346307754517,0.2361658662557602,-0.5231543779373169,-0.08836537599563599,0.08719812333583832,0.12671829760074615,-1.0851867198944092,2.7690956592559814,2.184447087239916,-1.1482181363020856,-0.37661465039892655
1687096194.635618,0.4631929397583008,0.8626278042793274,0.20328658819198608,-0.4485445022583008,-0.15054601430892944,0.08072495460510254,0.3789457380771637,-1.1402218341827393,2.383594274520874,1.9843653176513116,-1.0404417798668715,-0.5382640266928944
1687096194.762959,0.5695011019706726,0.8066659569740295,0.15798236429691315,-0.3775455355644226,-0.1646525263786316,0.0691138505935669,0.46106138825416565,-1.1167576313018799,2.173658609390259,1.8413969445257399,-0.9384888991232624,-0.6425634034724819
1687096194.768705,0.6591793298721313,0.7456278204917908,0.09757775813341141,-0.3723599314689636,-0.10581165552139282,0.10682868957519531,0.6492241621017456,-1.2528892755508423,2.151745080947876,1.7177582407253267,-0.8414765396270226,-0.7240642318704216
1687096194.78687,0.7414804697036743,0.6701018810272217,0.03420364111661911,-0.3149668574333191,-0.07731330394744873,0.10185873508453369,0.5071730017662048,-1.2797889709472656,2.1400680541992188,1.6168924981336412,-0.7343460106070835,-0.7765557733725462
1687096194.9728432,0.8071661591529846,0.5888349413871765,-0.04190432280302048,-0.29437941312789917,-0.01646256446838379,0.1114230751991272,1.032429575920105,-1.391244888305664,2.1124842166900635,1.5189275307255736,-0.6296166112143098,-0.8269097162255188
1687096194.988051,0.8609738945960999,0.4926576316356659,-0.1265387386083603,-0.2759215831756592,-0.03576388955116272,0.10621382296085358,0.9111143350601196,-1.2808482646942139,2.2080371379852295,1.4248694128891346,-0.5151410975070325,-0.8753152145480053
1687096194.996393,0.8989624977111816,0.39148515462875366,-0.1964830756187439,-0.22203701734542847,-0.018224775791168213,0.047297656536102295,0.7897117137908936,-1.156620979309082,2.0736777782440186,1.3556137770995096,-0.4022450204390136,-0.8968351172445135
1687096195.060132,0.9211695194244385,0.2817888855934143,-0.26840561628341675,-0.2300228476524353,0.08072930574417114,0.032580792903900146,1.2327717542648315,-1.129863977432251,2.2531819343566895,1.2872711925347575,-0.28565803579467436,-0.9238964460836226
1687096195.18229,0.930307924747467,0.1562705636024475,-0.33182287216186523,-0.15822869539260864,0.10070259869098663,0.0693715512752533,1.3636360168457031,-1.0393539667129517,2.2760910987854004,1.2281823392707554,-0.15691369755534573,-0.948333779820263
1687096195.196872,0.9233415722846985,0.01566951908171177,-0.3836597800254822,-0.29261958599090576,0.1601269245147705,-0.027503788471221924,1.9956834316253662,-0.8001957535743713,2.48803448677063,1.176989196152829,-0.015670159589475798,-0.9850813821714296
1687096195.208363,0.901917576789856,-0.141484335064888,-0.4080770015716553,-0.2637646198272705,-0.0012311488389968872,0.023952007293701172,1.8243117332458496,-0.5708179473876953,2.620270013809204,1.145902815092539,0.14196067078328442,-1.020026108407516
1687096195.267383,0.8640848994255066,-0.2995947301387787,-0.4044751226902008,-0.3143261671066284,0.0773504376411438,0.018137693405151367,1.7551560401916504,-0.26666614413261414,2.757344961166382,1.1329956558854648,0.30426784160798404,-1.0531463216859063
1687096195.297056,0.8100278377532959,-0.4372292459011078,-0.3907495439052582,-0.2608795166015625,-0.11509311199188232,0.00903552770614624,0.6416820883750916,-0.04512989893555641,2.5906624794006348,1.1213354895781602,0.4525155240689036,-1.0469136161943198
1687096195.394985,0.753731906414032,-0.5414940118789673,-0.372387170791626,-0.20473617315292358,-0.02543097734451294,-0.016849428415298462,0.571506679058075,0.16685010492801666,2.1192398071289062,1.1119137328040984,0.5722131751357945,-1.0232478337175692
1687096195.400439,0.6993739604949951,-0.615363359451294,-0.3635982871055603,-0.06473064422607422,-0.158608078956604,-0.00767865777015686,-0.10476712882518768,0.07520359009504318,1.7765915393829346,1.0913627623773825,0.6628468266611766,-0.9773350674739656
1687096195.416436,0.6534467935562134,-0.6644440293312073,-0.3626587688922882,0.036509692668914795,-0.19779956340789795,0.07957756519317627,0.052226752042770386,0.011107738129794598,1.1382359266281128,1.0641273670769065,0.7267496153050174,-0.929433487260687
1687096195.4798079,0.620673418045044,-0.6959520578384399,-0.3611305058002472,0.008827805519104004,-0.17157113552093506,-0.007216840982437134,0.14462591707706451,-0.1191478967666626,0.7067769765853882,1.0438393481579804,0.7697448590386643,-0.9053283878638343
1687096195.542725,0.6010903716087341,-0.712909460067749,-0.361178994178772,0.020033717155456543,-0.1487848162651062,0.012546002864837646,0.13192982971668243,-0.17593608796596527,0.30732351541519165,1.0297351486356556,0.7936384537435732,-0.8966150043875041
1687096195.5662088,0.5926759243011475,-0.7189561128616333,-0.3630940020084381,-0.05726045370101929,-0.14682751893997192,0.0015521049499511719,-0.01990629732608795,-0.06631603091955185,0.058386120945215225,1.0211381600004172,0.8022992466545485,-0.8936865780806326
1687096195.631386,0.5903504490852356,-0.7199830412864685,-0.3648432493209839,-0.04782438278198242,-0.04687786102294922,-0.01713019609451294,-0.05628081411123276,-0.016960402950644493,0.007183855399489403,1.0172383806468255,0.8037778679816978,-0.8913806622762425
1687096195.656402,0.5906589031219482,-0.7195457220077515,-0.36520659923553467,-0.009955346584320068,-0.02653270959854126,-0.030927002429962158,0.04174108803272247,-0.03782793506979942,-0.04671499505639076,1.017026825231159,0.803147924779018,-0.8923829661593323
1687096195.72157,0.5940482020378113,-0.7175697088241577,-0.36359333992004395,0.0015326142311096191,-0.050374507904052734,-0.017769724130630493,0.07874491065740585,0.006006542593240738,-0.22300294041633606,1.0215561153288546,0.8003066937287983,-0.9008696253094445
1687096195.7480788,0.6022677421569824,-0.7097105383872986,-0.36549174785614014,-0.002414405345916748,-0.059210240840911865,-0.0406363308429718,-0.16317637264728546,0.053102705627679825,-0.2993208169937134,1.0253485000035796,0.7890872657591985,-0.9049567066637856
1687096195.777082,0.6201493740081787,-0.6920298933982849,-0.3694715201854706,-0.09320253133773804,-0.12971681356430054,-0.046681612730026245,-0.020657042041420937,0.09196614474058151,-0.7388334274291992,1.0334868053906017,0.7642973071021067,-0.9133715863243902
1687096195.8416119,0.6566217541694641,-0.6583126187324524,-0.3680657744407654,-0.18623918294906616,-0.3133212924003601,-0.025199204683303833,-0.4720119833946228,0.23206323385238647,-1.2580393552780151,1.0598934963285953,0.7185749208717983,-0.9388042252277342
1687096195.865557,0.7171571850776672,-0.5851315855979919,-0.3785581588745117,-0.30935102701187134,-0.4770631194114685,-0.07560458779335022,-0.5565921068191528,0.4765791594982147,-2.2317075729370117,1.085110402730879,0.6250423198120078,-0.9522189816369239
1687096195.897157,0.797051727771759,-0.48050370812416077,-0.3658204674720764,-0.42107534408569336,-0.44866496324539185,-0.04218447208404541,-0.38731494545936584,0.6764726638793945,-2.87492299079895,1.140510477278974,0.5012289794723916,-0.9999902683005424
1687096196.023831,0.8769847750663757,-0.33542171120643616,-0.3440783619880676,-0.41385018825531006,-0.22294315695762634,0.0156785249710083,-0.2819376587867737,0.6772362589836121,-3.554931402206421,1.1969086522682817,0.3420528440362562,-1.0524448570388505
1687096196.035571,0.9320129156112671,-0.1703079342842102,-0.319917231798172,-0.37460947036743164,-0.15288853645324707,0.09349191188812256,-0.3783302307128906,0.46428969502449036,-3.5440266132354736,1.2401438430168865,0.17114215415488995,-1.0993000635846206
1687096196.145937,0.9525355100631714,0.001227484899573028,-0.3044244945049286,-0.4326382875442505,-0.00224989652633667,0.08976364135742188,-0.06344711780548096,0.260394424200058,-3.41861629486084,1.2614618674285505,-0.0012274851601961911,-1.1424950583738183
1687096196.150871,0.9395573735237122,0.16459114849567413,-0.3002361059188843,-0.21807610988616943,0.005483195185661316,0.11273583769798279,0.22006262838840485,-0.026929814368486404,-3.582263231277466,1.2615011155320115,-0.16534349622749273,-1.202314927831683
1687096196.165547,0.8969539999961853,0.32504114508628845,-0.299702525138855,-0.31806623935699463,0.015306025743484497,0.07425367832183838,-0.3416113555431366,-0.04727485775947571,-3.2671468257904053,1.248325648836459,-0.3310552324804681,-1.25487137738032
1687096196.264958,0.8305186033248901,0.46966272592544556,-0.29942557215690613,-0.2642040252685547,0.07930254936218262,-0.034208059310913086,0.10050053894519806,0.04013699293136597,-3.193740129470825,1.2247729996624996,-0.48890872128427243,-1.3041107120993554
1687096196.278442,0.7514499425888062,0.5904196500778198,-0.2944954037666321,-0.2621769905090332,-0.048946380615234375,0.07443296909332275,-0.4336318373680115,0.013812889344990253,-2.864870548248291,1.1972896406833127,-0.631578669709877,-1.3608977955887076
1687096196.3186688,0.6653627753257751,0.7019489407539368,-0.25408637523651123,-0.2900729179382324,-0.1038198471069336,0.042568862438201904,-1.6931588649749756,0.3751818537712097,-2.6349387168884277,1.2060106373872619,-0.7781302425470518,-1.3655107913733056
1687096196.414716,0.5701533555984497,0.8011482357978821,-0.18189752101898193,-0.2442561388015747,-0.014710307121276855,0.10494719445705414,-1.0516470670700073,0.3495238721370697,-2.5904195308685303,1.261971152716619,-0.9292113578193321,-1.31557796439106
1687096196.42029,0.465841680765152,0.8748788237571716,-0.13258394598960876,-0.11789551377296448,-0.014252722263336182,0.07830822467803955,-0.8709638714790344,0.34140074253082275,-2.700868844985962,1.2935164304881643,-1.0651855352198825,-1.3018991747628923
1687096196.437183,0.34512922167778015,0.9292382597923279,-0.1319158971309662,-0.17209455370903015,0.2002781629562378,0.05670511722564697,1.215797781944275,0.12518596649169922,-2.653510332107544,1.2057093166445072,-1.192345859681735,-1.4100750740537493
1687096196.564526,0.21841439604759216,0.9616721272468567,-0.16577546298503876,-0.12849433720111847,-0.014925539493560791,0.17824168503284454,0.1369546800851822,-0.2323899269104004,-2.681870937347412,0.9215631655877478,-1.293036654913045,-1.7089203712874235
1687096196.569923,0.099368155002594,0.9781367182731628,-0.18268637359142303,-0.1769437938928604,0.20248138904571533,0.06813842058181763,0.38563400506973267,-0.18121932446956635,-2.0643231868743896,0.49816912132358077,-1.3613045142360751,-2.132977752821864
1687096196.651927,-0.008100545033812523,0.9814630150794983,-0.19147974252700806,-0.17871275544166565,0.12226605415344238,0.06547242403030396,0.023154087364673615,-0.2798597514629364,-2.1342618465423584,-0.042279761150174545,-1.3779515887369969,-2.6695555025295303
1687096196.666884,-0.1144963949918747,0.9724937677383423,-0.20284467935562134,-0.07806943356990814,0.19584089517593384,0.06881126761436462,0.5515825152397156,-0.47105175256729126,-2.051880121231079,-0.5138722150573259,-1.3357079742524947,-3.129422585102269
1687096196.706069,-0.21161514520645142,0.9524062275886536,-0.2194109708070755,-0.06342443823814392,0.2050490379333496,0.02858436107635498,0.17088468372821808,-0.47331345081329346,-1.7797164916992188,-0.7673134612030361,-1.2610346365684857,2.914480363556235
1687096196.7995028,-0.29390785098075867,0.9314412474632263,-0.21455779671669006,-0.06351390480995178,0.16740500926971436,0.06085588037967682,-0.1944030076265335,-0.5411045551300049,-1.5419867038726807,-0.9402073038083923,-1.1983536082432473,2.7564822384654475
1687096196.8148599,-0.3703033924102783,0.9062179327011108,-0.20406903326511383,-0.07526838779449463,0.20846694707870483,-0.02083049714565277,0.14041386544704437,-0.40120044350624084,-1.5358915328979492,-1.0671196695777923,-1.1342514032288986,2.6428779588676954
1687096196.894847,-0.4435690939426422,0.8732714653015137,-0.2016015648841858,-0.05078503489494324,0.19301259517669678,-0.0059334635734558105,0.1676958203315735,-0.5252190232276917,-1.4067912101745605,-1.1442076089793907,-1.0618768280525177,2.586176092516948
1687096197.012937,-0.5061007738113403,0.8397811651229858,-0.19654284417629242,-0.044039368629455566,0.15930300951004028,-0.007345288991928101,0.361697256565094,-0.5677147507667542,-1.2579436302185059,-1.2003756269265962,-0.9968800439064632,2.552612382270067
1687096197.018853,-0.5623539686203003,0.8044700026512146,-0.19127367436885834,-0.0899132490158081,0.054080843925476074,0.09512785077095032,-0.006277304142713547,-0.5369630455970764,-1.2300264835357666,-1.242940956430281,-0.9347826293018461,2.5332687122718345
1687096197.035997,-0.6166191697120667,0.7608575224876404,-0.20217888057231903,-0.0040013790130615234,0.2820957899093628,-0.08607509732246399,1.6411757469177246,-0.6859139204025269,-1.187157392501831,-1.2539591366017295,-0.8646335255362679,2.5617271456968824
1687096197.135293,-0.6626892685890198,0.7137529850006104,-0.2267143875360489,0.06408709287643433,-0.0386432409286499,0.0042867958545684814,0.14041918516159058,-0.5063496232032776,-1.0552953481674194,-1.2411652842539371,-0.7948420612017105,2.6116413880563174
1687096197.149637,-0.7061991691589355,0.6819115281105042,-0.19047009944915771,-0.12470263242721558,0.008075475692749023,0.036417156457901,-0.11490605026483536,-0.6580088138580322,-1.037166953086853,-1.3073533374397015,-0.750372885938717,2.564578222657445
1687096197.1621861,-0.7471752762794495,0.6410461664199829,-0.17546655237674713,0.03144669532775879,0.12790513038635254,-0.03292296826839447,0.45184525847435,-0.7906590700149536,-1.0364772081375122,-1.3401361067194661,-0.6958605398042216,2.570473584384048
1687096197.312409,-0.7845139503479004,0.5991710424423218,-0.1597856730222702,-0.018159151077270508,0.0905565619468689,0.03936310112476349,0.48486658930778503,-0.8331795334815979,-0.979102611541748,-1.3698698713247486,-0.6424653285726852,2.5861383435202474
1687096197.318825,-0.8218010067939758,0.5523063540458679,-0.14000169932842255,-0.028418540954589844,0.14668339490890503,0.0037405043840408325,0.8172270059585571,-1.0949387550354004,-0.940863847732544,-1.4020566802035088,-0.585128316535722,2.618163858784525
1687096197.4329782,-0.8508429527282715,0.5124942064285278,-0.11582673341035843,-0.005968451499938965,0.016634762287139893,0.0009583234786987305,0.30645981431007385,-0.9209045767784119,-0.9808712005615234,-1.4354962822905082,-0.5380869553229016,2.6408690270952087
1687096197.448425,-0.8856804370880127,0.4560397267341614,-0.08716502040624619,-0.014191210269927979,0.24008142948150635,-0.1464930772781372,1.3976237773895264,-1.2324832677841187,-1.1109001636505127,-1.4726963598715268,-0.47354015011032907,2.683540028189342
1687096197.460116,-0.9072746634483337,0.4147895574569702,-0.06929544359445572,0.0008723139762878418,-0.005320072174072266,-0.029658064246177673,1.0821171998977661,-0.696433424949646,-0.8101123571395874,-1.4945667409276595,-0.42771151265097807,2.7367977563821473
1687096197.516512,-0.9239059686660767,0.37784337997436523,-0.060265522450208664,-0.052976906299591064,0.16747522354125977,-0.20810633897781372,0.6786664724349976,-0.4794008135795593,-0.4623182713985443,-1.5056595395067793,-0.3874658831205419,2.8000581361928703
1687096197.579873,-0.9312116503715515,0.36217325925827026,-0.040930844843387604,0.007932841777801514,0.03254103660583496,-0.08852493762969971,-0.02717672660946846,-0.5179373621940613,-0.3026348352432251,-1.5268702058473604,-0.3705983893797791,2.8023530143832245
1687096197.585258,-0.9347072243690491,0.3537774085998535,-0.03411111608147621,-0.021133601665496826,0.14175164699554443,-0.1216965913772583,0.48620641231536865,-0.031555015593767166,-0.024772081524133682,-1.5343186098679875,-0.36160663173486957,2.815942570254631
1687096197.639394,-0.9340746402740479,0.35449469089508057,-0.04286859557032585,-0.0009837746620178223,0.10558819770812988,-0.050607021898031235,0.43009281158447266,0.032299067825078964,0.1450853943824768,-1.5249343212838398,-0.36237360882400543,2.8445557804702606
1687096197.699379,-0.9293756484985352,0.3659294843673706,-0.04854157567024231,-0.03804671764373779,-0.07686707377433777,-0.01743769645690918,-0.19301016628742218,0.06264185905456543,0.19933737814426422,-1.5186134348919216,-0.3746313776886785,2.8500870346183436
1687096197.790653,-0.9271492958068848,0.37138402462005615,-0.049677442759275436,-0.001973450183868408,-0.046036213636398315,0.0011237338185310364,0.1511959433555603,0.042934998869895935,0.026540309190750122,-1.5172666694939136,-0.380499199254727,2.8467405701793767
1687096197.8558512,-0.9269682765007019,0.3711923062801361,-0.05427826568484306,0.0030943751335144043,-0.058631300926208496,0.04104863852262497,-0.031175196170806885,0.07394100725650787,-0.016075395047664642,-1.5123084996481657,-0.3802927271032974,2.8520112885413558
1687096197.870954,-0.9274156093597412,0.37012264132499695,-0.053939081728458405,-0.037138164043426514,-0.07411748170852661,0.005583763122558594,-0.49001866579055786,0.0849389135837555,-0.04369177669286728,-1.5127011341220418,-0.37914104365322654,2.8366970264240403
1687096197.9440088,-0.9294661283493042,0.36605945229530334,-0.04575030878186226,0.00548553466796875,0.00645330548286438,-0.005061686038970947,-0.16016992926597595,-0.020887544378638268,-0.041937749832868576,-1.5216138823172258,-0.3747710079827537,2.8142661410289405
1687096197.948945,-0.9302138090133667,0.3640335500240326,-0.04670917987823486,0.0251387357711792,0.028895467519760132,0.020723219960927963,0.18559466302394867,0.0076067689806222916,-0.036946192383766174,-1.520625083586994,-0.37259495801336207,2.8180810557610463
1687096197.999322,-0.9295423030853271,0.36525383591651917,-0.05040287226438522,0.0018996596336364746,0.018016338348388672,0.02397441864013672,-0.012219882570207119,0.05954229459166527,0.08231355994939804,-1.5166260528391278,-0.37390547987287653,2.824566659272513
1687096198.06434,-0.9277021288871765,0.37018853425979614,-0.04825914651155472,-0.01077425479888916,0.006871342658996582,0.00886070728302002,-0.027143171057105064,-0.03307889774441719,0.04496006295084953,-1.518823088002364,-0.37921196301536353,2.822512980646001
1687096198.069484,-0.9267396330833435,0.372962087392807,-0.04530761390924454,0.010739386081695557,-0.011130481958389282,0.010364711284637451,0.03679586574435234,-0.0379338413476944,0.02333918772637844,-1.5219459622141671,-0.3821994053510725,2.82022023047905
1687096198.117185,-0.9264905452728271,0.3736184239387512,-0.04499134048819542,0.0010604262351989746,-0.014563977718353271,-0.001243051141500473,-0.0015451334184035659,-0.009259983897209167,0.015634264796972275,-1.5222734078456424,-0.3829068949132435,2.8226604992074042
1687096198.211283,-0.9262851476669312,0.37420666217803955,-0.044328540563583374,0.007935047149658203,-0.002197444438934326,0.00416719913482666,0.07701411843299866,-0.05559477210044861,0.0026733255945146084,-1.522976554653317,-0.38354114514706633,2.8244475691827273
1687096198.2170758,-0.9257649183273315,0.3756278157234192,-0.043163761496543884,-0.016251683235168457,-0.015230506658554077,0.008999045938253403,-0.04969694837927818,-0.009649582207202911,0.07143022119998932,-1.5242050999161034,-0.3850741112648863,2.8248228606856123
1687096198.269825,-0.9250553250312805,0.3774489164352417,-0.04248437285423279,0.007590174674987793,0.0085831880569458,-0.009822968393564224,0.07673848420381546,-0.03660163655877113,0.014050083234906197,-1.52490227042906,-0.3870398871133368,2.8266890360039256
1687096198.362526,-0.9250332117080688,0.3775264024734497,-0.04227706789970398,-0.007690787315368652,-0.008904606103897095,-0.007054869085550308,0.03312230110168457,0.006273035891354084,0.023539192974567413,-1.5251248102354074,-0.38712355832752665,2.8287531291728327
1687096198.368468,-0.9247410297393799,0.3780770003795624,-0.043719034641981125,0.0004248619079589844,0.007726073265075684,-0.007489737123250961,0.026117920875549316,0.011156696826219559,0.014268595725297928,-1.5235544445035825,-0.3877182438903445,2.831763372238976
1687096198.41862,-0.9244233965873718,0.3786328434944153,-0.0455876886844635,-0.0015255212783813477,-0.000276029109954834,0.00023830309510231018,-0.02591731771826744,0.027113623917102814,0.012091128155589104,-1.5215215169228435,-0.3883187226563557,2.831572261063014
1687096198.514501,-0.9240650534629822,0.37934571504592896,-0.04690879210829735,0.008598804473876953,0.0021697580814361572,-0.003582783043384552,0.023991651833057404,0.023128248751163483,0.025265119969844818,-1.5200763485101147,-0.389089067180664,2.8318676603712376
1687096198.520438,-0.9238725900650024,0.3796217441558838,-0.04844145104289055,0.006743192672729492,-0.006376594305038452,0.01233893632888794,0.043986931443214417,0.013010900467634201,0.005205925554037094,-1.5184112547358724,-0.38938740287401125,2.834142273225269
1687096198.567852,-0.9235888719558716,0.3801463544368744,-0.04972192272543907,-0.006830990314483643,-0.015217185020446777,0.00817202776670456,0.00907315593212843,0.030641870573163033,0.003520543221384287,-1.5170126882488117,-0.3899545367580309,2.8352910379824445
1687096198.6343699,-0.923851490020752,0.37949877977371216,-0.049787487834692,0.0014731287956237793,-0.007687956094741821,0.008420709520578384,0.011156014166772366,0.00897459127008915,-0.011690566316246986,-1.5169571822394758,-0.38925447431027704,2.8351940915738862
1687096198.6510382,-0.9244454503059387,0.3779981732368469,-0.05017806962132454,0.0035318732261657715,0.0109940767288208,-0.0007255077362060547,0.028951790183782578,0.0026376438327133656,-0.027714142575860023,-1.5165704336199795,-0.3876330789175029,2.8361289450415494
1687096198.6871781,-0.9250290393829346,0.3766131103038788,-0.049835678189992905,-0.0014386773109436035,-0.00027045607566833496,0.0072939433157444,0.05803164467215538,-0.02864679880440235,-0.016621876507997513,-1.5169736429138359,-0.3861374788585622,2.838343804051062
1687096198.748838,-0.9251382946968079,0.37635746598243713,-0.0497373566031456,0.0015239715576171875,0.0025181472301483154,-0.0077122412621974945,-0.02632611244916916,0.034969083964824677,-0.003302142256870866,-1.5170859569267068,-0.3858615349175346,2.8389195443543276
1687096198.777574,-0.9250293374061584,0.3766106367111206,-0.049851156771183014,0.0016437172889709473,0.009680867195129395,0.007812969386577606,-0.06407775729894638,0.006239546928554773,0.027877148240804672,-1.516956973718798,-0.386134796791612,2.8377865918472778
1687096198.840448,-0.9234979748725891,0.38070598244667053,-0.047057028859853745,-0.020761609077453613,-0.04908671975135803,-0.0021833255887031555,-0.27587735652923584,0.07689633965492249,0.060193609446287155,-1.519885154119747,-0.3905596400943151,2.8222335300163612
1687096198.864917,-0.9229875802993774,0.3817805349826813,-0.04834732040762901,0.015318632125854492,0.030618667602539062,-0.021385610103607178,0.009226021356880665,0.028975551947951317,0.013520513661205769,-1.518462821161909,-0.391721995952989,2.8186648569952086
1687096198.930316,-0.9216861724853516,0.38476356863975525,-0.04951315000653267,-0.026174545288085938,-0.011457324028015137,-0.015718407928943634,-0.24048741161823273,0.11732656508684158,0.13360092043876648,-1.517127729281054,-0.3949516727415299,2.8139493777592093
1687096198.9594688,-0.9192107915878296,0.3904898166656494,-0.050684984773397446,-0.007623136043548584,-0.00801306962966919,-0.021992921829223633,-0.2135292887687683,0.10508370399475098,0.06810486316680908,-1.5157124315770547,-0.4011635771891768,2.8009080900603247
1687096199.0483642,-0.9154528379440308,0.39888906478881836,-0.053228843957185745,-0.029294908046722412,0.03430786728858948,-0.10656142234802246,-0.45043158531188965,0.3329657316207886,0.3203390836715698,-1.5127168983737038,-0.41030502548057546,2.783655209876791
1687096199.079088,-0.9049655199050903,0.4204620122909546,-0.06518302857875824,0.014477968215942383,0.12857964634895325,-0.20520299673080444,-0.8040386438369751,0.6323117613792419,0.5661249160766602,-1.4988923139245114,-0.4339544556970663,2.755883608380416
1687096199.141255,-0.8840633034706116,0.46068185567855835,-0.07876516878604889,-0.1454012393951416,0.288356751203537,-0.2234354019165039,-1.6584328413009644,1.2194066047668457,1.063433051109314,-1.4819364655700347,-0.4787632827797306,2.6873642709275947
1687096199.165546,-0.8444376587867737,0.5285489559173584,-0.08695222437381744,-0.12127566337585449,0.4178467392921448,-0.23273491859436035,-2.04963755607605,1.3110536336898804,1.659501552581787,-1.4681873913978274,-0.5568903435662602,2.5835936907263375
1687096199.229964,-0.7807708978652954,0.6195629239082336,-0.08086026459932327,-0.14482712745666504,0.6708422303199768,-0.24987423419952393,-2.0610432624816895,1.172631025314331,2.5181310176849365,-1.4675995737041565,-0.6681857842705379,2.4791901709842397
1687096199.292516,-0.680142879486084,0.731117844581604,-0.05359133705496788,-0.2114279866218567,0.7520668506622314,-0.1331917643547058,-1.5647826194763184,0.7611891031265259,3.10941743850708,-1.4921645523179787,-0.8199589886846864,2.363938154292346
1687096199.315335,-0.5358299016952515,0.8440439105033875,-0.021812153980135918,-0.5495123267173767,0.6003223657608032,-0.03704124689102173,-1.1787395477294922,0.5304645895957947,3.9627456665039062,-1.5301115553242062,-1.0047798746225056,2.2713179467778777
1687096199.411512,-0.35327526926994324,0.9355169534683228,-0.0020428814459592104,-0.7112692594528198,0.40502846240997314,0.05660802125930786,-0.03610577434301376,0.3531266152858734,4.113955497741699,-1.565013700817162,-1.2097195593964467,2.2112998554749024
1687096199.4392571,-0.1596388965845108,0.9871156811714172,-0.01085036899894476,-0.7602065801620483,0.15817832946777344,0.16293448209762573,-0.049536094069480896,0.21513468027114868,3.9033093452453613,-1.5029324976285012,-1.4100974346345023,2.2569637508147324
1687096199.528945,0.03544582799077034,0.9990387558937073,-0.02578262984752655,-0.7720638513565063,0.002547919750213623,0.26465874910354614,1.2524091005325317,0.13025474548339844,3.724052667617798,0.9419290712401213,-1.5269469945130176,-1.5906243271687108
1687096199.534692,0.21584883332252502,0.9719297289848328,-0.09360377490520477,-0.7413462400436401,-0.10726010799407959,0.29297488927841187,0.7595711350440979,0.2611680030822754,3.573159694671631,1.1616183041114199,-1.3332986471780346,-1.379201155413431
1687096199.651995,0.3778575658798218,0.918127715587616,-0.11943554878234863,-0.6231731176376343,-0.07639205455780029,0.26086902618408203,0.9389683604240417,-0.16651342809200287,3.234100103378296,1.264647689290955,-1.163329765172024,-1.2751068643967622
1687096199.667544,0.5168496370315552,0.8389716148376465,-0.1702723354101181,-0.6046640872955322,-0.058164358139038086,0.2450096756219864,0.7174510955810547,-0.2285037636756897,3.1402993202209473,1.2525514259877921,-0.9953906705117005,-1.27791585193592
1687096199.7712731,0.6363165378570557,0.7426134943962097,-0.20886899530887604,-0.5009101033210754,-0.006773829460144043,0.18984109163284302,0.9676750898361206,-0.16257594525814056,2.9039103984832764,1.25363042442928,-0.8369643714987767,-1.2643473387638693
1687096199.787359,0.7330402135848999,0.6392309665679932,-0.23245593905448914,-0.4840015769004822,-0.17154920101165771,0.20572233200073242,0.06840784847736359,-0.32598763704299927,2.889329671859741,1.2637151988928468,-0.6934978111506414,-1.2334102704856236
1687096199.923397,0.812163770198822,0.5221773386001587,-0.26023226976394653,-0.4378809928894043,0.016228914260864258,0.1597529649734497,0.5233420729637146,-0.5101177096366882,2.8892171382904053,1.2607138286751012,-0.5494019963188025,-1.1997441905513584
1687096199.939321,0.8686813116073608,0.3943256437778473,-0.29983341693878174,-0.38140714168548584,-0.008339375257492065,0.09547224640846252,0.6987504363059998,-0.6155468821525574,2.7977867126464844,1.238440440873604,-0.4053339024595662,-1.1800910540341532
1687096199.9461641,0.9055684208869934,0.25699034333229065,-0.3374931812286377,-0.36781835556030273,-0.0225391685962677,0.06402498483657837,0.869101881980896,-0.4765520393848419,2.7866768836975098,1.2140554168542619,-0.25990665410681163,-1.1689831059204743
1687096200.0481958,0.9245070219039917,0.11233562231063843,-0.36423519253730774,-0.3412094712257385,-0.030838526785373688,-0.0031507909297943115,1.078738808631897,-0.35790932178497314,2.754664897918701,1.1954923118884913,-0.11257324281375942,-1.1629272923180716
1687096200.053294,0.9232507348060608,-0.0344930961728096,-0.3826462924480438,-0.2626216411590576,-0.0065836310386657715,-0.00915384292602539,1.616707444190979,-0.3325516879558563,2.5014874935150146,1.17789081057753,0.034499939005498886,-1.1716744464585676
1687096200.0681648,0.9060244560241699,-0.18079128861427307,-0.3826669156551361,-0.2762486934661865,-0.044123321771621704,-0.052529215812683105,1.8668805360794067,-0.07856819778680801,2.356719732284546,1.1711653841493244,0.18179093132075463,-1.2125528945785702
1687096200.192208,0.8795590400695801,-0.3123326599597931,-0.3589206635951996,-0.3535429835319519,-0.10317942500114441,-0.05585920810699463,1.114233374595642,0.3402572274208069,2.2914395332336426,1.183353447311623,0.31764756070099154,-1.2350623844831459
1687096200.198258,0.8455467820167542,-0.42598432302474976,-0.3218504786491394,-0.27499037981033325,-0.07616716623306274,-0.013324230909347534,1.0352873802185059,0.47771576046943665,2.1271543502807617,1.2070885918502516,0.4400495879669693,-1.2464910864724774
1687096200.2146811,0.8046368360519409,-0.5183581113815308,-0.2895936667919159,-0.14356505870819092,-0.11659067869186401,0.05665281414985657,0.2005230039358139,0.38345056772232056,1.850831389427185,1.2253239035894032,0.5449298345940211,-1.2378466367417233
1687096200.312592,0.7623494863510132,-0.5884340405464172,-0.26938527822494507,-0.08875048160552979,-0.058904826641082764,0.05512118339538574,0.4676705598831177,0.22040487825870514,1.5461394786834717,1.2311296213887548,0.6291207122013223,-1.219421653313407
1687096200.318507,0.7230793833732605,-0.6409511566162109,-0.25756120681762695,0.016834378242492676,-0.21853065490722656,0.06530028581619263,-0.08306875824928284,0.00721603911370039,1.0598739385604858,1.2286084253620637,0.6957367768630179,-1.2041268584855134
1687096200.369453,0.6977027654647827,-0.6708596348762512,-0.2513127326965332,-0.04218536615371704,-0.102730393409729,0.05162078142166138,0.2697089910507202,0.04885553568601608,0.568752646446228,1.2250634732803167,0.7353673683364669,-1.1979254425341932
1687096200.4301329,0.6815218925476074,-0.6877217292785645,-0.2501329481601715,0.021343529224395752,-0.1319345235824585,0.04835060238838196,0.033149465918540955,-0.11098772287368774,0.3497450053691864,1.219039086436282,0.7583461128834389,-1.1900683684102313
1687096200.494307,0.6718459725379944,-0.6968404650688171,-0.2510700225830078,0.02831864356994629,-0.09373259544372559,0.053224384784698486,0.059140849858522415,-0.17830628156661987,0.1334226131439209,1.2131643381021333,0.7709827975387745,-1.19245413195592
1687096200.499879,0.6658148169517517,-0.7005904316902161,-0.25663888454437256,-0.034452080726623535,-0.02476656436920166,-0.007353603839874268,-0.07282384485006332,-0.10133189707994461,0.11936797946691513,1.2028949059412395,0.7762246083535662,-1.1882599352947008
1687096200.549396,0.6607388257980347,-0.7031724452972412,-0.26262620091438293,0.0051850080490112305,0.011323750019073486,0.012488722801208496,-0.020057031884789467,-0.11838056892156601,0.08205470442771912,1.1924698386623072,0.7798495697137188,-1.1818556523809942
1687096200.611545,0.6570144295692444,-0.7057791352272034,-0.2649674415588379,-0.011827230453491211,-0.0015724897384643555,-0.01507723331451416,0.03274413198232651,-0.08170364797115326,0.02372787706553936,1.187456855733338,0.7835223364296368,-1.1825777302038052
1687096200.638278,0.6570786833763123,-0.7048728466033936,-0.2672111690044403,0.002772212028503418,-0.043662309646606445,-0.01783841848373413,0.010800215415656567,-0.09400536864995956,-0.09152533859014511,1.1845571252935791,0.7822438495566588,-1.1840860171475256
1687096200.69783,0.6612175107002258,-0.7002249956130981,-0.26921430230140686,-0.04114621877670288,-0.09976279735565186,-0.039394885301589966,0.022324247285723686,-0.06873629987239838,-0.2935982048511505,1.184141900034405,0.7757126407331228,-1.1892840149804027
1687096200.7281098,0.6778651475906372,-0.6840137243270874,-0.26948797702789307,-0.1442655324935913,-0.23136091232299805,-0.03510811924934387,-0.11257605254650116,0.13367711007595062,-0.6727076768875122,1.192400394791272,0.7532507840502198,-1.200603296394872
1687096200.7917619,0.7131163477897644,-0.6454561948776245,-0.2735893428325653,-0.113797128200531,-0.3697872757911682,-0.002259165048599243,-0.2618659436702728,0.07824942469596863,-1.411464810371399,1.2044610109561933,0.7016204309972552,-1.2113961541433103
1687096200.815971,0.7671229839324951,-0.5787813663482666,-0.27664831280708313,-0.39018529653549194,-0.3802792429924011,-0.0033963918685913086,-0.2372913509607315,0.15891015529632568,-1.9531577825546265,1.2246822660182741,0.6172335620085588,-1.2395547611520197
1687096200.847673,0.8320629596710205,-0.4771259129047394,-0.2828814685344696,-0.3682723045349121,-0.4288341701030731,0.05930951237678528,-0.5683395266532898,0.11194746196269989,-2.7606563568115234,1.243079295626117,0.4973814708987986,-1.2587940901345356
1687096200.909888,0.8943641781806946,-0.3422626852989197,-0.2880430519580841,-0.5045938491821289,-0.3551555275917053,0.07658654451370239,-0.5679256916046143,0.07027401030063629,-3.1523494720458984,1.2592216767103186,0.34932398089519384,-1.2847557445654052
1687096201.0017161,0.9372534155845642,-0.17733250558376312,-0.30018162727355957,-0.41462481021881104,-0.15555328130722046,0.13195329904556274,-0.07222410291433334,-0.3337928056716919,-3.5985543727874756,1.2608412636415225,0.17827532775365215,-1.3169992110230504
1687096201.127234,0.9466865658760071,-0.010872945189476013,-0.3219722509384155,-0.4995126724243164,-0.15051937103271484,0.1283227801322937,-0.01204065140336752,-0.6413073539733887,-3.585111379623413,1.242964249425727,0.010873159818227443,-1.3775706015529163
1687096201.131999,0.9200652241706848,0.16492049396038055,-0.35536015033721924,-0.5646577477455139,-0.12038023769855499,0.15632441639900208,-0.057714395225048065,-0.7743857502937317,-3.668710470199585,1.2022135280652162,-0.1656774042547479,-1.4363005564864981
1687096201.246571,0.8587740659713745,0.32984185218811035,-0.3920600712299347,-0.4959660768508911,-0.02378121018409729,0.16685551404953003,0.05302543565630913,-0.8593569993972778,-3.7761945724487305,1.1425215469951089,-0.33613605380273726,-1.5132533428529031
1687096201.251523,0.7659006714820862,0.48821648955345154,-0.4183785617351532,-0.5503856539726257,-0.07749584317207336,0.16686782240867615,-0.6911885142326355,-0.7264394760131836,-3.6681063175201416,1.0708313779112706,-0.5100449502714474,-1.5915118832093256
1687096201.268444,0.6373838186264038,0.6367623805999756,-0.43390733003616333,-0.4482358694076538,0.08119404315948486,0.19768589735031128,-0.4923984706401825,-1.0684518814086914,-3.824925661087036,0.9730980713407674,-0.6902920137038748,-1.679949804208116
1687096201.362488,0.49091288447380066,0.7534201145172119,-0.437450110912323,-0.32231849431991577,0.16682207584381104,0.038783490657806396,-0.645279049873352,-0.8568864464759827,-3.652902841567993,0.8429228569102526,-0.8532480818231917,-1.8014273794316138
1687096201.3670812,0.32178547978401184,0.8436545133590698,-0.4297685921192169,-0.40958455204963684,0.18620669841766357,0.0993240475654602,-0.8978351354598999,-0.8046011328697205,-3.4161365032196045,0.6426950597853702,-1.0040541547019473,-1.9895336223114615
1687096201.421751,0.16508415341377258,0.894753098487854,-0.41492635011672974,-0.1730187088251114,0.3044959306716919,0.1206451952457428,0.402044415473938,-1.147077202796936,-3.0968403816223145,0.37866342524761554,-1.107877995796224,-2.238509478173938
1687096201.484963,0.009327157400548458,0.896601676940918,-0.4427395462989807,-0.29014986753463745,0.2272995114326477,0.08901011943817139,-0.15022142231464386,-1.2325226068496704,-2.6298727989196777,0.021063800080711355,-1.112034934974637,-2.572977188564076
1687096201.541157,-0.1409936398267746,0.8817087411880493,-0.4502336084842682,-0.11984001100063324,0.39931219816207886,0.07018283009529114,0.7310497760772705,-1.4464430809020996,-2.756653308868408,-0.3034829633714994,-1.0794717964643499,-2.859959656299699
1687096201.604651,-0.2861350476741791,0.8448811173439026,-0.4519984722137451,-0.13175731897354126,0.20445042848587036,0.07089477777481079,0.39651942253112793,-1.6349197626113892,-2.4650485515594482,-0.5643630532694097,-1.006342892275411,-3.072981039851618
1687096201.620494,-0.4173402190208435,0.793528139591217,-0.442876935005188,-0.14953890442848206,0.29727667570114136,-0.03894996643066406,0.03431965783238411,-1.5282683372497559,-2.133599281311035,-0.755720513292684,-0.9165850299844712,3.0733897445737064
1687096201.656431,-0.5260130167007446,0.7424023747444153,-0.41490837931632996,-0.04829716682434082,0.39579635858535767,-0.16135525703430176,0.622294008731842,-1.5464526414871216,-1.9803354740142822,-0.9029345811852234,-0.8366491392622704,2.9749768198931736
1687096201.7200131,-0.6206539869308472,0.6767309904098511,-0.39600974321365356,-0.15470600128173828,0.2997856140136719,-0.06434810161590576,0.5594961047172546,-1.3785126209259033,-1.4054830074310303,-1.0028660672516831,-0.7433132894371342,2.945110833901899
1687096201.74798,-0.693492591381073,0.617745578289032,-0.37075382471084595,-0.05745339393615723,0.26325106620788574,-0.15022721886634827,0.8545434474945068,-1.4814292192459106,-1.361688256263733,-1.0798391394908238,-0.6658726445707004,2.9369478155372835
1687096201.8104239,-0.752490758895874,0.5720745921134949,-0.3263254463672638,-0.07510006427764893,0.05702996253967285,-0.031829118728637695,-0.613818347454071,-1.4524487257003784,-0.8252127170562744,-1.161613187945622,-0.6090329764815063,2.9243920183615693
1687096201.84005,-0.7961157560348511,0.5504403710365295,-0.2514258325099945,-0.07311630249023438,0.1572011113166809,-0.11444962024688721,-0.32585662603378296,-1.3457505702972412,-0.8485863208770752,-1.2648936182080366,-0.5828916360252738,2.869771590784733
1687096201.898588,-0.8405115604400635,0.5084295868873596,-0.18718886375427246,-0.026935219764709473,0.1707085371017456,-0.05249643325805664,0.21954889595508575,-1.7566280364990234,-1.0905450582504272,-1.351664265555123,-0.5333600742563117,2.852133739000803
1687096201.9283571,-0.8767672181129456,0.4643225073814392,-0.12523426115512848,-0.10628014802932739,0.19380423426628113,-0.08336889743804932,0.49869024753570557,-1.4741603136062622,-1.003614902496338,-1.4289196126832082,-0.4828694919966472,2.8560398172781825
1687096201.9916449,-0.9097261428833008,0.4078488051891327,-0.077830009162426,-0.05375945568084717,0.43793052434921265,-0.2628379464149475,2.8105671405792236,-2.035019636154175,-0.9633918404579163,-1.4854509201014179,-0.42009676139743657,2.9376260502334675
1687096202.014636,-0.9241611957550049,0.37955135107040405,-0.043204355984926224,-0.16545355319976807,-0.10307744145393372,-0.14985013008117676,0.8959396481513977,-0.8481130599975586,-0.14582253992557526,-1.5240805376534723,-0.3893113178945318,3.0447485868152255
1687096202.085201,-0.9315881133079529,0.3627305328845978,-0.023873047903180122,0.05721384286880493,0.15239080786705017,-0.32949018478393555,1.1860800981521606,-0.9035810232162476,-0.36383119225502014,-1.545175749232187,-0.37119631539128545,3.1002701180029786
1687096202.141796,-0.9335209131240845,0.3582950234413147,-0.012763848528265953,-0.13827145099639893,-0.008060187101364136,-0.1758502721786499,0.3682667315006256,-0.13957345485687256,0.07777879387140274,-1.5571243749652721,-0.3664410302007692,3.13324230186391
1687096202.164931,-0.9325630068778992,0.36038199067115784,-0.021237986162304878,-0.02413254976272583,0.099822998046875,-0.18518316745758057,0.7033997774124146,0.08756247162818909,0.09215047955513,-1.5480264820325793,-0.36867737146453283,-3.1122187290846766
1687096202.230037,-0.9297134876251221,0.3667270839214325,-0.033819932490587234,-0.023869097232818604,-0.15249380469322205,0.002035621553659439,-0.04033700376749039,0.11508822441101074,0.09482835233211517,-1.5344356319734742,-0.375488548297501,-3.09861177921412
1687096202.35466,-0.9297738671302795,0.3660429120063782,-0.0391547791659832,-0.006017088890075684,-0.01974475383758545,0.006348129361867905,0.29261139035224915,0.1002940759062767,-0.0832466408610344,-1.5287090415616336,-0.37475324729799225,-3.092819891527228
1687096202.369921,-0.9305921792984009,0.36296215653419495,-0.047498855739831924,-0.023737967014312744,-0.030015558004379272,0.03129382058978081,0.06830611824989319,0.10745733231306076,-0.014471905305981636,-1.5197990426895873,-0.3714448825696715,-3.083891658514065
1687096202.472966,-0.9292559027671814,0.36606985330581665,-0.049759700894355774,-0.025776326656341553,-0.0497247576713562,0.018433213233947754,-0.3349268436431885,0.1318056583404541,0.09295901656150818,-1.5172995213672738,-0.3747822046943385,-3.08869563518996
1687096202.488406,-0.928352952003479,0.36865150928497314,-0.04750051349401474,0.0018700957298278809,-0.004973679780960083,0.008468277752399445,-0.2874125838279724,0.10792332142591476,0.03849364072084427,-1.519674471675093,-0.377557944654016,-3.104890728525834
1687096202.596689,-0.9291190505027771,0.3669716417789459,-0.04548904672265053,0.021190762519836426,0.007936686277389526,0.004656318575143814,-0.015703296288847923,0.035866860300302505,-0.030587226152420044,-1.5218760584550988,-0.37575144298904906,-3.1173908481122714
1687096202.602046,-0.9305155873298645,0.3628324270248413,-0.04993132874369621,0.016468405723571777,0.013708621263504028,0.0046735405921936035,0.25581157207489014,0.023914214223623276,-0.10569696128368378,-1.5171878891070387,-0.37130565466255994,-3.108321485369325
1687096202.685349,-0.9315424561500549,0.3598937690258026,-0.05201074853539467,0.0037470459938049316,-0.04617312550544739,0.04421328753232956,-0.029506992548704147,0.0009484450565651059,-0.06327999383211136,-1.5150213020711945,-0.36815402038896716,-3.1026831475408065
1687096202.702385,-0.9322497844696045,0.35833054780960083,-0.05009317398071289,0.008467555046081543,0.01366335153579712,0.006666421890258789,0.07370807230472565,-0.030677901580929756,-0.03924276679754257,-1.517114311475314,-0.36647908715508765,-3.101428221373243
1687096202.712522,-0.9332206845283508,0.3558357059955597,-0.04979817569255829,0.005288064479827881,0.007323354482650757,-0.01111513376235962,0.08679085224866867,-0.015404007397592068,-0.029851794242858887,-1.5174852598172088,-0.3638081581160921,-3.096145593405584
1687096202.799803,-0.9328823685646057,0.3567068576812744,-0.04990373179316521,0.003454446792602539,0.026547998189926147,-0.025688525289297104,-0.0535939522087574,-0.013204037211835384,0.045531176030635834,-1.5173531352993048,-0.3647404904031587,-3.093402923196346
1687096202.812881,-0.9308187961578369,0.3621426224708557,-0.049285005778074265,-0.023465752601623535,-0.013143688440322876,0.000792384147644043,-0.20080125331878662,0.07700985670089722,0.10348242521286011,-1.5178977115882535,-0.37056550290200757,-3.1028007795525703
1687096202.921667,-0.9294189214706421,0.36537814140319824,-0.051761191338300705,0.0016846060752868652,0.0038692057132720947,-0.008602797985076904,0.005155646242201328,0.04040251299738884,0.008125614374876022,-1.515161802470579,-0.37403898996551793,-3.1072559094611782
1687096202.935553,-0.9294885993003845,0.36470213532447815,-0.05516386032104492,-0.004593312740325928,0.0148143470287323,0.008181814104318619,0.18219779431819916,0.022948751226067543,0.018497496843338013,-1.511517243919929,-0.3733128754586733,-3.1015660239717646
1687096203.04511,-0.9290710687637329,0.36499083042144775,-0.060072485357522964,0.00927126407623291,-7.697939872741699e-05,0.011976532638072968,0.23795346915721893,-0.015498904511332512,-0.004470537416636944,-1.5062275518569674,-0.37362295066641166,-3.088752131019888
1687096203.0506868,-0.9291050434112549,0.3644401729106903,-0.06282591819763184,-0.0017420053482055664,-0.00900202989578247,0.011373043060302734,0.18401594460010529,0.004824276547878981,0.014547562226653099,-1.5032792836785842,-0.37303156320696923,-3.0773304889608823
1687096203.134661,-0.9285663962364197,0.36575841903686523,-0.06312605738639832,0.002678513526916504,-0.016225486993789673,0.015670962631702423,0.0754292756319046,-0.022002587094902992,0.033526711165905,-1.5029184886504705,-0.3744475598870668,-3.072656563752177
1687096203.150244,-0.9287111163139343,0.3650861084461212,-0.06486573815345764,-0.001937568187713623,0.013591170310974121,-0.004592537879943848,0.29016393423080444,-0.028277017176151276,-0.020688124001026154,-1.5010646687869864,-0.3737252871118252,-3.0620699093917945
1687096203.1614552,-0.9293996095657349,0.36295896768569946,-0.06690792739391327,-0.004285454750061035,-0.0232221782207489,-0.002077333629131317,0.08790245652198792,-0.0002950072521343827,-0.01622040383517742,-1.4989298246990401,-0.37144145877242396,-3.0512218930126473
1687096203.25247,-0.9291293621063232,0.3635633587837219,-0.06737881153821945,-0.004723608493804932,-0.021049439907073975,-0.007786214351654053,-0.011653161607682705,0.005124547518789768,0.008225083351135254,-1.498404830028752,-0.3720901627568627,-3.0502268214203823
1687096203.26656,-0.9297015070915222,0.3619602918624878,-0.06811446696519852,-0.0011913180351257324,-0.005820244550704956,-0.006821691989898682,0.0306418314576149,0.007408541161566973,-0.02577689103782177,-1.4976621126882632,-0.37036990950940246,-3.049189675568632
1687096203.372122,-0.9302375316619873,0.36040636897087097,-0.06902837753295898,-0.0018148422241210938,-0.00666201114654541,-0.01195024698972702,-0.035460490733385086,0.030707072466611862,-0.013248182833194733,-1.4967269718209806,-0.3687034881993511,-3.0492375647517966
1687096203.387648,-0.9305928945541382,0.35925933718681335,-0.07020959258079529,0.005040585994720459,0.004052311182022095,-0.008541226387023926,0.014596285298466682,0.024327469989657402,-0.03615030273795128,-1.4954929002041466,-0.3674741241974001,-3.0509277961235215
