Timestamp,gravityX,gravityY,gravityZ,accelerationX,accelerationY,accelerationZ,rotationRateX,rotationRateY,rotationRateZ,attitudeRoll,attitudePitch,attitudeYaw
1687100633.9691029,-0.8811923265457153,0.43704086542129517,0.1802656352519989,0.024914801120758057,0.06651446223258972,0.03418147563934326,-0.013273204676806927,0.079160176217556,-0.14378365874290466,-1.772582365538919,-0.45230605668525015,2.4809564998517835
1687100634.0898771,-0.8813990354537964,0.4359786808490753,0.1818193644285202,0.027685105800628662,0.0639144778251648,0.034885987639427185,-0.0872611477971077,-0.0004917788319289684,-0.010881803929805756,-1.7742277482470552,-0.4511254680360579,2.478490847851404
1687100634.092778,-0.8780720233917236,0.44077733159065247,0.1862918585538864,6.622076034545898e-05,0.06074848771095276,0.04059109091758728,-0.13979466259479523,-0.03857347369194031,0.13254939019680023,-1.779856492741764,-0.4564644806255992,2.4703273100730074
1687100634.212349,-0.8724530339241028,0.4484240710735321,0.1942722350358963,0.022065460681915283,0.029069244861602783,0.004259929060935974,-0.06282424926757812,-0.16208164393901825,0.18002291023731232,-1.7898953473826773,-0.46500140393117295,2.4618661637045958
1687100634.2150002,-0.8657335638999939,0.4575263261795044,0.20291608572006226,-0.0007213950157165527,-0.0004951655864715576,-0.004734903573989868,0.05468081310391426,-0.2076106071472168,0.17198042571544647,-1.8010266265387325,-0.475211267939751,2.459163636934294
1687100634.3011808,-0.8600893020629883,0.46499037742614746,0.20983436703681946,-0.02989482879638672,-0.07109999656677246,-0.021876588463783264,-0.03564455732703209,-0.1217314824461937,0.12579882144927979,-1.8100899188257946,-0.4836237472171721,2.457754717313473
1687100634.303134,-0.857827365398407,0.4673130512237549,0.21389426290988922,-0.009115934371948242,-0.079816073179245,-0.02674509584903717,0.06224338710308075,-0.0602828711271286,-0.0019291217904537916,-1.815157651242277,-0.48624909654431026,2.456465264883902
1687100634.331532,-0.8601587414741516,0.46390530467033386,0.2119404524564743,-0.014902234077453613,-0.07497403025627136,-0.019176140427589417,0.0767056867480278,0.003846976673230529,-0.11079049110412598,-1.81238097382409,-0.4823985096682005,2.463181143505566
1687100634.452636,-0.8649584650993347,0.4568093419075012,0.20777900516986847,-0.023896515369415283,-0.05934843420982361,-0.007751598954200745,0.04941680654883385,0.07204380631446838,-0.15807165205478668,-1.8065478851671297,-0.4744051330173737,2.468439873968783
1687100634.45606,-0.8699904084205627,0.44894349575042725,0.20387853682041168,-0.004521310329437256,-0.024367690086364746,0.0014895200729370117,0.01856142282485962,0.0454711876809597,-0.14754697680473328,-1.800988169131603,-0.46558261780667987,2.4732520641325104
1687100634.571167,-0.8742687702178955,0.4413442015647888,0.20216254889965057,-0.019942045211791992,0.003678441047668457,0.014115691184997559,0.012910461984574795,0.02368117868900299,-0.10707444697618484,-1.7980384357355836,-0.4570961128835822,2.4751182019420623
1687100634.573766,-0.8764256834983826,0.43727239966392517,0.20166993141174316,-0.0035028457641601562,0.012083649635314941,0.006871908903121948,0.02825186774134636,0.0034392469096928835,-0.06430208683013916,-1.796964437066721,-0.45256349315016053,2.477114173388423
1687100634.5985808,-0.877457320690155,0.4355086386203766,0.20100028812885284,-0.0021814703941345215,0.018074214458465576,0.007465392351150513,0.06910289078950882,-0.015971003100275993,-0.04300125688314438,-1.795982501252565,-0.4506032273467393,2.48001345407127
1687100634.692356,-0.8773549199104309,0.43560221791267395,0.201244056224823,-0.002299010753631592,-0.00278666615486145,0.013096198439598083,0.030574677512049675,-0.0027493182569742203,-0.0008903560228645802,-1.7962718635372064,-0.45070718533174103,2.481612100194472
1687100634.693109,-0.8764355182647705,0.4370461106300354,0.20211739838123322,-0.007429778575897217,-0.002246946096420288,-0.007598310708999634,0.019863976165652275,-0.021707873791456223,0.020717866718769073,-1.7974468018350176,-0.45231188691164487,2.4818663674861403
1687100634.748255,-0.8750445246696472,0.4393220543861389,0.20320725440979004,-0.0009167194366455078,-0.004828006029129028,-0.0004027038812637329,0.03241598606109619,-0.04567226022481918,0.055272847414016724,-1.7989769443472592,-0.4548438566067667,2.4837892693819175
1687100634.7800941,-0.8732337355613708,0.4424399137496948,0.20422977209091187,0.0014075636863708496,-0.018123477697372437,-0.00408017635345459,-0.03378567099571228,-0.04207561910152435,0.07475054264068604,-1.800544315953093,-0.45831756422263425,2.484078805530045
1687100634.900772,-0.8718536496162415,0.4442633390426636,0.20615938305854797,-0.009646773338317871,-0.019305944442749023,-0.013166040182113647,-0.028350956737995148,-0.012456429190933704,0.029100630432367325,-1.802992361682327,-0.46035182900444804,2.4809135676714096
1687100634.902642,-0.8724440932273865,0.4434243440628052,0.20546580851078033,-0.009361326694488525,-0.015064358711242676,-0.0032715797424316406,0.009049144573509693,0.027047615498304367,-0.024849550798535347,-1.8020877322717388,-0.45941556848055976,2.480442252722427
1687100634.993078,-0.8737285137176514,0.44135192036628723,0.20446814596652985,-0.006383180618286133,-0.021399497985839844,-0.0020601749420166016,-0.04184519499540329,0.017079491168260574,-0.018470747396349907,-1.8006774112043153,-0.45710470220105803,2.4801428052493937
1687100634.994834,-0.8746654391288757,0.4395914673805237,0.20425428450107574,-0.010695278644561768,-0.0006265938282012939,-0.0017243623733520508,0.00378008047118783,0.013708261772990227,-0.017255347222089767,-1.8002078830031258,-0.45514378850323334,2.4792042132112737
1687100635.02023,-0.8754796981811523,0.43832188844680786,0.20349334180355072,-0.008492588996887207,-0.00011989474296569824,-0.009462565183639526,0.013655615039169788,-0.0027097035199403763,-0.019688211381435394,-1.7991774617557346,-0.4537307926913521,2.480705227290707
1687100635.079304,-0.8763729929924011,0.4371955692768097,0.2020658403635025,-0.014053702354431152,-0.0019996464252471924,-0.012215971946716309,-0.008394027128815651,0.06331513822078705,-0.02828163467347622,-1.7974065801956431,-0.4524780658080806,2.4804759885052396
1687100635.112421,-0.8782137036323547,0.4355531930923462,0.19757020473480225,-0.013982892036437988,0.010537445545196533,-0.013091474771499634,0.06967174261808395,0.08945056051015854,-0.05607638135552406,-1.7920805573783734,-0.450652739896499,2.4822531880978023
1687100635.1698909,-0.8803216218948364,0.4339251220226288,0.19168470799922943,-0.003879547119140625,0.003529191017150879,-0.016574710607528687,0.1228145956993103,0.08308127522468567,-0.058269958943128586,-1.7851937050194846,-0.4488448914024658,2.4880575521062345
1687100635.198962,-0.882382869720459,0.43284285068511963,0.18451978266239166,0.0014777779579162598,0.007037520408630371,0.004506096243858337,0.10109065473079681,0.08815594762563705,-0.04507819190621376,-1.7769410633535352,-0.4476439673790108,2.4953079663529008
1687100635.259593,-0.8838528394699097,0.4323435127735138,0.17855946719646454,0.010287165641784668,0.004347801208496094,0.017760157585144043,0.10282783210277557,0.07307229936122894,-0.031883157789707184,-1.7701372665109405,-0.4470901188954901,2.5003212486211828
1687100635.289486,-0.8846016526222229,0.43255311250686646,0.17429159581661224,0.008716762065887451,0.003421008586883545,0.01761816442012787,0.061916887760162354,0.02681989222764969,-0.004450602922588587,-1.7653329013809353,-0.44732257509338613,2.506060229248679
1687100635.349369,-0.8840827345848083,0.4336998164653778,0.17407560348510742,0.013355135917663574,-0.008437305688858032,0.01755964756011963,0.057713087648153305,-0.014322862029075623,0.01946025714278221,-1.7652090290002673,-0.4485948213313087,2.5079247281341672
1687100635.469751,-0.8831934928894043,0.4349673092365265,0.17542201280593872,-0.003128528594970703,-0.02298000454902649,0.008980512619018555,-0.006156706251204014,-0.026216737926006317,0.024623792618513107,-1.7668669239377337,-0.4500019628274189,2.509556246446125
1687100635.471936,-0.8820961713790894,0.4360407292842865,0.17825418710708618,0.0008555054664611816,-0.016805559396743774,0.001875847578048706,0.005056000780314207,-0.06606108695268631,0.044757287949323654,-1.7701912890553009,-0.4511944079515246,2.5077734417225277
1687100635.592762,-0.8808772563934326,0.4370928108692169,0.18167412281036377,-0.017590880393981934,-0.013859719038009644,-0.007082924246788025,-0.003886627731844783,-0.06655830144882202,0.031593818217515945,-1.7741867976207883,-0.45236383533678426,2.5082019841635113
1687100635.618463,-0.8798028230667114,0.43810734152793884,0.18441618978977203,-0.016910552978515625,-0.01295161247253418,-0.010160669684410095,-0.09613879024982452,-0.027913793921470642,0.07516473531723022,-1.7774157425828776,-0.45349211257986405,2.505274077503862
1687100635.715874,-0.878018319606781,0.4402620494365692,0.187759131193161,0.00791633129119873,-0.005249232053756714,-0.030059456825256348,-0.06954952329397202,-0.04710743948817253,0.0802684798836708,-1.7814675033107725,-0.45589050573630585,2.4991887835374547
1687100635.720813,-0.8770191073417664,0.4415135383605957,0.18948210775852203,-0.018336236476898193,-0.014328420162200928,-0.027326911687850952,-0.03667253628373146,0.004377034492790699,0.03221885859966278,-1.783578197315622,-0.45728481379065716,2.4956587763568145
1687100635.769329,-0.8775564432144165,0.44137418270111084,0.1873054951429367,0.009270429611206055,0.0006729066371917725,-0.009281173348426819,0.011444924399256706,0.04605965316295624,-0.020438024774193764,-1.7810807748735464,-0.45712953565330583,2.4951161181468033
1687100635.8380132,-0.8790234923362732,0.43998444080352783,0.1836620271205902,0.0019024014472961426,0.004580467939376831,0.003105655312538147,0.023119689896702766,0.04140782356262207,-0.028818193823099136,-1.7767718174522849,-0.45558135540192246,2.497374293158663
1687100635.839342,-0.8797046542167664,0.4394869804382324,0.18158021569252014,0.007512092590332031,0.013729631900787354,0.01563967764377594,0.008055785670876503,0.01413363590836525,0.0007281140424311161,-1.774348094985185,-0.4550274487632255,2.4985895063446604
1687100635.8882232,-0.878627598285675,0.44128158688545227,0.18244028091430664,0.007518410682678223,0.005785733461380005,0.013253703713417053,-0.035807542502880096,-0.022184645757079124,0.06637570261955261,-1.775529360195574,-0.4570263313862029,2.4972259834346318
1687100635.9213572,-0.8766698837280273,0.4439926743507385,0.18525758385658264,0.01059633493423462,0.004371553659439087,0.011077269911766052,-0.033399246633052826,-0.04405638948082924,0.05493050068616867,-1.7790521157138417,-0.4600497272236078,2.4937507908140013
1687100635.97968,-0.8749735355377197,0.4460712671279907,0.18825970590114594,-0.015224158763885498,-0.01728406548500061,0.016696438193321228,-0.06106096878647804,-0.02785198576748371,0.05150873586535454,-1.7827258436109974,-0.46237086894760027,2.4901613706731327
1687100636.04124,-0.8739659786224365,0.4464304447174072,0.1920510083436966,-0.0008357763290405273,-0.03383272886276245,-0.019611328840255737,-0.07635949552059174,-0.03326759114861488,-0.005020519252866507,-1.787104860739346,-0.46277222347091324,2.486682091924688
1687100636.101554,-0.8746468424797058,0.44356435537338257,0.19556041061878204,0.010846614837646484,-0.07543075084686279,-0.041278690099716187,-0.23142896592617035,0.03396912291646004,-0.06142020970582962,-1.7907662576371381,-0.45957177311601044,2.4790417092776487
1687100636.1307201,-0.8781400918960571,0.43558141589164734,0.197836235165596,-0.027896404266357422,-0.07387173175811768,-0.03336164355278015,-0.6013766527175903,0.24890029430389404,-0.07490606606006622,-1.7923868356186132,-0.4506841020260981,2.458700337756852
1687100636.2204719,-0.8822826743125916,0.42617735266685486,0.19987522065639496,-0.0003314018249511719,0.059113144874572754,-0.03132656216621399,-0.9761670827865601,0.39953696727752686,0.07024327665567398,-1.7935792068703404,-0.44026296106661705,2.413549732976893
1687100636.223114,-0.8794203996658325,0.4297462999820709,0.20478810369968414,-0.06134510040283203,0.46409839391708374,-0.02926620841026306,-1.3174593448638916,0.5553081035614014,0.7098079919815063,-1.799586082763451,-0.44421178235615755,2.3509914100704847
1687100636.342972,-0.8598994612693787,0.4651779532432556,0.2101968675851822,0.07477360963821411,0.9790054559707642,0.1633535921573639,-0.8971433639526367,0.2148195207118988,1.5450763702392578,-1.8105385864943369,-0.48383561548306625,2.2690528660262377
1687100636.344829,-0.8054724335670471,0.5472143292427063,0.22753219306468964,-0.06308853626251221,1.1018335819244385,0.23908165097236633,0.5443479418754578,-0.8364619016647339,2.5244805812835693,-1.8461059472185897,-0.5790324307125494,2.2274312997867463
1687100636.464274,-0.697462797164917,0.6748294830322266,0.2411452978849411,-0.2812206745147705,0.9173031449317932,0.3995102643966675,1.514813780784607,-1.6388708353042603,3.473769187927246,-1.9036768013407,-0.740733604592136,2.2397619558953434
1687100636.466484,-0.5326212644577026,0.8134317398071289,0.2337588369846344,-0.6086902618408203,0.6135701537132263,0.4369564652442932,1.7382324934005737,-1.8010543584823608,4.13831901550293,-1.9843676624382944,-0.9500278730649093,2.2462899268877643
1687100636.553697,-0.32322630286216736,0.9246336221694946,0.20143771171569824,-0.8070532083511353,0.4579193592071533,0.5076839923858643,1.653348445892334,-1.7021615505218506,4.413826942443848,-2.1281070726061966,-1.1800725345123586,2.1865779376624173
1687100636.556706,-0.09422837197780609,0.9865462183952332,0.13359615206718445,-0.9181464910507202,0.4949144721031189,0.4601844549179077,1.896092414855957,-1.5243901014328003,4.446432590484619,-2.5273034482654437,-1.4065767699577167,1.861566360054772
1687100636.582501,0.1315360963344574,0.9905893206596375,0.037828925997018814,-0.94412761926651,0.49387723207473755,0.4800543785095215,1.9647399187088013,-1.1840438842773438,4.355474948883057,1.8508325067593008,-1.4334974098496371,0.015202762231472346
1687100636.6384,0.33691298961639404,0.9388924837112427,-0.07050199061632156,-0.985228419303894,0.2714346647262573,0.5534427165985107,1.9662365913391113,-0.6583505272865295,4.080470085144043,1.3645141826425444,-1.2193985319877598,-0.43554653668131876
1687100636.673234,0.5116797685623169,0.844035267829895,-0.1605868935585022,-1.0813820362091064,0.14389491081237793,0.4826389253139496,1.4978246688842773,0.08304569870233536,3.800295352935791,1.266688814076554,-1.0047637097320552,-0.527880438009277
1687100636.761805,0.6632570624351501,0.7249607443809509,-0.18580083549022675,-1.0794405937194824,-0.11247295141220093,0.4984382390975952,0.44517478346824646,0.581731379032135,3.73081111907959,1.297663399251042,-0.8109774307458304,-0.5110478995056403
1687100636.7927852,0.7880890369415283,0.5916420221328735,-0.16992735862731934,-0.8790619969367981,-0.1801583170890808,0.33595824241638184,-0.3185122311115265,0.1788940131664276,3.449540138244629,1.3584281241971723,-0.6330940878397624,-0.45921347797997697
1687100636.885559,0.8756324648857117,0.4601559340953827,-0.1467115730047226,-0.8933936953544617,-0.24917271733283997,0.2708876132965088,-1.1494487524032593,-0.18865390121936798,3.0954906940460205,1.4047890386219113,-0.47817082174689957,-0.37301725656540463
1687100636.891315,0.9247157573699951,0.3412097692489624,-0.16875006258487701,-0.6141689419746399,-0.04818001389503479,0.1323426514863968,-0.3333910405635834,-1.271378755569458,2.4916927814483643,1.3902939639044127,-0.3482036065050424,-0.31675531725117845
1687100637.000465,0.9463954567909241,0.23667137324810028,-0.21982352435588837,-0.6737513542175293,-0.368217408657074,0.24046874046325684,-2.067261219024658,-1.6624939441680908,2.4584667682647705,1.3425688015961277,-0.23893846105523991,-0.22140794337981584
1687100637.003715,0.9427084922790527,0.15045315027236938,-0.29776591062545776,-0.47905492782592773,-0.135835200548172,0.03592514991760254,-1.3337751626968384,-2.149155378341675,2.075822114944458,1.2648513886531636,-0.15102661757691987,-0.11597356042536638
1687100637.124929,0.9131877422332764,0.09179361909627914,-0.39706671237945557,-0.41433221101760864,-0.16817912459373474,0.14895889163017273,-1.7469396591186523,-2.46571683883667,1.5804238319396973,1.1606426877058291,-0.09192302333824871,-0.008015471796740293
1687100637.12681,0.8628109693527222,0.0709589347243309,-0.5005218386650085,-0.3732326626777649,-0.204793781042099,-0.06910395622253418,-6.5867767333984375,-2.5131568908691406,1.5874260663986206,1.045133182925558,-0.07101861683538505,0.11421483671672
1687100637.214155,0.8905361294746399,0.12076882272958755,-0.4385891854763031,0.7774784564971924,1.1317946910858154,1.261907696723938,1.0864390134811401,-0.9411078095436096,-1.275351881980896,1.1131665585697434,-0.12106433497791554,0.217597253181105
1687100637.2233691,0.870503306388855,0.10010188072919846,-0.48187509179115295,0.17057335376739502,0.19814640283584595,-0.23777520656585693,2.4772908687591553,-0.7827688455581665,-0.15916122496128082,1.0652246605041547,-0.10026981250570571,0.15087788538614721
1687100637.2417889,0.8674871325492859,0.05575743317604065,-0.49432501196861267,0.04491215944290161,-0.09262266755104065,-0.14274463057518005,1.1502048969268799,0.5821847319602966,-0.31359347701072693,1.0528519212327632,-0.055786363850865994,0.04679239820764416
1687100637.365922,0.8820094466209412,0.067161425948143,-0.4664212465286255,-0.07825267314910889,-0.1072462797164917,-0.2417696714401245,0.9259869456291199,0.44733989238739014,-0.8637809753417969,1.084362065468722,-0.06721202193359554,0.006405112527763684
1687100637.373159,0.8900315165519714,0.0718032568693161,-0.45020925998687744,-0.25261080265045166,-0.1089889407157898,-0.37841928005218506,1.7877928018569946,0.6969083547592163,-0.9156802892684937,1.1024914702742288,-0.07186510322032118,-0.08158787465620256
1687100637.4849482,0.9063188433647156,0.08503401279449463,-0.4139508306980133,-0.36187005043029785,-0.17579329013824463,-0.39597034454345703,1.2022508382797241,1.2173869609832764,-1.2584296464920044,1.1423526953275678,-0.08513682193969051,-0.18526822249198255
1687100637.487554,0.9254671335220337,0.13358920812606812,-0.35449180006980896,-0.36464565992355347,-0.2321915179491043,-0.27476534247398376,1.0502392053604126,1.582791805267334,-1.6574513912200928,1.2049947787755746,-0.13398976825196093,-0.2547951987159012
1687100637.5075989,0.9358787536621094,0.20197713375091553,-0.2886800765991211,-0.3867301940917969,-0.2515071630477905,-0.2349405288696289,1.314792513847351,1.6451563835144043,-2.0852391719818115,1.2715973109319358,-0.20337624669928578,-0.34803931892821866
1687100637.6079478,0.9284735918045044,0.2917776107788086,-0.22978819906711578,-0.5234595537185669,-0.23913484811782837,-0.060647591948509216,1.3729368448257446,1.5312846899032593,-2.437533378601074,1.3281811359586917,-0.29608480483201943,-0.444015256418967
1687100637.610896,0.8988983035087585,0.39144212007522583,-0.19686244428157806,-0.5247833728790283,-0.1300438642501831,0.025231629610061646,1.1342037916183472,0.9292780160903931,-2.464015245437622,1.3551961063872773,-0.4021982348910036,-0.5465885777676541
1687100637.6273499,0.8542377948760986,0.4912862479686737,-0.17004558444023132,-0.6365254521369934,-0.11009123921394348,0.1309068351984024,0.5258877277374268,0.8879330158233643,-2.432528495788574,1.3743036350438773,-0.5135658856759944,-0.6144760548917985
1687100637.690831,0.791359543800354,0.5918533205986023,-0.15316680073738098,-0.6708912253379822,-0.15027916431427002,0.17896948754787445,0.4905792772769928,0.6111077070236206,-2.593628168106079,1.379611339163315,-0.6333561481078137,-0.665402240807981
1687100637.718251,0.7008686661720276,0.6982163786888123,-0.14586742222309113,-0.6737537384033203,-0.00798499584197998,0.1907588243484497,-0.09398536384105682,0.5361847281455994,-3.172882080078125,1.3656018026258239,-0.7729029397113344,-0.7280648203760243
1687100637.751868,0.5814821720123291,0.8083947896957397,-0.09152253717184067,-0.6500246524810791,-0.18858277797698975,0.27354466915130615,-1.3136183023452759,0.9906042218208313,-3.4027326107025146,1.414681810987283,-0.9414200360288096,-0.7138256089215583
1687100637.811327,0.4279775023460388,0.9035366773605347,0.02137347124516964,-0.749968409538269,-0.07298552989959717,0.3456615209579468,-1.8769841194152832,2.0740203857421875,-3.8611443042755127,1.6206955131333647,-1.127952460839887,-0.5708488335549793
1687100637.934207,0.22636015713214874,0.9643369913101196,0.13716867566108704,-0.6931112408638,0.053271591663360596,0.15021537244319916,-1.5010653734207153,2.3737566471099854,-4.342749118804932,2.1155978753785485,-1.302926936502858,-0.1549419369151886
1687100637.9375072,-0.017401590943336487,0.970748245716095,0.2394685298204422,-0.6722346544265747,0.2252204418182373,0.46991264820098877,-1.6959326267242432,2.5019443035125732,-4.518956184387207,-3.06905261469173,-1.3283277448775197,0.8326073102835382
1687100638.054486,-0.2655017673969269,0.9247123599052429,0.27279314398765564,-0.9645702838897705,0.19619840383529663,0.4248235523700714,-0.23081378638744354,3.114393472671509,-4.597195148468018,-2.3697389523574497,-1.1802793040726869,1.428918415306798
1687100638.058445,-0.5169281959533691,0.833310067653656,0.19590726494789124,-0.7318815588951111,0.579348623752594,0.3598790168762207,0.9345159530639648,1.906322717666626,-5.160323619842529,-1.9330548160859535,-0.9850686640059308,1.7921018624137324
1687100638.1723309,-0.7254927158355713,0.6789366602897644,0.112717404961586,-0.6794144511222839,0.6420166492462158,0.36350953578948975,0.4333530068397522,1.6969702243804932,-4.900840759277344,-1.7249306993600764,-0.7463133993970059,1.9259978693683297
1687100638.175869,-0.860964298248291,0.506862223148346,0.04278993606567383,-0.5059179067611694,0.9513896703720093,0.35192441940307617,-0.08539213985204697,1.1492594480514526,-3.637397527694702,-1.6204554762684464,-0.5315408537551533,1.9724843291550713
1687100638.2650042,-0.9315635561943054,0.3635515868663788,-0.004450570791959763,-0.5111703276634216,1.2704359292984009,0.24500542879104614,0.5969864130020142,0.8371444940567017,-2.6284189224243164,-1.5660188353795839,-0.3720775182680471,1.9868692484325878
1687100638.275419,-0.9624742269515991,0.2693060338497162,-0.03342871740460396,0.15444517135620117,1.223476529121399,0.26330244541168213,0.3972213566303253,0.13035476207733154,-1.326656460762024,-1.5360782171082064,-0.272672366729276,2.00554628717595
1687100638.2906818,-0.9697000980377197,0.24238543212413788,-0.030517002567648888,0.07330721616744995,1.2584080696105957,0.21978706121444702,1.1828798055648804,-0.693561851978302,0.23772141337394714,-1.5393361516860151,-0.24482384646046004,2.0495486274155748
1687100638.3866239,-0.9602429866790771,0.2791604995727539,0.0017840879736468196,0.0317913293838501,0.6837606430053711,0.09524655342102051,0.1993328034877777,-0.8209919929504395,1.1317352056503296,-1.5726542793305556,-0.2829197359550033,2.0840525299441
1687100638.390154,-0.9386574625968933,0.34300610423088074,0.035620804876089096,-0.04826563596725464,0.3570060729980469,0.06171511858701706,0.16618363559246063,-0.7021377682685852,1.46376371383667,-1.6087267979552289,-0.350115273451268,2.0897474574139183
1687100638.504107,-0.9086882472038269,0.4130045175552368,0.06093538925051689,-0.12117326259613037,-0.029505372047424316,-0.031073808670043945,0.43116334080696106,-0.6077538132667542,1.4954992532730103,-1.6377547114278892,-0.42575063956812687,2.1032677943376696
1687100638.508103,-0.875085175037384,0.47727370262145996,0.08022426813840866,-0.14696389436721802,-0.3161713480949402,-0.07109951227903366,0.276089072227478,-0.5110780596733093,1.1976077556610107,-1.662216739274758,-0.4975496467624495,2.116689788790203
1687100638.627049,-0.8491603136062622,0.5198888182640076,0.09296318143606186,-0.14220303297042847,-0.37967586517333984,0.0005121082067489624,-0.0934378132224083,-0.27343273162841797,0.7415127754211426,-1.6798386764556907,-0.5467207707630432,2.1177189571884476
1687100638.635756,-0.8367806673049927,0.5380114316940308,0.10169454663991928,-0.07516080141067505,-0.42830079793930054,-0.12893152236938477,-0.006590535398572683,-0.05929594859480858,0.14262738823890686,-1.6917339562694098,-0.5680762623443618,2.1119085963749558
1687100638.71658,-0.8374562859535217,0.5366458296775818,0.10333626717329025,-0.04712629318237305,-0.2991885542869568,0.0036431550979614258,-0.1670137643814087,0.02827848307788372,-0.16171911358833313,-1.6935687631137022,-0.5664570397870793,2.1063094631795134
1687100638.720285,-0.8450824022293091,0.5235264301300049,0.10842391103506088,-0.04590874910354614,-0.26003772020339966,-0.016276009380817413,-0.3264375329017639,0.0857352763414383,-0.39962974190711975,-1.6983990371443973,-0.5509846606809353,2.0929833921064724
1687100638.7412891,-0.8590168952941895,0.49929574131965637,0.11311084032058716,-0.031074166297912598,-0.1954779326915741,-0.06899760663509369,-0.4103987514972687,0.17875131964683533,-0.5945449471473694,-1.7017179004386738,-0.5227857645393832,2.076594129584583
1687100638.832289,-0.8754116892814636,0.4696415960788727,0.11441737413406372,-0.007309317588806152,-0.05365648865699768,-0.008933305740356445,-0.4701369106769562,0.24741637706756592,-0.6381441354751587,-1.7007608331536006,-0.4888847857556584,2.054321695803614
1687100638.892751,-0.8913657069206238,0.43915751576423645,0.11228525638580322,-0.02007228136062622,0.09610557556152344,-0.009807109832763672,-0.2732400894165039,0.24877877533435822,-0.5990279316902161,-1.6961061916086402,-0.45466070538162473,2.0364298133891445
1687100638.9540539,-0.9031383991241455,0.41523417830467224,0.10918629169464111,0.04100155830383301,0.19705528020858765,0.04039573669433594,0.003312162822112441,0.07845339924097061,-0.4382985830307007,-1.6911089510127144,-0.42820019290830397,2.0326710028204498
1687100638.957272,-0.9099171757698059,0.4003819227218628,0.10837551951408386,0.04848217964172363,0.2239162027835846,0.0443040132522583,0.012145602144300938,-0.07578519731760025,-0.2040046602487564,-1.689342691124971,-0.4119335870641363,2.0360479728766343
1687100639.0120091,-0.9109012484550476,0.3970319926738739,0.11235964298248291,0.017697393894195557,0.18994316458702087,0.029501333832740784,-0.0028778223786503077,-0.08561332523822784,0.015589484944939613,-1.6935263501631428,-0.4082807793880677,2.0368165442638455
1687100639.037647,-0.9090441465377808,0.40064236521720886,0.11456360667943954,0.016572654247283936,0.1661454439163208,0.02253665030002594,0.08047912269830704,-0.017468299716711044,0.15217123925685883,-1.696161856952443,-0.41221783242279664,2.0395335427703998
1687100639.101042,-0.9024361968040466,0.4141369163990021,0.1187412440776825,-0.0014181137084960938,0.06500428915023804,0.03067290037870407,-0.20025214552879333,-0.14542697370052338,0.3726593852043152,-1.7016233270023757,-0.426994389278006,2.036405729404722
1687100639.1357021,-0.8928821682929993,0.43068331480026245,0.13142827153205872,-0.005891025066375732,0.09049585461616516,0.04835079610347748,-0.4097348153591156,-0.08455789089202881,0.4489747881889343,-1.716942411389844,-0.44524977966515866,2.013845462050292
1687100639.192637,-0.8796073198318481,0.45360833406448364,0.14328552782535553,-0.01567178964614868,0.23135876655578613,0.03196169435977936,-0.2954692244529724,-0.17241136729717255,0.713164746761322,-1.7322751376986252,-0.47081004536042675,1.9934139731146538
1687100639.224164,-0.855686604976654,0.4912095069885254,0.16283084452152252,-0.03553366661071777,0.4374251961708069,0.10755492746829987,-0.7549721002578735,-0.11141707748174667,1.1938492059707642,-1.7588406766578335,-0.5134777909890447,1.9495138887473682
1687100639.28427,-0.8163179755210876,0.5475661158561707,0.18383730947971344,-0.04472017288208008,0.7671921253204346,0.17187556624412537,-0.10174182057380676,-0.5690912008285522,1.7445799112319946,-1.79230403437626,-0.5794527412853827,1.910084628833824
1687100639.3120131,-0.74361252784729,0.6311342120170593,0.22070416808128357,-0.2414644956588745,0.6433714628219604,0.2926473915576935,-0.10184381902217865,-1.033950924873352,2.615492820739746,-1.8593147304891733,-0.6830146004563641,1.8689276624854283
1687100639.374412,-0.6220890283584595,0.7385966181755066,0.2597696781158447,-0.2998470067977905,0.6941273808479309,0.25854095816612244,1.1502760648727417,-2.083630084991455,3.2288155555725098,-1.9663623043567242,-0.830986229173117,1.8279183398748193
1687100639.4953609,-0.44787171483039856,0.8513560891151428,0.27313682436943054,-0.5979199409484863,0.5643848776817322,0.40264439582824707,0.8796982765197754,-2.198183536529541,3.9468302726745605,-2.1184306640283173,-1.0185650076195527,1.7815942413127503
1687100639.505485,-0.22817526757717133,0.9309583902359009,0.2850479781627655,-0.6786545515060425,0.5195878148078918,0.4677748382091522,0.4818883240222931,-2.2505440711975098,4.3799943923950195,-2.4665589554405445,-1.197028914734092,1.5198532461398857
1687100639.6148028,0.015810376033186913,0.9629240036010742,0.2693091928958893,-0.7746604681015015,0.5354127883911133,0.5114372968673706,0.6797526478767395,-2.21150279045105,4.429044246673584,3.0829528075888804,-1.2976391976882742,0.8669821433605309
1687100639.626724,0.2520369589328766,0.9427506327629089,0.21840116381645203,-0.8735579252243042,0.5335831642150879,0.6324441432952881,0.8547478914260864,-2.1378867626190186,4.280685901641846,2.284817080558933,-1.2307842690651112,0.14759598939285865
1687100639.7338781,0.46102696657180786,0.8779764175415039,0.12888632714748383,-1.1553170680999756,0.3536672592163086,0.6604814529418945,1.4221080541610718,-1.6409095525741577,4.041082859039307,1.84340023786515,-1.0716184374666768,-0.22636322611066634
1687100639.737087,0.629047155380249,0.7761480808258057,0.04351956024765968,-1.251666784286499,0.028798818588256836,0.5201554298400879,0.5415079593658447,-0.9866361618041992,3.769977331161499,1.6398695709641045,-0.8885338305507161,-0.386801174831992
1687100639.826246,0.7585441470146179,0.6515575647354126,0.009133148938417435,-1.1912834644317627,-0.18833130598068237,0.29167866706848145,-0.46011754870414734,-1.055172324180603,3.371807098388672,1.5828361097945731,-0.7096358445172402,-0.40384460568249486
1687100639.831204,0.8535380363464355,0.5207729935646057,-0.016377944499254227,-1.085029125213623,-0.2670193910598755,0.20665502548217773,-1.5563437938690186,-1.4601637125015259,3.132162570953369,1.5516103802918393,-0.547756193173714,-0.3448155474592859
1687100639.851589,0.9140726327896118,0.4002426564693451,-0.06539831310510635,-0.7985941767692566,-0.09550943970680237,0.02719033509492874,-0.48192912340164185,-2.1300549507141113,2.3387508392333984,1.4993719503073843,-0.41178163333715645,-0.27040577917988723
1687100639.944165,0.9415132999420166,0.2988894283771515,-0.15562093257904053,-0.7375185489654541,-0.3258059322834015,0.0423855185508728,-1.3315134048461914,-2.1163206100463867,2.1902740001678467,1.4069892712754395,-0.30352868535661653,-0.22218435457854185
1687100639.956187,0.944570779800415,0.22182439267635345,-0.2420334666967392,-0.5298672914505005,-0.06993836164474487,-0.171906977891922,-0.833461582660675,-2.220320463180542,1.6295398473739624,1.3199567254340405,-0.22368507824100287,-0.13897149347243534
1687100640.063926,0.9290581941604614,0.1616266369819641,-0.33275777101516724,-0.45745474100112915,-0.2347773015499115,-0.164861798286438,-0.9868844151496887,-1.9735184907913208,1.4397573471069336,1.2268646039093745,-0.16233874382945537,-0.07495404164530557
1687100640.076025,0.9054773449897766,0.12804506719112396,-0.40461763739585876,-0.35036253929138184,-0.29404541850090027,-0.24519312381744385,-1.4736140966415405,-1.5343133211135864,1.0061596632003784,1.1505603342754105,-0.12839757405499144,0.011726113939030515
1687100640.1892939,0.8756510615348816,0.12278587371110916,-0.4670748710632324,-0.2777658700942993,-0.15093836188316345,-0.24442720413208008,-1.340063452720642,-1.6219652891159058,0.7452573180198669,1.0807847865716171,-0.12309651275979429,0.09638791351006719
1687100640.192648,0.8836315274238586,0.14937196671962738,-0.44371548295021057,-1.8234965801239014,-0.03197088837623596,-3.8239388465881348,-0.9976614117622375,-0.4518119990825653,-1.245320439338684,1.1054302733250292,-0.14993308142535092,0.19711716688870728
1687100640.276115,0.8621512651443481,0.15723943710327148,-0.48163357377052307,0.04933243989944458,-0.19958259165287018,0.17011019587516785,1.044313907623291,-1.0377839803695679,-0.002451700856909156,1.0613427019337707,-0.15789469402734496,0.16882246623777786
1687100640.281147,0.8519794940948486,0.14560538530349731,-0.5029215812683105,0.006449460983276367,-0.13582450151443481,-0.22203874588012695,0.2833248972892761,0.05324210971593857,-0.39918479323387146,1.0375413824975732,-0.14612485150810794,0.13068064323484588
1687100640.3005362,0.8558499217033386,0.16465941071510315,-0.49031439423561096,-0.06057709455490112,-0.04399292171001434,-0.23792651295661926,0.3155438005924225,0.3621818721294403,-0.43315741419792175,1.050543485448547,-0.1654127012125244,0.1204696668348106
1687100640.3947039,0.8619396090507507,0.15911351144313812,-0.4813968241214752,-0.1342175006866455,0.04776512086391449,-0.3805873692035675,1.571964144706726,0.51398766040802,-0.6313446760177612,1.0614474955854205,-0.1597926585900789,0.05739900141651202
1687100640.407645,0.8729406595230103,0.15719038248062134,-0.46180734038352966,-0.2379765510559082,-0.06490525603294373,-0.28959643840789795,1.0196423530578613,0.8771175742149353,-0.684965968132019,1.084199303100138,-0.15784502197071493,-0.019368460948238582
1687100640.51439,0.8883359432220459,0.16599100828170776,-0.428142786026001,-0.1990506649017334,-0.16394634544849396,-0.34032025933265686,1.274887204170227,0.9498432278633118,-0.9050993919372559,1.1216842352581389,-0.1667628770568765,-0.0853905910157036
1687100640.5270581,0.901390790939331,0.1921638399362564,-0.38803067803382874,-0.39473795890808105,-0.1563819944858551,-0.3016360402107239,0.9127241373062134,1.3628162145614624,-1.231431245803833,1.164293276942417,-0.1933666122776231,-0.16343139693540637
1687100640.607425,0.9111010432243347,0.23543187975883484,-0.33832958340644836,-0.25408804416656494,-0.19470620155334473,-0.21632736921310425,1.2562109231948853,1.3483034372329712,-1.5238767862319946,1.2152370125455343,-0.23766291944837045,-0.23934812488696872
1687100640.634359,0.9116610288619995,0.29358020424842834,-0.2875499725341797,-0.39759236574172974,-0.20883288979530334,-0.1639728546142578,1.0350732803344727,1.4310393333435059,-1.865794062614441,1.265259599043693,-0.29796993145876605,-0.3297107823181602
1687100640.725185,0.8980017304420471,0.3725561201572418,-0.23408296704292297,-0.5020819306373596,-0.2207769751548767,-0.0006124228239059448,0.9630123376846313,1.5138726234436035,-2.127368211746216,1.3157999047817595,-0.38176190544127275,-0.4043342750102003
1687100640.730842,0.8673614263534546,0.46021679043769836,-0.18943317234516144,-0.5032713413238525,-0.11378121376037598,0.05170735716819763,0.3912353813648224,1.3117611408233643,-2.1294167041778564,1.3557710959450355,-0.4782393841318622,-0.4742420477528219
1687100640.7815619,0.8242278695106506,0.5489487051963806,-0.1389385312795639,-0.5550474524497986,-0.13244473934173584,0.0742717832326889,0.3601283133029938,1.3042645454406738,-2.224764347076416,1.4037981669828474,-0.5811059397750709,-0.5127505318985789
1687100640.8453112,0.7572817206382751,0.6440904140472412,-0.10803711414337158,-0.47474998235702515,-0.10920882225036621,0.20995056629180908,0.311919242143631,0.8547500371932983,-2.6749165058135986,1.4290881991353515,-0.6998336110421347,-0.5607473189682816
1687100640.8587961,0.66428142786026,0.7440235614776611,-0.07182847708463669,-0.6979575157165527,-0.11311835050582886,0.12448655813932419,-0.12557311356067657,1.1197481155395508,-2.960824966430664,1.4630852312274716,-0.8390722806965125,-0.5861086695173979
1687100640.900856,0.5444687604904175,0.8384730219841003,-0.022738564759492874,-0.5167282819747925,-0.08478033542633057,0.24043571949005127,-1.1465959548950195,1.0943015813827515,-3.0832462310791016,1.5290577378503545,-0.99447503125667,-0.5644301339293433
1687100640.9332352,0.39959466457366943,0.914076030254364,0.0692036971449852,-0.6731389760971069,0.08972340822219849,0.17371630668640137,-0.3902742862701416,1.7739627361297607,-3.495567798614502,1.742280132038293,-1.1532236695706715,-0.4284508799595997
1687100640.992866,0.21631932258605957,0.9674139022827148,0.13159151375293732,-0.6671555042266846,-0.15358638763427734,0.28334081172943115,-1.4040216207504272,2.6083128452301025,-3.8620622158050537,2.1173114948064073,-1.31480952314491,-0.13674183284597896
1687100641.0531821,-0.006942249834537506,0.9778148531913757,0.20935644209384918,-0.5611577033996582,0.29890334606170654,0.229059100151062,-0.8715226650238037,2.52078914642334,-4.136154651641846,-3.1084448451815003,-1.359762276344459,0.8062301784318325
1687100641.083229,-0.23774482309818268,0.9426260590553284,0.23437927663326263,-0.7455010414123535,0.1586923599243164,0.49927854537963867,-0.548640251159668,2.791382074356079,-4.229243755340576,-2.349066100674436,-1.2304109567430945,1.4406602358270786
1687100641.144575,-0.4603806734085083,0.8667119741439819,0.19198966026306152,-0.8022688627243042,0.34303534030914307,0.3225826025009155,-0.07646655291318893,2.576472043991089,-4.20412015914917,-1.965891655259471,-1.0485722812600617,1.7244483581823324
1687100641.170807,-0.6501432657241821,0.7501130700111389,0.12101355195045471,-0.42709672451019287,0.5381712913513184,0.4534342288970947,0.862089991569519,1.4689823389053345,-4.214027404785156,-1.754824015220073,-0.8482330303638362,1.8520762900328194
1687100641.2014189,-0.7864980697631836,0.6148059964179993,0.05860477685928345,-0.4540109634399414,0.6271069049835205,0.29909181594848633,-0.09109609574079514,1.022835612297058,-3.335059642791748,-1.6451724435532005,-0.6621399529449828,1.9169687801459578
1687100641.268773,-0.8686612248420715,0.4947264492511749,0.025953438133001328,-0.31397122144699097,0.7207276821136475,0.5124987363815308,0.29803434014320374,0.6753982305526733,-2.531414747238159,-1.600664955382106,-0.5175200233997711,1.927483220988409
1687100641.3278031,-0.9210925698280334,0.3893435001373291,-8.26216273708269e-05,0.029704749584197998,1.145263433456421,0.17656582593917847,0.48732197284698486,0.16163872182369232,-1.9003002643585205,-1.570706627203414,-0.3999187300565571,1.9529068610999503
1687100641.390966,-0.9422155618667603,0.33481207489967346,-0.011429481208324432,0.08931034803390503,1.1282615661621094,0.2456977367401123,0.4863472580909729,-0.07505740225315094,-0.447001188993454,-1.5586664901023168,-0.34140580194794734,1.9788241346082547
1687100641.507071,-0.937928318977356,0.34681686758995056,0.0028944360092282295,0.19549673795700073,0.978164792060852,0.14423084259033203,0.1574798971414566,-0.6835075616836548,0.8774634003639221,-1.5738823054268993,-0.35417518091009803,1.9968819521533678
1687100641.512403,-0.9117851853370667,0.4084165394306183,0.0429421104490757,0.0052146315574646,0.6279757618904114,0.16645431518554688,0.0641600638628006,-1.0634618997573853,1.6947386264801025,-1.6178582912566208,-0.4207186492911103,1.9992579803211985
1687100641.624673,-0.8656647205352783,0.491570383310318,0.0947786271572113,-0.09232771396636963,0.24866396188735962,0.08857105672359467,0.056997496634721756,-1.2507479190826416,1.881441354751587,-1.6798484938645313,-0.5138921322653679,1.9936669314067983
1687100641.629974,-0.8110998868942261,0.5677696466445923,0.14055144786834717,-0.18922054767608643,0.0023139119148254395,0.04583476483821869,0.08985158056020737,-1.061023235321045,1.681573510169983,-1.7423774740671032,-0.6037939198945167,1.9833481812942995
1687100641.747467,-0.7559869885444641,0.6308269500732422,0.17475958168506622,-0.21795088052749634,-0.21462827920913696,-0.07806457579135895,-0.015930240973830223,-0.7980150580406189,1.5064611434936523,-1.7979732183150567,-0.6826185236644116,1.9680133272936409
1687100641.760913,-0.7053641080856323,0.6798674464225769,0.2006044089794159,-0.16511940956115723,-0.31939375400543213,-0.11617740988731384,0.17634493112564087,-0.664077639579773,1.1053800582885742,-1.8478789690274515,-0.7475818602588478,1.9482152012441694
1687100641.8369,-0.6706064939498901,0.712080180644989,0.20791590213775635,-0.16452234983444214,-0.38345158100128174,-0.1384272575378418,0.31663623452186584,-0.439806193113327,0.5872839689254761,-1.8714399459718776,-0.7924565685318149,1.9539626712919664
1687100641.8419461,-0.6538877487182617,0.7256817817687988,0.21404923498630524,-0.11611664295196533,-0.44974178075790405,-0.1063220202922821,-0.044758159667253494,-0.21080626547336578,0.16377748548984528,-1.8871509814491656,-0.8120248026569912,1.95198972641624
1687100641.86172,-0.6550382971763611,0.7233012914657593,0.2185412496328354,-0.14249283075332642,-0.3785746693611145,-0.10338306427001953,-0.09937639534473419,0.08994480222463608,-0.2508374750614166,-1.892814991530538,-0.808571186905475,1.9497603065426417
1687100641.9554439,-0.6714727878570557,0.7086247205734253,0.2167385071516037,-0.03713017702102661,-0.20949441194534302,-0.11232253909111023,-0.0474223867058754,0.11306039988994598,-0.5457829236984253,-1.8830196913452877,-0.7875471605056936,1.9552260886970383
1687100641.961214,-0.6948965787887573,0.6883577704429626,0.2080448716878891,-0.05876559019088745,0.02033674716949463,-0.058615416288375854,0.14116697013378143,0.3006681799888611,-0.6363370418548584,-1.8616931295383834,-0.7592226347153652,1.9694804431588502
1687100642.162328,-0.7177295684814453,0.668646514415741,0.19436170160770416,0.04265016317367554,0.2250455617904663,-0.07032284140586853,-0.07857178151607513,0.3794683516025543,-0.4572041630744934,-1.8352543503753365,-0.7323870760007398,1.9841859794105916
1687100642.1770349,-0.7325219511985779,0.6567883491516113,0.17899908125400543,0.020440101623535156,0.28545713424682617,0.0014513581991195679,0.16134946048259735,0.46017956733703613,-0.16552157700061798,-1.8104597821587824,-0.7165517191273695,1.9875900291977262
1687100642.22455,-0.7351959347724915,0.6586331725120544,0.1602793186903,0.06702876091003418,0.20481592416763306,0.023970603942871094,0.07376076281070709,0.18521150946617126,0.16439174115657806,-1.7854467498622544,-0.7190008519512302,2.001636824529674
1687100642.228558,-0.727190375328064,0.6682426929473877,0.15699079632759094,-0.01038902997970581,0.05308610200881958,0.05135287344455719,-0.055896565318107605,0.06915529817342758,0.32105088233947754,-1.7834199459036721,-0.7318441493121423,1.99478611488484
1687100642.251668,-0.7173559665679932,0.6790189146995544,0.15599331259727478,-0.019323110580444336,-0.07635772228240967,0.03805279731750488,0.04192666709423065,0.011794470250606537,0.24848778545856476,-1.784918721987718,-0.7464253637507927,1.9914839084330993
1687100642.313486,-0.71132892370224,0.6847800016403198,0.15839165449142456,-0.016973257064819336,-0.179973304271698,0.014536306262016296,-0.14131586253643036,0.017345940694212914,0.072016142308712,-1.789891988645727,-0.7543017494518323,1.984425369156472
1687100642.341936,-0.7139596343040466,0.6813268065452576,0.16141639649868011,-0.031645774841308594,-0.24533748626708984,0.0055299848318099976,-0.22692929208278656,0.08391014486551285,-0.18734486401081085,-1.793144356630046,-0.7495737669023876,1.975040984091696
1687100642.37214,-0.7262717485427856,0.666563868522644,0.1679944097995758,-0.05697721242904663,-0.29766738414764404,-0.007426142692565918,-0.4385494291782379,0.213308647274971,-0.45558658242225647,-1.798109191923821,-0.7295897227138691,1.9576262723853015
1687100642.434092,-0.7482802271842957,0.6398579478263855,0.175096333026886,-0.052607834339141846,-0.21454966068267822,-0.014802694320678711,-0.5153629779815674,0.2890058159828186,-0.751714825630188,-1.8006588461009025,-0.6943134091378088,1.9335010714414713
1687100642.462214,-0.7778183221817017,0.6027787327766418,0.1779233068227768,-0.05386197566986084,-0.10673075914382935,-0.029012680053710938,-0.6399278044700623,0.4580495059490204,-0.8726179599761963,-1.7956739669178254,-0.6469790995007874,1.9122547432299284
1687100642.556994,-0.8066216707229614,0.5651918053627014,0.17297405004501343,-0.0017432570457458496,0.08095693588256836,0.03529322147369385,-0.39908748865127563,0.4335184395313263,-0.7515856623649597,-1.7820396595658543,-0.6006657160866362,1.890218691697135
1687100642.561971,-0.8252068758010864,0.5385077595710754,0.17042027413845062,0.031322598457336426,0.33899468183517456,0.14456701278686523,-0.4815352261066437,0.3203480839729309,-0.32049885392189026,-1.7744514949215864,-0.5686651641399364,1.870445705437997
1687100642.6771178,-0.8295039534568787,0.5319918394088745,0.17002341151237488,0.12065684795379639,0.7337247133255005,0.24945604801177979,-0.016899630427360535,-0.05719103291630745,0.1727321594953537,-1.7729661182996497,-0.5609511640814797,1.8551094701446036
1687100642.68309,-0.8097369074821472,0.558047890663147,0.18140867352485657,0.08007669448852539,0.9384884834289551,0.3952667713165283,0.05551065132021904,-0.5379454493522644,1.1209704875946045,-1.7911912129274614,-0.5920314182620822,1.8450288635760732
1687100642.798423,-0.7545676827430725,0.6244800686836243,0.2016248106956482,-0.04069000482559204,1.0408947467803955,0.43173709511756897,1.119757056236267,-1.3052979707717896,1.9371495246887207,-1.8319019202452058,-0.6744656289406507,1.8546294377146457
1687100642.812639,-0.6540923714637756,0.724552571773529,0.21722517907619476,-0.2162536382675171,0.9130664467811584,0.5074300765991211,1.4260852336883545,-2.173435926437378,2.887514114379883,-1.8914379924619567,-0.8103849620466248,1.899560943542642
1687100642.890121,-0.49631422758102417,0.8361050486564636,0.23366788029670715,-0.6232536435127258,0.6774294972419739,0.5192313194274902,1.3677830696105957,-2.6586146354675293,3.71079683303833,-2.010817442950818,-0.9901441361380451,1.904689122462668
1687100642.8956718,-0.28314968943595886,0.9321373701095581,0.2257121503353119,-0.8521652221679688,0.6287908554077148,0.5660053491592407,1.4604443311691284,-2.820622444152832,4.349271774291992,-2.243795726247916,-1.2002713214822698,1.8004786911371684
1687100642.912551,-0.03538664057850838,0.9839529395103455,0.1748848557472229,-1.0054763555526733,0.5267741084098816,0.5507011413574219,1.423075556755066,-2.452847719192505,4.717672348022461,-2.9419456976225793,-1.391407541829819,1.2166877151903284
1687100643.006423,0.2168085128068924,0.9719775915145874,0.09085076302289963,-1.139843225479126,0.5105358958244324,0.560653805732727,1.6468119621276855,-2.105686902999878,4.819912910461426,1.9676053419320794,-1.333502008695121,-0.06534279494465077
1687100643.012347,0.44477829337120056,0.8955283164978027,-0.014189803041517735,-1.3059842586517334,0.24872827529907227,0.5568534135818481,1.5621464252471924,-1.4215153455734253,4.638369083404541,1.5389040516322723,-1.109617042903102,-0.42453277873589207
1687100643.127005,0.6256160140037537,0.77492356300354,-0.08998888731002808,-1.218038558959961,-0.12206107378005981,0.43277764320373535,0.5825589895248413,-0.5446001291275024,4.056820392608643,1.4279357633906766,-0.8865941617464259,-0.4954134130141199
1687100643.1323419,0.7585501670837402,0.642873227596283,-0.10637521743774414,-1.1490225791931152,-0.14247643947601318,0.2949586510658264,-0.5262776613235474,-0.5143601298332214,3.5891618728637695,1.4314699913197606,-0.6982434499933161,-0.4602845232509519
1687100643.2775931,0.8562616109848022,0.5060893893241882,-0.10339093953371048,-1.0824426412582397,-0.33313095569610596,0.22837567329406738,-1.2053698301315308,-0.7510049343109131,3.320220947265625,1.4506311657251756,-0.5306445518471308,-0.3728420500266897
1687100643.294454,0.9135412573814392,0.3843081593513489,-0.13322855532169342,-0.7620824575424194,-0.2089541256427765,0.1154826283454895,-0.3799513578414917,-1.5868041515350342,2.320556402206421,1.4259797630590618,-0.3944583196719624,-0.30019211069015966
1687100643.368078,0.9341857433319092,0.28943008184432983,-0.20863190293312073,-0.6901518702507019,-0.27868789434432983,-0.06475973129272461,-0.9822180271148682,-1.891182541847229,2.0798346996307373,1.3510717718675525,-0.2936313683043088,-0.25615515547470197
1687100643.3833709,0.9378712177276611,0.21177169680595398,-0.27486419677734375,-0.5139362812042236,-0.22770190238952637,-0.12628933787345886,-1.4174612760543823,-1.770804524421692,1.8312824964523315,1.2857071663696666,-0.2133874167348256,-0.16175659921132474
1687100643.393615,0.9276782870292664,0.15937483310699463,-0.3376578092575073,-0.3944903612136841,-0.20934736728668213,-0.07962429523468018,-1.9672842025756836,-1.628039002418518,1.5386391878128052,1.221720461618957,-0.16005735897523116,-0.051631475833660546
1687100643.489722,0.9070190787315369,0.13044117391109467,-0.40037673711776733,-0.3049987554550171,-0.04520559310913086,-0.08378458023071289,-2.040924072265625,-1.7090873718261719,1.331817388534546,1.1551000482328604,-0.13081394740320643,0.06706807208337831
1687100643.4946508,0.8697301149368286,0.11334091424942017,-0.48033663630485535,-0.1740667223930359,-0.08506641536951065,-0.10862204432487488,-0.15410728752613068,-1.7835808992385864,1.2417750358581543,1.0662024663909606,-0.11358499628684908,0.15453076566393875
1687100643.543632,0.8834854364395142,0.140496164560318,-0.4468942880630493,-0.7476668953895569,-0.3787316381931305,-1.7362110614776611,0.30305278301239014,-1.390446662902832,-1.0663758516311646,1.1024948164309882,-0.1409625329249691,0.23556585505653438
1687100643.5706758,0.864987850189209,0.13405799865722656,-0.4835539758205414,-0.027677059173583984,-0.10164836049079895,0.12272942066192627,1.31846284866333,-0.8869200348854065,-0.09426664561033249,1.0610469138453156,-0.13446282284184302,0.19070206888364588
1687100643.6662579,0.8554790616035461,0.11579575389623642,-0.5047246813774109,-0.004160642623901367,-0.08457627892494202,-0.1916864514350891,0.7848119735717773,0.06342342495918274,-0.3992901146411896,1.0377691159934308,-0.11605610369569556,0.14057366028747664
1687100643.6828399,0.861305296421051,0.128437340259552,-0.49158620834350586,-0.09915930032730103,-0.1603740155696869,-0.31770944595336914,0.4741363823413849,0.5061127543449402,-0.7813550233840942,1.0521652381454136,-0.12879311313075703,0.10532002672883886
1687100643.789744,0.871628999710083,0.1412884145975113,-0.469361811876297,-0.2291576862335205,-0.05704468488693237,-0.4555191397666931,1.3509407043457031,0.8169675469398499,-0.8732130527496338,1.0768343755028855,-0.14176276848812747,0.0420248415442509
1687100643.7952619,0.8877528309822083,0.15281783044338226,-0.4342136085033417,-0.270901083946228,-0.10383717715740204,-0.35059159994125366,1.1502110958099365,1.1376869678497314,-1.0358136892318726,1.115894248202588,-0.15341897220792042,-0.039810497180680894
1687100643.9101992,0.9043222665786743,0.18616682291030884,-0.38411346077919006,-0.3495279550552368,-0.19887736439704895,-0.23914700746536255,0.7339682579040527,1.4337232112884521,-1.284390926361084,1.1691350490250856,-0.18725931346876337,-0.10663462842503958
1687100643.915282,0.9156205654144287,0.23321644961833954,-0.3274890184402466,-0.2647569179534912,-0.20956537127494812,-0.23531612753868103,1.3380632400512695,1.341652750968933,-1.6160366535186768,1.2273058927269016,-0.23538403877001857,-0.17774020071910965
1687100643.932466,0.9117375612258911,0.298954576253891,-0.28171059489250183,-0.4652653932571411,-0.203892320394516,-0.08704853057861328,1.0523079633712769,1.4879990816116333,-2.093857765197754,1.2711195736981793,-0.3035969386898322,-0.2756380842545004
1687100644.0257921,0.8924428820610046,0.3874390423297882,-0.23116357624530792,-0.4099600315093994,-0.2078889012336731,-0.07015165686607361,0.9073229432106018,1.304653286933899,-2.283458948135376,1.317343264244882,-0.3978520453645955,-0.3519965187704843
1687100644.031386,0.8547618389129639,0.481695294380188,-0.19326664507389069,-0.5069835186004639,-0.1635953187942505,0.06069833040237427,0.6399767398834229,1.3351337909698486,-2.422840118408203,1.348429575941336,-0.5025882026171753,-0.4311357229960864
1687100644.1490889,0.7979611754417419,0.5826606154441833,-0.15415836870670319,-0.47697722911834717,-0.14229190349578857,0.03414803743362427,0.6195313930511475,1.1715497970581055,-2.697315216064453,1.3799570311571936,-0.6219985777547168,-0.4918016584895568
1687100644.165678,0.7175974249839783,0.6838403344154358,-0.13197138905525208,-0.5711130499839783,-0.07664734125137329,0.20449644327163696,0.2852615416049957,1.0002925395965576,-2.789485454559326,1.388921328319057,-0.7530131624969246,-0.5640155233677557
1687100644.239661,0.6197982430458069,0.7791900634765625,-0.0933433324098587,-0.5920882821083069,-0.09271246194839478,0.13489305973052979,-0.8806730508804321,0.8492878675460815,-2.7975311279296875,1.421316926479344,-0.8933726133336544,-0.5767498211792019
1687100644.244472,0.5029426217079163,0.8640192151069641,-0.022794408723711967,-0.5916724801063538,-0.1410272717475891,0.24722075462341309,-0.5428148508071899,1.4305325746536255,-3.1912424564361572,1.5255052330378611,-1.0431989857022106,-0.5246946028171103
1687100644.260972,0.34136587381362915,0.9391455054283142,0.03840629756450653,-0.5224724411964417,-0.06986755132675171,0.08442699909210205,-1.1197474002838135,1.700796127319336,-3.804845094680786,1.682832914225656,-1.2201343927973627,-0.4321855256499593
1687100644.321052,0.14034244418144226,0.982539176940918,0.12215226888656616,-0.5535504221916199,0.03239929676055908,0.1892491728067398,-0.9381715059280396,2.3910298347473145,-4.0681915283203125,2.2870077973840885,-1.3836498624649896,0.07535727514319772
1687100644.353981,-0.08487027138471603,0.9821421504020691,0.16791017353534698,-0.8108969330787659,0.3022053837776184,0.407285213470459,-1.1042397022247314,2.9354164600372314,-4.093158721923828,-2.673594185075328,-1.3815280408947983,1.2969554410280315
1687100644.411196,-0.2959079146385193,0.9362168312072754,0.189570352435112,-0.4904079735279083,0.30311739444732666,0.2723590135574341,-0.6911036372184753,2.6667771339416504,-3.7249279022216797,-2.140563180347977,-1.2117057577556807,1.6953727425152474
1687100644.443682,-0.4898914694786072,0.8563457131385803,0.16333484649658203,-0.6797099113464355,0.4014209508895874,0.512934684753418,-0.36828458309173584,2.0861458778381348,-3.7561452388763428,-1.8926161161471124,-1.0281511703307133,1.8411734194321043
1687100644.499673,-0.6497459411621094,0.7519028782844543,0.11168105155229568,-0.4382973313331604,0.5313462018966675,0.2928600311279297,0.41306397318840027,1.4028266668319702,-3.551750421524048,-1.741017168244256,-0.8509436595979383,1.9102162471907946
1687100644.529865,-0.7697890996932983,0.6351053714752197,0.06376492977142334,-0.43361055850982666,0.4589192867279053,0.41114962100982666,0.03506609797477722,0.6010398268699646,-2.955332040786743,-1.6534419297396394,-0.6881449594668015,1.9710865101853046
1687100644.5917969,-0.8508037328720093,0.5232795476913452,0.04807877913117409,-0.2502399682998657,0.4694114923477173,0.4114854335784912,-0.03992026299238205,0.37034133076667786,-2.6663403511047363,-1.6272461264267886,-0.5506949067841309,1.9579032319099157
1687100644.718432,-0.9102516770362854,0.41275203227996826,0.032829321920871735,-0.19662094116210938,0.8317700624465942,0.20130157470703125,0.5711824893951416,0.02564326301217079,-2.278231620788574,-1.6068469039506537,-0.42547341145434064,1.9936447399015051
1687100644.736613,-0.9456836581230164,0.32427021861076355,0.02304406836628914,0.06741839647293091,1.0151920318603516,0.24586153030395508,0.6430971622467041,-0.1259801983833313,-1.4117705821990967,-1.5951591352763133,-0.33024015244312666,2.027762161948308
1687100644.840088,-0.9570320844650269,0.28910329937934875,0.02256160043179989,0.15887528657913208,1.0248920917510986,0.14154672622680664,0.13716503977775574,-0.3099466860294342,-0.03106090798974037,-1.5943665093026704,-0.29329001595354454,2.0557550867920815
1687100644.845138,-0.9462385773658752,0.31984466314315796,0.048292044550180435,0.09807872772216797,0.8378854990005493,0.14773774147033691,0.2151559740304947,-0.8538501858711243,1.1813173294067383,-1.6217878889577286,-0.3255655307743946,2.057121783885325
1687100644.959322,-0.9145458936691284,0.3928883373737335,0.09614842385053635,0.0011243224143981934,0.4917399287223816,0.09064971655607224,0.3020447790622711,-1.3393527269363403,1.8089075088500977,-1.6755439592098227,-0.4037704132016,2.068449952599487
1687100644.9643621,-0.8638703227043152,0.4805106818675995,0.1511218398809433,-0.1631988286972046,0.1711617112159729,0.09637570381164551,0.2490454912185669,-1.3235771656036377,1.954404592514038,-1.7439796974215354,-0.5012369473790694,2.067533664901707
1687100645.05083,-0.8038687705993652,0.5619934797286987,0.19482935965061188,-0.17795801162719727,-0.05065619945526123,0.010126709938049316,0.425633043050766,-1.2342737913131714,1.7218751907348633,-1.8085759505516372,-0.5967939430280403,2.067213401059315
1687100645.0681748,-0.7460396885871887,0.625868558883667,0.2274063378572464,-0.22237467765808105,-0.229384183883667,-0.02173304557800293,0.21086029708385468,-0.906703531742096,1.3620754480361938,-1.8666674379509312,-0.676244681421284,2.0605502188608047
1687100645.081018,-0.7000026702880859,0.6699188947677612,0.24739640951156616,-0.13869667053222656,-0.32813727855682373,-0.07874095439910889,0.2640555799007416,-0.7085352540016174,0.9097956418991089,-1.9105165163061273,-0.7340995491918901,2.0530895127442634
1687100645.194747,-0.6671739220619202,0.6980706453323364,0.2599543631076813,-0.14590585231781006,-0.3344537615776062,-0.11455339193344116,0.17339414358139038,-0.46430081129074097,0.5839179754257202,-1.9423356276890338,-0.7726993954116791,2.0480893893612677
1687100645.213397,-0.64869624376297,0.7134699821472168,0.26486507058143616,-0.12490898370742798,-0.2961269021034241,-0.12742918729782104,0.21797199547290802,-0.3042481541633606,0.20509350299835205,-1.9584405035353873,-0.794438039228694,2.051962321765635
