Timestamp,gravityX,gravityY,gravityZ,accelerationX,accelerationY,accelerationZ,rotationRateX,rotationRateY,rotationRateZ,attitudeRoll,attitudePitch,attitudeYaw
1687102803.23704,-0.10161032527685165,0.5386011004447937,-0.8364114761352539,-0.002347812056541443,0.003970921039581299,-0.006514549255371094,-0.0061630979180336,-0.004119536839425564,-0.0017764284275472164,-0.12089126020986452,-0.5687759261085542,0.2875670111995621
1687102803.27556,-0.10194326937198639,0.5389065146446228,-0.8361742496490479,-0.0034644603729248047,0.006961405277252197,-0.0027844905853271484,-0.007916523143649101,-0.01167390402406454,0.0008820723742246628,-0.12131759366987865,-0.5691384866654619,0.2876269837302733
1687102803.314949,-0.10221895575523376,0.5397059321403503,-0.8356248140335083,0.0001834183931350708,0.0011419057846069336,-0.0008009672164916992,-0.0016008365200832486,0.0017466526478528976,0.0009087035432457924,-0.12172164417631925,-0.570087724949744,0.28754495292237436
1687102803.369303,-0.10185162723064423,0.5396857857704163,-0.8356826305389404,0.0017997398972511292,-0.003980278968811035,0.007038891315460205,0.005674120504409075,0.004248692654073238,-0.0010884003713726997,-0.12128020286562827,-0.5700638308400885,0.2876355427921537
1687102803.412267,-0.10148213058710098,0.53952956199646,-0.8358284831047058,0.0030476823449134827,-0.011850178241729736,0.0056893229484558105,-0.009310687892138958,0.014651332050561905,0.005067961756139994,-0.12082363098140295,-0.5698782813910968,0.2877260459223357
1687102803.482497,-0.1015910729765892,0.5398306846618652,-0.8356208205223083,0.000608399510383606,-0.004064083099365234,0.00432199239730835,0.008771910332143307,-0.02256026305258274,0.0038632811047136784,-0.12098183784610547,-0.5702359305438018,0.28779911292739613
1687102803.5327868,-0.10215114057064056,0.5399800539016724,-0.8354559540748596,-0.00954321026802063,0.0014933347702026367,-0.00014579296112060547,-0.0023052426986396313,-0.023602046072483063,-0.004660032689571381,-0.12166602501414242,-0.5704134052357397,0.28782102153766487
1687102803.559793,-0.10288252681493759,0.5402697920799255,-0.8351788520812988,-0.004478320479393005,0.005964338779449463,-0.007762432098388672,-0.013700376264750957,-0.016336210072040558,-0.001288403756916523,-0.12256872349123597,-0.5707576804922652,0.28773069824110314
1687102803.603136,-0.10335221141576767,0.540300726890564,-0.8351008296012878,1.9669532775878906e-05,0.013105034828186035,-0.0013096928596496582,0.02007303386926651,-0.00413891114294529,-0.0020286960061639547,-0.12313403834507139,-0.5707944555873293,0.2878478560080558
1687102803.69701,-0.10339760780334473,0.5387510657310486,-0.8360958099365234,0.004337534308433533,-0.000512540340423584,0.008901596069335938,0.015389598906040192,-0.0007043434306979179,-0.0020021311938762665,-0.12304246052935214,-0.5689539597651088,0.2878508669440955
1687102803.739386,-0.10381074994802475,0.5396564602851868,-0.8354604840278625,0.005086377263069153,-0.008314907550811768,0.0036123991012573242,-0.023282695561647415,-0.005292525980621576,0.002710864879190922,-0.12362210227448288,-0.5700290082120808,0.28767103144160405
1687102803.7791882,-0.10386275500059128,0.5409053564071655,-0.8346459865570068,0.0013084262609481812,-0.010219931602478027,0.006810903549194336,-0.025880608707666397,0.005529340356588364,0.006035089027136564,-0.12380287062569266,-0.5715131511048638,0.2877110275222748
1687102803.834379,-0.10359399765729904,0.5404025316238403,-0.8350050449371338,-0.003309100866317749,0.005831599235534668,-0.003129720687866211,0.022581465542316437,0.0065251183696091175,0.0006270743906497955,-0.12343320907326669,-0.5709154439812533,0.28799844517422646
1687102803.884594,-0.10357885807752609,0.5401203632354736,-0.8351894021034241,-0.0052773430943489075,0.003504455089569092,-0.009048819541931152,0.0029158846009522676,-0.018809134140610695,0.0051455264911055565,-0.12338838334846301,-0.570580144927767,0.28800868957917247
1687102803.912421,-0.10538987815380096,0.5414553880691528,-0.8340977430343628,-1.7836689949035645e-05,0.005419611930847168,-0.012337803840637207,-0.1285201758146286,-0.06504294276237488,-0.018112124875187874,-0.12568592628041786,-0.5721672225488269,0.287787997201455
1687102803.9747071,-0.10637344419956207,0.5420907735824585,-0.8335599899291992,-0.008860945701599121,0.016502976417541504,0.014666557312011719,0.0005946734454482794,0.00926113873720169,0.01487358845770359,-0.12692738477367363,-0.5729232088949887,0.2881799221137282
1687102804.015517,-0.1059902086853981,0.5393276214599609,-0.8353992104530334,0.002093113958835602,0.030893266201019287,0.010951578617095947,0.1973484754562378,-0.007109645754098892,-0.005640941672027111,-0.12619946851434782,-0.5696384491998403,0.288864548489002
1687102804.063096,-0.10530684143304825,0.5320072770118713,-0.840165913105011,0.00014324486255645752,-0.022440016269683838,0.013871967792510986,0.10501402616500854,0.0049837687984108925,-0.003051549894735217,-0.12469027473036319,-0.5609693644761307,0.29047438030763
1687102804.1261601,-0.10712675750255585,0.5321213603019714,-0.8398634791374207,0.014582186937332153,-0.026551902294158936,-0.0022232532501220703,0.06658513844013214,-0.03705886751413345,0.0005119591951370239,-0.12686750669700472,-0.5611041316415409,0.29053411898050824
1687102804.169765,-0.10714957118034363,0.5297580361366272,-0.8413532972335815,-0.005597636103630066,-0.0009341835975646973,0.00015151500701904297,0.01761174015700817,0.010358050465583801,0.0001032976433634758,-0.12667193923002867,-0.5583152659634691,0.291497183219543
1687102804.213355,-0.10633528232574463,0.5284004807472229,-0.8423097729682922,-0.00018633902072906494,0.0072135329246521,-0.0038968920707702637,0.08861268311738968,0.013185839168727398,0.006717124488204718,-0.12557817949014577,-0.5567154475508442,0.2919783045539646
1687102804.297916,-0.10583128035068512,0.5276358723640442,-0.8428523540496826,0.0032159090042114258,-0.02812415361404419,-0.006238222122192383,-0.06430656462907791,-0.0002639674348756671,-0.0068108015693724155,-0.12490953827052208,-0.5558151190242678,0.29235456633393275
1687102804.3152652,-0.10541004687547684,0.5280282497406006,-0.8426594138145447,-0.0025916695594787598,0.019167184829711914,0.009148061275482178,0.03372785821557045,0.014607833698391914,0.01288460660725832,-0.1244456959265569,-0.5562770557340727,0.2926890525103658
1687102804.390296,-0.10505212098360062,0.5278709530830383,-0.8428026437759399,0.0017043352127075195,-0.01937180757522583,-0.0007795095443725586,-0.0062507158145308495,-0.0032347901724278927,-0.0023150527849793434,-0.124006595298137,-0.5560918723267406,0.2925889176913873
1687102804.43102,-0.10551890730857849,0.5273323655128479,-0.8430814743041992,-0.00017873942852020264,0.0035209059715270996,-0.0019502639770507812,0.008744479157030582,-0.0034217885695397854,-0.0013420670293271542,-0.12451116490773598,-0.5554578459667282,0.2924609524440002
1687102804.471354,-0.10506460815668106,0.5277087688446045,-0.8429026007652283,-0.00402049720287323,0.015290498733520508,-0.011330127716064453,0.04679599031805992,0.022059069946408272,0.023129452019929886,-0.12400661776695197,-0.5559009279653226,0.29263506850161436
1687102804.517858,-0.10486853122711182,0.5278391242027283,-0.8428454399108887,0.0033823102712631226,-0.01851600408554077,-0.014072895050048828,-0.03341549262404442,-0.004179391078650951,-0.011348960921168327,-0.12378586478985128,-0.5560543584846227,0.2925649653975059
1687102804.6054912,-0.10503046214580536,0.5272549986839294,-0.8431908488273621,0.002598211169242859,0.008771002292633057,0.0053002238273620605,0.024081090465188026,-0.008193263784050941,0.0037947045639157295,-0.12392478551850857,-0.5553667553226705,0.2925976764309391
1687102804.62036,-0.10420443117618561,0.5264102220535278,-0.8438209295272827,-0.0007455348968505859,-0.002957463264465332,0.007166266441345215,-0.018055975437164307,0.0031528680119663477,0.010280567221343517,-0.12286909898417522,-0.5543729025921182,0.2937640058040607
1687102804.666492,-0.10402461886405945,0.5267629027366638,-0.8436229825019836,0.0015008002519607544,0.005051672458648682,0.001673579216003418,0.07443933933973312,0.020718678832054138,0.008601844310760498,-0.12268769424223976,-0.554787734691534,0.2936651623404997
1687102804.745545,-0.10390403866767883,0.5265966057777405,-0.8437415957450867,0.004096284508705139,-0.02247673273086548,-0.004189252853393555,-0.04731665924191475,-0.0005812610033899546,-0.0022520688362419605,-0.12252984507547754,-0.5545921549981027,0.2934915750489751
1687102804.7826939,-0.10428497195243835,0.5269594192504883,-0.8434681296348572,0.0006015077233314514,0.011797845363616943,-0.010947763919830322,0.01773238182067871,-0.006841043010354042,-0.0026353641878813505,-0.12301403417122699,-0.5550189395806723,0.2931221436153869
1687102804.817177,-0.10383956879377365,0.52590012550354,-0.8441838622093201,-0.0039027631282806396,0.001397848129272461,-0.005547583103179932,-0.019552672281861305,-0.004933177027851343,-0.004766758531332016,-0.12239105718095858,-0.5537730768482282,0.29359476409501073
1687102804.898668,-0.10387329757213593,0.5264706015586853,-0.843824028968811,0.0013647451996803284,0.0018649101257324219,0.0035225749015808105,-0.007754602935165167,-0.0085267573595047,-0.00021594949066638947,-0.1224821065455202,-0.5544439036585846,0.2934555870306165
1687102804.916755,-0.1038232073187828,0.5267646312713623,-0.8436467051506042,0.0032982975244522095,0.0005943775177001953,0.001163184642791748,-0.07086645811796188,-0.004298079758882523,0.00236978055909276,-0.12244911287515396,-0.5547898186903291,0.2934596337641148
1687102805.01856,-0.10517289489507675,0.5293734073638916,-0.8418446779251099,0.001748800277709961,0.012099981307983398,0.006303906440734863,-0.02096175029873848,-0.021730510517954826,-0.006060988642275333,-0.12428752080758759,-0.5578618404008081,0.29253395785025305
1687102805.052244,-0.10568781197071075,0.5310355424880981,-0.8407326340675354,0.0007225945591926575,-0.02012556791305542,-0.00011819601058959961,-0.07446731626987457,-0.0036950288340449333,-0.015665613114833832,-0.1250532122200968,-0.5598222077476127,0.29167714536471206
1687102805.092006,-0.10679736733436584,0.5325343608856201,-0.839643657207489,0.004822865128517151,0.013547182083129883,-0.006089985370635986,0.0022785901091992855,-0.017297079786658287,-0.016423149034380913,-0.12651434090584793,-0.561592007750876,0.29040966732559387
1687102805.1194139,-0.1084768995642662,0.5349927544593811,-0.8378636240959167,-0.003461584448814392,-0.00011116266250610352,-0.017528772354125977,-0.13398097455501556,-0.052379146218299866,-0.03395307436585426,-0.12875224181468373,-0.5644991449898318,0.28886096582266835
1687102805.1972098,-0.10898765176534653,0.5368840098381042,-0.8365866541862488,-0.014776386320590973,0.04560494422912598,0.028725385665893555,-0.03217392414808273,0.023476669564843178,0.016494985669851303,-0.12954697921735342,-0.5667393069395861,0.2879563743721143
1687102805.237325,-0.10544070601463318,0.5377784967422485,-0.8364666700363159,0.014956079423427582,-0.03965538740158081,0.017893731594085693,0.02776690572500229,0.05743592232465744,0.01572280377149582,-0.1253935036150624,-0.5677999056381742,0.2894944755851869
1687102805.277175,-0.10342617332935333,0.5371854901313782,-0.837099015712738,-0.00021153688430786133,-0.004409611225128174,0.0016497969627380371,0.010648107156157494,0.03844962641596794,0.0019848872907459736,-0.12293009210747685,-0.56709670911229,0.28970759485099007
1687102805.331428,-0.10149259120225906,0.5367527008056641,-0.8376131653785706,-0.005425751209259033,-0.0073642730712890625,0.008481085300445557,0.0044240327551960945,0.04143694043159485,0.0021535982377827168,-0.12058098080009641,-0.5665836774452842,0.2900433516460106
1687102805.371615,-0.10013080388307571,0.5365964770317078,-0.837877094745636,-0.003262758255004883,0.010034382343292236,-0.007490277290344238,0.012319240719079971,0.024944672361016273,0.001842208206653595,-0.11894127385230926,-0.5663985218150763,0.2900453718906092
1687102805.4434361,-0.09940850734710693,0.5367680788040161,-0.837853193283081,-0.0036951452493667603,-0.0038090944290161133,-0.006324052810668945,-0.02933286502957344,0.005421149078756571,0.0020135161466896534,-0.1180946139774038,-0.566601874285349,0.29003454049792243
1687102805.496129,-0.09922140091657639,0.5378229022026062,-0.8371986746788025,-0.0019748955965042114,0.009860813617706299,-0.0009818673133850098,-0.02747451141476631,-0.002647008514031768,-0.0010065753012895584,-0.11796569421019618,-0.5678525949699919,0.28987205014386014
1687102805.5460439,-0.09904216974973679,0.5383440852165222,-0.8368849158287048,0.005475267767906189,0.004716217517852783,-0.000364840030670166,0.0011938847601413727,0.01063572894781828,-0.0026789067778736353,-0.11779831379095396,-0.5684708987676617,0.2896538578965138
1687102805.594271,-0.09864101558923721,0.5384544134140015,-0.8368613123893738,0.002632707357406616,-0.00433582067489624,0.0027396082878112793,-0.024298159405589104,0.006945742294192314,-0.00012493552640080452,-0.11732884489762566,-0.5686018751089194,0.2896323899320291
1687102805.6228309,-0.09887944161891937,0.5397010445594788,-0.8360297083854675,0.0008417144417762756,0.00041431188583374023,0.0021521449089050293,-0.03410391882061958,-0.005890827625989914,-0.0010164286941289902,-0.11772574786650084,-0.5700819347113821,0.28932921959782476
1687102805.696813,-0.09914587438106537,0.540611982345581,-0.8354093432426453,-0.0029659420251846313,-0.0013968944549560547,0.0009214282035827637,-0.01831536740064621,-0.006057452410459518,6.801029667258263e-05,-0.1181268678029951,-0.5711643814833623,0.2892458977281749
1687102805.7337132,-0.09966820478439331,0.5406918525695801,-0.8352954983711243,-0.0056937336921691895,0.016208171844482422,-0.005128085613250732,0.015525152906775475,-0.013531280681490898,-0.0016242284327745438,-0.1187594019938374,-0.5712593207399703,0.28906627335488794
1687102805.797875,-0.09973059594631195,0.5405151844024658,-0.8354023694992065,-0.0012978613376617432,-0.0011170506477355957,0.000822901725769043,-0.004803021438419819,-0.006471795961260796,-0.00031242240220308304,-0.1188179886147795,-0.5710493633129571,0.28920994306655123
1687102805.842977,-0.10022059082984924,0.5418723225593567,-0.8344640731811523,0.004410654306411743,-0.007219552993774414,0.0006475448608398438,-0.03387967869639397,-0.013710401020944118,-0.0018294919282197952,-0.11952923130576626,-0.5726632150616879,0.2890807408015784
1687102805.8825269,-0.10082150995731354,0.5430665612220764,-0.8336148858070374,-0.0001764148473739624,-0.013311922550201416,0.011990129947662354,-0.04558640345931053,-0.008622121065855026,0.004886334761977196,-0.12036035955249463,-0.5740848178095841,0.28893844050585266
1687102805.926305,-0.10173189640045166,0.544474184513092,-0.8325854539871216,0.0032058805227279663,-0.002298891544342041,0.002705693244934082,-0.04377412050962448,-0.02694970741868019,0.0018501314334571362,-0.12158524278441812,-0.575762095196859,0.28883337540127446
1687102805.9811459,-0.10218750685453415,0.5465768575668335,-0.8311507105827332,-0.002442009747028351,0.0022817254066467285,-0.0019333958625793457,-0.05649098381400108,-0.0007147074211388826,0.002303201239556074,-0.12233310081491763,-0.5782709738157108,0.28867042246495556
1687102806.023664,-0.10240571945905685,0.5470750331878662,-0.8307960033416748,-0.006267383694648743,0.015318155288696289,-0.0004723072052001953,0.018430396914482117,-0.013408375903964043,0.0017053885385394096,-0.12264353810934088,-0.5788660236719281,0.2885095205023653
1687102806.102333,-0.10356196016073227,0.5474837422370911,-0.83038330078125,0.0003362298011779785,0.00238192081451416,-0.0058135986328125,-0.012563738971948624,-0.018122505396604538,-0.002647747751325369,-0.12407520124792087,-0.5793543636400396,0.2880293999447402
1687102806.151585,-0.10375005006790161,0.5481142997741699,-0.8299437165260315,0.0019891932606697083,-0.005084574222564697,0.0077239274978637695,-0.018185937777161598,0.003066182369366288,0.00390402739867568,-0.12436340136154311,-0.5801080628043404,0.2882554881843169
1687102806.192305,-0.10373910516500473,0.548571765422821,-0.8296428322792053,0.006357505917549133,-0.001925647258758545,-0.0007862448692321777,-0.0015608890680596232,-0.00043241248931735754,0.006463059224188328,-0.12439505031896832,-0.5806550903699306,0.2882379000684785
1687102806.231617,-0.10367133468389511,0.5489354133605957,-0.82941073179245,0.00406193733215332,-0.013702869415283203,0.007404506206512451,-0.009189247153699398,0.0005179366562515497,-0.001005109865218401,-0.12434904726158248,-0.5810900439191429,0.2883154317972266
1687102806.30928,-0.1039305180311203,0.5491973757743835,-0.8292048573493958,-0.0021333396434783936,0.002133190631866455,-0.001132667064666748,0.013018053956329823,-0.0013256811071187258,-0.007743706461042166,-0.12468735567163791,-0.5814034952463113,0.2880508836953847
1687102806.326295,-0.10443500429391861,0.5484688878059387,-0.8296235799789429,-0.0027274787425994873,0.00798863172531128,-0.007824540138244629,0.025824662297964096,-0.013102334924042225,-0.012817228212952614,-0.1252237285785916,-0.5805320104982975,0.2875820782241795
1687102806.395914,-0.10525500774383545,0.5500546097755432,-0.8284692764282227,-0.004028439521789551,-0.002187788486480713,-0.004965782165527344,-0.07706443220376968,-0.03489460423588753,-0.001836149487644434,-0.1263705537110774,-0.5824296620363107,0.28721384453262067
1687102806.436497,-0.10647647827863693,0.5518104434013367,-0.8271445035934448,0.0033880919218063354,-0.00350111722946167,0.007533907890319824,-0.008789506740868092,-0.027063090354204178,-0.0021774335764348507,-0.12802372940662854,-0.584533547268493,0.28682912365374147
1687102806.477433,-0.10683141648769379,0.5504017472267151,-0.8280368447303772,0.0016373097896575928,-0.0009785294532775879,0.008960306644439697,0.048863135278224945,0.0162033773958683,0.0010653641074895859,-0.1283089203683724,-0.5828453462274819,0.2871560701426837
1687102806.524318,-0.10580310225486755,0.5492743253707886,-0.8289170265197754,-0.00280897319316864,-0.016452670097351074,0.00810098648071289,0.019491398707032204,0.05367884784936905,0.006597814615815878,-0.12695369369191764,-0.5814955937506274,0.28744957568027196
1687102806.584484,-0.1045970767736435,0.5494678616523743,-0.828941822052002,-0.0036487728357315063,0.0015727877616882324,-0.006110668182373047,0.007397451903671026,8.559459820389748e-05,0.002796751447021961,-0.12551809366181932,-0.5817271965358054,0.2876431689349712
1687102806.62568,-0.10479310899972916,0.5492066144943237,-0.8290901780128479,-0.006535038352012634,0.01130974292755127,-0.0033072233200073242,-0.007370042614638805,0.009050549007952213,0.0006804708391427994,-0.1257285936160452,-0.5814145374894129,0.28764151474205224
1687102806.698926,-0.10402709990739822,0.548443078994751,-0.8296918272972107,-0.002387702465057373,0.016772985458374023,-0.0010882019996643066,0.03542828932404518,0.003693978302180767,-0.0044484445825219154,-0.1247295336395939,-0.5805011710722715,0.2878380685760193
1687102806.743397,-0.10360486060380936,0.5479176640510559,-0.8300917148590088,0.001355692744255066,-0.010228455066680908,0.004820108413696289,0.008012909442186356,0.008040145970880985,0.0015489277429878712,-0.12416922678947348,-0.5798729255710235,0.28800530708256367
1687102806.7932858,-0.10336471349000931,0.5482429265975952,-0.8299068808555603,0.003587484359741211,-0.009363532066345215,0.006420552730560303,-0.014096920378506184,0.01542396005243063,0.0049882004968822,-0.12391166999195319,-0.5802618093491191,0.288090210234575
1687102806.836518,-0.10286259651184082,0.5481285452842712,-0.8300448060035706,0.0026581138372421265,0.0038276314735412598,0.0035677552223205566,0.018417613580822945,0.02313101477921009,0.002674312796443701,-0.12329555698324364,-0.580125073331741,0.28806674870654075
1687102806.8861609,-0.10200432687997818,0.548179030418396,-0.830117404460907,0.00036553293466567993,-0.0051493048667907715,0.0011226534843444824,0.008982566185295582,0.018237102776765823,0.0007967846468091011,-0.12226647739123091,-0.5801854205735414,0.28821201172512484
1687102806.9306931,-0.10167668759822845,0.547728419303894,-0.83045494556427,-0.004051476716995239,0.007722020149230957,-0.00879371166229248,0.004039206076413393,-0.013720476999878883,0.00416009034961462,-0.12182858748570059,-0.579646738762781,0.28832482122350034
1687102806.993741,-0.10241283476352692,0.5478427410125732,-0.8302890658378601,0.0018574222922325134,0.006005525588989258,-0.006075620651245117,-0.01777607761323452,-0.014252842403948307,-0.001030942890793085,-0.12272611095198104,-0.5797833629577669,0.28823217418607233
1687102807.032875,-0.10269217193126678,0.5479597449302673,-0.830177366733551,-0.003280133008956909,0.008925020694732666,0.0026322007179260254,0.02717594988644123,-0.019896212965250015,-0.00636911578476429,-0.12307387489906849,-0.5799232357692964,0.28796141040857665
1687102807.081801,-0.10293524712324142,0.5473947525024414,-0.8305199146270752,0.005599424242973328,-0.015641212463378906,0.005187273025512695,0.04360659047961235,0.010690169408917427,0.014178968966007233,-0.12331188902156671,-0.5792479596554021,0.28772267814014896
1687102807.13054,-0.10190199315547943,0.542305588722229,-0.8339787721633911,-0.001400001347064972,-0.01812046766281128,0.013071238994598389,0.19278675317764282,0.03135760873556137,0.00010862387716770172,-0.1215850631957477,-0.5731788352125717,0.2888350282992081
1687102807.190347,-0.10058227926492691,0.5357534885406494,-0.8383623361587524,-0.0023840516805648804,-0.013902902603149414,0.007811188697814941,0.1485535055398941,0.034560415893793106,0.02351328358054161,-0.11940399711513199,-0.5653998620906341,0.29049072497048334
1687102807.228239,-0.09896242618560791,0.5329244136810303,-0.8403558731079102,-0.00253903865814209,-0.017268896102905273,-0.008551597595214844,0.06289879232645035,0.009359342977404594,0.037627167999744415,-0.11722263437661107,-0.5620529351480904,0.29279354169110583
1687102807.296236,-0.09886340796947479,0.5322268605232239,-0.8408095240592957,0.00015430152416229248,0.009978950023651123,-0.005153000354766846,0.019543597474694252,-0.02207345888018608,0.005840612109750509,-0.11704380545048501,-0.5612287326420663,0.29422631373043123
1687102807.338685,-0.09923011809587479,0.5292637348175049,-0.8426347374916077,-0.0007149577140808105,0.007540464401245117,0.004042208194732666,0.013476650230586529,-0.0001666512107476592,0.005284277722239494,-0.11722184234848064,-0.5577325783404391,0.2950515912009555
1687102807.378555,-0.09916564077138901,0.5307837128639221,-0.8416857123374939,0.007658660411834717,-0.01142030954360962,-0.0022016167640686035,-0.012005540542304516,-0.008197080343961716,-0.005545799620449543,-0.11727724513746164,-0.5595250195432819,0.2948930584753483
1687102807.431896,-0.09940971434116364,0.5301207304000854,-0.8420746326446533,-0.0002454519271850586,0.003997921943664551,0.00810551643371582,-0.005779336206614971,0.00666087307035923,-0.0023992753122001886,-0.1175094461069735,-0.5587429412232994,0.294799678698522
1687102807.505268,-0.09948289394378662,0.5309789180755615,-0.841525137424469,0.0008958578109741211,-0.0043370723724365234,0.00043016672134399414,-0.024130113422870636,-0.022335469722747803,-0.011214671656489372,-0.11767124420400406,-0.559755401304723,0.29462332183553486
1687102807.588764,-0.10020720213651657,0.5323472023010254,-0.8405742049217224,-0.008526936173439026,0.0036330223083496094,-0.0008869767189025879,-0.01867409609258175,0.004157368093729019,-0.0014417353086173534,-0.1186528291274532,-0.5613708875337002,0.2939492347130938
1687102807.601965,-0.10012750327587128,0.5320014357566833,-0.8408025503158569,-0.0014502555131912231,0.003917694091796875,-0.0034509897232055664,0.009115191176533699,-0.005677508190274239,-0.00859258882701397,-0.11852744239723423,-0.5609625323299856,0.29378335028864627
1687102807.629201,-0.1002708449959755,0.532551646232605,-0.8404370546340942,-0.0020088404417037964,-0.00853431224822998,0.0027600526809692383,-0.03305862843990326,0.001470815623179078,-0.00013132719323039055,-0.11874666938497132,-0.5616124446282589,0.2935649164533857
1687102807.704317,-0.10043714195489883,0.5330283641815186,-0.840114951133728,0.0018653571605682373,0.00719374418258667,0.0028957128524780273,0.021018190309405327,-0.0034137102775275707,-0.00025656213983893394,-0.11898693558868238,-0.5621757952283882,0.29335214853711833
1687102807.743554,-0.10044897347688675,0.5329177975654602,-0.840183675289154,0.0014499425888061523,-0.01596534252166748,0.004337728023529053,-0.026937352493405342,0.004941802471876144,-0.003819272620603442,-0.1189911735409158,-0.5620451210405003,0.29322800955881473
1687102807.7831469,-0.10006716847419739,0.5339481234550476,-0.839574933052063,0.0006256401538848877,-0.0035526156425476074,0.003942608833312988,-0.010569564066827297,0.007907697930932045,-0.0029808427207171917,-0.11862827848146819,-0.5632631634668631,0.29303431067231694
1687102807.867096,-0.1003245934844017,0.5334367752075195,-0.8398691415786743,-0.002290770411491394,0.005061149597167969,-0.0024617910385131836,-0.010073150508105755,-0.001111940131522715,-0.0033295839093625546,-0.1188893164831043,-0.5626585548193825,0.2927346951661698
1687102807.9051871,-0.1002354621887207,0.5332505702972412,-0.8399980664253235,-0.004088893532752991,0.009229898452758789,-0.005506694316864014,0.007049110718071461,-0.011763563379645348,0.005666174925863743,-0.11876661889811164,-0.5624383765536748,0.2930683627349844
1687102807.9469218,-0.10017218440771103,0.533463716506958,-0.8398702144622803,0.0010510832071304321,-0.006013154983520508,0.0025136470794677734,-0.01380663551390171,-0.011562184430658817,-0.0025921545457094908,-0.11871024050195242,-0.5626903766734989,0.29336895117760475
1687102808.0012388,-0.10002243518829346,0.5336709022521973,-0.839756429195404,-0.0011738687753677368,-0.006159305572509766,0.007160604000091553,-0.00283068441785872,0.016553783789277077,0.014623849652707577,-0.11855034338947551,-0.5629353614479011,0.293437655432443
1687102808.041119,-0.09977785497903824,0.5340855717658997,-0.8395218849182129,0.0038000643253326416,0.0019403696060180664,0.0018448829650878906,-0.026424692943692207,-0.0032488605938851833,-0.004657968878746033,-0.11829590147010781,-0.5634257954927452,0.29357227754778814
1687102808.083105,-0.1001468226313591,0.5340653657913208,-0.8394908308982849,-0.0059170350432395935,-0.00038927793502807617,0.005735337734222412,0.0013667239109054208,-0.0010757879354059696,0.006885835435241461,-0.11873360024972221,-0.5634018732141487,0.2934486016412876
1687102808.1727571,-0.10003169625997543,0.5347628593444824,-0.8390604257583618,-0.0007373541593551636,0.0003018379211425781,-0.0024770498275756836,-0.024832388386130333,-0.009101646021008492,-0.008584133349359035,-0.11865865203714708,-0.5642270600538262,0.2934790820689056
1687102808.184963,-0.10078819841146469,0.5354004502296448,-0.8385631442070007,-0.004527971148490906,0.0014495253562927246,-0.005324184894561768,-0.04581543430685997,-0.014144807122647762,-0.0033636055886745453,-0.11961774688483404,-0.5649817937431405,0.2928822564239296
1687102808.25754,-0.1020372211933136,0.5374312996864319,-0.8371117115020752,0.0032060444355010986,-0.00026088953018188477,-0.0002143383026123047,-0.05224244296550751,-0.04977184161543846,-0.01658586785197258,-0.12129364998514551,-0.5673881842812354,0.29206182178277884
1687102808.2976131,-0.1054103896021843,0.5373013615608215,-0.8367770314216614,0.007494732737541199,0.019980132579803467,0.009781241416931152,0.015886545181274414,-0.03996524214744568,-0.03651177138090134,-0.1253118231041076,-0.5672341148802763,0.2899812129633174
1687102808.339035,-0.10611122101545334,0.5381359457969666,-0.8361519575119019,0.0018631666898727417,-0.013813436031341553,0.008347392082214355,-0.10198549926280975,0.013821514323353767,0.018088223412632942,-0.1262294913136579,-0.5682239784432902,0.2893159583556739
1687102808.384733,-0.10374903678894043,0.5443611145019531,-0.832410454750061,-0.003077760338783264,0.050930023193359375,0.002439141273498535,-0.016853824257850647,0.05902549624443054,0.016514629125595093,-0.12399744603763753,-0.5756272873587056,0.2895268071727733
1687102808.464734,-0.10120737552642822,0.541982889175415,-0.834273099899292,-0.00021779537200927734,0.0009553432464599609,-0.0015270709991455078,0.07652192562818527,0.06896967440843582,0.00534566305577755,-0.12072214098749934,-0.5727948195643321,0.29007680715934114
1687102808.5052261,-0.09858167171478271,0.5399863123893738,-0.8358805775642395,-0.007634773850440979,0.0017922520637512207,-0.005763649940490723,0.03711619973182678,0.05075802654027939,0.0036468999460339546,-0.11739521948673039,-0.5704208752532673,0.2906162362751792
1687102808.551568,-0.09696297347545624,0.5385627746582031,-0.8369876742362976,-0.003714531660079956,0.013851165771484375,0.0009433627128601074,0.04618079960346222,0.018187278881669044,0.005234876181930304,-0.11533344046690791,-0.5687304495661926,0.290955427125625
1687102808.59626,-0.096488356590271,0.538017988204956,-0.8373928070068359,0.0010293573141098022,-0.010155439376831055,0.0007076263427734375,-0.002482875483110547,0.010400394909083843,0.004337722901254892,-0.11471881594072576,-0.5680840124057723,0.2912842394681955
1687102808.643766,-0.09607049822807312,0.5380823612213135,-0.8373994827270508,0.0028850585222244263,-0.007915735244750977,0.007306098937988281,-0.009310421533882618,0.008751587010920048,0.004843590315431356,-0.1142254301528526,-0.5681604018127133,0.29147013895683027
1687102808.690984,-0.09588854014873505,0.538151204586029,-0.837376058101654,-0.0005012452602386475,-3.4749507904052734e-05,0.0007824301719665527,0.0016293114749714732,0.00666708592325449,0.0036357147619128227,-0.11401411114132477,-0.5682420725309678,0.2915248491212343
1687102808.766139,-0.095972940325737,0.5384127497673035,-0.8371982574462891,0.0008038580417633057,-0.009314239025115967,0.0026187896728515625,0.0032184196170419455,0.0055345771834254265,0.0027788421139121056,-0.1141376267043899,-0.5685523825585466,0.2914936905254373
1687102808.8058848,-0.09615705162286758,0.5389221906661987,-0.8368492722511292,-0.0056190937757492065,0.0053588151931762695,-0.01021188497543335,-0.041705112904310226,-0.006455550901591778,0.00539473257958889,-0.11440195164705264,-0.5691570698848332,0.2916823028685503
1687102808.858951,-0.09640190005302429,0.5402911305427551,-0.8359379172325134,-0.0006745308637619019,0.004188239574432373,0.0018467903137207031,-0.004435771610587835,-0.005047515034675598,-0.009915980510413647,-0.1148146499138768,-0.5707830163865276,0.29138224942070196
1687102808.9180431,-0.09639248251914978,0.5396422743797302,-0.8363580107688904,-0.0004398077726364136,-0.0013274550437927246,0.003762185573577881,0.01561703346669674,-0.002912015188485384,-0.0036620795726776123,-0.11474638310452065,-0.5700121124774059,0.2911575057268377
1687102808.956183,-0.09680399298667908,0.5398082733154297,-0.8362033367156982,0.004183128476142883,-0.012372970581054688,0.0019290447235107422,-0.020888248458504677,-0.0097246915102005,0.0008222842589020729,-0.11525305166164673,-0.5702093132834541,0.2909474947336822
1687102808.998065,-0.09732057899236679,0.5406987071037292,-0.8355678915977478,0.0009002834558486938,-0.004611670970916748,0.0033840537071228027,-0.016397625207901,-0.00348084419965744,0.00010183267295360565,-0.11594994142374222,-0.5712674533378632,0.2906632415452043
1687102809.054183,-0.09756603837013245,0.5409151315689087,-0.8353990912437439,-0.0026689618825912476,0.005120635032653809,0.0006823539733886719,-0.0010658075334504247,-0.009967128746211529,0.0028766472823917866,-0.11626303941307543,-0.5715247858301935,0.29061043550240906
1687102809.092126,-0.09802364557981491,0.5419954061508179,-0.8346450328826904,-0.003813520073890686,-0.003177046775817871,-0.00811314582824707,-0.04669987037777901,-0.024011019617319107,0.0014734938740730286,-0.11690797180350664,-0.572809722344724,0.29073284777273045
1687102809.171249,-0.09902095794677734,0.5431681871414185,-0.8337644338607788,-0.0038080140948295593,0.011214077472686768,0.001473844051361084,-0.030215969309210777,-0.030267007648944855,-0.0046737478114664555,-0.11821000782196335,-0.5742058490293712,0.2905003263208819
1687102809.2105079,-0.09978558868169785,0.5440547466278076,-0.8330949544906616,-0.0013191625475883484,-0.004702389240264893,0.0044664740562438965,-0.007028625346720219,-0.012630711309611797,-0.007463010028004646,-0.11920905418514931,-0.5752621479222433,0.29009394768034497
1687102809.2576752,-0.10039390623569489,0.5446078777313232,-0.8326603770256042,0.0036379247903823853,-0.009451687335968018,0.004642188549041748,-0.017250370234251022,-0.011321190744638443,0.005344531498849392,-0.11999085212994431,-0.5759215333031272,0.2900122163485859
1687102809.3040218,-0.10087397694587708,0.5456765294075012,-0.8319023251533508,-0.0003223121166229248,0.002205491065979004,0.0018395185470581055,-0.03101252019405365,-0.011161556467413902,0.007104148156940937,-0.12066789211927109,-0.5771962557044595,0.2901042161933806
1687102809.351046,-0.10102473199367523,0.5469383001327515,-0.8310550451278687,-0.0005988031625747681,-0.0009635686874389648,0.0020145177841186523,-0.019732968881726265,1.9947532564401627e-05,0.00017313892021775246,-0.12096848695568195,-0.5787026930161026,0.29007032811208605
1687102809.412345,-0.10092729330062866,0.5467633605003357,-0.8311820030212402,-0.006769254803657532,0.016224920749664307,-0.0015358924865722656,-0.0031726344022899866,0.006626228801906109,-0.0046864645555615425,-0.1208346745137649,-0.5784937409642641,0.29002657757152867
1687102809.463275,-0.10111032426357269,0.547767162322998,-0.8304985165596008,-0.000665813684463501,0.005959033966064453,-0.009574055671691895,-0.07549396902322769,-0.018636604771018028,-0.00012659979984164238,-0.12115031765862365,-0.5796930490141283,0.289701415756985
1687102809.492974,-0.10150334984064102,0.5523107051849365,-0.8274357914924622,-0.0003795921802520752,-0.009723424911499023,0.004864990711212158,-0.052943650633096695,0.020706363022327423,0.006683635525405407,-0.12206232670603055,-0.5851335198732175,0.28882946221359707
1687102809.5491781,-0.09923852980136871,0.5476121306419373,-0.8308265209197998,0.0011092573404312134,0.05178368091583252,0.009369611740112305,0.2786150872707367,0.04308965057134628,0.00582729559391737,-0.1188823104674632,-0.5795077271800632,0.29058488011202205
1687102809.589881,-0.09929706901311874,0.5410431027412415,-0.8351122736930847,0.006752505898475647,-0.032116711139678955,-0.0018323063850402832,0.0686621442437172,0.0017953217029571533,0.004145576618611813,-0.11834702314920117,-0.5716769283192964,0.2915978636356637
1687102809.66436,-0.09891846030950546,0.5375327467918396,-0.8374208211898804,-0.0005535930395126343,0.006381988525390625,0.007129073143005371,0.12742958962917328,-0.0007740959990769625,0.010224508121609688,-0.11757792447976559,-0.5675084878943228,0.29291761789099924
1687102809.7045898,-0.09885837137699127,0.5348438024520874,-0.8391478657722473,-0.001742824912071228,-0.011543631553649902,-0.010583579540252686,0.052115123718976974,-0.017721520736813545,0.010650214739143848,-0.11726753299123513,-0.564322872982558,0.2937497010748308
1687102809.7684422,-0.09881869703531265,0.5323189496994019,-0.8407564163208008,-0.0035830363631248474,0.01052767038345337,0.0018587708473205566,0.01104731485247612,-0.012221583165228367,0.004976549651473761,-0.11699866906262628,-0.5613375256705687,0.2950317323088666
1687102809.8137798,-0.09882830083370209,0.5330515503883362,-0.8402910828590393,-1.814216375350952e-05,-0.013382971286773682,-0.0009412169456481934,-0.019974250346422195,0.00036906590685248375,0.0011166301555931568,-0.11707414930020542,-0.5622031309965999,0.2953427232235883
1687102809.856214,-0.09857339411973953,0.5325695872306824,-0.8406264781951904,0.0035111159086227417,0.00045043230056762695,0.00537562370300293,-0.0014538300456479192,0.01023232750594616,-0.00014391029253602028,-0.11672874669490725,-0.561633636034207,0.29533775363416365
1687102809.9031801,-0.09844954311847687,0.5324776768684387,-0.8406992554664612,0.002380192279815674,-0.00870448350906372,0.0029917359352111816,-0.035677846521139145,-0.00975718256086111,0.00400955555960536,-0.11657341856552951,-0.5615250503941418,0.29560923564520314
1687102809.952125,-0.09838736057281494,0.5329737663269043,-0.8403921127319336,-0.0062726885080337524,0.015808582305908203,0.004012107849121094,0.020719382911920547,0.004463565070182085,0.011448830366134644,-0.11654264364597249,-0.562111244193348,0.29599193618974085
1687102810.011325,-0.09785974770784378,0.5330453515052795,-0.8404083251953125,-0.0035654306411743164,-0.007959902286529541,-0.00958251953125,0.0078011867590248585,0.01616968959569931,0.006546815857291222,-0.1159210517823524,-0.5621958185645516,0.2961394138132191
1687102810.0653949,-0.09740541875362396,0.5340428948402405,-0.8398275971412659,-0.0022802501916885376,-0.0051580071449279785,-0.006577432155609131,-0.0528738759458065,0.0054292273707687855,-0.007095027714967728,-0.11546673147453143,-0.5633752742149779,0.29601587904663856
1687102810.092163,-0.09773184359073639,0.5342633724212646,-0.8396493792533875,-0.0003669038414955139,0.015937983989715576,0.0022318363189697266,0.005655478220432997,-0.006450380198657513,-0.0060280319303274155,-0.11587460176954535,-0.5636361183507153,0.2957013034906288
1687102810.1588678,-0.09784897416830063,0.5346006155014038,-0.8394210934638977,0.0016270428895950317,-0.007897734642028809,-0.002803027629852295,0.009252344258129597,0.010017365217208862,0.004164684563875198,-0.11604350558345806,-0.5640350661385668,0.2954643113794384
1687102810.201009,-0.09790240228176117,0.534157931804657,-0.8396966457366943,0.0017262399196624756,0.0037754178047180176,-0.001749277114868164,0.015447655692696571,0.0032660302240401506,-0.0021061275620013475,-0.11606854659094336,-0.5635113719082527,0.29548125406434184
1687102810.24574,-0.09788863360881805,0.5329670310020447,-0.840454638004303,-0.0007289350032806396,0.00011402368545532227,0.0035558342933654785,0.004346800968050957,-0.002507947152480483,-0.0028267125599086285,-0.11594863712982582,-0.5621032536755098,0.295704414548131
1687102810.3097858,-0.09818219393491745,0.5334790349006653,-0.8400954604148865,-0.003212466835975647,0.0019518733024597168,-0.007484495639801025,0.003214158583432436,-0.00685114087536931,-0.004476607311517,-0.11634250471180704,-0.5627084805178041,0.29544443702876483
1687102810.370218,-0.09843891113996506,0.5332423448562622,-0.8402156829833984,0.0015913695096969604,0.000906825065612793,-0.0056858062744140625,-0.040479257702827454,-0.007013438269495964,-0.0073219952173531055,-0.11662741621023161,-0.5624286884784,0.2952798582534163
1687102810.418851,-0.09842733293771744,0.5345337390899658,-0.839396059513092,-0.002387493848800659,0.01022028923034668,0.007074892520904541,-0.018716705963015556,-0.0027945253532379866,-0.0034709975589066744,-0.11672666089826637,-0.5639559508997011,0.2950974197142914
1687102810.458339,-0.09913761913776398,0.5354205965995789,-0.838746964931488,0.006699882447719574,-0.004826784133911133,0.0030689239501953125,-0.022250188514590263,-0.038829222321510315,-0.013197394087910652,-0.11765143130270522,-0.5650056814954048,0.2945592420967848
1687102810.49937,-0.10318803042173386,0.5359871983528137,-0.8378961682319641,0.011940449476242065,0.006035566329956055,-0.0013219714164733887,-0.03533563017845154,-0.09327314049005508,-0.07265733182430267,-0.12253435816340391,-0.5656766367885192,0.2921689363561171
1687102810.545157,-0.10571814328432083,0.5355826616287231,-0.8378394246101379,-0.008554935455322266,-0.00041109323501586914,0.03377753496170044,-0.01688045635819435,0.061035096645355225,0.018060792237520218,-0.1255161560624391,-0.5651975254927064,0.2897336050730026
1687102810.614306,-0.1014898344874382,0.5367780923843384,-0.8375971913337708,-0.027141764760017395,-0.003773331642150879,-0.010806739330291748,-0.02366486005485058,0.11099950969219208,0.016924556344747543,-0.12058001495664232,-0.5666137703034502,0.2912253344108321
1687102810.667083,-0.0990377813577652,0.5353370904922485,-0.8388120532035828,0.001824021339416504,0.022615790367126465,-0.000985860824584961,0.07302040606737137,0.053822945803403854,0.003923802170902491,-0.11752499711409758,-0.5649068247420537,0.291542662799708
1687102810.709478,-0.09720379114151001,0.5333625078201294,-0.8402831554412842,-0.0030922293663024902,0.00264817476272583,-0.0020630359649658203,0.025110136717557907,0.03160541504621506,0.0002642851322889328,-0.11516790642640423,-0.5625707643741777,0.2917535611302606
1687102810.754709,-0.09569259732961655,0.5337185859680176,-0.8402305841445923,0.0011033564805984497,-0.015163898468017578,0.004857659339904785,-0.02903485670685768,0.030093472450971603,0.000554902944713831,-0.11339989648251275,-0.562991750498856,0.29194323701511665
1687102810.800477,-0.0951714888215065,0.5333314538002014,-0.8405355215072632,0.0011163055896759033,0.007409453392028809,0.004964232444763184,-0.013607697561383247,0.017047379165887833,0.002616788260638714,-0.11274702754546445,-0.5625340485106213,0.29184507695478074
1687102810.868881,-0.09468173235654831,0.5341228246688843,-0.8400881886482239,-2.9578804969787598e-05,0.0012623071670532227,0.0011600255966186523,0.02151593379676342,0.019882868975400925,0.006398544181138277,-0.11223091761985635,-0.5634698033181652,0.29170733954053546
1687102810.9079862,-0.09395551681518555,0.5342991352081299,-0.8400576114654541,-0.004372112452983856,0.0015894770622253418,-0.011016547679901123,-0.03560274466872215,0.009762833826243877,0.0031472905538976192,-0.11138125011346214,-0.5636783869157703,0.2920311028914744
1687102810.965544,-0.09383680671453476,0.5358452796936035,-0.8390854597091675,-0.0037584081292152405,0.009702146053314209,-0.008341848850250244,-0.029373079538345337,0.003553252201527357,0.0060288975946605206,-0.11136949574483168,-0.5655085899128683,0.2918773749947077
1687102811.014682,-0.09372009336948395,0.5361154079437256,-0.8389260172843933,-0.001418471336364746,0.009218454360961914,0.00034874677658081055,-0.029964566230773926,-0.00840110145509243,0.005607984960079193,-0.11125309097603771,-0.565828513909004,0.2921995261864423
1687102811.058539,-0.09324159473180771,0.5375625491142273,-0.8380528092384338,-0.0013476461172103882,-0.006953418254852295,0.006052076816558838,-0.027491021901369095,0.011771700344979763,0.009247394278645515,-0.11080410171427225,-0.5675438078142048,0.292531133618042
1687102811.0989761,-0.0922766923904419,0.5381143093109131,-0.8378055095672607,0.0017310231924057007,-0.004575490951538086,-0.0005276203155517578,-0.02133299596607685,0.014712585136294365,0.014806610532104969,-0.10969878577667105,-0.5681982538446945,0.2931997651604556
1687102811.1486092,-0.09160027652978897,0.5384467840194702,-0.8376660346984863,0.002534717321395874,-0.0014747381210327148,0.0019421577453613281,0.015368293970823288,0.012933570891618729,0.00728684151545167,-0.10891901043633119,-0.5685927835675385,0.29368264540020345
1687102811.21996,-0.0911329984664917,0.5388256311416626,-0.8374733924865723,0.0008314773440361023,-0.007301032543182373,-0.005589902400970459,-0.0051580206491053104,0.0046968357637524605,0.003831590060144663,-0.10839247708526974,-0.5690424484935831,0.2941344207350878
1687102811.269796,-0.09061844646930695,0.538698136806488,-0.8376112580299377,-0.004840552806854248,0.014692366123199463,-0.003498971462249756,0.01737391948699951,0.006217878311872482,0.015450229868292809,-0.10776760801642746,-0.5688911185064625,0.2948762985342517
1687102811.309832,-0.08986146748065948,0.5381473898887634,-0.8380467295646667,-0.003262914717197418,0.0012660026550292969,-0.003963768482208252,-0.0018056335393339396,0.002418412594124675,0.008708637207746506,-0.10681913466932676,-0.5682375056873369,0.295751828908904
1687102811.357518,-0.09001670032739639,0.5386193990707397,-0.8377267718315125,0.003224700689315796,-0.0046381354331970215,0.010532498359680176,-0.001030920073390007,0.0003617643378674984,0.002095807809382677,-0.10704281859232397,-0.5687976723162094,0.2958432644889329
1687102811.416703,-0.08941742777824402,0.5387778878211975,-0.8376890420913696,0.0024423152208328247,-0.00760418176651001,0.0007749795913696289,0.006441110745072365,0.00952388159930706,0.007183910347521305,-0.1063403207051226,-0.5689857836021522,0.29621077615646574
1687102811.4939241,-0.08962243795394897,0.5382069945335388,-0.8380340933799744,0.0008467882871627808,-0.0035542845726013184,0.0015472769737243652,0.00517797376960516,0.004819363355636597,0.010771054774522781,-0.10653874387875317,-0.5683082358495631,0.2964113259516355
1687102811.503993,-0.08948146551847458,0.5390542149543762,-0.8375044465065002,0.0008126348257064819,-0.006232559680938721,0.00046831369400024414,-0.012078510597348213,-0.0035322876647114754,0.001017826609313488,-0.10643918699841576,-0.5693137851419932,0.29655013187611023
1687102811.5653,-0.08965950459241867,0.5390916466712952,-0.8374612927436829,-0.00395318865776062,0.012818694114685059,-0.006014049053192139,-0.009500836953520775,-0.010414495132863522,-0.0011643008328974247,-0.10665481347756577,-0.5693582729455265,0.296798152697118
1687102811.6098309,-0.08972205221652985,0.5401315689086914,-0.8367842435836792,-0.004867181181907654,0.006331443786621094,-0.0082780122756958,-0.028770938515663147,-0.0131966108456254,0.0036371126770973206,-0.1068143537000588,-0.5705934128221993,0.2968623761339672
1687102811.677335,-0.08967650681734085,0.5402920246124268,-0.8366854786872864,0.001083970069885254,0.002753019332885742,0.006454825401306152,0.02651388943195343,-0.0009164863731712103,0.005572497844696045,-0.10677304925102281,-0.5707841301145513,0.297215624513626
1687102811.720293,-0.09020870923995972,0.5405560731887817,-0.8364577293395996,0.004210159182548523,-0.009809613227844238,0.0034499168395996094,-0.028535248711705208,-0.01537156943231821,4.0646642446517944e-05,-0.10743088640835866,-0.5710979236681504,0.29714183879146433
