Timestamp,gravityX,gravityY,gravityZ,accelerationX,accelerationY,accelerationZ,rotationRateX,rotationRateY,rotationRateZ,attitudeRoll,attitudePitch,attitudeYaw
1687100066.109446,-0.913785457611084,0.4047259986400604,0.03453746810555458,-0.010362982749938965,-0.0017871558666229248,-0.012625817209482193,-0.035554543137550354,-0.0039041535928845406,0.0013443026691675186,-1.6085743794727092,-0.41667916802088295,-1.3036633412034355
1687100066.1147199,-0.9139328598976135,0.4043532609939575,0.035005442798137665,0.00591278076171875,-0.007426321506500244,-0.014787551015615463,-0.04062653332948685,0.01772897131741047,0.0024902611039578915,-1.6090795989430644,-0.4162716104461124,-1.3072889606061031
1687100066.130713,-0.913927435874939,0.40447887778282166,0.033666737377643585,-0.00529247522354126,0.004121005535125732,-0.008382920175790787,-0.0020615635439753532,0.017025385051965714,-0.008982038125395775,-1.607617107767508,-0.416408937569394,-1.3065375530200474
1687100066.224931,-0.9142175912857056,0.40389153361320496,0.032833460718393326,-0.004239439964294434,0.005761206150054932,-0.0020412206649780273,-0.041514962911605835,0.05227179080247879,0.00177287170663476,-1.6066951724152643,-0.41576680186656406,-1.3098766768490584
1687100066.2309031,-0.9145663380622864,0.40317198634147644,0.03195178136229515,7.659196853637695e-05,-0.005222737789154053,-0.007598757743835449,-0.05893496423959732,0.045901816338300705,-0.006952575873583555,-1.605718659888629,-0.41498040639536166,-1.313380191793877
1687100066.344925,-0.9150683283805847,0.40215545892715454,0.030345730483531952,0.0024097561836242676,0.012608975172042847,0.007389305159449577,0.010274731554090977,0.04290442913770676,-0.029117001220583916,-1.603946433191887,-0.41386984251528275,-1.3147462924414395
1687100066.3506122,-0.9156240224838257,0.4009839594364166,0.029063692316412926,0.0005849599838256836,0.006715625524520874,0.012135028839111328,-0.06195099651813507,0.052571218460798264,-0.02260623872280121,-1.6025276238918913,-0.4125906922490493,-1.317356049040902
1687100066.4611568,-0.9160988926887512,0.39992162585258484,0.02873278595507145,0.0024331212043762207,0.006984531879425049,0.016082286834716797,-0.010299253277480602,0.03912154212594032,-0.023920506238937378,-1.6021503325025659,-0.4114313191234117,-1.3211796441165387
1687100066.467328,-0.9167013168334961,0.3985677659511566,0.028332257643342018,0.004485011100769043,-0.01194050908088684,0.01848173514008522,-0.06104472279548645,0.011792339384555817,-0.023230282589793205,-1.6016932412976272,-0.4099546838510816,-1.3222089803592596
1687100066.5561109,-0.9168433547019958,0.39813172817230225,0.029824215918779373,0.0024299025535583496,0.006775528192520142,0.015647053718566895,0.0012950848322361708,-0.012071957811713219,-0.008730901405215263,-1.6033140981722944,-0.4094792938847649,-1.3240580656713483
1687100066.5726418,-0.9171848297119141,0.39729043841362,0.03053084760904312,0.0037328004837036133,0.003115415573120117,0.0009633265435695648,-0.04088539257645607,0.009068836458027363,-0.025784719735383987,-1.6040716023955497,-0.4085623790799962,-1.3239981539613832
1687100066.584584,-0.9175491333007812,0.39644092321395874,0.03062685951590538,-8.380413055419922e-05,0.002957850694656372,-0.002169255167245865,0.021061599254608154,-0.00426241522654891,-0.012665456160902977,-1.6041629245322548,-0.4076368496161064,-1.3244098138590157
1687100066.63851,-0.917579174041748,0.396331250667572,0.031144272536039352,-0.0012897849082946777,0.007172137498855591,-0.008622290566563606,0.03385196253657341,-0.019421882927417755,-0.008663923479616642,-1.6047250849963552,-0.4075173840011813,-1.323525277742336
1687100066.6711988,-0.9175286293029785,0.3965027332305908,0.030441099777817726,-0.008603513240814209,0.00695490837097168,-0.007476570084691048,0.03476409614086151,0.018632736057043076,0.0007966901175677776,-1.6039614371087236,-0.40770418981146644,-1.3215721220836945
1687100066.7293549,-0.9175153374671936,0.39665138721466064,0.028870947659015656,0.003956258296966553,0.01620575785636902,-0.01065194234251976,0.017980322241783142,0.014670973643660545,0.0075825578533113,-1.6022523943888274,-0.4078661077614364,-1.3203517169557157
1687100066.757856,-0.9171701669692993,0.3975987136363983,0.026727771386504173,0.0008492469787597656,0.01724204421043396,-0.015619393438100815,0.11285277456045151,0.027684355154633522,0.0235179141163826,-1.599929643570205,-0.40889831491714845,-1.3172506490755145
1687100066.821063,-0.9166619777679443,0.3989797830581665,0.023364147171378136,-0.0014135241508483887,-0.015099167823791504,0.0019501447677612305,0.09332381188869476,0.031206851825118065,0.02868957445025444,-1.5962791010522892,-0.41040397029454306,-1.3114893353905033
1687100066.848298,-0.9161452054977417,0.4003599286079407,0.019748980179429054,0.007438540458679199,-0.017043888568878174,-0.0046732425689697266,-0.03144262358546257,0.032241422683000565,0.015843350440263748,-1.592349593599057,-0.4119095961133397,-1.305161854934034
1687100066.9086971,-0.9156390428543091,0.40161582827568054,0.017603833228349686,-0.004633784294128418,0.011225968599319458,-0.015147209167480469,0.1342448741197586,0.04908547177910805,0.0170042235404253,-1.5900196923449,-0.41328052963542156,-1.304153703140074
1687100067.035637,-0.9156157374382019,0.40181705355644226,0.013807148672640324,-0.0040618181228637695,-0.039405614137649536,-0.008207203820347786,-0.08263257145881653,0.06654451787471771,0.017753835767507553,-1.5858748162522611,-0.41350028362948493,-1.3004375087430338
1687100067.050245,-0.9153013229370117,0.4026183784008026,0.01103996206074953,0.0011168122291564941,0.012191832065582275,-0.008598566986620426,-0.00744194770231843,0.08085058629512787,0.007066103629767895,-1.5828573019223233,-0.414375505110432,-1.3031833862037083
1687100067.153399,-0.915543258190155,0.4021250903606415,0.008709713816642761,-0.006972551345825195,-0.011286437511444092,0.0009338855743408203,-0.08207064121961594,0.08475598692893982,0.0055884490720927715,-1.5803092045818048,-0.41383669119839733,-1.3069727341256139
1687100067.16957,-0.9159626960754395,0.40120378136634827,0.006906205788254738,-0.002829909324645996,-0.020970016717910767,0.007101415656507015,-0.3190627098083496,0.10889807343482971,-0.04505182430148125,-1.5783360170951706,-0.4128306526406083,-1.312654381666261
1687100067.274984,-0.9166290760040283,0.3996715545654297,0.0073454976081848145,0.0038634538650512695,0.029680341482162476,-0.0011656275019049644,-0.07905008643865585,0.1479271650314331,-0.003826557658612728,-1.5788097541898594,-0.4111585184684688,-1.330861355881503
1687100067.279182,-0.9168688654899597,0.3991841673851013,-0.0019182447576895356,0.01789724826812744,0.021500706672668457,0.0027269721031188965,0.2273111790418625,0.05446155369281769,-0.0034340741112828255,-1.5687041606164,-0.4106268598126569,-1.3185188435596682
1687100067.364716,-0.9160708785057068,0.40100887417793274,-0.0024222901556640863,-0.012166917324066162,-0.012886345386505127,0.026683807373046875,-0.05864068493247032,-0.0023060792591422796,0.05117124691605568,-1.568152115821088,-0.412617884953753,-1.3188556230526507
1687100067.381541,-0.9154296517372131,0.40246573090553284,-0.0031461294274777174,0.01114809513092041,0.005691617727279663,0.012789666652679443,0.06545942276716232,0.002969753462821245,0.01795104146003723,-1.5673595615000346,-0.41420875673768776,-1.317103316401033
1687100067.392784,-0.9149829149246216,0.40348565578460693,-0.0023824104573577642,-0.003977656364440918,-0.003995269536972046,0.016237378120422363,-0.006286934949457645,-0.020841680467128754,0.025385458022356033,-1.5681925568330704,-0.4153231632169595,-1.3168406065626574
1687100067.482238,-0.9146133065223694,0.40432754158973694,-0.0013900052290409803,0.00805807113647461,0.0022887587547302246,0.005097866058349609,0.034313224256038666,-0.014001816511154175,0.015623839572072029,-1.5692765542689122,-0.4162434617725913,-1.3158117845495156
1687100067.495918,-0.9143166542053223,0.40499934554100037,-0.0005043534329161048,0.005427062511444092,-0.003967911005020142,0.0013130904408171773,0.04312855005264282,-0.028296157717704773,0.019913392141461372,-1.5702447089483564,-0.41697812864864126,-1.3142488084325639
1687100067.609425,-0.914139449596405,0.40540000796318054,-6.255327753024176e-05,-0.001265883445739746,-0.007435470819473267,-0.0034775137901306152,-0.055657148361206055,-0.015152191743254662,0.005313477944582701,-1.5707278981995587,-0.4174163696576226,-1.3115905141429718
1687100067.614394,-0.9140596985816956,0.4055800139904022,-2.8135264074080624e-05,0.005734443664550781,0.009581148624420166,-0.012682437896728516,0.09359705448150635,0.00048300460912287235,-0.005940374918282032,-1.570765546240897,-0.41761329787424833,-1.3115415273621969
1687100067.7248502,-0.9144601821899414,0.4046669900417328,-0.0026314114220440388,-0.0007007718086242676,-0.013462156057357788,-0.005409955978393555,0.0914449542760849,-0.006376809906214476,-0.014127064496278763,-1.5679187775624077,-0.4166146399218171,-1.3043395424779534
1687100067.729846,-0.9145103693008423,0.40453875064849854,-0.004387710243463516,0.006230950355529785,0.008333593606948853,-0.0056983232498168945,0.09797688573598862,0.008764214813709259,-0.01687737926840782,-1.565998484483361,-0.41647440147524467,-1.300305787153858
1687100067.817632,-0.9148852229118347,0.4036659598350525,-0.006216094363480806,0.0003193020820617676,-0.02511066198348999,0.0020352606661617756,-0.014694001525640488,-0.009438512846827507,-0.0011410927399992943,-1.5640020335362643,-0.4155202419707159,-1.2952667164472174
1687100067.833324,-0.9149133563041687,0.4036000669002533,-0.006369791459292173,0.004299342632293701,0.008616149425506592,-0.008599042892456055,0.07068667560815811,-0.003375227563083172,-0.02079582028090954,-1.5638342590212069,-0.41544822554104344,-1.2949659995441367
1687100067.843363,-0.9153456687927246,0.4026150703430176,-0.0066034444607794285,-0.0018906593322753906,-0.00436064600944519,-0.0008276104927062988,0.04657228663563728,-0.004020888824015856,-0.003845399245619774,-1.5635822982509298,-0.4143719116028728,-1.2935989942112185
1687100067.932199,-0.9154285192489624,0.4024246633052826,-0.0067240702919662,-0.002357184886932373,-0.012760907411575317,0.004664122126996517,0.01658003218472004,-0.006713144946843386,-0.0035446621477603912,-1.56345118823403,-0.41416389211715593,-1.2926696242551496
1687100067.9453468,-0.9157941937446594,0.4016043543815613,-0.005924179684370756,-0.00022149085998535156,-0.009850144386291504,0.006809174083173275,-0.0028655717615038157,-0.0016294812085106969,-0.00463562598451972,-1.5643275185993477,-0.41326802331915363,-1.2931088367898274
1687100068.053618,-0.9160234332084656,0.4010158181190491,-0.009354074485599995,-0.004997134208679199,0.02780202031135559,-0.0059657106176018715,0.44372016191482544,0.02434215322136879,-0.019988350570201874,-1.5605850713707285,-0.4126254506688082,-1.2834786537251897
1687100068.0676088,-0.9163416624069214,0.39897191524505615,-0.03375636041164398,0.0006312131881713867,0.11923184990882874,-0.017833590507507324,1.8782353401184082,0.0013382344041019678,-0.03903334587812424,-1.5339747951141445,-0.4103953901435581,-1.2200459934701375
1687100068.1488252,-0.9168893098831177,0.39028841257095337,-0.08360061049461365,-0.010143160820007324,0.10856717824935913,0.013898491859436035,4.071645259857178,-0.12382765114307404,-0.01825449988245964,-1.4798692303338237,-0.4009448346949349,-1.0799187414351161
1687100068.163148,-0.9192600846290588,0.3411298990249634,-0.19644659757614136,0.06055653095245361,0.4705003798007965,0.10539741814136505,10.142783164978027,-0.8183320760726929,0.20301756262779236,-1.360262312908761,-0.3481186203497837,-0.6873953462260324
1687100068.2653708,-0.9277446866035461,0.2109069526195526,-0.3079093098640442,-0.030278384685516357,0.03010563552379608,0.4957450032234192,10.946483612060547,-0.893147885799408,0.31714287400245667,-1.2503452274952205,-0.21250269476699976,-0.13602104290806266
1687100068.280692,-0.9429441094398499,0.06186997517943382,-0.32715198397636414,-0.04953324794769287,-0.05312666669487953,0.534656286239624,10.031105041503906,-1.3301756381988525,0.7425013184547424,-1.236843572828953,-0.06190951425770641,0.37790570589260963
1687100068.319092,-0.9651759266853333,-0.02189459837973118,-0.2606840133666992,-0.07857102155685425,-0.17975029349327087,0.48814672231674194,8.52426815032959,-1.6013556718826294,1.6434922218322754,-1.307000940061232,0.02189634755042204,0.8287952773636279
1687100068.3819199,-0.9850274324417114,0.01297538448125124,-0.17190921306610107,-0.4524116516113281,-0.02104729227721691,0.3710364103317261,7.641039848327637,-1.053997278213501,3.545229434967041,-1.3980142375713698,-0.01297574858588599,1.2867522690640056
1687100068.394434,-0.9708698391914368,0.175307035446167,-0.16333793103694916,-0.6177074313163757,-0.10314825177192688,0.17710131406784058,3.4233033657073975,-0.4228840172290802,4.361422538757324,-1.4041184319336093,-0.17621762616325096,1.5739127078003547
1687100068.436276,-0.9165822267532349,0.3773198425769806,-0.13231302797794342,-0.33286845684051514,-0.411774218082428,-0.20602011680603027,-3.250685453414917,-0.4855023920536041,4.13979434967041,-1.4274319005228318,-0.38690049775217206,1.5973622516886647
1687100068.470501,-0.8163537383079529,0.5730900764465332,-0.07165311276912689,-0.29315853118896484,0.6088861227035522,-0.1872275322675705,0.4575808346271515,-0.4662654399871826,4.18502140045166,-1.4832485524862598,-0.6102716343124548,1.5277809138964276
1687100068.531903,-0.6863054633140564,0.7270968556404114,0.01774291694164276,0.0710100531578064,-0.6369327902793884,-0.3607604503631592,-4.847428798675537,0.04318907856941223,3.872927665710449,-1.5966433684271835,-0.8140837592613224,1.3774511664618934
1687100068.558364,-0.5429252982139587,0.8324422836303711,0.11077896505594254,-0.16605913639068604,0.1397256851196289,-0.28031933307647705,-0.2427988052368164,-0.05830645561218262,3.2673516273498535,-1.7720743309702274,-0.9835007915774847,1.1538216470760476
1687100068.6208282,-0.42559030652046204,0.8876027464866638,0.17616592347621918,-0.13840514421463013,-0.6360615491867065,-0.33697831630706787,-2.0363404750823975,0.661922037601471,2.107534885406494,-1.9632560014937648,-1.09211430315516,0.9227554818927518
1687100068.7446132,-0.36599498987197876,0.9173762202262878,0.15642356872558594,-0.08262863755226135,-0.4206417202949524,-0.27907371520996094,1.2202454805374146,0.10488539934158325,0.8503215909004211,-1.9746918189304365,-1.1614375124258625,0.888356363439421
1687100068.75071,-0.34910091757774353,0.9271788597106934,0.13589641451835632,-0.04814636707305908,-0.45173031091690063,0.1354658454656601,0.32661351561546326,-0.30149003863334656,0.034947801381349564,-1.9420233362484383,-1.186810483418494,0.9273834169202182
1687100068.864396,-0.35865628719329834,0.9257993698120117,0.1194203794002533,0.11877283453941345,-0.11018657684326172,0.041254639625549316,0.4182691276073456,-0.2974807322025299,-0.40452563762664795,-1.8922163398053258,-1.1831447238640522,1.000319089666751
1687100068.8808851,-0.3717310428619385,0.9242674708366394,0.08686602860689163,0.08240914344787598,0.1241334080696106,0.11346662044525146,1.0609426498413086,-0.09110849350690842,-0.1907639503479004,-1.800356799096328,-1.1791121778194134,1.1094694179321567
1687100068.982544,-0.3752252161502838,0.9239180088043213,0.07470948994159698,0.06863036751747131,-0.008879005908966064,0.05270134657621384,-0.17873619496822357,0.0929623395204544,0.02291417494416237,-1.767331854411899,-1.178197756003916,1.1455229295033105
1687100068.997334,-0.3693189322948456,0.9269145131111145,0.06658060103654861,0.05008977651596069,0.10766184329986572,0.03846085071563721,0.04990683123469353,0.16681252419948578,0.16753266751766205,-1.7491599023608542,-1.1861055766228428,1.1590879100769433
1687100069.078671,-0.36220037937164307,0.9284215569496155,0.08272983878850937,0.022127777338027954,-0.005493760108947754,0.044757358729839325,-0.30873629450798035,0.13477018475532532,0.19402241706848145,-1.7953531692971068,-1.1901415382566582,1.1010404516770211
1687100069.084507,-0.35765448212623596,0.9304631352424622,0.07950787246227264,-0.08089837431907654,-0.11298888921737671,-0.07943166047334671,-0.33372366428375244,0.15730737149715424,0.0013091485016047955,-1.7895428091405214,-1.1956748164157005,1.0977755230440465
1687100069.101016,-0.3584630489349365,0.9273499846458435,0.10735981166362762,-0.04058477282524109,0.11538982391357422,-0.07347012311220169,-0.22944971919059753,0.06149959936738014,0.05732627585530281,-1.8617946537918018,-1.1872676077238054,1.0120885479593418
1687100069.195166,-0.3553504943847656,0.9282674193382263,0.10975232720375061,0.017276734113693237,-0.050383567810058594,0.04333913326263428,-0.3352203667163849,0.048582155257463455,0.045765895396471024,-1.8703584631016912,-1.1897268817083413,1.0006567436034688
1687100069.201056,-0.3533150553703308,0.9275628924369812,0.12163805216550827,-0.014467567205429077,0.06358706951141357,0.04749037325382233,0.2589167654514313,0.021174723282456398,0.06927641481161118,-1.9023631383580135,-1.1878369940641174,0.9640444245674442
1687100069.316134,-0.3511260151863098,0.9299231171607971,0.10933061689138412,-0.00586855411529541,-0.09271931648254395,0.0086960569024086,-0.1174459457397461,0.05054328590631485,-0.008597011677920818,-1.8726527284937677,-1.1942036634828612,0.9942038538907892
1687100069.330167,-0.35609784722328186,0.9268942475318909,0.11858101189136505,0.01697126030921936,-0.06040865182876587,0.06406664848327637,-0.25194358825683594,-0.11601559817790985,-0.19074977934360504,-1.892247930193238,-1.1860515100059563,0.9747178736175128
1687100069.433619,-0.3616872727870941,0.9224851727485657,0.13491924107074738,-0.003302931785583496,0.09188848733901978,-0.04957689344882965,-0.295124351978302,0.009024761617183685,0.001521070022135973,-1.9278363963709226,-1.17446944603194,0.9399210557027473
1687100069.449345,-0.36057746410369873,0.9219309687614441,0.14151757955551147,-0.005419880151748657,-0.002390563488006592,-0.01276397705078125,-0.006728487089276314,0.059873316437006,0.03661574050784111,-1.9447987159755242,-1.1730363134579895,0.9195938159225777
1687100069.526434,-0.35901206731796265,0.9229017496109009,0.13915161788463593,0.014132827520370483,-0.023090720176696777,0.015236884355545044,-0.03276115283370018,-0.004755299538373947,0.03994229435920715,-1.9405640213971784,-1.1755499877710847,0.9225531328276366
1687100069.532237,-0.3603059947490692,0.921558678150177,0.14460060000419617,-0.010787785053253174,-0.0900004506111145,0.059211015701293945,-0.12105799466371536,-0.07022325694561005,-0.10519306361675262,-1.9524463069412301,-1.1720762947779297,0.9126256320427647
1687100069.550506,-0.36757582426071167,0.9182543754577637,0.1472988724708557,0.024558216333389282,-0.05694156885147095,0.0033053159713745117,0.006576399318873882,-0.0034976000897586346,-0.19976623356342316,-1.9519323519382068,-1.1636494894291973,0.9159683053324935
1687100069.643787,-0.3732973337173462,0.9172236323356628,0.13910385966300964,0.04450097680091858,0.06242108345031738,0.002253517508506775,0.245075523853302,0.0036687226966023445,-0.06605338305234909,-1.927492468293211,-1.161054350834935,0.9434418184126789
1687100069.6495519,-0.37964126467704773,0.9137901663780212,0.1444297581911087,-0.023114442825317383,-0.10760736465454102,0.015070304274559021,-0.5231114625930786,-0.030404137447476387,-0.28819358348846436,-1.9343255375703892,-1.1525194194733541,0.9366318068843266
1687100069.766407,-0.4023708403110504,0.8952211141586304,0.1915115863084793,0.016155660152435303,-0.18844938278198242,0.05876299738883972,-1.1998049020767212,-0.1301063448190689,-0.7892948389053345,-2.015025960431329,-1.1089270811313738,0.8522532205575818
1687100069.780167,-0.45614272356033325,0.8521842360496521,0.25635015964508057,0.010662436485290527,-0.4958154559135437,0.05578356981277466,-2.0123307704925537,-0.1522931605577469,-1.8486438989639282,-2.0828024744819467,-1.0201456807882305,0.7838051686787191
1687100069.8839421,-0.5579469203948975,0.7514097094535828,0.35224753618240356,-0.007131755352020264,-0.5311797261238098,-0.11776581406593323,-2.408918619155884,0.5198671817779541,-3.0239763259887695,-2.1339332061779945,-0.8501959459922629,0.7123347265754024
1687100069.8990111,-0.6951797604560852,0.5990787744522095,0.3972780406475067,0.01445460319519043,-0.2544132471084595,-0.3339540362358093,-2.5045926570892334,1.685308814048767,-3.7595016956329346,-2.089977648328065,-0.6423500897608895,0.6970718929120917
1687100069.978568,-0.839621365070343,0.3837820291519165,0.3843788206577301,-0.2601557970046997,-0.1771322786808014,-0.18650296330451965,-3.9518470764160156,3.067333698272705,-3.973719596862793,-2.000117916790648,-0.3938884858497822,0.6370955842977024
1687100069.984428,-0.9535230994224548,0.14755834639072418,0.26271727681159973,-0.4655596613883972,0.1531618982553482,-0.0653601586818695,-4.911953449249268,4.933870315551758,-2.8803422451019287,-1.8396484395313362,-0.1480991327919813,0.4813708212416724
1687100070.000558,-0.9998664855957031,0.016297057271003723,-0.0010732045629993081,-0.7723196148872375,0.31437617540359497,0.2910054326057434,-6.601570129394531,6.041347026824951,-1.126268982887268,-1.5697229793351277,-0.016297779334866112,0.24568749935378748
1687100070.0940108,-0.9619606733322144,0.11335738748311996,-0.24855951964855194,-0.7574759125709534,-0.19982892274856567,0.9934935569763184,-14.010838508605957,4.245481967926025,1.8749241828918457,-1.317938374097668,-0.11360157561008681,-0.27235066686327336
1687100070.1003242,-0.8993690013885498,0.3879685699939728,-0.20153357088565826,0.1554267406463623,0.2903609275817871,0.6736557483673096,-10.45858097076416,1.3158971071243286,2.0641207695007324,-1.3503545912918005,-0.39842648977546763,-0.9200342625448301
1687100070.217021,-0.8635390400886536,0.49050113558769226,-0.1170860007405281,0.15360862016677856,0.31264522671699524,0.06751024723052979,-1.283212661743164,0.37609755992889404,0.6541334390640259,-1.436029637740581,-0.5126647306824244,-1.2027328282172394
1687100070.231888,-0.8512586355209351,0.510991632938385,-0.1193573847413063,-0.10078287124633789,-0.2731528878211975,-0.15589593350887299,-0.35931825637817383,-0.12611685693264008,0.5672351717948914,-1.4314916466243952,-0.5363380031364289,-1.1985481005200422
1687100070.332968,-0.8369118571281433,0.5405445098876953,-0.0859675407409668,-0.07243573665618896,-0.28784358501434326,0.0240321084856987,-0.42627784609794617,-0.4377058446407318,0.5254429578781128,-1.4684353939250447,-0.571084163293352,-1.2410801478310047
1687100070.349314,-0.8313563466072083,0.5517392754554749,-0.06655976176261902,-0.0666080117225647,-0.15389692783355713,-0.1567373275756836,0.05242644622921944,-0.2984102666378021,0.06843937933444977,-1.490905076231225,-0.5844482547412154,-1.2441807220334593
1687100070.4283462,-0.8317446112632751,0.5519478917121887,-0.05961899086833,-0.016445636749267578,-0.14227992296218872,-0.005734384059906006,0.06878145039081573,-0.2599659562110901,-0.01554233580827713,-1.4992392698424155,-0.5846983878216023,-1.2345291744459561
1687100070.433919,-0.8328324556350708,0.5513549447059631,-0.04897031933069229,-0.02289581298828125,-0.05977773666381836,-0.09437073022127151,-0.09749327600002289,-0.20311221480369568,-0.0358344241976738,-1.5120642254489698,-0.5839874661891369,-1.2374733275687997
1687100070.4500098,-0.8354671001434326,0.5472234487533569,-0.050413548946380615,-0.014142334461212158,0.006304442882537842,-0.1196303442120552,0.6101088523864746,-0.07789783924818039,-0.12640826404094696,-1.5105276507933867,-0.5790432865727866,-1.2208997844609482
1687100070.5452719,-0.839586615562439,0.5393284559249878,-0.06495380401611328,-0.01177746057510376,0.006218969821929932,-0.031176559627056122,0.4693562686443329,0.013822645880281925,-0.1272171437740326,-1.4935860897096107,-0.5696394564804265,-1.1873997180431066
1687100070.55155,-0.8420042395591736,0.5342710614204407,-0.07472114264965057,-0.01637887954711914,0.025543391704559326,-0.04220700263977051,0.293046236038208,0.03691593557596207,-0.06654380261898041,-1.4822861847821214,-0.5636452118394525,-1.1700732262085154
1687100070.66437,-0.8432297706604004,0.5305176377296448,-0.08668720722198486,-0.0012831687927246094,0.050506532192230225,0.010408520698547363,0.5391566753387451,0.0711321011185646,-0.033642176538705826,-1.4683524283650937,-0.5592110936270839,-1.147435752385842
1687100070.670905,-0.8439998626708984,0.526997983455658,-0.09968515485525131,-0.0022829771041870117,-0.03905242681503296,0.0015254169702529907,0.17130835354328156,0.05464739724993706,-0.03401235491037369,-1.4532305947242854,-0.5550643188350746,-1.124867263590412
1687100070.780694,-0.8447543978691101,0.5247562527656555,-0.10497972369194031,-0.009447753429412842,0.019875705242156982,0.02790762484073639,0.2575814425945282,0.020462151616811752,-0.035307783633470535,-1.4471577202704953,-0.5524287224541754,-1.1147498684541421
1687100070.78616,-0.8455302119255066,0.5203337073326111,-0.1197146400809288,0.00011706352233886719,0.0002657175064086914,0.014871478080749512,0.6393232345581055,0.059380341321229935,-0.037771210074424744,-1.430145910500153,-0.5472416701657282,-1.087068646097014
1687100070.877707,-0.8466252684593201,0.5162906050682068,-0.12911231815814972,-0.0012905001640319824,-0.037912189960479736,0.04120644927024841,-0.04920750483870506,0.07278174161911011,-0.019930358976125717,-1.4194600265226376,-0.5425139553184045,-1.0719619084502199
1687100070.883432,-0.8460866212844849,0.5155507326126099,-0.13544273376464844,0.004259347915649414,0.008191943168640137,0.008047118782997131,0.2513086497783661,0.07163771986961365,-0.006708364002406597,-1.4120616954382061,-0.5416502251527956,-1.065193648363739
1687100070.899925,-0.8464590907096863,0.5126405358314514,-0.14389804005622864,0.004372358322143555,-0.005926609039306641,0.017936766147613525,0.35871046781539917,-0.03035360388457775,-0.019980693235993385,-1.4024061841641595,-0.5382573428290973,-1.0495619924843416
1687100070.9970012,-0.8475996255874634,0.5103207230567932,-0.1454220861196518,-0.011607468128204346,-0.05376249551773071,0.026540890336036682,0.004179288167506456,0.02406591735780239,-0.028792161494493484,-1.4008813401887963,-0.5355576993927544,-1.0418960726985282
1687100071.003341,-0.8486628532409668,0.5084876418113708,-0.14564305543899536,0.011031568050384521,-0.005130648612976074,0.020795628428459167,0.006960161030292511,-0.009788740426301956,-0.05715116485953331,-1.4008372114754324,-0.5334275087357098,-1.0427645372609256
1687100071.11532,-0.8507802486419678,0.5053632259368896,-0.1441558599472046,-0.011188685894012451,0.0044481754302978516,-0.005944833159446716,0.037685051560401917,-0.05835319310426712,-0.008222304284572601,-1.402950881581531,-0.529802857329991,-1.0423112149508091
1687100071.129199,-0.8515501618385315,0.5046777725219727,-0.14199575781822205,0.008105278015136719,-0.01360410451889038,-0.00033821165561676025,0.04864449054002762,-0.038846515119075775,-0.01712764799594879,-1.4055668423610677,-0.5290087031561455,-1.0397851030814937
1687100071.232307,-0.8520047664642334,0.5020776391029358,-0.1483437716960907,0.003967106342315674,0.046628355979919434,-0.00233672559261322,0.5605854988098145,0.011349300853908062,-0.014045506715774536,-1.3984129475532243,-0.5259994901001818,-1.025540691485635
1687100071.24736,-0.8535664677619934,0.4958571791648865,-0.15984311699867249,-0.005274355411529541,-0.07958212494850159,0.013190880417823792,0.2969200611114502,-0.06886184960603714,-0.04846106842160225,-1.3856754271519525,-0.5188216161306073,-0.9950945799489325
1687100071.357212,-0.855622410774231,0.4880397915840149,-0.17241640388965607,0.007325351238250732,0.012295901775360107,0.03896303474903107,1.8309962749481201,-0.19101163744926453,-0.10365934669971466,-1.3719493463406343,-0.509842512980017,-0.9561522524654478
1687100071.362691,-0.8652997016906738,0.4234786629676819,-0.2681833803653717,0.03142213821411133,0.4076675772666931,0.026163697242736816,8.621246337890625,-0.922877311706543,-0.18320897221565247,-1.270253418584444,-0.43728185901823424,-0.6780426644378775
1687100071.378752,-0.8936521410942078,0.2219211459159851,-0.39004725217819214,0.03885483741760254,0.4577358663082123,0.5898916125297546,14.742575645446777,-2.3884339332580566,0.4810525178909302,-1.1592555220346108,-0.22378430506511057,-0.09497994332898237
1687100071.479477,-0.9435061812400818,0.023939212784171104,-0.3304891288280487,-0.30632591247558594,0.32983583211898804,1.057234764099121,13.150506019592285,-3.0897374153137207,3.236421585083008,-1.233874167205815,-0.023941500318457744,0.6447289771155952
1687100071.4839969,-0.9695335030555725,0.07783648371696472,-0.23226356506347656,-0.67751544713974,-0.04228353500366211,0.6677951812744141,7.691869258880615,-1.7318755388259888,4.445912837982178,-1.3356653544334904,-0.07791529768318549,1.1954784476136562
1687100071.52998,-0.9541608691215515,0.24478743970394135,-0.17220908403396606,-0.16507118940353394,-0.7159789204597473,0.24900652468204498,-1.1557908058166504,-1.2115453481674194,3.6468052864074707,-1.392236330963866,-0.24730046059523658,1.3724339888644017
1687100071.5935168,-0.9022389650344849,0.4175332486629486,-0.10784603655338287,-0.18922221660614014,0.11516633629798889,-0.09021306037902832,-0.5775792002677917,-0.9611504673957825,3.454432487487793,-1.4518292077112773,-0.43072891784414447,1.3406374090803206
1687100071.6558862,-0.8211324214935303,0.5686433911323547,-0.04884747788310051,-0.25447481870651245,-0.12371248006820679,-0.045360323041677475,-1.6438912153244019,-0.585398256778717,3.341651201248169,-1.51137840798195,-0.6048557285109923,1.2967755030674026
1687100071.671447,-0.723092794418335,0.6906747221946716,0.010267731733620167,-0.25968003273010254,-0.15751737356185913,-0.1459946632385254,-1.0365434885025024,-0.4957215487957001,2.8374526500701904,-1.5849951150295043,-0.762421651662861,1.2297528879137989
1687100071.70663,-0.61235511302948,0.7858272790908813,0.08658326417207718,-0.37440019845962524,0.06478911638259888,-0.16322815418243408,-1.3450493812561035,-0.7736299633979797,2.8092801570892334,-1.7112590949261222,-0.9040326471366927,1.108392144699587
1687100071.73898,-0.5027710795402527,0.8494629859924316,0.16010694205760956,-0.1920531988143921,-0.2656921148300171,-0.22126422822475433,-0.9073126316070557,-0.5561286807060242,2.2642664909362793,-1.8790917155832807,-1.0149666651739406,0.9500760059984013
1687100071.8027902,-0.43949833512306213,0.8848671913146973,0.15443827211856842,-0.06620839238166809,-0.626963198184967,-0.6457407474517822,0.9785052537918091,-0.04186474159359932,0.69114750623703,-1.9087149056298254,-1.086208798408677,0.9230273994738674
1687100071.829546,-0.4223608672618866,0.8985866904258728,0.11896641552448273,-0.015932559967041016,-0.15899336338043213,-0.0607084184885025,0.7614299654960632,0.08371994644403458,0.12644436955451965,-1.845353014753456,-1.1165380019624385,0.9868663584531027
1687100071.8581018,-0.41128307580947876,0.9044356346130371,0.11332546174526215,0.3056159019470215,0.14433157444000244,-0.012892112135887146,0.24235376715660095,-0.07579627633094788,0.34283214807510376,-1.8396656745779087,-1.130054900565423,0.9954724009291499
1687100071.919224,-0.38944247364997864,0.9169616103172302,0.0866934210062027,0.11270910501480103,-0.005127012729644775,0.1462777853012085,0.5041946768760681,-0.048790160566568375,0.4300132989883423,-1.7898338749628075,-1.1603970966201134,1.0566061491132592
1687100071.988175,-0.3742656707763672,0.9212617874145508,0.10583940148353577,0.0402812659740448,-0.19880390167236328,0.15238511562347412,-0.6984422206878662,0.03254859521985054,0.24567526578903198,-1.8463923344389894,-1.171312266948619,0.9936885415620589
1687100072.105176,-0.36448588967323303,0.9249651432037354,0.10765523463487625,-0.015427440404891968,0.012748539447784424,0.03817296028137207,0.05688298121094704,0.1756618171930313,0.20593053102493286,-1.857992535761212,-1.1809438024684116,0.9761994568439609
1687100072.120511,-0.358155757188797,0.9252519607543945,0.12503178417682648,0.020829737186431885,-0.05502814054489136,-0.009370237588882446,-0.574418842792511,0.07679220288991928,0.13215717673301697,-1.9066681881219627,-1.1816992941128526,0.9149622254957481
1687100072.2243462,-0.35886096954345703,0.9238012433052063,0.13345468044281006,-0.010249137878417969,-0.0843694806098938,-0.09683358669281006,-0.13561855256557465,0.1425883024930954,-0.1300996094942093,-1.9268324334478,-1.1778926635637503,0.887869140563163
1687100072.229548,-0.3664378821849823,0.9212533831596375,0.13044287264347076,1.3321638107299805e-05,0.040843665599823,-0.012629762291908264,0.30193158984184265,0.17689372599124908,-0.022163819521665573,-1.9127844821228492,-1.1712906527592244,0.8911987911338872
1687100072.346479,-0.3636234700679779,0.9247854948043823,0.112024687230587,-0.004723697900772095,0.039493560791015625,0.05087803304195404,0.04464335739612579,0.07015476375818253,0.1136091947555542,-1.8696482976364102,-1.18047144391345,0.9321801652933586
1687100072.3513122,-0.36076879501342773,0.9256150126457214,0.11437956988811493,-0.019007176160812378,0.010725259780883789,0.027664415538311005,0.11907551437616348,-0.014399116858839989,0.06663815677165985,-1.877815514637195,-1.182657429567962,0.920423233395188
1687100072.4371982,-0.35824111104011536,0.9269827604293823,0.11120440810918808,-0.0007066428661346436,-0.049495577812194824,0.06691133975982666,-0.047295354306697845,-0.03299366310238838,0.03907017409801483,-1.8717831076458964,-1.1862873977924187,0.9286184493118217
1687100072.4519958,-0.356609046459198,0.9271479249000549,0.11500803381204605,-0.02876695990562439,0.01074892282485962,0.024640336632728577,-0.04369635879993439,0.042389243841171265,0.03834233433008194,-1.8827694940367736,-1.1867280452124944,0.9165619277135779
1687100072.462741,-0.35509753227233887,0.9276968836784363,0.1152583658695221,0.01241561770439148,-0.009468555450439453,-0.030205950140953064,-0.03378167375922203,0.18315210938453674,0.05193823575973511,-1.8846503557096441,-1.1881956586680709,0.9085568466118007
1687100072.550393,-0.3537284731864929,0.9286161661148071,0.1120188981294632,0.01403731107711792,0.020266830921173096,0.0029255151748657227,0.07131065428256989,0.13745880126953125,0.08071649074554443,-1.877485177746208,-1.1906657430654721,0.9077984036519294
1687100072.5636868,-0.35081997513771057,0.9302625060081482,0.10740935802459717,-0.02364593744277954,-0.015421926975250244,0.011960014700889587,0.019074348732829094,0.061656661331653595,0.03215467929840088,-1.8679009164693408,-1.1951276101229638,0.9121061649812082
1687100072.676503,-0.3491247892379761,0.9312160611152649,0.1046353206038475,0.0021093785762786865,0.04060095548629761,0.03011500835418701,0.2528194487094879,0.008829640224575996,0.08329848945140839,-1.861984760853565,-1.1977352950576394,0.917718378265444
1687100072.681491,-0.34208714962005615,0.9352568984031677,0.09094472974538803,-0.03636133670806885,0.05181884765625,-0.024126529693603516,0.07984501868486404,0.07028613984584808,0.15558326244354248,-1.8306384656184322,-1.208984178632365,0.9489332235201474
1687100072.793992,-0.3388091027736664,0.9365347623825073,0.0900597870349884,0.005648702383041382,-0.07859426736831665,0.06365727633237839,-0.11131588369607925,0.043400201946496964,-0.00442184042185545,-1.8306013522203783,-1.2126116999316623,0.9454379841063092
1687100072.799957,-0.3396320044994354,0.9360470771789551,0.09201095998287201,-0.003019362688064575,0.04794645309448242,0.006240367889404297,0.20309211313724518,0.06288255751132965,0.03881591185927391,-1.8353595622313608,-1.2112230533208457,0.9374286057436946
1687100072.887294,-0.3376876711845398,0.9375356435775757,0.08362861722707748,0.012980669736862183,-0.041310787200927734,0.016118042171001434,-0.12717926502227783,0.06767943501472473,-0.02527572400867939,-1.8135627434724697,-1.2154776473711402,0.9567382622969709
1687100072.902972,-0.3455546200275421,0.9324400424957275,0.10558203607797623,0.012348443269729614,-0.13469529151916504,0.05021023750305176,-0.7156041860580444,-0.05304977297782898,-0.27751824259757996,-1.8673312825204083,-1.201108097265043,0.8994244717473877
1687100072.914168,-0.36299532651901245,0.9213172197341919,0.1393163800239563,0.03606051206588745,-0.1021796464920044,-0.035129427909851074,-0.9500055313110352,0.007762910798192024,-0.5414581894874573,-1.937256731048851,-1.1714547397892447,0.8253719674075158
1687100073.002281,-0.40566763281822205,0.8885857462882996,0.21412420272827148,0.09068045020103455,-0.42290276288986206,-0.014844417572021484,-2.2591280937194824,0.1361074000597,-1.3811696767807007,-2.056460544255815,-1.094252777932518,0.6908333003820815
1687100073.015325,-0.5003809332847595,0.8129757046699524,0.2978082001209259,-0.023377060890197754,-0.5721918940544128,-0.24952945113182068,-1.875490427017212,0.7558113932609558,-2.7215588092803955,-2.107651573962469,-0.9492443152248663,0.6034630066057083
1687100073.128748,-0.64312344789505,0.6932361125946045,0.32529303431510925,-0.049716949462890625,-0.5186145901679993,-0.18468338251113892,-1.0939298868179321,1.3476229906082153,-3.90547513961792,-2.039074624365091,-0.7659695469259338,0.6270432029684332
1687100073.1341882,-0.8060427904129028,0.5147886276245117,0.29204022884368896,-0.1374691128730774,-0.326449453830719,-0.2522301971912384,-1.5449039936065674,2.4177165031433105,-4.739527702331543,-1.918398523571325,-0.5407610590803992,0.6725391330859142
1687100073.216889,-0.9397768974304199,0.2867358922958374,0.18601511418819427,-0.38099318742752075,0.11087757349014282,-0.16193680465221405,-2.2184998989105225,3.8298158645629883,-4.710075378417969,-1.7662059082502306,-0.2908179304559063,0.651531578384587
1687100073.239949,-0.9980213046073914,0.06003723666071892,-0.018680032342672348,-1.0055339336395264,0.14884033799171448,0.21579301357269287,-6.290100574493408,6.035544395446777,-3.217263698577881,-1.5520814443081254,-0.060073363833099025,0.4552461826859403
1687100073.334677,-0.9565907716751099,0.054982881993055344,-0.28620073199272156,-1.033963918685913,0.11422185599803925,0.779975175857544,-13.277632713317871,4.648501396179199,-0.06039416044950485,-1.280084424956266,-0.05501062231734286,-0.006602648447527407
1687100073.3497128,-0.891320526599884,0.365858256816864,-0.26775985956192017,0.13877242803573608,0.373308002948761,0.9307085275650024,-13.676501274108887,1.2136462926864624,2.180675506591797,-1.2789652175445076,-0.374554816452995,-0.7312114786572091
1687100073.3876982,-0.8465443849563599,0.5215487480163574,-0.10653503984212875,0.18051350116729736,0.6232571601867676,0.15995609760284424,-3.275845766067505,0.02217485010623932,1.388034701347351,-1.4456074834570065,-0.5486651151917281,-1.1501750483820379
1687100073.419312,-0.815773606300354,0.5776697993278503,-0.028480809181928635,-0.076804518699646,-0.19635260105133057,-0.0359569787979126,-3.0566532611846924,-0.08099769055843353,0.9575743675231934,-1.5358978634145588,-0.615871105268712,-1.310827147499508
1687100073.512496,-0.7894348502159119,0.6119880080223083,0.04757500812411308,-0.19950246810913086,0.015956997871398926,-0.07719230651855469,-0.712199866771698,-0.4573798179626465,0.692005455493927,-1.6309881701688913,-0.6585718653579717,-1.4474225339223021
1687100073.517737,-0.7703685760498047,0.6334822177886963,0.07233847677707672,-0.05722248554229736,-0.2308332324028015,-0.283474326133728,-0.2227364182472229,-0.312521368265152,0.5017384886741638,-1.664422912329634,-0.686045348137703,-1.4708652909745183
1687100073.633934,-0.7567439079284668,0.6493334174156189,0.07553138583898544,-0.07661491632461548,-0.09273850917816162,-0.14906346797943115,0.8243681788444519,-0.3199669420719147,0.2831241190433502,-1.6702778696235014,-0.7067076170789293,-1.4541570549456366
1687100073.6498408,-0.7490381002426147,0.6591233015060425,0.06707131862640381,-0.04921025037765503,-0.1816299557685852,-0.1272519826889038,0.14225167036056519,-0.1986231505870819,0.15652422606945038,-1.6601014213239222,-0.7196523738309556,-1.4192534498261427
1687100073.753069,-0.7461448311805725,0.6630024909973145,0.060791775584220886,-0.015955328941345215,-0.06487321853637695,-0.1263129711151123,0.5388120412826538,-0.036798812448978424,0.03035837784409523,-1.6520912626646076,-0.7248223655336843,-1.3988988595324854
1687100073.768487,-0.7448300719261169,0.665391743183136,0.04981875419616699,-0.03201007843017578,-0.08658009767532349,-0.06208682060241699,-0.007759130094200373,0.08296942710876465,0.01406309474259615,-1.6375829132953048,-0.7280184728090551,-1.3781860718096492
1687100073.8468928,-0.7444894313812256,0.666322648525238,0.04182891547679901,0.012052357196807861,-0.005876481533050537,-0.04886317625641823,0.15972067415714264,0.13977974653244019,0.03562577813863754,-1.6269220168481797,-0.7292661794711244,-1.3703835440145333
1687100073.852024,-0.7454879879951477,0.6659343838691711,0.027908729389309883,-0.010127127170562744,-0.05597954988479614,-0.0381779670715332,0.29407981038093567,0.22648435831069946,-0.0585431307554245,-1.6082157116405282,-0.7287456111130935,-1.3555576693353184
1687100073.8712292,-0.7478621006011963,0.6637799143791199,0.009916715323925018,-0.01451265811920166,-0.03272217512130737,0.02543783187866211,0.267454594373703,0.20657944679260254,-0.07890140265226364,-1.5840556351003008,-0.7258613164754117,-1.336008853757855
1687100073.9648771,-0.7504146695137024,0.660935640335083,-0.006473786663264036,0.004458308219909668,-0.0018932819366455078,0.017063379287719727,0.14549620449543,0.13459691405296326,-0.04161541536450386,-1.5621695948496541,-0.7220648396774051,-1.3161347592543409
1687100073.981979,-0.7518661022186279,0.6591620445251465,-0.014236744493246078,-0.005412280559539795,0.017244815826416016,0.018585503101348877,0.17844296991825104,0.1320980191230774,-0.060561541467905045,-1.551863377592266,-0.7197038982684373,-1.3112070113115977
1687100074.08641,-0.7537655830383301,0.6566038131713867,-0.02662818133831024,0.010540425777435303,0.024762213230133057,0.04878395423293114,0.22545760869979858,0.06520021706819534,-0.0423407256603241,-1.5354841389835137,-0.7163070564607878,-1.2935092271535418
1687100074.101584,-0.7548928260803223,0.6545747518539429,-0.04085030406713486,-0.004002988338470459,0.02784407138824463,0.023440003395080566,0.7010014653205872,0.09585175663232803,-0.05298890918493271,-1.5167350137731526,-0.7136200066665779,-1.2708163871819482
1687100074.206712,-0.7568352222442627,0.6501039266586304,-0.06756607443094254,0.016204237937927246,-0.051776349544525146,0.03675860911607742,0.3154016137123108,0.04219925031065941,-0.06177394837141037,-1.481757880332945,-0.7077211914764391,-1.2210210081046537
1687100074.223381,-0.7575679421424866,0.6489063501358032,-0.07079283148050308,0.002486705780029297,0.011433064937591553,0.019233398139476776,0.0825587809085846,-0.0016430411487817764,-0.011916108429431915,-1.4776194194728407,-0.7061461853319947,-1.2172570811806984
1687100074.292179,-0.7584950923919678,0.6473569273948669,-0.07492760568857193,-0.0068552494049072266,-0.004336297512054443,0.0035927891731262207,0.27780789136886597,-0.011628386564552784,-0.023889148607850075,-1.472331221731094,-0.7041115446374809,-1.2086456076530532
1687100074.2973719,-0.7591361403465271,0.6457400321960449,-0.08205125480890274,0.012569248676300049,-0.04085099697113037,0.0005083009600639343,-0.08611838519573212,-0.01628514565527439,-0.00288945809006691,-1.4631292612181834,-0.7019920572928241,-1.1902703265830694
1687100074.31845,-0.7593497037887573,0.6461765170097351,-0.0764448419213295,-0.001972198486328125,0.010332882404327393,-0.0024736449122428894,-0.07505108416080475,0.008413521572947502,0.008478976786136627,-1.4704629108947964,-0.7025638284936926,-1.2021534297460292
1687100074.415567,-0.7593789100646973,0.6458727121353149,-0.07868988066911697,0.0015664100646972656,0.007798552513122559,-0.019530951976776123,0.25481921434402466,-0.011296156793832779,0.009066803380846977,-1.4675408602863773,-0.7021658766337399,-1.1970796971331346
1687100074.432087,-0.7598974108695984,0.6396233439445496,-0.11592309921979904,0.02611750364303589,0.12174451351165771,0.008073925971984863,2.7443618774414062,-0.07266486436128616,0.047730639576911926,-1.4194124611178416,-0.6940081591657971,-1.1184999837799368
1687100074.535266,-0.7604820132255554,0.5945752263069153,-0.26105037331581116,-0.005036115646362305,0.14950436353683472,0.16766655445098877,7.110591411590576,-0.29999634623527527,-0.007738075219094753,-1.2401299403315262,-0.6367372649907066,-0.8148575787628228
1687100074.550959,-0.771119236946106,0.42215362191200256,-0.47661447525024414,-0.017363369464874268,0.11751925945281982,0.5210785865783691,10.742950439453125,-0.9289841651916504,0.15258142352104187,-1.0171876428042061,-0.4358196891712677,-0.33303268271438974
1687100074.657205,-0.805971086025238,0.13630539178848267,-0.5760481357574463,-0.0063152313232421875,0.10571427643299103,0.6069777011871338,11.384258270263672,-1.9554442167282104,1.336264967918396,-0.9502556740511775,-0.1367310268617145,0.1845606530870319
1687100074.662106,-0.8582736253738403,-0.0632515698671341,-0.5092796087265015,-0.27092254161834717,-0.0671500414609909,0.5769065022468567,8.646642684936523,-1.9609044790267944,2.49985408782959,-1.0352611240580962,0.06329382404176849,0.6613360802636433
1687100074.7457008,-0.9135485291481018,-0.09237334877252579,-0.39610108733177185,-0.23595690727233887,-0.2172885239124298,0.31295591592788696,4.4200310707092285,-1.893765926361084,3.0482523441314697,-1.1616765083351317,0.09250522437779685,1.0234304816090676
1687100074.7519798,-0.954796314239502,-0.0019348073983564973,-0.2972545921802521,-0.39917707443237305,0.15330195426940918,0.2372570037841797,3.9971911907196045,-1.8421984910964966,3.757758378982544,-1.2689797654365678,0.001934808594929668,1.2707670302381335
1687100074.770101,-0.9606473445892334,0.16488109529018402,-0.22354139387607574,-0.5060579180717468,-0.2112373560667038,0.14198316633701324,0.11134142428636551,-1.436307668685913,4.150671005249023,-1.3421663335401215,-0.16563746075887523,1.4132859867390368
1687100074.865567,-0.9147999286651611,0.374225914478302,-0.15197479724884033,-0.5833996534347534,-0.017658531665802002,-0.13476838171482086,-2.054185628890991,-1.2246023416519165,4.474551677703857,-1.406170823927037,-0.38356188568644217,1.4247146218207707
1687100074.882704,-0.8187277317047119,0.5731886625289917,-0.03375557065010071,-0.21020281314849854,-0.028572022914886475,-0.3707244396209717,-2.8368444442749023,-1.1877777576446533,3.994213342666626,-1.5295903666195145,-0.6103919530773585,1.2949793119949373
1687100074.984778,-0.6964583396911621,0.7089831829071045,0.11085468530654907,-0.07240158319473267,-0.2551562190055847,-0.36097681522369385,-2.862088680267334,-1.1728160381317139,3.349500894546509,-1.7286413740223325,-0.7880553445202039,1.079657487457636
1687100075.001727,-0.5785295367240906,0.7808972001075745,0.23559100925922394,-0.13948804140090942,-0.22474491596221924,-0.5584975481033325,-1.6978464126586914,-0.5510661005973816,2.6377453804016113,-1.9575145902976936,-0.8961008003970646,0.827264154353955
1687100075.103368,-0.4797104001045227,0.8336752653121948,0.2736116945743561,-0.2454177737236023,-0.2389640212059021,-0.38135412335395813,-0.3997255861759186,-0.18529543280601501,1.8184579610824585,-2.089142944645522,-0.9857296071595252,0.6866431675612662
1687100075.119364,-0.4218379855155945,0.8587923645973206,0.2907377779483795,-0.11077004671096802,-0.32450586557388306,-0.29662764072418213,0.5057885646820068,0.35493820905685425,0.9968694448471069,-2.174248426381687,-1.0329078724032559,0.5887926301146241
1687100075.194263,-0.3995925188064575,0.8867348432540894,0.2324371635913849,0.04638209939002991,-0.37976163625717163,-0.14546217024326324,0.7568309307098389,0.03182417154312134,0.2663729786872864,-2.0976403775681836,-1.090233455438702,0.6653702452979955
1687100075.1990042,-0.4053424000740051,0.8871476054191589,0.2206050604581833,0.016853630542755127,-0.27032631635665894,0.13750338554382324,0.646085262298584,0.016512682661414146,-0.3595779836177826,-2.069209388399223,-1.0911270727705689,0.6964385774683814
1687100075.221442,-0.4244958460330963,0.8883028030395508,0.1752757579088211,0.06005483865737915,0.01846611499786377,0.1436023861169815,1.0979760885238647,-0.04094284027814865,-0.36763739585876465,-1.9623765532609903,-1.0936363019379582,0.8166377378544848
1687100075.314249,-0.4356944262981415,0.8889352679252625,0.141294926404953,0.012491941452026367,0.024608314037322998,0.12721394002437592,0.18235568702220917,0.11809179186820984,-0.1323397308588028,-1.8843933775150392,-1.0950153130501237,0.9036978766417798
1687100075.320339,-0.43578657507896423,0.8893009424209595,0.13868696987628937,0.07699131965637207,0.1443447470664978,0.008545055985450745,-0.013184787705540657,0.11352258920669556,0.17620712518692017,-1.878906648451646,-1.09581432579421,0.9016417565695449
1687100075.4348059,-0.4285031259059906,0.8920822739601135,0.14343693852424622,0.040792614221572876,-0.07801073789596558,0.012431487441062927,-0.41280117630958557,0.09135562926530838,0.1219022125005722,-1.8938119111409975,-1.1019324980975496,0.8796920265719655
1687100075.4508371,-0.42566922307014465,0.8925150632858276,0.14907206594944,0.02961212396621704,0.027803421020507812,-0.0011686235666275024,0.3065071702003479,-0.038989368826150894,-0.012625642120838165,-1.9076549602816357,-1.1028911706437383,0.8623491909227076
1687100075.554764,-0.4302714467048645,0.8898152112960815,0.15197069942951202,-0.0021167993545532227,-0.1554403305053711,0.1058264821767807,-0.4115598797798157,-0.15197306871414185,-0.20471937954425812,-1.9103166589896303,-1.0969400875177393,0.8671423550043532
1687100075.5707412,-0.4295937120914459,0.8913257718086243,0.14487174153327942,-0.03665393590927124,0.2926800847053528,0.0013684183359146118,0.8178021311759949,-0.014858356676995754,0.166224867105484,-1.8960494737442475,-1.100261096563345,0.8891101564581975
1687100075.6435509,-0.4230593144893646,0.8947288990020752,0.1431104689836502,-0.04921537637710571,-0.08645576238632202,-0.021528512239456177,-0.4509914517402649,0.1189151331782341,0.09632108360528946,-1.8969879255023938,-1.107823805778325,0.885198161962914
1687100075.648408,-0.42038002610206604,0.8953999876976013,0.14676252007484436,-0.018813639879226685,0.02247709035873413,-0.024677053093910217,0.09521998465061188,0.09743817895650864,0.10654608905315399,-1.906685786136381,-1.1093287337454185,0.8674624821813494
1687100075.6706991,-0.4176846742630005,0.8965269923210144,0.14757712185382843,0.03078281879425049,-0.058514297008514404,0.008810162544250488,-0.13520629703998566,0.05312517657876015,-0.0015498879365622997,-1.9104274049826253,-1.1118662881043333,0.8588746299156534
1687100075.729251,-0.42082086205482483,0.8943607807159424,0.15175196528434753,0.014265656471252441,-0.06178021430969238,0.030239582061767578,0.042074739933013916,0.03608407825231552,-0.0715283751487732,-1.9168913084179537,-1.1070002061056854,0.8494626298287564
1687100075.7623801,-0.423862099647522,0.8940942883491516,0.14469332993030548,0.021426796913146973,0.011453688144683838,0.029638275504112244,0.1782168596982956,0.07378183305263519,-0.06490962207317352,-1.8997613563241151,-1.1064049342972813,0.8659005969124685
1687100075.822012,-0.4270910322666168,0.8929836750030518,0.1420319676399231,-0.01626831293106079,0.000738680362701416,0.022793397307395935,-0.039220381528139114,0.02622096985578537,-0.043015506118535995,-1.8918477367819175,-1.103931324693998,0.8724316654630919
1687100075.847097,-0.4268794059753418,0.8932289481163025,0.14112380146980286,-0.020294636487960815,0.061421871185302734,0.012120112776756287,0.06015760451555252,-0.04997251182794571,0.031119974330067635,-1.8900795303677775,-1.1044764422819222,0.8755524456038799
1687100075.911586,-0.42569229006767273,0.893812894821167,0.14101259410381317,0.018282651901245117,-0.022444486618041992,-0.027487292885780334,-0.06786640733480453,0.00960805919021368,0.03526618331670761,-1.8906749771498028,-1.1057769271451976,0.876062786258954
1687100075.939388,-0.4241676926612854,0.8946356177330017,0.1403876394033432,0.012638121843338013,-0.0029578208923339844,-0.037986040115356445,0.08255265653133392,0.07452740520238876,0.04344208911061287,-1.8904202069697127,-1.1076150545341334,0.8741041655726026
1687100076.00229,-0.4250260889530182,0.893876314163208,0.14261192083358765,0.004692167043685913,-0.07399094104766846,0.03332187235355377,-0.3219847083091736,-0.016835665330290794,-0.09091905504465103,-1.8945287522651582,-1.105918383372259,0.8669120339621462
1687100076.1245642,-0.4318527281284332,0.8880967497825623,0.1574387401342392,0.021513432264328003,-0.03477966785430908,0.013993605971336365,-0.4705432951450348,-0.1541340947151184,-0.3029195964336395,-1.920387987587158,-1.0931878611857164,0.8415773295701695
1687100076.1298342,-0.4587561786174774,0.8610771298408508,0.21929161250591278,0.025727063417434692,-0.3434075713157654,0.08008582890033722,-2.144275426864624,-0.16235020756721497,-1.0916811227798462,-2.016700470689985,-1.0373842043486339,0.744712567838518
1687100076.245702,-0.5262342691421509,0.7994641661643982,0.2897140681743622,0.018665969371795654,-0.34931480884552,-0.18686991930007935,-0.7858626246452332,0.29541587829589844,-2.1017799377441406,-2.0740555458896837,-0.9264026815233424,0.6712304116170217
1687100076.2507138,-0.6327875852584839,0.7206174731254578,0.2833549976348877,0.03432267904281616,-0.4079344868659973,-0.18841499090194702,-0.4269055426120758,0.8317863941192627,-3.114452838897705,-1.9918096395094889,-0.8046925180840132,0.7423788598811526
1687100076.363132,-0.7689436674118042,0.5799187421798706,0.2691093981266022,0.0416182279586792,-0.3807915449142456,-0.28340697288513184,-1.339335322380066,1.7434812784194946,-4.025612831115723,-1.9074469464934365,-0.6186289482672396,0.7726281432198253
1687100076.3695412,-0.9002036452293396,0.37935522198677063,0.21382911503314972,-0.2647743225097656,-0.1614292562007904,-0.1796800047159195,-2.613541841506958,3.0434415340423584,-4.35495662689209,-1.8040084637398945,-0.3890993285563518,0.7415453991071651
1687100076.456177,-0.9843840599060059,0.1596410721540451,0.07418037205934525,-0.6542724967002869,0.1682245433330536,0.00032829493284225464,-4.636190891265869,4.660877227783203,-3.56740665435791,-1.6460113137042076,-0.16032704498949826,0.589015207761158
1687100076.472857,-0.9874193072319031,0.047250568866729736,-0.15089894831180573,-0.9510114192962646,0.19667644798755646,0.45528119802474976,-9.26558780670166,5.015267372131348,-1.3501704931259155,-1.4191480762763455,-0.047268166779884754,0.2604986904723893
1687100076.4846869,-0.9346742630004883,0.2040751874446869,-0.29109692573547363,-0.371584951877594,0.07976886630058289,0.7717030048370361,-13.3777437210083,3.002560615539551,1.5194307565689087,-1.2688755162007257,-0.20551892718110149,-0.3194300315345795
1687100076.571239,-0.8782318830490112,0.439737468957901,-0.18798883259296417,0.20026862621307373,0.4413660764694214,0.6031805276870728,-8.061407089233398,0.8367325067520142,1.8756202459335327,-1.3599247687558722,-0.4553063273879718,-0.8877681120566118
1687100076.5755758,-0.8396573066711426,0.5321340560913086,-0.10866905748844147,0.08042579889297485,0.2327890396118164,-0.14812111854553223,-1.759320616722107,0.5686584115028381,0.9977947473526001,-1.4420910112325733,-0.5611190979317576,-1.1228722478939042
1687100076.694868,-0.8151867985725403,0.5729501843452454,-0.0848451554775238,-0.1496570110321045,-0.11741423606872559,0.051581017673015594,-1.2091395854949951,0.053028661757707596,0.7293737530708313,-1.4670891046307921,-0.6101009561913581,-1.1934260121495408
1687100076.700945,-0.7923421263694763,0.6081098914146423,-0.048952050507068634,-0.11872953176498413,-0.23265212774276733,-0.08257865905761719,-0.5926268696784973,-0.3333626389503479,0.7429837584495544,-1.5090932959487082,-0.6536774487714999,-1.253138556908709
1687100076.8139071,-0.7746526002883911,0.6320896744728088,-0.019394174218177795,-0.03204905986785889,-0.25754743814468384,-0.13774079084396362,-0.7055243849754333,-0.34880346059799194,0.4917644262313843,-1.5457655927848113,-0.6842469978579349,-1.2800954315747652
1687100076.819401,-0.7641874551773071,0.6449665427207947,0.0059713502414524555,-0.048190414905548096,-0.12050670385360718,-0.09933984279632568,-0.12669989466667175,-0.16696235537528992,0.19504785537719727,-1.5786101538787536,-0.7009794858479453,-1.3107472585845976
1687100076.934506,-0.7600825428962708,0.6497692465782166,0.008636068552732468,-0.007602393627166748,-0.08131825923919678,-0.1075739860534668,0.10682310909032822,-0.07225176692008972,0.045477207750082016,-1.5821578523262798,-0.707280798626894,-1.3077883609326009
1687100076.9505029,-0.7602518796920776,0.6496181488037109,0.003617506241425872,-0.05017274618148804,-0.017324447631835938,-0.06581234931945801,0.31478214263916016,-0.01284181047230959,-0.049164678901433945,-1.5755545904766193,-0.7070820273071293,-1.293942291739001
1687100076.96321,-0.7621443867683411,0.6473918557167053,-0.004419658333063126,-0.006166040897369385,-0.0528789758682251,-0.046041131019592285,-0.014226616360247135,0.10226238518953323,-0.05766981840133667,-1.5649974141004082,-0.7041574243815052,-1.280878728400658
1687100077.053859,-0.764411449432373,0.644481360912323,-0.017860187217593193,0.0003428459167480469,0.056965172290802,-0.02855706214904785,0.6503683924674988,0.1588916927576065,-0.060887645930051804,-1.5474359504753765,-0.7003447773932171,-1.2660608187749682
1687100077.069216,-0.7667075395584106,0.640973687171936,-0.03622348979115486,0.00021284818649291992,-0.050717949867248535,0.044036030769348145,0.0007368862861767411,0.09802249819040298,-0.051943086087703705,-1.5235859238604594,-0.6957661674689487,-1.238752760845484
1687100077.0809999,-0.7678542733192444,0.6392256617546082,-0.04231392592191696,0.0018020272254943848,0.02547776699066162,0.02508676052093506,0.33157843351364136,0.05443531647324562,-0.04656676575541496,-1.5157452887192138,-0.6934909446156454,-1.233096073020563
1687100077.175257,-0.7696821689605713,0.6360391974449158,-0.055166736245155334,0.01186978816986084,-0.003119945526123047,0.03110361471772194,0.2619231939315796,-0.0009890798246487975,-0.06050608307123184,-1.499243994064233,-0.6893545003791614,-1.210343723379099
1687100077.179335,-0.770194411277771,0.6352881789207458,-0.05665279179811478,-0.0024190545082092285,-0.025256991386413574,-0.0010712146759033203,-0.001530528999865055,0.0003444983158260584,0.0018029655329883099,-1.49737207712414,-0.6883815838078737,-1.206139176373622
1687100077.294966,-0.7712602019309998,0.633661150932312,-0.060261256992816925,0.008381664752960205,-0.009668171405792236,-0.01818419247865677,0.22118191421031952,0.004519291687756777,-0.05854153633117676,-1.4928212432878063,-0.6862766414324611,-1.198029209783695
1687100077.300834,-0.7731748223304749,0.6313631534576416,-0.0598452128469944,-0.018756389617919922,-0.04083263874053955,-0.013625867664813995,-0.1253986805677414,0.008397453464567661,-0.016129430383443832,-1.4935484274973299,-0.6833097289635905,-1.1976218605795341
1687100077.412763,-0.7736169695854187,0.630847692489624,-0.05956311151385307,0.001629173755645752,-0.007083714008331299,-0.014350410550832748,-0.0989186018705368,0.06697650253772736,-0.0474109873175621,-1.4939548987229336,-0.6826452752647122,-1.2014682198389988
1687100077.418546,-0.7755962610244751,0.6281417012214661,-0.0623580738902092,0.0009380578994750977,-0.010923683643341064,-0.021672070026397705,0.00403414573520422,0.08325158804655075,-0.027667708694934845,-1.4905687258143432,-0.6791626412834629,-1.2038908468765936
1687100077.507345,-0.7767754793167114,0.6262167096138,-0.06687717884778976,0.014339566230773926,-0.027827978134155273,-0.02147120237350464,-0.0461275577545166,0.04594402760267258,-0.035399798303842545,-1.484912222494853,-0.6766911420189187,-1.2005825384367645
1687100077.524444,-0.7772756814956665,0.6252771615982056,-0.06979170441627502,0.0004660487174987793,0.012128174304962158,0.01626390963792801,0.22391511499881744,-0.0035050346050411463,-0.011472959071397781,-1.4812463118944883,-0.6754866663286211,-1.1973897585553783
1687100077.5285711,-0.7773346900939941,0.6251426935195923,-0.07033604383468628,-0.005105376243591309,-0.03738945722579956,0.010781057178974152,-0.15676991641521454,0.0096088582649827,0.012858346104621887,-1.4805584541116323,-0.6753143466456331,-1.1962680009593123
1687100077.622682,-0.7767755389213562,0.6263240575790405,-0.06586544215679169,-0.0038489699363708496,0.013354957103729248,0.02478884905576706,-0.0694134384393692,0.013511099852621555,-0.005213332362473011,-1.4862052674850181,-0.6768288666989108,-1.206179702793897
1687100077.6273298,-0.7772260308265686,0.6257217526435852,-0.06627154350280762,0.001209855079650879,0.01410973072052002,0.010500676929950714,0.032624244689941406,-0.0257687047123909,-0.012255662120878696,-1.4857353121271617,-0.6760564826778609,-1.205354308272726
1687100077.745609,-0.7773997187614441,0.6259431838989258,-0.0620056614279747,0.0032909512519836426,-0.0012179017066955566,0.01850283518433571,-0.1677519977092743,-0.03819965571165085,0.005142968613654375,-1.491204489642973,-0.6763403615065395,-1.2105792386574112
1687100077.751796,-0.7773563861846924,0.6266032457351685,-0.055545657873153687,-0.0017573237419128418,0.024611294269561768,-0.004421349614858627,-0.06572815775871277,-0.010979795828461647,-0.016204796731472015,-1.4994630036646388,-0.6771870157109783,-1.2212782162904303
1687100077.863833,-0.7780625820159912,0.6259299516677856,-0.05320127680897713,0.005677938461303711,0.012055277824401855,0.008493006229400635,-0.048198167234659195,-0.01661471091210842,-0.009817804209887981,-1.5025259887325813,-0.6763234080686135,-1.224964371477682
1687100077.8700352,-0.7778085470199585,0.6263796091079712,-0.051597148180007935,0.004539012908935547,0.0015347599983215332,-0.002785198390483856,0.08880043029785156,-0.08514301478862762,-0.001117057166993618,-1.5045568088809047,-0.6769000823097745,-1.224541838445382
1687100077.9573789,-0.7781925797462463,0.6259828209877014,-0.050615448504686356,-0.007543504238128662,-0.014837801456451416,-0.008954823017120361,0.08423257619142532,-0.128010556101799,-0.004074897151440382,-1.505845496329243,-0.6763912094178357,-1.2168255763097016
1687100077.974498,-0.778659462928772,0.6257085204124451,-0.04667307436466217,-0.005703389644622803,-0.028891444206237793,-0.0068089403212070465,0.020090345293283463,-0.06029807776212692,-0.035332951694726944,-1.5109276707305777,-0.6760395170338692,-1.2178847561322848
1687100077.9789062,-0.7812605500221252,0.6223357915878296,-0.04826831817626953,-0.00471949577331543,-0.00288999080657959,-0.019618026912212372,0.06630098074674606,-0.014464475214481354,-0.0967327281832695,-1.5090921430788704,-0.6717232383193444,-1.2133812446903525
1687100078.039531,-0.7841161489486694,0.618747353553772,-0.048099178820848465,0.007337033748626709,0.003780663013458252,-0.0049250684678554535,-0.051499951630830765,0.017376789823174477,-0.07179868221282959,-1.5095311877895172,-0.6671472001870509,-1.2152512905001334
1687100078.0727448,-0.7866173982620239,0.615407407283783,-0.050065647810697556,-0.0072057247161865234,0.037241458892822266,-0.009092681109905243,0.10649207979440689,-0.0024667123798280954,-0.08628341555595398,-1.5072353051363956,-0.6629027243446893,-1.2137954025613433
1687100078.1680222,-0.7889629006385803,0.6123752593994141,-0.05033908411860466,0.011634469032287598,0.029363632202148438,-0.004272103309631348,-0.07253226637840271,0.0010850343387573957,-0.05780177563428879,-1.5070785779401348,-0.6590616271899316,-1.2138250201264433
