Timestamp,gravityX,gravityY,gravityZ,accelerationX,accelerationY,accelerationZ,rotationRateX,rotationRateY,rotationRateZ,attitudeRoll,attitudePitch,attitudeYaw
1687104133.460911,-0.939308762550354,0.32598334550857544,0.10693036019802094,0.0012440085411071777,-0.023081183433532715,0.026873968541622162,-0.5892417430877686,0.07783638685941696,0.14343175292015076,-1.6841477651482215,-0.3320517149451988,3.117205357481363
1687104133.50369,-0.9375313520431519,0.328935444355011,0.1132979765534401,0.00218278169631958,-0.005266159772872925,0.031370535492897034,-0.25034061074256897,-0.03188660740852356,0.0878668949007988,-1.6910602763549965,-0.33517607302368335,3.093705048020898
1687104133.560617,-0.9359386563301086,0.3312230706214905,0.11962398886680603,-0.00046259164810180664,-0.027405470609664917,0.023503415286540985,-0.22012118995189667,-0.08976635336875916,0.05424894392490387,-1.6979188769292182,-0.3375995064963956,3.0828307906107755
1687104133.608645,-0.9349055886268616,0.3314874768257141,0.1267583966255188,-0.011154711246490479,-0.022878527641296387,0.010799556970596313,-0.1711280792951584,-0.061184972524642944,0.005110892932862043,-1.705558715436499,-0.3378797569821089,3.0715155800058604
1687104133.6476521,-0.9347661137580872,0.3296205401420593,0.13252221047878265,0.003949642181396484,-0.0006411969661712646,-0.0042873769998550415,-0.1429544985294342,-0.05317940190434456,-0.010869605466723442,-1.7116282679016306,-0.33590161031601506,3.063473826409258
1687104133.6913629,-0.934599757194519,0.3280215263366699,0.1375674456357956,0.0011739730834960938,0.024349510669708252,-0.008707061409950256,0.020287418738007545,-0.09991412609815598,-0.013144143857061863,-1.7169408640534003,-0.33420847339337234,3.060581627502569
1687104133.777646,-0.9339897036552429,0.32799872756004333,0.14170339703559875,-0.007218122482299805,0.0069925785064697266,-0.021098017692565918,-0.026343466714024544,-0.0909784659743309,0.004794509615749121,-1.7213663974959104,-0.3341843095502617,3.060978766005837
1687104133.8226361,-0.9332537055015564,0.3287830948829651,0.1447034776210785,-0.004612386226654053,-0.005830943584442139,-0.03310072422027588,-0.09578725695610046,-0.0456184446811676,0.009516825899481773,-1.7246240513969255,-0.3350147393894478,3.0579630455201348
1687104133.865175,-0.9335116147994995,0.32783186435699463,0.14519771933555603,-0.004629254341125488,-0.00846552848815918,-0.031733378767967224,-0.06317578256130219,-0.013610820285975933,-0.04380185529589653,-1.72509920054904,-0.3340076825934124,3.0550889063951843
1687104133.9143229,-0.9347959160804749,0.3250519037246704,0.14316880702972412,-0.013110339641571045,-0.015054553747177124,-0.03327515721321106,-0.023205731064081192,0.046010296791791916,-0.0767705887556076,-1.7227705545349699,-0.3310666123806729,3.054057515963976
1687104133.9535189,-0.936782717704773,0.320934534072876,0.13942261040210724,0.0008088350296020508,-0.024609029293060303,-0.02740803360939026,-0.11024369299411774,0.07006936520338058,-0.10041473060846329,-1.7185431177730082,-0.32671603862955595,3.0514566447654965
1687104133.9976,-0.9393247961997986,0.3149617314338684,0.13589678704738617,-0.01930856704711914,-0.02921050786972046,-0.005403757095336914,-0.33267173171043396,0.15906816720962524,-0.09318544715642929,-1.7144743993472042,-0.32041632525296904,3.0398078075157398
1687104134.0598989,-0.9422672986984253,0.3078136146068573,0.13184474408626556,0.009207665920257568,0.005082964897155762,0.002310514450073242,-0.28524455428123474,0.16488581895828247,-0.11189714819192886,-1.7098166237326666,-0.3128942025662374,3.023495648160685
1687104134.102864,-0.9447909593582153,0.30130210518836975,0.12879076600074768,0.008069097995758057,0.0352914035320282,0.02871038019657135,-0.22950591146945953,0.137115940451622,-0.08721644431352615,-1.7062779351809956,-0.3060579203187337,3.011462013267078
1687104134.146487,-0.9465950131416321,0.29661816358566284,0.12639324367046356,0.01995939016342163,0.04354584217071533,0.029246315360069275,-0.08832081407308578,0.06816808879375458,-0.06589391082525253,-1.7035352925195062,-0.3011494984357829,3.0031457812070577
1687104134.21342,-0.9472653269767761,0.29486799240112305,0.12546317279338837,0.0011746883392333984,0.017998039722442627,0.025324106216430664,-0.05352608487010002,0.04180401191115379,-0.009340417571365833,-1.7024776613735453,-0.2993173739472985,3.0001372830012083
1687104134.252372,-0.947297990322113,0.29430878162384033,0.12652546167373657,0.0060443878173828125,-0.01406601071357727,0.015777945518493652,-0.17703524231910706,0.048251017928123474,-0.009572312235832214,-1.7035750606636075,-0.2987321961251453,2.99466175271913
1687104134.299253,-0.9477140307426453,0.2926095724105835,0.1273486465215683,0.010488748550415039,-0.0030894875526428223,0.008164644241333008,-0.03409406542778015,0.027516841888427734,-0.03702963516116142,-1.704370754699249,-0.29695472061877903,2.987542224134976
1687104134.362177,-0.9483076333999634,0.290332555770874,0.12813739478588104,0.003331005573272705,-0.01631540060043335,0.017263516783714294,-0.01910606026649475,0.028253206983208656,-0.03573960065841675,-1.7051050401538639,-0.2945743492806179,2.985675086875926
1687104134.399135,-0.9489824175834656,0.2883203625679016,0.1276855766773224,0.008095026016235352,0.0019321739673614502,0.0135955810546875,0.09432196617126465,0.003481102641671896,-0.0451408252120018,-1.7045430821441339,-0.2924722528857347,2.9874070839141327
1687104134.470267,-0.9492627382278442,0.28735020756721497,0.12778867781162262,-0.0005816221237182617,-0.005108505487442017,0.004962697625160217,0.08212015777826309,-0.005117401015013456,-0.00991000048816204,-1.7046107212875201,-0.2914592135212474,2.9922034411374874
1687104134.517545,-0.9492282867431641,0.2873847484588623,0.12796750664710999,0.006433427333831787,0.007918477058410645,0.014183416962623596,0.028175169602036476,-0.0002513839863240719,-0.002441232558339834,-1.704800563163309,-0.29149526770814926,2.9952261648384666
1687104134.5702,-0.9491078853607178,0.287462443113327,0.12868264317512512,-0.005039334297180176,-0.0065177977085113525,0.001612052321434021,-0.06508926302194595,-0.006602068897336721,0.011711271479725838,-1.7055573199092766,-0.29157639354608195,2.995087730397807
1687104134.609709,-0.9491531848907471,0.28676459193229675,0.1299007385969162,-0.009998977184295654,-0.011816620826721191,0.003506779670715332,-0.07300391048192978,0.010222074575722218,-0.02293146215379238,-1.7068109279128603,-0.29084787842686505,2.991136407651391
1687104134.682888,-0.949773371219635,0.28445351123809814,0.1304466873407364,0.005086660385131836,-0.00886470079421997,-0.00485171377658844,-0.13650353252887726,0.019627094268798828,-0.028273295611143112,-1.7072874256879096,-0.2884363455235708,2.986756840794563
1687104134.699723,-0.950529158115387,0.2819516956806183,0.13037340342998505,-0.009370625019073486,0.010650664567947388,-0.01158381998538971,-0.04942455142736435,0.037669587880373,-0.02051970176398754,-1.707104563440596,-0.2858277268109966,2.982441881748689
1687104134.746414,-0.9508349299430847,0.2810305953025818,0.13013383746147156,0.013609528541564941,0.020070940256118774,0.0043723732233047485,-0.061842869967222214,-0.003834911622107029,0.014325564727187157,-1.7068139580517803,-0.28486782621782475,2.9800839508821055
1687104134.82367,-0.9504079818725586,0.2823779284954071,0.13033433258533478,-0.00189286470413208,0.02499493956565857,0.016088947653770447,-0.02067519538104534,0.002427511615678668,0.028521545231342316,-1.7070813793215989,-0.28627201951851805,2.9772436497487957
1687104134.871027,-0.9497540593147278,0.28444433212280273,0.1306091994047165,-0.0003955364227294922,0.0069679319858551025,0.008184686303138733,-0.04004569724202156,-0.01231670193374157,0.04881756007671356,-1.707458111759666,-0.288426763237178,2.9764434407955624
1687104134.895996,-0.9486768841743469,0.286912202835083,0.13301561772823334,0.00635528564453125,0.00010544061660766602,0.006678566336631775,-0.013913694769144058,-0.04047219455242157,0.04304882138967514,-1.7100999119195068,-0.2910019533927063,2.9731689461882875
1687104134.959772,-0.9478826522827148,0.28863996267318726,0.1349257081747055,3.743171691894531e-05,-0.008824467658996582,0.006523236632347107,0.005642162635922432,-0.018308015540242195,0.03164602816104889,-1.712190767499179,-0.2928060488324448,2.9723441965632884
1687104135.010724,-0.94721519947052,0.29027244448661804,0.13610722124576569,0.008525073528289795,0.006815999746322632,-0.015028834342956543,0.042186859995126724,-0.022641045972704887,0.04074505344033241,-1.7135114294972393,-0.29451153899160804,2.972038983665663
1687104135.0482101,-0.9460910558700562,0.2942263185977936,0.13543345034122467,0.0004583001136779785,0.030587345361709595,-0.02875937521457672,0.3201236426830292,-0.013951084576547146,0.10081791132688522,-1.7129809123691777,-0.2986459026769406,2.9792906835005786
1687104135.123186,-0.944351077079773,0.30379557609558105,0.126130610704422,0.0095062255859375,0.1421118676662445,-0.07541050016880035,0.7540042400360107,0.056343674659729004,0.16758842766284943,-1.703573772913567,-0.3086739925408619,3.0081881347838446
1687104135.157974,-0.9415323734283447,0.32003089785575867,0.10534153878688812,-0.0353047251701355,0.142249196767807,-0.09641516953706741,1.6589767932891846,0.04192432016134262,0.19537152349948883,-1.682216036839695,-0.3257620892321173,3.06618407377384
1687104135.198505,-0.939171314239502,0.33779802918434143,0.062042489647865295,-0.01499110460281372,0.26866236329078674,-0.1427156925201416,4.062317848205566,-0.17947252094745636,0.04281526058912277,-1.6367613674123582,-0.344576434156235,-3.0658982800476133
1687104135.259797,-0.9395846128463745,0.34218624234199524,-0.00944213755428791,-0.004095137119293213,0.08998829126358032,-0.053485095500946045,6.051161289215088,-0.40984097123146057,-0.2512139081954956,-1.5607473971096986,-0.349242618912867,-2.8024137631571437
1687104135.3015451,-0.9490413665771484,0.30037716031074524,-0.09536119550466537,-0.04082667827606201,0.0612255334854126,0.08464956283569336,8.082328796386719,-0.9394052624702454,-0.6785460710525513,-1.470650870372021,-0.305088051363124,-2.4277174735932285
1687104135.365232,-0.9679927825927734,0.20855939388275146,-0.1396167278289795,-0.06463038921356201,-0.07513657212257385,0.3447864055633545,9.024720191955566,-1.798719882965088,-0.8154297471046448,-1.4275509671377535,-0.21010173693871745,-1.988697350813615
1687104135.407769,-0.9863635897636414,0.1195254847407341,-0.11313788592815399,-0.17074072360992432,-0.02296782284975052,0.3844391703605652,9.812095642089844,-2.250305652618408,-0.11632698774337769,-1.4565934050736478,-0.11981192487374169,-1.5188717185547604
1687104135.449547,-0.9928716421127319,0.1097162663936615,-0.04656236991286278,-0.22096490859985352,0.23293519020080566,0.5035020709037781,10.181386947631836,-2.6811792850494385,1.5085649490356445,-1.5239339953281141,-0.10993759002471082,-1.00627902778657
1687104135.505826,-0.9747681021690369,0.22261016070842743,0.016486573964357376,-0.2957701086997986,0.23971600830554962,0.38007402420043945,7.684908390045166,-2.4467289447784424,3.167409896850586,-1.587708043453435,-0.22449099071454798,-0.5357257725668805
1687104135.560742,-0.9112731218338013,0.41172221302986145,0.008112908340990543,-0.35221540927886963,0.20567896962165833,0.15031898021697998,4.345746040344238,-1.3119289875030518,4.363161087036133,-1.5796989201949339,-0.4243430674277224,-0.20955352848243625
1687104135.604397,-0.7847549915313721,0.6187154054641724,-0.03674805909395218,-0.45563167333602905,0.13944798707962036,-0.20054149627685547,1.7654401063919067,0.23373042047023773,5.321091651916504,-1.5240030801247033,-0.6671065348152566,-0.05782103491439235
1687104135.652853,-0.5930119752883911,0.8014870285987854,-0.0771692618727684,-0.36908507347106934,0.056499361991882324,-0.31873542070388794,-0.6336835026741028,1.1220645904541016,5.100461006164551,-1.4413924646738123,-0.9297776932845565,0.016679354262983705
1687104135.713008,-0.38525110483169556,0.9225809574127197,-0.02064015343785286,-0.28412139415740967,-0.47850435972213745,-0.22961938381195068,-3.2373361587524414,1.3201193809509277,4.270981311798096,-1.5172716545730383,-1.174717715926179,-0.13417182966916125
1687104135.7676048,-0.2032816857099533,0.9710308313369751,0.12560082972049713,-0.28206977248191833,-0.6099010705947876,-0.2226468175649643,-3.358924150466919,1.2770717144012451,3.2194764614105225,-2.124249096817205,-1.3295075638159641,-0.8360364719972954
1687104135.8132071,-0.09223238378763199,0.966701090335846,0.23870913684368134,-0.33873674273490906,-0.4624134302139282,-0.3731086254119873,-1.345310926437378,1.3786827325820923,1.7958250045776367,-2.7728827084726566,-1.3120093461228557,-1.5762211895378049
1687104135.863958,-0.04958971217274666,0.9690248966217041,0.24193282425403595,-0.254472017288208,-0.4684451222419739,-0.2859545946121216,0.9006336331367493,1.0243643522262573,0.6328853368759155,-2.939419904627525,-1.3212512916866088,-1.8135024151527601
1687104135.9025722,-0.04078926891088486,0.9849721789360046,0.16782739758491516,-0.06295508146286011,-0.29103291034698486,0.05063261091709137,1.513550877571106,-0.43450799584388733,0.026942554861307144,-2.9031724246944624,-1.3972126885715557,-1.79403775223568
1687104135.97691,-0.04515795782208443,0.9905290603637695,0.12966498732566833,-0.03255489841103554,-0.21269696950912476,0.2662546634674072,0.18849480152130127,-0.2887443006038666,-0.1407962441444397,-2.8064630592111497,-1.4330579109391899,-1.673052214650667
1687104136.0046191,-0.04857431724667549,0.9922058582305908,0.11475154757499695,0.04884910583496094,0.16196882724761963,-0.06473338603973389,0.3801880478858948,-0.16461440920829773,-0.006444229744374752,-2.741162895489188,-1.4458618079109664,-1.5947577808482483
1687104136.079607,-0.04363439604640007,0.9937784075737,0.1024717390537262,0.10415089130401611,0.06483054161071777,0.11353158950805664,0.16734451055526733,-0.26654940843582153,0.06688125431537628,-2.73902864507018,-1.4591892509190842,-1.5815838129897692
1687104136.159422,-0.04136267676949501,0.9939349293708801,0.1018935963511467,-0.02441784366965294,-0.11135143041610718,0.13170313835144043,-0.01808580383658409,-0.041207205504179,0.045411646366119385,-2.75597616416148,-1.4606036246703973,-1.5925059917427784
1687104136.174926,-0.03974944353103638,0.9939656257629395,0.10223674029111862,0.001709427684545517,0.04068714380264282,-0.028628453612327576,0.04530195891857147,-0.05171189084649086,0.025873031467199326,-2.7707802790591276,-1.4608829894283626,-1.6061078933030202
1687104136.218988,-0.0375993512570858,0.9940935969352722,0.10180462896823883,-7.444620132446289e-05,-0.010847806930541992,0.024980545043945312,0.03431748226284981,-0.020366504788398743,0.06608989834785461,-2.787803501860947,-1.4620558396017065,-1.6208677255789081
1687104136.283321,-0.035454437136650085,0.9945659637451172,0.09788212180137634,0.011330433189868927,0.00540316104888916,-0.004239104688167572,0.08147114515304565,-0.06584668159484863,0.033483877778053284,-2.7940769915954373,-1.4664992693763583,-1.6243262893299513
1687104136.305225,-0.033575717359781265,0.9947881698608398,0.09627486020326614,0.0033939778804779053,-0.017951130867004395,0.017464041709899902,0.006734058726578951,-0.07417270541191101,0.037460777908563614,-2.8060331437151005,-1.4686556788977285,-1.6326690974281473
1687104136.378852,-0.03108372539281845,0.9950498938560486,0.09438931941986084,0.008210929110646248,0.032934606075286865,0.0033430978655815125,0.05401315912604332,-0.06256242841482162,0.02002040110528469,-2.8234638419950486,-1.471255225817759,-1.6468468560384477
1687104136.409684,-0.029574822634458542,0.9950773119926453,0.09458500146865845,-0.0007137656211853027,-0.013220131397247314,0.008884668350219727,0.020271439105272293,-0.05765184760093689,0.029334472492337227,-2.8385439539907416,-1.4715319663037176,-1.6583951780915387
1687104136.486167,-0.027784937992691994,0.9951736330986023,0.09411449730396271,0.005217310041189194,-0.005717456340789795,0.018205419182777405,0.018049830570816994,-0.023580674082040787,0.02380102500319481,-2.854522475534075,-1.4725085541197136,-1.6720911629986077
1687104136.505394,-0.027294697239995003,0.9953118562698364,0.09278547763824463,0.000530928373336792,0.018970251083374023,-0.00591731071472168,0.02898263931274414,-0.01136220246553421,-0.0020809732377529144,-2.8554930859867014,-1.4739274697085614,-1.672118443493595
1687104136.580521,-0.027797870337963104,0.995129406452179,0.09457690268754959,-0.011035654693841934,-0.003826916217803955,0.018811002373695374,-0.04041348025202751,-0.020553769543766975,-0.018495699390769005,-2.855724821280793,-1.4720588399169747,-1.671552111591078
1687104136.622915,-0.028195515275001526,0.9950156807899475,0.09564843028783798,-0.002443969249725342,0.021646857261657715,-0.008139371871948242,-0.009884865023195744,-0.054336342960596085,-0.01513938419520855,-2.854929103898958,-1.4709119745167485,-1.6695827719704663
1687104136.656081,-0.029645923525094986,0.9947347640991211,0.09809885919094086,-0.0018938444554805756,-0.025206804275512695,0.004317983984947205,-0.12419945746660233,-0.05084303393959999,-0.06754067540168762,-2.8481145562652985,-1.4681333920697752,-1.6596669565789233
1687104136.755065,-0.03709966316819191,0.9924055337905884,0.11728005111217499,-0.02460673078894615,-0.07906031608581543,0.035307638347148895,-0.7690490484237671,0.05610834062099457,-0.28359100222587585,-2.8352187406631226,-1.4474746975409345,-1.6473624001557041
1687104136.771531,-0.06716062128543854,0.9791041016578674,0.1919489949941635,-0.03023606538772583,-0.2505122423171997,0.03143954277038574,-2.360466957092285,0.4854632019996643,-0.8242466449737549,-2.805017734088361,-1.3660081917885878,-1.6283314044476052
1687104136.805192,-0.14071381092071533,0.9380671381950378,0.316590279340744,-0.13147231936454773,-0.19798541069030762,-0.09994614124298096,-2.7832088470458984,0.8827837705612183,-2.10790753364563,-2.7233498099126665,-1.217008505747558,-1.5790446190625869
1687104136.883974,-0.2588770389556885,0.8842769265174866,0.3886348605155945,-0.12857398390769958,-0.2211756706237793,-0.13597995042800903,-0.3015476167201996,0.5693987011909485,-2.784135341644287,-2.5539693308396783,-1.0849432659023348,-1.4386465676608937
1687104136.9247699,-0.40649712085723877,0.8244191408157349,0.393818736076355,-0.06950068473815918,-0.4075489044189453,-0.07472699880599976,-0.5911080837249756,0.3626181483268738,-3.7298004627227783,-2.3403540760932446,-0.9691751853714464,-1.2124014632538327
1687104136.96599,-0.5687704086303711,0.7138504981994629,0.40855515003204346,-0.1100623607635498,-0.28301864862442017,-0.0639355480670929,-0.8578516244888306,0.567570686340332,-4.160792827606201,-2.1937074458156127,-0.7949813105654955,-1.0454969018491267
1687104137.057228,-0.722447395324707,0.5380546450614929,0.43424275517463684,-0.22979241609573364,0.028733134269714355,-0.113045334815979,-2.6441497802734375,1.603601098060608,-3.707444429397583,-2.112003538266867,-0.5681274979473967,-1.004393146675295
1687104137.0731602,-0.8353163599967957,0.3613274097442627,0.41435354948043823,-0.20803368091583252,0.6428535580635071,-0.013673067092895508,-3.16481876373291,2.1320230960845947,-2.558842182159424,-2.0312740059564454,-0.36969109499009273,-1.0481554547817165
1687104137.122071,-0.909125030040741,0.19497792422771454,0.36806902289390564,-0.09998422861099243,0.40717971324920654,0.10078772902488708,-5.640902519226074,2.8598084449768066,-0.8870319724082947,-1.9554859607468114,-0.1962349428672084,-1.2173908187758133
1687104137.162576,-0.9604005813598633,0.0899752676486969,0.2636948227882385,0.06988257169723511,0.4496823847293854,0.2849043607711792,-6.61352014541626,3.0374531745910645,0.5608087778091431,-1.8387604286619463,-0.09009711098567133,-1.5214036841235274
1687104137.225683,-0.9847595691680908,0.08438462764024734,0.15207816660404205,-0.04871821403503418,0.28821974992752075,0.41774606704711914,-4.9048614501953125,2.619952440261841,1.6951556205749512,-1.724017672478921,-0.08448509832388942,-1.8265850554611167
1687104137.266632,-0.9862555861473083,0.15094217658042908,0.0672050267457962,0.14400088787078857,0.11732260882854462,0.31467676162719727,-3.5049092769622803,1.6700800657272339,1.6085385084152222,-1.6388327431720822,-0.15152129743579035,-2.0442858865849525
1687104137.3315191,-0.975038468837738,0.21875998377799988,0.03799724951386452,-0.10510057210922241,-0.07061246037483215,0.3981142044067383,-3.697333812713623,1.2245608568191528,1.5489647388458252,-1.6097466179951494,-0.22054348599515233,-2.218607981221815
1687104137.369797,-0.9578360915184021,0.2842000126838684,0.042193762958049774,-0.034931182861328125,-0.21973171830177307,0.13244307041168213,-4.144559383392334,0.6706215143203735,1.2318775653839111,-1.6148189962041288,-0.2881719321603197,-2.4366787196659723
1687104137.423476,-0.9464765191078186,0.31496602296829224,0.0705578625202179,-0.07377183437347412,-0.05776393413543701,0.04087710380554199,-2.379950523376465,0.21755975484848022,0.46173250675201416,-1.6452066140753732,-0.32042084262672177,-2.6115838088003698
1687104137.461526,-0.9444828629493713,0.3161524534225464,0.0894402265548706,-0.1592615246772766,-0.07129478454589844,-0.1821678876876831,-1.0141860246658325,0.08936480432748795,-0.10536781698465347,-1.665212332118301,-0.32167116068291807,-2.703996937368889
1687104137.510961,-0.9487696886062622,0.29901060461997986,0.10211952775716782,-0.12673068046569824,0.01429799199104309,-0.1080247163772583,-0.6535115242004395,0.06898993998765945,-0.3725057542324066,-1.6780171751983737,-0.3036556414666082,-2.747484901683983
1687104137.56317,-0.9539218544960022,0.27966564893722534,0.10872020572423935,-0.08568984270095825,-0.0715053379535675,-0.2168440818786621,-1.1301683187484741,0.23972806334495544,-0.26003214716911316,-1.6842784667843569,-0.2834458308687341,-2.792024764791313
1687104137.634835,-0.9585174322128296,0.26243922114372253,0.11121933162212372,-0.01720571517944336,0.06344258785247803,-0.12446392327547073,-0.6135217547416687,0.1804812252521515,-0.29923689365386963,-1.686312419037343,-0.2655491734150343,-2.845245058338994
1687104137.672121,-0.9628714323043823,0.2480161041021347,0.10661379247903824,-0.042652249336242676,0.28352370858192444,-0.2428901046514511,-0.17145618796348572,0.1787564754486084,-0.22221879661083221,-1.6810719753160919,-0.25063184272615585,-2.8552438380129197
1687104137.716881,-0.9640432000160217,0.24558259546756744,0.10153582692146301,-0.041312456130981445,0.07784254848957062,-0.09379960596561432,-0.8401615619659424,0.3677111566066742,0.15066462755203247,-1.6757323542336833,-0.24812064717892457,-2.882315947021147
1687104137.765168,-0.9632242321968079,0.25200155377388,0.09324360638856888,-0.002931833267211914,0.0024386942386627197,0.022128112614154816,-0.8814405798912048,0.44581836462020874,0.22654302418231964,-1.6672992719920394,-0.2547479903658629,-2.9311496788336493
1687104137.813264,-0.9628663063049316,0.2570090889930725,0.08267134428024292,0.02493917942047119,-0.021108359098434448,0.04719614237546921,-0.2770041823387146,0.27985119819641113,0.08212798088788986,-1.6564459052225597,-0.25992606744942603,-2.9605018837142705
1687104137.878586,-0.9628236293792725,0.2588353753089905,0.07729647308588028,0.02655971050262451,-0.03552311658859253,0.04118800163269043,-0.13509391248226166,0.06460601836442947,0.03520847484469414,-1.6509055471403917,-0.2618162973944445,-2.9711939158610754
1687104137.9313688,-0.962608814239502,0.2594955265522003,0.07775861024856567,0.007011830806732178,-0.024861246347427368,0.0374605730175972,-0.1407259702682495,-0.0035212133079767227,0.03237054497003555,-1.651400341418364,-0.2624997916320334,-2.975371918433231
1687104137.988514,-0.9622205495834351,0.2597462236881256,0.08162850886583328,-0.0038285255432128906,-0.003124028444290161,0.022421114146709442,-0.24457700550556183,0.01992838643491268,0.021492397412657738,-1.6554271653096464,-0.26275938666848536,-2.9875233659277014
1687104138.026149,-0.961959183216095,0.25892436504364014,0.08713455498218536,0.0053400397300720215,0.044832199811935425,0.018318884074687958,-0.18710598349571228,-0.025393754243850708,0.03307707980275154,-1.6611301173978232,-0.2619084353907054,-2.9973887604018326
1687104138.06481,-0.9612290859222412,0.26034513115882874,0.09087762981653214,0.006929278373718262,0.039245784282684326,-0.024105198681354523,0.052713535726070404,-0.04911315441131592,0.028739187866449356,-1.6650592958761679,-0.2633796433536926,-3.002265853756191
1687104138.116805,-0.9602002501487732,0.26395341753959656,0.09134611487388611,0.007700800895690918,0.03133454918861389,0.006645806133747101,0.16784411668777466,-0.02792011760175228,0.03073642961680889,-1.6656432453031604,-0.2671187114966758,-2.9955011412372787
1687104138.173133,-0.9595339894294739,0.26737168431282043,0.08835573494434357,-0.008773446083068848,-0.007621437311172485,-0.0011975765228271484,0.14613935351371765,-0.0021253174636512995,0.026551667600870132,-1.6626193117662618,-0.27066436311108266,-2.985730168895917
1687104138.231632,-0.958658754825592,0.2704301178455353,0.08854596316814423,-0.0019733309745788574,-0.024840116500854492,0.012345179915428162,-0.1449127197265625,0.033320579677820206,0.053878165781497955,-1.6628994246972755,-0.27383978028848915,-2.9869356264886306
1687104138.2702122,-0.9585044980049133,0.271176278591156,0.08793366700410843,0.01116269826889038,-0.00033289194107055664,-0.005505800247192383,0.1427970826625824,-0.03152055665850639,0.011041220277547836,-1.6622807333234488,-0.2746148828515179,-2.9868396898528573
1687104138.317227,-0.958556592464447,0.27086731791496277,0.0883181020617485,-0.002808094024658203,-0.005288243293762207,0.0025632381439208984,-0.03552684560418129,-0.00996728427708149,0.019624721258878708,-1.6626734815617026,-0.2742939082841619,-2.97912880336531
1687104138.391172,-0.9582154750823975,0.2717019021511078,0.08944912999868393,0.0029389262199401855,-0.005237758159637451,-0.012285463511943817,-0.04781653359532356,0.0025604257825762033,0.021942004561424255,-1.6638762820259805,-0.27516101803421594,-2.9850518987787713
1687104138.419725,-0.9583123922348022,0.2716783583164215,0.08847596496343613,0.003646373748779297,0.020878255367279053,0.002603769302368164,0.19765660166740417,-0.004191996995359659,-0.024341272190213203,-1.6628601014619313,-0.2751365679531626,-2.9797131398153
1687104138.4657722,-0.958511233329773,0.2714471220970154,0.08702029287815094,0.0014342069625854492,-0.016182929277420044,-0.0023798868060112,0.042490459978580475,0.00724339485168457,0.0045951721258461475,-1.6613350566341787,-0.27489628137764993,-2.974455733318713
1687104138.537904,-0.9582267999649048,0.2725856304168701,0.0865917056798935,-0.0038701891899108887,-0.005526453256607056,-0.0032024458050727844,0.009797492995858192,0.014578228816390038,0.00902201235294342,-1.6609181500081622,-0.2760794050851708,-2.9730014462786865
1687104138.583346,-0.9583925604820251,0.2722969651222229,0.08566038310527802,0.006579995155334473,-0.009754389524459839,-0.0061010196805000305,0.13810300827026367,-0.017761491239070892,-0.015714161098003387,-1.6599386778568983,-0.27577938333535923,-2.97074633943845
1687104138.623098,-0.9585229158401489,0.2722945511341095,0.0841987282037735,0.00797659158706665,0.012327522039413452,-0.01760946959257126,0.3048831820487976,-0.05495593324303627,-0.001179493498057127,-1.658413596130713,-0.2757768855053061,-2.9582770354470442
1687104138.6706629,-0.9584720134735107,0.2737908959388733,0.07981113344430923,0.006521940231323242,0.06635794043540955,-0.038978688418865204,0.8757847547531128,-0.1041620746254921,-0.029114654287695885,-1.6538738020833559,-0.2773323227627884,-2.9296081070959
1687104138.715214,-0.9584919214248657,0.2767675220966339,0.06850253790616989,-0.02025240659713745,0.07345208525657654,-0.06789220124483109,1.6278390884399414,-0.11215545982122421,-0.04637753218412399,-1.6421440980959687,-0.2804285912656818,-2.8657443075939915
1687104138.780719,-0.9592660665512085,0.27867329120635986,0.046364299952983856,-0.022438526153564453,0.09771516919136047,-0.07183122634887695,2.6903934478759766,-0.1937195360660553,-0.13208916783332825,-1.6190918388803595,-0.28241240535938866,-2.7525981362879715
1687104138.8549309,-0.9617213606834412,0.27366402745246887,0.014133946038782597,-0.020410478115081787,0.026720374822616577,-0.05411195755004883,3.6610493659973145,-0.2889710068702698,-0.3119480609893799,-1.5854917776021271,-0.27720042767382236,-2.591374015476898
1687104138.874082,-0.9671100378036499,0.2535264492034912,-0.020557863637804985,0.009712517261505127,0.07987803220748901,0.003681657835841179,4.362941265106201,-0.5401901602745056,-0.42318832874298096,-1.5495425218392722,-0.25632407786981765,-2.370815395640758
1687104138.919647,-0.9737424254417419,0.2237624078989029,-0.04190484806895256,-0.0033235549926757812,-0.03380581736564636,0.08365297317504883,4.741304397583008,-0.850805401802063,-0.49895045161247253,-1.5277880263052326,-0.225673059746023,-2.1417977075737626
1687104138.9918442,-0.9811506867408752,0.18909545242786407,-0.039826709777116776,-0.02739417552947998,0.036231040954589844,0.16354501247406006,5.1422319412231445,-1.3066715002059937,-0.40293431282043457,-1.5302267599245118,-0.19024090396910934,-1.8841704976794709
1687104139.0306869,-0.9863842129707336,0.16387993097305298,-0.01375498529523611,-0.07126325368881226,-0.05976918339729309,0.1552344560623169,4.929591178894043,-1.5366530418395996,-0.30686238408088684,-1.556852375245149,-0.16462248682028163,-1.62526943334372
1687104139.069285,-0.9875199794769287,0.15524238348007202,0.02653704397380352,-0.06275773048400879,0.04785217344760895,0.17509257793426514,4.609270095825195,-1.6561377048492432,-0.07624302059412003,-1.59766227275464,-0.15587280791646413,-1.3833830276602088
1687104139.1581101,-0.9827273488044739,0.17147614061832428,0.0695890486240387,-0.0831141471862793,0.025118187069892883,0.17893075942993164,5.166339874267578,-1.4896117448806763,0.2998206913471222,-1.641490486753701,-0.1723278031756226,-1.1421962114103192
1687104139.174325,-0.9695460200309753,0.22656306624412537,0.09300187230110168,-0.05569183826446533,0.029479488730430603,0.1905217170715332,4.779503345489502,-1.7232345342636108,0.9887424111366272,-1.6664268477159838,-0.2285475315829906,-0.8775518825589106
1687104139.2422519,-0.9447413682937622,0.30721649527549744,0.11437423527240753,-0.13960903882980347,-0.03797507286071777,0.19711852073669434,3.4226417541503906,-1.2237240076065063,1.5692458152770996,-1.691274078535548,-0.3122666786302469,-0.6798101685860874
1687104139.281223,-0.904529333114624,0.4085068106651306,0.12226388603448868,-0.08074569702148438,-0.023435980081558228,0.07902991026639938,2.229977607727051,-1.1264225244522095,2.0911872386932373,-1.7051505442919115,-0.4208175610552646,-0.5429223993912012
1687104139.324362,-0.8448970317840576,0.5207710862159729,0.1222541406750679,-0.11001300811767578,0.0467185378074646,0.0498189777135849,1.5613120794296265,-1.009663701057434,2.4574215412139893,-1.714496060723949,-0.5477539485454158,-0.45066462618757286
1687104139.367768,-0.7612900137901306,0.6373879909515381,0.11905430257320404,-0.15002572536468506,0.09012061357498169,-0.042775750160217285,1.3182560205459595,-0.8104143738746643,2.834552526473999,-1.7259248017645743,-0.691103648025821,-0.3930571693981965
1687104139.425534,-0.6544039249420166,0.7490488886833191,0.10334918648004532,-0.18606525659561157,0.08551526069641113,-0.13261568546295166,0.6870726346969604,-0.3006637692451477,3.0318520069122314,-1.7274313764201121,-0.8466253189123102,-0.3505304789538303
1687104139.476809,-0.5322616100311279,0.8423038721084595,0.08498033881187439,-0.20334911346435547,-0.04542887210845947,-0.23311281204223633,0.07840238511562347,0.3415924608707428,3.022040843963623,-1.7291190359110538,-1.0015434146664104,-0.35766051584217495
1687104139.521604,-0.40185508131980896,0.9069406390190125,0.12637615203857422,-0.1467592716217041,-0.22842812538146973,-0.16214287281036377,-2.5561037063598633,0.5230388045310974,2.946561574935913,-1.875485736222684,-1.1359639100064924,-0.5429799604661169
1687104139.571795,-0.2709072232246399,0.9298363924026489,0.2490241527557373,-0.08967304229736328,-0.21055257320404053,-0.14740078151226044,-2.657635450363159,0.4023914635181427,2.72333025932312,-2.314130964643132,-1.1939680195827307,-1.0488128053184829
1687104139.634289,-0.16278886795043945,0.939337968826294,0.3019005358219147,-0.1615975946187973,-0.008368730545043945,-0.20840999484062195,0.38792160153388977,0.13776831328868866,1.9976938962936401,-2.6470684708587475,-1.2206950176218432,-1.4241071524564457
1687104139.6728802,-0.08617915213108063,0.9632205367088318,0.2545173168182373,-0.16797107458114624,-0.35808759927749634,-0.14132776856422424,1.052077293395996,0.1514277160167694,1.388142466545105,-2.8151110808078377,-1.298740627237273,-1.6068981826380158
1687104139.733238,-0.03370247781276703,0.9761255979537964,0.21457596123218536,-0.13501381874084473,-0.2250727415084839,-0.015830248594284058,0.5738177299499512,0.039927657693624496,0.9433789253234863,-2.985799956071832,-1.3518443344439797,-1.7923987962903944
1687104139.770767,-0.002869028365239501,0.9856136441230774,0.1689891815185547,-0.03822275996208191,-0.16759008169174194,0.17143428325653076,1.583477258682251,-0.2178167998790741,0.4677508473396301,-3.12461669855869,-1.400967207269695,-1.9237239222014306
1687104139.8497581,0.002446260768920183,0.9947771430015564,0.1020394116640091,0.041728079319000244,-0.21897470951080322,0.12768147885799408,0.8402038812637329,-0.40301281213760376,-0.07318684458732605,3.11762355851853,-1.468547554763767,-1.9457506734599614
1687104139.8787708,0.004577979911118746,0.9961820840835571,0.08717845380306244,0.011565953493118286,-0.03229975700378418,-0.006596922874450684,0.10536156594753265,-0.17855335772037506,0.14481651782989502,3.0891280989256344,-1.4833855796540454,-1.95843480481755
1687104139.936979,0.012263597920536995,0.9971185326576233,0.07485850155353546,0.030171213671565056,0.09519690275192261,0.04884432256221771,0.19800308346748352,-0.09006088227033615,0.09057772904634476,2.979211365197415,-1.494863933875332,-2.0619774951284544
1687104139.978252,0.014934942126274109,0.9972407221794128,0.07271803170442581,-0.033657342195510864,-0.05179095268249512,0.043279170989990234,-0.014945137314498425,-0.017504939809441566,0.005187125876545906,2.9390279183756793,-1.4964918754551555,-2.100665581037207
1687104140.029132,0.01518337707966566,0.9975763559341431,0.06790255755186081,0.0018455684185028076,0.008755922317504883,-0.016129612922668457,0.20760245621204376,-0.01103234849870205,0.011282701976597309,2.921606013185807,-1.5011600369283589,-2.117266740094499
1687104140.0734591,0.015830732882022858,0.9980701804161072,0.06004524230957031,0.005089195445179939,0.006675362586975098,0.023969538509845734,0.08291351795196533,-0.005090858321636915,0.026350000873208046,2.8838117992456116,-1.5086598672538618,-2.154588752089566
1687104140.123934,0.015564524568617344,0.9982868432998657,0.05639802664518356,-0.006210746243596077,-0.019878268241882324,0.009260408580303192,0.09570281207561493,-0.012922437861561775,-0.04288266599178314,2.872318907019655,-1.512253487395787,-2.165324137644626
1687104140.1946821,0.013104261830449104,0.9985146522521973,0.05288083851337433,-0.007122696377336979,0.008168518543243408,0.004842992871999741,0.0927690789103508,0.01284104771912098,-0.04312587529420853,2.8986787103586993,-1.516285896830631,-2.1389312575760875
1687104140.234068,0.01163838803768158,0.9985377788543701,0.05278920382261276,0.00648918654769659,0.010403752326965332,0.012091036885976791,-0.014540603384375572,0.02688278630375862,-0.02006729692220688,2.9245949634740405,-1.5167113262239051,-2.1144533069961367
1687104140.2731,0.01144984271377325,0.9985105991363525,0.053344398736953735,0.0060368487611413,0.012338399887084961,-0.012344114482402802,0.04366544634103775,0.01711970567703247,0.03258173167705536,2.930160593397378,-1.5162109149174858,-2.110678196157692
1687104140.3311172,0.012787740677595139,0.998562216758728,0.052055228501558304,0.000411241315305233,-0.019619464874267578,0.0073318444192409515,0.022567350417375565,-0.018170952796936035,0.004299361724406481,2.900705512082884,-1.5171651778944857,-2.1396445072635832
1687104140.3738341,0.013741139322519302,0.9985027313232422,0.05294540897011757,0.0027995407581329346,-0.007063031196594238,0.016329288482666016,-0.11146342009305954,-0.041212908923625946,-0.0112873874604702,2.8876610480169593,-1.5160674569641381,-2.15146713712455
1687104140.470984,0.012111561372876167,0.9977453947067261,0.06600829213857651,-0.009517461992800236,-0.0340614914894104,0.02072250097990036,-0.39855220913887024,-0.05013876035809517,-0.06453915685415268,2.9601257098500637,-1.5036328937489642,-2.0766743472223967
1687104140.4858909,0.004118162672966719,0.9951537847518921,0.09824399650096893,6.288290023803711e-05,-0.07524728775024414,0.0022808313369750977,-0.9032497406005859,0.0021559358574450016,-0.2934506833553314,3.09969947762367,-1.4723064530097834,-1.9345991761590944
1687104140.522619,-0.0237153060734272,0.9843086004257202,0.17485374212265015,-0.034191638231277466,-0.14893585443496704,-0.013263240456581116,-1.152746558189392,0.24242539703845978,-0.5156040191650391,-3.006785858368326,-1.3934120577142308,-1.777559438518807
1687104140.632787,-0.05839316174387932,0.9816005825996399,0.18179719150066376,-0.043031901121139526,0.06335169076919556,0.030055761337280273,0.5079859495162964,0.10054875165224075,-0.9741844534873962,-2.830802036807029,-1.3786708179495335,-1.605021320269021
1687104140.648257,-0.13996051251888275,0.9728651642799377,0.18423891067504883,-0.029671266674995422,-0.5862839221954346,-0.11101223528385162,-0.16797703504562378,0.3681304156780243,-1.3389379978179932,-2.4919323383164835,-1.3373077718655975,-1.2754512638008226
1687104140.686995,-0.2340516448020935,0.9597014784812927,0.1555393487215042,0.028683781623840332,-0.16625988483428955,-0.04202939569950104,0.4279728829860687,-0.269523024559021,-2.191713571548462,-2.1573330625386005,-1.2859380074104614,-0.92811056095082
1687104140.727437,-0.3502338230609894,0.9186655282974243,0.1827286183834076,-0.06837564706802368,-0.3562723398208618,0.007029533386230469,-0.9983780980110168,0.03115849196910858,-2.6041922569274902,-2.0516789703266616,-1.164688934856726,-0.811356879848178
1687104140.774328,-0.4750014841556549,0.8474757671356201,0.23697753250598907,-0.04190513491630554,-0.18380987644195557,-0.07552441954612732,-1.675549864768982,0.14446447789669037,-2.8942766189575195,-2.0335623520216624,-1.0112118373919927,-0.7940732473914031
1687104140.8471398,-0.6048323512077332,0.7376443147659302,0.3000975251197815,-0.03620445728302002,-0.013568997383117676,-0.11340630054473877,-1.3477133512496948,0.778885543346405,-3.2534072399139404,-2.031372394148746,-0.8295747387442471,-0.8172640047247879
1687104140.885292,-0.7234845161437988,0.6265977025032043,0.2897326946258545,-0.04870152473449707,0.38684529066085815,-0.17428484559059143,-0.5141560435295105,0.9527433514595032,-2.856300115585327,-1.9517064389813006,-0.6771798770126027,-0.7646147939992732
1687104140.928606,-0.806012749671936,0.5184956192970276,0.28549134731292725,-0.05060011148452759,0.3877696394920349,-0.08373978734016418,-2.41628360748291,1.3381986618041992,-1.8864130973815918,-1.9112096856451875,-0.5450906967215888,-0.7941881041136615
1687104140.976039,-0.8650651574134827,0.3990660309791565,0.3039867877960205,-0.03282272815704346,0.085476815700531,-0.08216992020606995,-4.796048164367676,1.593629002571106,-1.246103048324585,-1.9087207817997216,-0.41049803658138534,-0.9525552792498554
1687104141.0516481,-0.9094202518463135,0.2749285101890564,0.3120400905609131,-0.03795206546783447,0.07701554894447327,0.08862519264221191,-6.283298969268799,2.584383249282837,-0.13481292128562927,-1.9013287022601135,-0.27851533615265556,-1.2390506943623472
1687104141.089169,-0.9452136754989624,0.19918327033519745,0.25864386558532715,0.0937124490737915,0.23991893231868744,0.11153432726860046,-5.8717041015625,2.592087507247925,0.5441679954528809,-1.8378933731539684,-0.20052442444879665,-1.5391943693389594
1687104141.137738,-0.9656375646591187,0.18362785875797272,0.18391428887844086,-0.08174073696136475,0.08485053479671478,0.37492358684539795,-4.250067234039307,2.45292067527771,1.1462786197662354,-1.7590011580034537,-0.18467581042032769,-1.8026978293350249
1687104141.179333,-0.9682068824768066,0.21861112117767334,0.12159053981304169,0.03279751539230347,0.07251127064228058,0.23828792572021484,-3.2221343517303467,1.6049182415008545,1.3550502061843872,-1.6957255297011065,-0.22039093022377207,-1.9983304340679722
1687104141.229953,-0.9592061638832092,0.26755645871162415,0.09130644053220749,-0.07407313585281372,-0.18108496069908142,0.3069479465484619,-3.168165445327759,1.1432712078094482,1.3589965105056763,-1.6656999626947315,-0.27085613013509313,-2.1680314176649924
1687104141.303925,-0.9436333775520325,0.3156690299510956,0.09954430907964706,-0.061691880226135254,-0.10395339131355286,0.17578530311584473,-3.977536678314209,0.8178913593292236,1.3442249298095703,-1.6758980629680773,-0.32116165724592394,-2.3586336126684744
1687104141.341718,-0.9300000071525574,0.3438689708709717,0.12982331216335297,-0.008430719375610352,-0.20145881175994873,-0.0021834373474121094,-3.2931900024414062,0.5472081303596497,0.7136883735656738,-1.7094949869417504,-0.3510340228345981,-2.565790472830301
1687104141.401555,-0.9260367155075073,0.34708914160728455,0.14827197790145874,-0.10577762126922607,0.011034488677978516,-0.011125952005386353,-2.2974960803985596,0.7515963315963745,0.3094969391822815,-1.7295633061709395,-0.3544654878403253,-2.7140121805012005
1687104141.449339,-0.9294770359992981,0.33690816164016724,0.15021757781505585,-0.08053278923034668,-0.1796511709690094,-0.05510948598384857,-2.0660552978515625,0.7022348046302795,-0.012552788481116295,-1.73102602934154,-0.34363113852884297,-2.828922697911474
1687104141.536295,-0.9357831478118896,0.3171633183956146,0.15400314331054688,-0.0712815523147583,0.05057331919670105,-0.10204710066318512,-2.4049642086029053,0.6514008045196533,-0.03458099439740181,-1.7339056882632586,-0.32273688627967284,-2.9486396624536444
1687104141.55223,-0.9411654472351074,0.2983933985233307,0.15864728391170502,-0.009380817413330078,0.39838382601737976,-0.20759747922420502,0.18487077951431274,-0.038361333310604095,-0.3000122606754303,-1.7377911808007946,-0.3030089161439914,-3.0110566020263563
1687104141.591027,-0.9430949091911316,0.2925747334957123,0.1580253392457962,-0.019872069358825684,0.19126611948013306,-0.1460014432668686,-0.24296578764915466,0.05342911183834076,0.07484143227338791,-1.7368144404918833,-0.2969182718547001,-2.997421823817019
1687104141.630127,-0.9415220618247986,0.2980903089046478,0.1570916324853897,-0.02580857276916504,0.03769439458847046,-0.04944102466106415,-0.6558763980865479,0.3069972097873688,0.29686498641967773,-1.7361220075809685,-0.3026913845801574,-3.0247893151880567
1687104141.6774468,-0.9395349025726318,0.3070736825466156,0.151590496301651,0.015722155570983887,-0.04958176612854004,0.004567980766296387,-0.620285153388977,0.3246491849422455,0.25084343552589417,-1.7307640187377606,-0.31211662594533224,-3.062361447449592
1687104141.7303262,-0.9387229681015015,0.31204819679260254,0.14637324213981628,0.01809912919998169,-0.0516265332698822,0.027668491005897522,-0.13324567675590515,0.13829010725021362,0.06618962436914444,-1.7254787711001196,-0.3173481073142638,-3.0832047983560105
1687104141.851368,-0.939174234867096,0.31170105934143066,0.1442013680934906,0.006007790565490723,-0.0973609983921051,0.02593410015106201,-0.31226739287376404,0.10138862580060959,0.0040159341879189014,-1.7231471412896469,-0.31698277130172187,-3.0942809147361072
1687104141.867159,-0.9400349259376526,0.3089812994003296,0.14444580674171448,-0.0015085339546203613,-0.02583935856819153,0.06992481648921967,-0.13698795437812805,0.07813341915607452,-0.0362706333398819,-1.7232638322260765,-0.3141217193587343,-3.107989827110118
1687104141.9005442,-0.941325843334198,0.30552589893341064,0.14338535070419312,0.013850927352905273,0.04896613955497742,0.01481783390045166,0.10244327783584595,-0.01697765477001667,-0.07377167046070099,-1.721957150490126,-0.310490701407133,-3.106714873621618
1687104141.9448528,-0.9416651129722595,0.3040059208869934,0.1443849503993988,0.016234874725341797,0.07213833928108215,0.0028470754623413086,0.13236495852470398,-0.0810549333691597,-0.014747034758329391,-1.7229408130034156,-0.30889480439314,-3.0992257903905527
1687104141.987175,-0.940322995185852,0.30693960189819336,0.14690329134464264,0.004837214946746826,0.03587949275970459,0.005104780197143555,-0.030460447072982788,-0.02446293644607067,0.07834695279598236,-1.7257700400042748,-0.31197572984807814,-3.098789802057574
1687104142.030268,-0.9376484751701355,0.3141004741191864,0.14884907007217407,0.0022847652435302734,0.00457918643951416,-0.0008236169815063477,0.075860396027565,-0.023428963497281075,0.06070764362812042,-1.7282298221376164,-0.31950903310124323,-3.10011995056342
1687104142.1339788,-0.9359323382377625,0.31938642263412476,0.14840036630630493,-0.003154456615447998,-0.004521459341049194,-0.012551441788673401,0.3442199230194092,-0.04935406148433685,0.025178076699376106,-1.7280461009238726,-0.3250819194240274,-3.091331899121807
1687104142.148639,-0.9353075623512268,0.3242490589618683,0.14163951575756073,-0.002512633800506592,0.067047119140625,-0.03470602631568909,0.908194363117218,-0.08299637585878372,-0.01440828014165163,-1.7210906735430378,-0.3302177927684127,-3.0581256797108325
1687104142.185989,-0.935436487197876,0.3306156396865845,0.12510664761066437,-0.022205054759979248,0.07940316200256348,-0.06713855266571045,1.8253260850906372,-0.14399364590644836,-0.10293668508529663,-1.703748846723971,-0.3369558248932272,-2.987043049766106
1687104142.231385,-0.9375265836715698,0.33501607179641724,0.09385180473327637,-0.011661648750305176,0.09132963418960571,-0.06424975395202637,3.231265068054199,-0.3142548203468323,-0.3071131706237793,-1.6705696835847632,-0.3416222877043974,-2.8537767530160605
1687104142.2806191,-0.9438002109527588,0.3277123272418976,0.04295992851257324,-0.01162874698638916,0.09747368097305298,-0.08116793632507324,5.321414947509766,-0.5457181930541992,-0.6244673132896423,-1.616282961673375,-0.33388118122252314,-2.6302684191041554
1687104142.346401,-0.9556936025619507,0.29392027854919434,-0.01613299362361431,-0.00857013463973999,-0.048391193151474,0.040104568004608154,5.577717304229736,-0.7075350880622864,-0.8698486685752869,-1.5539170037327512,-0.2983257059977234,-2.32377625044426
1687104142.384695,-0.9707270264625549,0.2330576628446579,-0.0580773800611496,-0.03890115022659302,-0.028956130146980286,0.06636297702789307,6.471128940582275,-0.8812223076820374,-1.1434147357940674,-1.5110388112257491,-0.2352207528108793,-2.02001199173975
1687104142.43254,-0.9858721494674683,0.15069802105426788,-0.073116734623909,-0.025831222534179688,0.04316495358943939,0.21790742874145508,7.723927021026611,-1.355841040611267,-1.1024718284606934,-1.496767334487257,-0.15127432180065398,-1.6608900447144361
1687104142.487626,-0.9952191710472107,0.0873432606458664,-0.04370367154479027,-0.0892687439918518,0.11433226615190506,0.29950201511383057,8.448424339294434,-1.5565115213394165,-0.21807385981082916,-1.526910904936679,-0.08745469635326533,-1.2506733834949433
1687104142.536178,-0.9948082566261292,0.10168709605932236,0.003988216631114483,-0.07417649030685425,0.1819433867931366,0.40101051330566406,8.856863021850586,-2.0129709243774414,1.1971900463104248,-1.5748053358951926,-0.10186316103475886,-0.8112056890051529
1687104142.593915,-0.9773384928703308,0.20866121351718903,0.03563409298658371,-0.15341395139694214,0.2688474655151367,0.35286974906921387,8.727407455444336,-1.70280122756958,2.659961462020874,-1.607240522832004,-0.2102058327321787,-0.36294314708477493
1687104142.638986,-0.9306032657623291,0.3658209443092346,-0.012334487400949001,-0.18725532293319702,0.21402829885482788,0.28078222274780273,6.5294084548950195,-0.8469324707984924,3.329907178878784,-1.557542810954447,-0.37451474772773785,0.05233720628363321
1687104142.7314649,-0.8502820134162903,0.511965274810791,-0.12211396545171738,-0.3047013282775879,-0.035082340240478516,0.07580339908599854,3.721303701400757,0.6262884140014648,3.6674039363861084,-1.4281558243798655,-0.5374711110899485,0.3451804717211401
1687104142.7489219,-0.7366213798522949,0.6344230771064758,-0.23429933190345764,-0.29935866594314575,-0.03043442964553833,-0.1802668571472168,0.7922874689102173,1.5700156688690186,3.314702033996582,-1.2628424171889068,-0.6872619305587525,0.5338219267482599
1687104142.787986,-0.5953055024147034,0.7476565837860107,-0.29431453347206116,-0.3493201732635498,-0.14259982109069824,-0.2874422073364258,-0.8371849656105042,2.37493634223938,3.284050226211548,-1.111644835335703,-0.844526228489606,0.5999378134123421
1687104142.832962,-0.4246366620063782,0.8529422283172607,-0.3036004900932312,-0.2531891465187073,-0.12283974885940552,-0.12388986349105835,-1.6390818357467651,2.1481997966766357,3.361053228378296,-0.9500969648337629,-1.0215960207342023,0.6573122797871266
1687104142.911102,-0.25370898842811584,0.9353461861610413,-0.24649381637573242,-0.29389825463294983,-0.29667437076568604,0.02296769618988037,-2.3421530723571777,2.0192322731018066,3.0515213012695312,-0.7998216802298574,-1.209236485706844,0.7096344774707375
1687104142.935121,-0.10491906106472015,0.9849767684936523,-0.1371593326330185,-0.2571718692779541,-0.4132148027420044,-0.06254780292510986,-2.6822359561920166,1.6462558507919312,2.41135835647583,-0.65299616738703,-1.3972394143370004,0.7647418483746043
1687104143.048366,-0.0003378214023541659,0.9997316598892212,-0.023159226402640343,-0.19726336002349854,-0.32515597343444824,-0.07112497091293335,-1.9501622915267944,1.376392126083374,1.5746010541915894,-0.014585868702679179,-1.54762974960514,1.3269197473806513
1687104143.054986,0.060108911246061325,0.9968019723892212,0.05265267193317413,-0.19319596886634827,-0.2725590467453003,-0.08552027493715286,-1.121433138847351,1.103564977645874,0.9193787574768066,2.2901666691452385,-1.4907994432437102,-2.714903182501432
1687104143.095786,0.09158584475517273,0.99099200963974,0.09770770370960236,-0.1273675560951233,-0.18967682123184204,-0.024892807006835938,-0.3474200367927551,0.7865982055664062,0.45359909534454346,2.388523790558555,-1.4364716996501727,-2.665487392036625
1687104143.137414,0.10462550818920135,0.9897551536560059,0.09715050458908081,-0.045543327927589417,-0.12542104721069336,-0.06084989011287689,0.5936985015869141,-0.048566095530986786,0.045186739414930344,2.319165373737944,-1.4275314316282373,-2.763947433214893
1687104143.2120209,0.10918252915143967,0.9927196502685547,0.05086052790284157,-0.021276533603668213,-0.04559147357940674,0.15653681755065918,0.7449537515640259,-0.4299989640712738,0.10270422697067261,2.0067364597807713,-1.4500554677631607,-3.0581809949997267
1687104143.2497458,0.10947535187005997,0.9935606122016907,0.029192952439188957,-0.01606088876724243,-0.058441102504730225,0.14419245719909668,0.24605770409107208,-0.2621947228908539,-0.0023117363452911377,1.83139467770892,-1.4572506111181258,3.0645996696330067
1687104143.341601,0.10789094865322113,0.994104266166687,0.01078858319669962,0.008869454264640808,0.02255833148956299,-0.039627790451049805,0.31691986322402954,-0.15654133260250092,-0.05735967308282852,1.6704602869607823,-1.4621544640886595,2.9129954979996615
1687104143.357044,0.10783489793539047,0.9941684007644653,-0.0006069614901207387,0.014815375208854675,0.020418763160705566,0.06045180559158325,0.14428286254405975,-0.05731087550520897,0.001795790158212185,1.5651677678670464,-1.4627476677152023,2.8127379616381862
1687104143.388876,0.10663145035505295,0.9942094087600708,-0.013315592892467976,0.017849862575531006,-0.0064165592193603516,-0.010930776596069336,0.32138440012931824,-0.2478809803724289,-0.002490500919520855,1.4465645038994281,-1.463128670963356,2.700004375177864
1687104143.438067,0.10815563797950745,0.993778645992279,-0.026574844494462013,0.006514273583889008,-0.0025220513343811035,0.01070559211075306,0.24504490196704865,-0.16379185020923615,0.04344423487782478,1.329860044478306,-1.459191523606773,2.594308879114734
1687104143.511981,0.11084230244159698,0.9931122660636902,-0.03796916827559471,0.0008521378040313721,0.0011960268020629883,0.02226775884628296,0.16388879716396332,-0.06791984289884567,0.06416382640600204,1.240772718638528,-1.4533600947707728,2.5109511955952772
1687104143.54663,0.11283764988183975,0.9926498532295227,-0.04374455288052559,-0.004378043115139008,-0.006062567234039307,0.03481806069612503,0.0916643962264061,-0.07953253388404846,0.009090255945920944,1.200958204158037,-1.4494770622122308,2.474358272465276
1687104143.627857,0.11218593269586563,0.992499828338623,-0.04856361448764801,0.004955902695655823,0.024178028106689453,-0.010838992893695831,0.12627670168876648,-0.10331030189990997,-0.027483468875288963,1.1622659540613178,-1.4482435405870506,2.4397576021543896
1687104143.643609,0.11118742823600769,0.9926357269287109,-0.04807452857494354,0.00693095475435257,-0.021917641162872314,0.021051056683063507,-0.04201031103730202,-0.11464740335941315,0.02099345251917839,1.1626966364438522,-1.4493605287092708,2.445423061697591
1687104143.6907701,0.11067570745944977,0.9927417039871216,-0.047062795609235764,0.01351572573184967,0.00017821788787841797,0.001957707107067108,-0.017270077019929886,-0.1409878432750702,-0.0029805891681462526,1.1687296282753665,-1.4502385589947637,2.4570109720342352
1687104143.736768,0.11008200794458389,0.9929698705673218,-0.04350199177861214,-0.004719987511634827,-0.006016373634338379,0.006499294191598892,-0.10467395931482315,-0.12969593703746796,-0.020037803798913956,1.1944536950840474,-1.452150668504196,2.489999912981037
1687104143.795926,0.10723301023244858,0.993570864200592,-0.03630366921424866,0.007116466760635376,-0.04461163282394409,0.01726055145263672,-0.24039317667484283,-0.22727563977241516,-0.11529075354337692,1.2443587055514727,-1.4573411801226546,2.5478584324587064
1687104143.838794,0.09501955658197403,0.9950121641159058,-0.030364830046892166,0.011502176523208618,-0.11636543273925781,0.023620307445526123,-0.08347705751657486,-0.6046977639198303,-0.4556221067905426,1.2614889250926364,-1.4708763544995838,2.587947934912559
1687104143.962836,0.030862174928188324,0.991186797618866,0.12882587313652039,-0.755105197429657,-1.1102969646453857,0.17988979816436768,-5.175746917724609,1.7725107669830322,-1.051558017730713,2.9064589929723463,-1.4379341129494414,-2.141228324023224
1687104143.982502,-0.05533866584300995,0.9627968072891235,0.26449814438819885,0.09618659317493439,0.008409559726715088,0.022214233875274658,-2.0799107551574707,-0.30166012048721313,-2.230215072631836,-2.935346316632271,-1.2971682086731753,-1.6978872285199742
1687104143.987222,-0.17817449569702148,0.895319938659668,0.4082351326942444,-0.10560832917690277,-0.3622846007347107,-0.026689231395721436,-3.7425856590270996,0.3260308802127838,-2.938121795654297,-2.7300632848140576,-1.109148916467076,-1.4867704713504064
1687104144.063231,-0.3263029456138611,0.7660403847694397,0.5538125038146973,-0.10457459092140198,-0.1109042763710022,-0.12922167778015137,-3.466460943222046,0.8130513429641724,-3.347973346710205,-2.6091566919984377,-0.8726582674688831,-1.3771416698324028
1687104144.112931,-0.48378217220306396,0.6024886965751648,0.634792685508728,-0.1834997534751892,0.0742843747138977,-0.18136274814605713,-2.8988196849823,1.7621721029281616,-3.221200704574585,-2.49038578885177,-0.646615616763976,-1.3019977761285841
1687104144.1531649,-0.6284006834030151,0.4300123453140259,0.6482294201850891,-0.04492366313934326,0.28515180945396423,-0.1351986527442932,-2.6495885848999023,2.1964111328125,-2.808601140975952,-2.371725337707309,-0.44450646393044563,-1.2691153194239884
1687104144.2321172,-0.7596361041069031,0.2599921226501465,0.5961180329322815,-0.1600109338760376,0.3721795678138733,-0.14606010913848877,-3.111142158508301,3.099862575531006,-1.995947003364563,-2.236163873880407,-0.26301403135595364,-1.2899856892700619
1687104144.2496161,-0.8627431988716125,0.09905797988176346,0.4958442747592926,-0.043445706367492676,0.3771994113922119,0.16165691614151,-4.424565315246582,3.4274954795837402,-0.8553651571273804,-2.0924275452355574,-0.09922070012717894,-1.4056903056899612
1687104144.292088,-0.9417113065719604,-0.0036252427380532026,0.3364025056362152,-0.16995251178741455,0.3688596785068512,0.3580860197544098,-5.210229396820068,3.9180264472961426,0.8700186610221863,-1.9138928211336768,0.003625250750326625,-1.6288934731554372
1687104144.365727,-0.9862878322601318,-0.003438635729253292,0.16499674320220947,0.0007992386817932129,0.13873833417892456,0.542019248008728,-5.002892971038818,2.7998106479644775,1.6544382572174072,-1.7365520795568343,0.0034386426117199026,-1.9045348496470427
1687104144.4073992,-0.9962880611419678,0.06414208561182022,0.057409293949604034,-0.15904629230499268,0.24385657906532288,0.45858192443847656,-4.305308818817139,1.7813631296157837,1.9319069385528564,-1.628355865511259,-0.0641861505950763,-2.1314195842679813
1687104144.455245,-0.9891374707221985,0.1451660692691803,0.02310401014983654,-0.06284916400909424,-0.21631783246994019,0.21240019798278809,-3.6100475788116455,0.5852935910224915,1.4529074430465698,-1.5941498146983752,-0.14568082140911706,-2.339626388580487
1687104144.531651,-0.9808462858200073,0.19251766800880432,0.029618220403790474,-0.026935577392578125,0.03586055338382721,0.044905781745910645,-0.9700111746788025,-0.007850936613976955,0.5310582518577576,-1.6009837512167076,-0.19372716357677616,-2.4608468745061085
1687104144.549834,-0.9785134196281433,0.2029891461133957,0.03614901378750801,-0.07512116432189941,-0.11767733097076416,-0.059189796447753906,0.585867702960968,-0.19592657685279846,0.00421786867082119,-1.6077223247910768,-0.2044096608265718,-2.458276565554297
1687104144.606728,-0.978222668170929,0.20302902162075043,0.04311910644173622,-0.03807353973388672,-0.16869685053825378,-0.10116350650787354,-0.08122189342975616,-0.2166564017534256,-0.027677079662680626,-1.6148468419905333,-0.20445038329967502,-2.4400272958631506
1687104144.649311,-0.9770642518997192,0.20591071248054504,0.05427541211247444,-0.15243691205978394,-0.2254420667886734,-0.16685473918914795,-0.7090243101119995,-0.03713751956820488,0.20312677323818207,-1.6262887749838622,-0.20739427880813133,-2.468499322551706
1687104144.690984,-0.9760764241218567,0.20860092341899872,0.061321064829826355,-0.09274059534072876,0.057359710335731506,-0.2971608638763428,0.7720988392829895,-0.24384203553199768,-0.1453658938407898,-1.6335379117498325,-0.2101441908916451,-2.4641325599299244
1687104144.765781,-0.9768077731132507,0.2051556408405304,0.06129809468984604,-0.04826229810714722,0.011870026588439941,-0.19176077842712402,0.0875048041343689,0.05099531635642052,-0.014233643189072609,-1.6334676327909212,-0.20662272650929073,-2.436920453054704
1687104144.8307629,-0.9765934944152832,0.20767594873905182,0.055996883660554886,-0.025527358055114746,-0.0243111252784729,-0.05827045440673828,-0.6560212969779968,0.298258513212204,0.15311187505722046,-1.6280726005548853,-0.2091985115801675,-2.4599114274922127
1687104144.849412,-0.9758508801460266,0.213336780667305,0.04692770913243294,0.005712449550628662,0.014110654592514038,0.039070844650268555,-0.40240952372550964,0.3167412579059601,0.09152800589799881,-1.6188483237794127,-0.21498909649190023,-2.4907243858286297
1687104144.916061,-0.976341724395752,0.21330897510051727,0.03543907776474953,0.007790207862854004,0.0004360377788543701,0.05730390548706055,-9.268842404708266e-05,0.19632083177566528,-0.05926603451371193,-1.6070782216593151,-0.21496064607547308,-2.497510775442899
1687104144.963037,-0.9772121906280518,0.21026062965393066,0.029099727049469948,0.006234467029571533,-0.03579172492027283,0.05471682548522949,-0.12277413159608841,0.09485389292240143,-0.05308503285050392,-1.6005658398307367,-0.2118415425680758,-2.5005963629649397
1687104145.007853,-0.9777121543884277,0.20795316994190216,0.02888292632997036,0.019109368324279785,0.005669757723808289,0.05107319355010986,-0.07299086451530457,0.021166356280446053,-0.0466039665043354,-1.6003290773577765,-0.20948192382743686,-2.506092567771317
1687104145.045064,-0.9782777428627014,0.20444850623607635,0.034250661730766296,0.012121915817260742,0.008594632148742676,-0.012140631675720215,-0.04009150341153145,-0.013271644711494446,-0.0513722226023674,-1.605793214128677,-0.20590028425404683,-2.5110339148943037
1687104145.126581,-0.9783953428268433,0.2034071683883667,0.03698549047112465,0.014024734497070312,0.04987338185310364,0.01658809185028076,0.13138970732688904,-0.04266176000237465,-0.03402359038591385,-1.6085805290471984,-0.20483659060856896,-2.5082612361901973
1687104145.152323,-0.9782169461250305,0.2042880654335022,0.03684556856751442,-0.009469032287597656,0.00019487738609313965,-0.03052842989563942,-0.09908584505319595,0.03360389545559883,0.026574505493044853,-1.6084445811238934,-0.20573637602436817,-2.506898154127363
1687104145.1918721,-0.9774007201194763,0.20821036398410797,0.036550749093294144,-0.0010384917259216309,0.030498072504997253,-0.0012419261038303375,-0.005946050398051739,0.05233437195420265,0.02557322382926941,-1.6081747776806061,-0.2097448724172956,-2.5100802484635643
1687104145.274932,-0.9772557020187378,0.20952974259853363,0.03268623352050781,0.005850791931152344,0.0100441575050354,0.0077342987060546875,-0.0027257557958364487,0.016774071380496025,0.02767312526702881,-1.604230825341949,-0.2110940000455296,-2.5085764328791296
1687104145.314794,-0.9765355587005615,0.21273183822631836,0.0335131473839283,-0.00452810525894165,0.001592978835105896,0.02181517705321312,-0.13457007706165314,0.018831629306077957,0.061771173030138016,-1.6051012717788953,-0.21436994345387334,-2.5138800178324283
1687104145.358677,-0.9757376909255981,0.2160283625125885,0.035604797303676605,-0.00466996431350708,-0.013437509536743164,0.00975954532623291,-0.23020444810390472,0.017585936933755875,0.07902273535728455,-1.6072702747726724,-0.21774494081958568,-2.521832280506345
1687104145.429183,-0.9750490784645081,0.21883544325828552,0.03728372976183891,0.005520999431610107,0.009985238313674927,-0.002158045768737793,-0.08976238965988159,0.0198795385658741,0.04782033711671829,-1.609015506366808,-0.2206208332891968,-2.531634656556293
1687104145.4646811,-0.9748126268386841,0.21984900534152985,0.03750545531511307,0.004979372024536133,-0.0012516677379608154,-0.004836320877075195,-0.0030208341777324677,0.03608010336756706,0.01001257449388504,-1.6092518877474975,-0.2216596903058925,-2.533472917342833
1687104145.519033,-0.9745879769325256,0.22118787467479706,0.03540932759642601,0.004144430160522461,-0.021999746561050415,0.012411709874868393,-0.17751939594745636,0.09100351482629776,0.01549622230231762,-1.6071129626144254,-0.22303234629123286,-2.5404230984516025
1687104145.5630221,-0.9746589064598083,0.22116518020629883,0.033550798892974854,0.023059964179992676,-0.006321549415588379,-0.0002102889120578766,0.04054528474807739,0.003180209780111909,-0.005944554228335619,-1.605205857721688,-0.22300907499214326,-2.5431521442571223
1687104145.619693,-0.9747313261032104,0.22071699798107147,0.03439364954829216,0.0029753446578979492,-0.014067262411117554,0.001968149095773697,0.05426615849137306,-0.028248796239495277,0.0008742697536945343,-1.6060669540421681,-0.2225495296845059,-2.5401042079827487
1687104145.666902,-0.9746752381324768,0.2207610309123993,0.0356721356511116,-0.004069149494171143,0.008303806185722351,-0.010434035211801529,0.20413954555988312,-0.07894843816757202,-0.01336531899869442,-1.607378995166016,-0.22259468830833598,-2.533289551686594
1687104145.7410312,-0.9746711254119873,0.22054940462112427,0.037063222378492355,-0.023360252380371094,-0.00948992371559143,-0.010116223245859146,0.10474930703639984,-0.05097876861691475,0.0005326527170836926,-1.6088044041058007,-0.22237771503506576,-2.524880932347966
1687104145.757792,-0.9746156334877014,0.2207750827074051,0.03718233108520508,-0.010293364524841309,-0.008128702640533447,-0.013805866241455078,0.03216005489230156,-0.032035790383815765,-0.002482045441865921,-1.6089285992418816,-0.2226090929402225,-2.521309569423657
1687104145.795298,-0.9746213555335999,0.22063206136226654,0.03787687420845032,0.010159134864807129,-0.0021567940711975098,-0.01556849479675293,0.008210249245166779,-0.026246456429362297,0.013070481829345226,-1.6096399480831458,-0.2224624466457342,-2.5198647289938156
1687104145.846132,-0.9746487140655518,0.22060659527778625,0.037315454334020615,0.0021299123764038086,-0.003291010856628418,-0.01273345947265625,-0.029112888500094414,0.021763192489743233,0.01393054984509945,-1.609063691032591,-0.2224363432730415,-2.5196376155379414
1687104145.9166389,-0.974592924118042,0.22123439610004425,0.03498297929763794,0.00028884410858154297,0.0037868916988372803,0.007192373275756836,-0.035381704568862915,0.03831285238265991,0.020602500066161156,-1.6066758892089679,-0.2230800432429127,-2.5211256494278476
1687104145.94494,-0.9744212627410889,0.2222488820552826,0.033296529203653336,-2.0265579223632812e-05,-0.0036820173263549805,-0.0027178488671779633,-0.004211000632494688,0.02719537727534771,0.029472094029188156,-1.604953604879971,-0.22412043143246513,-2.5219556816441036
1687104146.03196,-0.9741300940513611,0.22355034947395325,0.03310051187872887,0.01831960678100586,-0.00460207462310791,0.009776711463928223,-0.017914561554789543,-0.012688567861914635,0.029473159462213516,-1.6047628196415489,-0.22545548400161525,-2.5221752206445918
1687104146.0582051,-0.9737674593925476,0.22506709396839142,0.03348726034164429,-0.025347352027893066,-0.019027769565582275,0.00787937268614769,0.017560873180627823,0.005465157795697451,0.029012763872742653,-1.6051721630312406,-0.22701190294751233,-2.5231721344528455
1687104146.099154,-0.9735201001167297,0.22595146298408508,0.03470453992486,0.0010164976119995117,-0.019790053367614746,0.005319356918334961,-0.03950747102499008,-0.01146269217133522,0.018149463459849358,-1.6064297483127614,-0.227919649725745,-2.5234580470605867
1687104146.1508188,-0.9734237790107727,0.22595597803592682,0.03727816417813301,0.013737678527832031,-0.03001798689365387,-0.014161113649606705,-0.05983804166316986,-0.04537445306777954,0.017192456871271133,-1.6090735466585464,-0.22792427957784173,-2.5261447651070443
