Timestamp,gravityX,gravityY,gravityZ,accelerationX,accelerationY,accelerationZ,rotationRateX,rotationRateY,rotationRateZ,attitudeRoll,attitudePitch,attitudeYaw
1687105697.681275,-0.05813651531934738,0.49113160371780396,-0.8691431879997253,-0.008193492889404297,0.024996936321258545,-0.003522217273712158,0.1360185444355011,0.10373877733945847,-0.09437352418899536,-0.06678996470771945,-0.5133883580130135,1.6715387052621375
1687105697.746499,-0.05840030312538147,0.48477303981781006,-0.8726881146430969,-0.0013531744480133057,0.014204621315002441,0.0018842816352844238,0.16733811795711517,0.0786554366350174,-0.15833093225955963,-0.06682038776095013,-0.5061036446294375,1.6641357810988688
1687105697.8070889,-0.05938182771205902,0.4799180328845978,-0.8753013610839844,0.00873786211013794,-0.01632550358772278,-0.001194000244140625,0.09559442102909088,0.06230072304606438,-0.12715750932693481,-0.06773778894268292,-0.5005612745510617,1.6556984967788608
1687105697.919839,-0.05833286792039871,0.4789618253707886,-0.8758954405784607,-0.0013748258352279663,-0.032825350761413574,0.007029473781585693,-0.002411236520856619,0.06134256348013878,-0.035959020256996155,-0.06649978241580595,-0.49947169190800267,1.6516598968938465
1687105697.9314299,-0.05699668452143669,0.4764515161514282,-0.8773512840270996,0.0012867935001850128,0.01097521185874939,0.004731714725494385,0.06657236069440842,0.026538951322436333,-0.05837138369679451,-0.06487333211928326,-0.4966142454997971,1.6499601368599959
1687105698.042644,-0.05926962569355965,0.4701053500175476,-0.8806180357933044,-0.0031694024801254272,0.016970455646514893,0.0028409361839294434,0.15303774178028107,0.009649094194173813,-0.1244763657450676,-0.06720322574866855,-0.4894101357549703,1.6446520703835168
1687105698.048881,-0.061384864151477814,0.46476733684539795,-0.8833024501800537,-0.00015388429164886475,-0.004226595163345337,-0.00018143653869628906,0.10317537933588028,0.044175270944833755,-0.1582471877336502,-0.06938317683142746,-0.48337183982507986,1.6372868011135353
1687105698.069094,-0.06271080672740936,0.46162837743759155,-0.8848540186882019,-0.0019254833459854126,0.0035815834999084473,-0.005801498889923096,0.10664041340351105,0.029243679717183113,-0.1514999270439148,-0.07075306312701675,-0.47982998339889665,1.6288686493003373
1687105698.131098,-0.06551501154899597,0.4575892686843872,-0.8867467641830444,0.00815717875957489,0.002631068229675293,-0.004595398902893066,0.10857760161161423,-0.018473953008651733,-0.13050782680511475,-0.0737484427086593,-0.47528205206804675,1.6211727450671325
1687105698.1908112,-0.06899520009756088,0.4536885619163513,-0.8884854316711426,-0.005772918462753296,-0.02262777090072632,0.004986286163330078,0.045621536672115326,-0.01848018914461136,-0.13430902361869812,-0.07749931696052888,-0.4709000439462681,1.6145256459396504
1687105698.217845,-0.07169809192419052,0.44929081201553345,-0.8905038237571716,0.00756535679101944,0.007648825645446777,-0.0020895004272460938,0.09091631323099136,-0.004428197629749775,-0.10255642235279083,-0.08034076853435165,-0.4659713755457822,1.6085121425017506
1687105698.31476,-0.07265136390924454,0.44592782855033875,-0.8921155333518982,-0.002070978283882141,-0.019856691360473633,0.0036877989768981934,0.030095307156443596,0.04155520722270012,-0.05709858983755112,-0.08125785115040791,-0.46221059668082387,1.6043741698347618
1687105698.336337,-0.07062619924545288,0.4455651342868805,-0.8924593329429626,-0.0029822587966918945,-0.015419870615005493,0.0027803778648376465,0.0047124531120061874,0.05271081253886223,-0.0031456786673516035,-0.07897201546280025,-0.4618054067260032,1.603110559548339
1687105698.4331121,-0.06844208389520645,0.4456697404384613,-0.8925772309303284,-0.002053573727607727,-0.010305970907211304,-0.0045326948165893555,-0.03376756235957146,0.04787280410528183,0.028152521699666977,-0.07652941267313239,-0.4619222615768109,1.603720740887426
1687105698.445516,-0.06606665998697281,0.446663498878479,-0.892259418964386,-0.0033456385135650635,0.001334547996520996,-0.006361126899719238,-0.01957397721707821,0.029949616640806198,0.03228328749537468,-0.07390935408003564,-0.463032672440354,1.6052067654123134
1687105698.552331,-0.06481977552175522,0.44670727849006653,-0.8923289775848389,-0.00299033522605896,0.002114713191986084,-0.0016987323760986328,-0.017196040600538254,0.019455475732684135,0.023424413055181503,-0.07251375085850367,-0.4630816220974915,1.6065669306256731
1687105698.563159,-0.06459330767393112,0.4464447498321533,-0.8924767971038818,0.005129754543304443,0.00509333610534668,0.005880117416381836,0.008987093344330788,-0.022383984178304672,0.025864532217383385,-0.07224935966074632,-0.4627881849741336,1.6077058766933514
1687105698.645235,-0.06521351635456085,0.44773080945014954,-0.8917871713638306,-0.0011470168828964233,-0.010230839252471924,0.0010553598403930664,-0.02943992428481579,-0.03163067623972893,0.017819322645664215,-0.07299683731203344,-0.4642259605387014,1.6088608169153986
1687105698.651185,-0.06620009988546371,0.4479716718196869,-0.8915934562683105,-0.0007555112242698669,-0.004810690879821777,-0.009254872798919678,-0.018275421112775803,-0.032880522310733795,0.017646685242652893,-0.07411320525003093,-0.46449534825665223,1.609929607963515
1687105698.667777,-0.06673260778188705,0.4483904242515564,-0.8913432359695435,-0.003366321325302124,-0.0004229247570037842,-0.000990748405456543,-0.0037073970306664705,-0.015397868119180202,0.01204519160091877,-0.0747280541025579,-0.46496378764728746,1.6110214796910163
1687105698.730792,-0.06692115217447281,0.4482915997505188,-0.8913788199424744,0.0023764222860336304,0.0077477991580963135,-0.00046688318252563477,-0.006383607629686594,-0.011818225495517254,0.007015812210738659,-0.07493541466818332,-0.4648532324820405,1.6116093698703808
1687105698.761578,-0.0673183798789978,0.44873225688934326,-0.8911271095275879,0.0018581226468086243,0.0026532113552093506,0.001326143741607666,-0.025286192074418068,-0.008151540532708168,0.013093545101583004,-0.0753997447647844,-0.4653462452363933,1.6121061535137753
1687105698.8224611,-0.0676000714302063,0.4494171142578125,-0.890760600566864,-0.0019037723541259766,-0.0001068413257598877,0.0015851855278015137,-0.019798215478658676,-0.017509400844573975,0.011354368180036545,-0.07574508634839097,-0.466112752853839,1.6127390937528416
1687105698.8500872,-0.06825019419193268,0.44964122772216797,-0.890597939491272,-0.0019097626209259033,-0.007411003112792969,0.006015419960021973,-0.005609160289168358,-0.013037419877946377,0.007298373617231846,-0.0764846334069888,-0.46636362654285707,1.6131085065257131
1687105698.9113212,-0.06850621849298477,0.4501781463623047,-0.8903070092201233,-0.006490796804428101,-0.011274337768554688,-0.004041135311126709,-0.03214969113469124,-0.00318918377161026,0.0077744135633111,-0.07679541134033581,-0.4669648280038322,1.6134279844636956
1687105698.941658,-0.06857169419527054,0.45101967453956604,-0.8898759484291077,0.0016618520021438599,0.00025901198387145996,-0.003175199031829834,0.0013419564347714186,-0.013488559983670712,0.002201882191002369,-0.07690561313864744,-0.4679074971002177,1.6137027345618848
1687105699.001323,-0.06912822276353836,0.4508828818798065,-0.8899021744728088,-0.003366336226463318,-0.008866280317306519,0.0012455582618713379,-0.010661975480616093,-0.01186121255159378,0.009826445952057838,-0.07752501672697766,-0.4677542325668739,1.6138618210495248
1687105699.153448,-0.06919002532958984,0.45188018679618835,-0.8893913626670837,-0.0009546801447868347,-0.002493619918823242,0.0031151771545410156,-0.022456582635641098,-0.00221939361654222,0.01012212410569191,-0.07763842764940916,-0.4688718642778486,1.614350471679862
1687105699.165382,-0.0695318728685379,0.4518567621707916,-0.8893766403198242,0.0015081316232681274,-0.0020582079887390137,0.0026578903198242188,0.002205353230237961,-0.013279678300023079,0.006996637210249901,-0.07802176014775106,-0.46884562011094466,1.6146951729184473
1687105699.2776651,-0.0720139890909195,0.4505765736103058,-0.8898285031318665,0.006172269582748413,-0.005462437868118286,-0.002124011516571045,0.04379647225141525,-0.08972711116075516,0.010607950389385223,-0.08075419439423388,-0.4674110773029075,1.6152044298500086
1687105699.283273,-0.07513880729675293,0.44922593235969543,-0.8902528882026672,0.0002028346061706543,-0.0006480515003204346,-0.0025693774223327637,0.10468246042728424,-0.13525107502937317,0.02392808347940445,-0.0842020784413517,-0.4658987260450744,1.616441696231958
1687105699.3276138,-0.0764215812087059,0.4463406205177307,-0.8915939927101135,-0.037698954343795776,-0.05072599649429321,0.014289915561676025,-0.0962919220328331,0.038789402693510056,0.045634910464286804,-0.08550444964980522,-0.46267181563358356,1.6183682992166624
1687105699.423732,-0.07501811534166336,0.44088220596313477,-0.8944244980812073,0.006780758500099182,0.049382686614990234,0.006897032260894775,0.1841312199831009,0.041028767824172974,0.03484378010034561,-0.08367721187485633,-0.45658132027992804,1.622521911319335
1687105699.429188,-0.07282238453626633,0.4368297755718231,-0.8965916633605957,-0.011421442031860352,-0.010789155960083008,0.014603137969970703,0.08262749016284943,0.002942256396636367,0.048124633729457855,-0.08104344827979562,-0.4520713834243234,1.6250682807037244
1687105699.44811,-0.07430128008127213,0.43205222487449646,-0.8987826108932495,0.011023029685020447,0.02574196457862854,-0.007742047309875488,0.10608594864606857,-0.08075723797082901,-0.016224995255470276,-0.08248124548961935,-0.4467671059169319,1.6269602473932459
1687105699.5736809,-0.07555774599313736,0.43150201439857483,-0.8989421725273132,-0.01961137354373932,-0.016646087169647217,-0.0022724270820617676,-0.017320677638053894,0.005296202376484871,0.007510827388614416,-0.08385474915907301,-0.4461571291482007,1.6267763604193697
1687105699.579359,-0.07612019777297974,0.42902669310569763,-0.9000787734985352,0.016565091907978058,0.029362589120864868,0.0034266114234924316,0.09928689897060394,-0.037516772747039795,-0.003748485120013356,-0.08436983865813778,-0.4434149815423466,1.6279785192203404
1687105699.665506,-0.07511618733406067,0.42890843749046326,-0.9002194404602051,-0.00958540290594101,-0.031615376472473145,-0.0073427557945251465,-0.078647680580616,0.05720584839582443,0.010391902178525925,-0.08324922695383115,-0.4432840840491842,1.6281320058093827
1687105699.671792,-0.07317295670509338,0.4293721914291382,-0.9001584649085999,0.01583036780357361,0.046412110328674316,0.0048490166664123535,0.17746186256408691,-0.033991146832704544,0.04453982040286064,-0.08111063208012655,-0.4437975104446517,1.629355840777161
1687105699.6901898,-0.0758107602596283,0.41586875915527344,-0.906259298324585,-0.0076090991497039795,0.0044345855712890625,0.014077901840209961,0.3125578761100769,-0.05959797278046608,0.04290703311562538,-0.08345808684341621,-0.4288978626796522,1.63141541145053
1687105699.784437,-0.07661426812410355,0.41060516238212585,-0.9085888266563416,-0.016967929899692535,-0.047049254179000854,-0.012172222137451172,-0.03798600658774376,0.010004360228776932,-0.0029520667158067226,-0.08412326079544905,-0.4231176443091278,1.6330792850906892
1687105699.7961922,-0.07435686141252518,0.4161462187767029,-0.906252384185791,-0.0070030540227890015,-0.005227029323577881,0.009874820709228516,-0.09030859917402267,0.058537475764751434,0.018705889582633972,-0.08186536067392956,-0.42920297821758374,1.6326571516981097
1687105699.902564,-0.07331051677465439,0.41446638107299805,-0.9071070551872253,0.00623282790184021,0.016914814710617065,0.005755126476287842,0.06946615129709244,-0.005211810115724802,0.005992359481751919,-0.08064266265272516,-0.42735638212646865,1.6336025409098287
1687105699.908712,-0.07390166819095612,0.41283759474754333,-0.9078015685081482,-0.0031552761793136597,-0.020457834005355835,-0.009221136569976807,-0.034364908933639526,0.013908354565501213,-0.01568923331797123,-0.08122817445039597,-0.425567339896458,1.6332955619180891
1687105700.0232291,-0.07332275062799454,0.4168857932090759,-0.9059966802597046,-0.0011401921510696411,-0.0006870627403259277,0.0016540288925170898,-0.04896728694438934,-0.0011221934109926224,-0.01185940857976675,-0.08075448174403538,-0.4300164984847955,1.6324288644850204
1687105700.035356,-0.07349234819412231,0.41597825288772583,-0.9064000248908997,-0.001565694808959961,0.00400465726852417,0.0012028813362121582,-0.008510407991707325,0.013734805397689342,0.004144391976296902,-0.08090459829453811,-0.42901826819538397,1.632064284677564
1687105700.115635,-0.0740269273519516,0.41675281524658203,-0.9060006141662598,0.006415173411369324,-0.014698982238769531,0.007761478424072266,-0.04862480238080025,-0.02194616012275219,-0.029140394181013107,-0.08152626232963005,-0.4298701906020119,1.6315613762685632
1687105700.128108,-0.07502597570419312,0.4200635552406311,-0.9043880105018616,-0.007005326449871063,-0.010700821876525879,0.0032955408096313477,-0.07771904021501541,0.003359729191288352,-0.00833045318722725,-0.08276820377345524,-0.43351536637233296,1.629916720736952
1687105700.140082,-0.07491514831781387,0.4216814339160919,-0.9036439657211304,0.004724673926830292,0.0037488341331481934,0.0020174384117126465,-0.030918510630726814,-0.012791255488991737,-0.013829282484948635,-0.08271423356828378,-0.4352988880003156,1.6294460576518939
1687105700.232757,-0.07589177787303925,0.4226549565792084,-0.9031075239181519,-0.003362409770488739,-0.0009783506393432617,0.00010770559310913086,-0.03094407729804516,-0.0035027707926928997,-0.008117067627608776,-0.08383707168863415,-0.43637281369005987,1.6283287342402302
1687105700.2445378,-0.07663476467132568,0.4242185354232788,-0.9023113250732422,0.0009816363453865051,-0.0030454695224761963,0.005750715732574463,-0.028809286653995514,-0.02842281199991703,-0.019975457340478897,-0.0847282899719744,-0.43809873536744814,1.627435495192424
1687105700.351976,-0.07799198478460312,0.4256615936756134,-0.9015150666236877,-0.004069827497005463,0.006970822811126709,-0.0061997175216674805,-0.04164678975939751,-0.01920807547867298,-0.009246314875781536,-0.08629726206516576,-0.43969289632247627,1.626225514117467
1687105700.363677,-0.07998845726251602,0.42634403705596924,-0.9010175466537476,-0.0005169659852981567,0.010362505912780762,-0.004088044166564941,-0.013732866384088993,-0.06859708577394485,-0.04547296464443207,-0.08854356915109474,-0.4404472128488693,1.6249059801634662
1687105700.4739099,-0.08367010205984116,0.42750513553619385,-0.9001325964927673,-0.009332269430160522,-0.005431771278381348,-0.003340303897857666,-0.048374734818935394,-0.05046495422720909,-0.04672571271657944,-0.0926867541391006,-0.4417312035116322,1.6221133826289629
1687105700.4791431,-0.09215070307254791,0.42738670110702515,-0.8993602395057678,0.05729956924915314,0.007824480533599854,0.030601084232330322,0.06904830038547516,-0.26276639103889465,-0.12384000420570374,-0.10210617830752149,-0.4416001947421828,1.6176301720616064
1687105700.5649838,-0.10264280438423157,0.423075795173645,-0.9002618193626404,-0.030444413423538208,0.01404273509979248,-0.01801210641860962,-0.01347187627106905,-0.07322730123996735,-0.09238201379776001,-0.11352417518050885,-0.4368371887214417,1.6119842949122416
1687105700.571282,-0.11133919656276703,0.4166266918182373,-0.9022337794303894,0.05305056273937225,0.0930778980255127,0.009274184703826904,0.4614056944847107,-0.2749505639076233,-0.03058629110455513,-0.12278317305137167,-0.42973144635302984,1.6105622976500047
1687105700.588723,-0.11527799814939499,0.4078322649002075,-0.9057503938674927,-0.05410987138748169,-0.07021632790565491,-0.0003165006637573242,0.07279802858829498,-0.0880415290594101,0.07966258376836777,-0.12659285634844933,-0.42007865371665776,1.6145586855372196
1687105700.6817942,-0.11699832230806351,0.40388616919517517,-0.9072967171669006,-0.009390279650688171,-0.02961862087249756,0.010217249393463135,-0.09970023483037949,0.05927501618862152,0.05616598203778267,-0.12824492652355357,-0.41576094669038727,1.6187069615573386
1687105700.693562,-0.11074885725975037,0.4165336787700653,-0.9023493528366089,0.045837923884391785,0.0010536015033721924,-0.015756726264953613,-0.07856699079275131,0.004988274537026882,0.012186871841549873,-0.12212313894180687,-0.42962913397362634,1.6180933373706645
1687105700.802125,-0.10504528880119324,0.41983503103256226,-0.9015009999275208,-0.12286003679037094,-0.22580426931381226,0.029079735279083252,-0.3390111029148102,0.22261963784694672,0.04641108959913254,-0.11599955029714197,-0.43326353677540186,1.618401791697849
1687105700.8118858,-0.09499682486057281,0.43130403757095337,-0.8971914052963257,0.030955635011196136,0.05816739797592163,-0.009272217750549316,-0.07402683049440384,0.1060514822602272,0.024427225813269615,-0.10548940852219425,-0.4459376489076002,1.6200995314447193
1687105700.922001,-0.09114333242177963,0.43509718775749207,-0.8957585096359253,-0.026517242193222046,-0.019630908966064453,0.000769495964050293,-0.10580660402774811,0.06737867742776871,0.04097750782966614,-0.10140092073231344,-0.4501462222574932,1.6214769754465332
1687105700.934219,-0.08825415372848511,0.4393642842769623,-0.8939632177352905,0.007107853889465332,0.010632634162902832,-0.005969643592834473,-0.08295854181051254,0.03349164500832558,0.017085757106542587,-0.09840349525966233,-0.45489087916178766,1.6226242377834752
1687105701.015552,-0.08704785257577896,0.44162899255752563,-0.8929650187492371,-0.010349050164222717,0.009207189083099365,0.00873345136642456,-0.04086168855428696,0.03582293167710304,0.012678357772529125,-0.09717478623285572,-0.45741350928423297,1.622486600396667
1687105701.022017,-0.08526380360126495,0.4439791142940521,-0.8919711709022522,-0.003206707537174225,-0.0105380117893219,-0.0028804540634155273,-0.0645662173628807,0.028133586049079895,0.008723564445972443,-0.09530074808825376,-0.460034611125786,1.6227235671992826
1687105701.0389528,-0.08498477935791016,0.4460349977016449,-0.8909716010093689,-0.008414313197135925,-0.002858757972717285,0.0025133490562438965,-0.031830377876758575,0.02025631070137024,0.01235105562955141,-0.09509668538743404,-0.4623303424689116,1.62252616306348
1687105701.135205,-0.08464578539133072,0.44713935256004333,-0.8904501795768738,0.0002493560314178467,-0.005305856466293335,8.45789909362793e-05,-0.027865996584296227,0.0027691731229424477,0.00115639204159379,-0.09477475224551236,-0.46356461330455245,1.622680498851244
1687105701.146644,-0.08497161418199539,0.4482765197753906,-0.8898471593856812,-0.0033005326986312866,0.006816864013671875,0.0007632970809936523,-0.02794962003827095,-0.004469231702387333,0.007825679145753384,-0.09520146229959348,-0.46483635570258136,1.6227740675957751
1687105701.252322,-0.08491146564483643,0.4490146338939667,-0.8894806504249573,-0.004474565386772156,-0.0050907135009765625,0.0023957490921020508,-0.028636448085308075,-0.0051533980295062065,0.0012375516816973686,-0.09517344288803486,-0.4656622536959956,1.6231710136455202
1687105701.263297,-0.08520306646823883,0.4497087001800537,-0.8891021013259888,-0.005922466516494751,0.005766153335571289,0.0047026872634887695,-0.008131173439323902,-0.0010067010298371315,0.008557450026273727,-0.09553871898266313,-0.46643917524458595,1.6232251877539345
1687105701.3744988,-0.08544985204935074,0.4498800039291382,-0.8889917135238647,-0.00538577139377594,-0.0009359121322631836,0.011123120784759521,-0.020288502797484398,0.003008524887263775,0.00813820119947195,-0.09582557692322641,-0.4666309706285123,1.6234139976674697
1687105701.3801441,-0.08580708503723145,0.45082154870033264,-0.8884801864624023,-0.007210537791252136,-0.010056167840957642,0.004309654235839844,-0.026473429054021835,0.004910132847726345,0.0039025102742016315,-0.09627878262851643,-0.46768551824887333,1.6233490146713714
1687105701.464818,-0.08604424446821213,0.45100823044776917,-0.8883625268936157,-0.004119992256164551,-0.001270681619644165,0.005748391151428223,-0.004436837043613195,-0.0014527139719575644,0.0013276995159685612,-0.09655594289950904,-0.46789465589430107,1.6233568633108897
1687105701.4773622,-0.08624660968780518,0.4506908357143402,-0.8885039687156677,0.0001869797706604004,0.01171150803565979,-0.005310118198394775,0.028838561847805977,-0.006656530778855085,-0.004602627828717232,-0.09676630509912369,-0.46753906354110264,1.6233179096220738
1687105701.490242,-0.08671218156814575,0.45000964403152466,-0.8888038396835327,-0.0007664933800697327,-0.002209991216659546,9.953975677490234e-06,0.002530791563913226,-0.006760171614587307,-0.0025468000676482916,-0.09725276790880538,-0.46677614046670834,1.6233228105439657
1687105701.582502,-0.08723145723342896,0.44974285364151,-0.8888880610466003,-0.0016205310821533203,0.00925678014755249,-0.003796815872192383,0.012911527417600155,-0.013968461193144321,-0.003646952100098133,-0.09782225353934766,-0.46647740049551645,1.6232032166765624
1687105701.594106,-0.08769282698631287,0.44937586784362793,-0.8890283107757568,-0.0027155429124832153,-0.0034683048725128174,0.008199453353881836,0.009860610589385033,-0.000511042308062315,0.00454260129481554,-0.09832091159492717,-0.4660665666179375,1.6230206324085261
1687105701.701332,-0.08796294033527374,0.44891616702079773,-0.8892338275909424,-0.002643793821334839,-0.0030085742473602295,0.004651308059692383,0.009349282830953598,-0.002873976482078433,-0.0019674962386488914,-0.09859915779539047,-0.4655520591035009,1.6229432776148482
1687105701.7129312,-0.08825518190860748,0.44902727007865906,-0.8891487121582031,-0.0053575485944747925,-0.004294604063034058,-0.0008658766746520996,0.0038684974424540997,-0.0016489224508404732,-0.003500944236293435,-0.09893400869125402,-0.4656764013474368,1.6227049146360617
1687105701.823914,-0.08844836056232452,0.44859224557876587,-0.8893491625785828,0.0011222511529922485,0.005600869655609131,-0.006158649921417236,0.015360303223133087,-0.005667033139616251,-0.0035457517951726913,-0.0991269520539508,-0.46518958067123195,1.6226931249593874
1687105701.829761,-0.08866963535547256,0.4484633803367615,-0.889392077922821,-0.002196498215198517,0.0001907646656036377,0.0018188953399658203,0.011913907714188099,-0.0008663969347253442,0.00017395196482539177,-0.09936854248328422,-0.4650453994599381,1.6226310481260637
1687105701.913137,-0.0887683853507042,0.4482022225856781,-0.8895139098167419,0.0020984113216400146,0.0027254819869995117,-5.823373794555664e-05,0.007758310530334711,-0.009114539250731468,-0.0021333443000912666,-0.09946494973700212,-0.46475324784324734,1.622773101362854
1687105701.9196439,-0.08963777869939804,0.44730305671691895,-0.8898792266845703,-5.3435564041137695e-05,-0.0034554004669189453,0.008226394653320312,0.03404078260064125,-0.04322832450270653,0.005528503563255072,-0.1003916458562835,-0.4637476268223799,1.6228926130111383
1687105701.938867,-0.09327756613492966,0.4431648254394531,-0.8915740251541138,-0.0001978352665901184,0.002223968505859375,0.0061980485916137695,0.1210574358701706,-0.08525753766298294,0.014106811955571175,-0.10424199555812522,-0.4591260446352823,1.6239560762422953
1687105702.000138,-0.09552937000989914,0.4365692436695099,-0.8945845365524292,-0.002386339008808136,0.011932343244552612,0.0156019926071167,0.2434033304452896,-0.00917135365307331,0.04330125078558922,-0.10638314565300033,-0.4517817666912964,1.6267104370501257
1687105702.029664,-0.09076070040464401,0.4333970844745636,-0.8966211080551147,-0.022902071475982666,-0.032335132360458374,0.0056452155113220215,0.03173182159662247,0.0918174460530281,0.09026702493429184,-0.1008816245156873,-0.44825888042452733,1.6315470354184864
1687105702.092217,-0.08813206851482391,0.43244269490242004,-0.8973438739776611,0.016812436282634735,0.01850026845932007,0.0015614032745361328,0.010172998532652855,0.022975308820605278,0.03812805935740471,-0.09790039562302083,-0.44720014146439696,1.6349347508595786
1687105702.118775,-0.08734040707349777,0.4307897984981537,-0.8982158899307251,0.004088394343852997,0.025737881660461426,-0.0005420446395874023,0.050612036138772964,0.005448002368211746,0.025195281952619553,-0.09693291850339698,-0.4453677729936245,1.636515979967031
1687105702.182282,-0.08787520974874496,0.42889803647994995,-0.8990686535835266,0.006011746823787689,0.003536015748977661,0.01619511842727661,0.04213386029005051,-0.0015129679813981056,-0.020210815593600273,-0.09743079445962598,-0.4432725728765638,1.6370240991204523
1687105702.208879,-0.08718319982290268,0.4278850853443146,-0.8996185064315796,-0.013479091227054596,0.005479782819747925,0.00638425350189209,0.02036571502685547,0.03654782101511955,-0.012792713940143585,-0.0966096061044008,-0.4421515313423025,1.6369509845363002
1687105702.2403898,-0.08596842736005783,0.4277377724647522,-0.8998054265975952,0.005417227745056152,-0.0009799599647521973,-0.008565545082092285,0.004662119317799807,0.051552072167396545,-0.02551942691206932,-0.09525200830062784,-0.44198854616723415,1.63536650908888
1687105702.3057141,-0.08351399749517441,0.4273221790790558,-0.9002339243888855,-0.008084572851657867,0.0042269229888916016,-0.0040781497955322266,0.005159331485629082,0.07480650395154953,-0.006675232667475939,-0.09250445550836188,-0.44152881773729724,1.6342391385073225
1687105702.364779,-0.08088230341672897,0.4267391264438629,-0.9007506370544434,0.009883113205432892,0.005603373050689697,0.005593836307525635,0.011314162984490395,0.035342030227184296,-0.01685536652803421,-0.08955415686474769,-0.440884036287394,1.6338920812461137
1687105702.4255261,-0.0801452100276947,0.4250131845474243,-0.9016321301460266,0.017553605139255524,0.025304198265075684,-0.0008183717727661133,0.1587691307067871,-0.020928654819726944,0.03247397020459175,-0.08865602850085151,-0.4389764361623304,1.6342832993125616
1687105702.542855,-0.07997829467058182,0.4168771803379059,-0.9054374098777771,-0.006264440715312958,0.007027238607406616,0.0126914381980896,0.17332756519317627,-0.014730502851307392,0.04336150363087654,-0.08810245654765832,-0.43000700605919967,1.6371220354083025
1687105702.5491328,-0.07842331379652023,0.4172646701335907,-0.9053949117660522,-0.012885324656963348,-0.060102224349975586,0.0010065436363220215,-0.10906178504228592,0.06937199085950851,0.0008479980751872063,-0.08640214361495885,-0.4304333426759292,1.6381113684893585
1687105702.6620831,-0.07525070756673813,0.4199960231781006,-0.9044007062911987,-0.0001277625560760498,0.014024943113327026,0.0072602033615112305,-2.767483238130808e-07,0.0536239892244339,0.005110320635139942,-0.08301383176533494,-0.4334409498224185,1.6382703116081345
1687105702.667379,-0.07461214065551758,0.41679704189300537,-0.9059322476387024,0.005993306636810303,-0.0007661879062652588,-0.005292117595672607,0.03990825638175011,0.011892053298652172,0.002586641814559698,-0.08217405128065852,-0.4299188663695352,1.6385229388513425
1687105702.7829552,-0.0744609460234642,0.4173086881637573,-0.9057091474533081,0.007108598947525024,-0.016231417655944824,0.0060967206954956055,-0.006139928475022316,-0.01408430840820074,-0.015590696595609188,-0.0820283884546822,-0.430481796215619,1.638309362433988
1687105702.793768,-0.07487442344427109,0.41893360018730164,-0.9049245715141296,-0.0010228455066680908,0.0026057064533233643,-0.0018289685249328613,-0.02187175303697586,-0.0002050674520432949,-0.00540437176823616,-0.08255302396086572,-0.4322705842541108,1.6375142727382395
1687105702.877935,-0.07494130730628967,0.41815218329429626,-0.905280351638794,0.0049034059047698975,0.006042122840881348,0.008658647537231445,-0.006950328126549721,-0.020362135022878647,-0.009624283760786057,-0.08259409822029232,-0.43141018582180013,1.6377430655837972
1687105702.883218,-0.07584673911333084,0.4198320209980011,-0.9044270515441895,-0.0019883885979652405,-0.010713398456573486,-9.864568710327148e-05,-0.05756024271249771,0.001728986855596304,-0.008227389305830002,-0.08366587313192021,-0.43326023508493017,1.6366283820596894
1687105702.897915,-0.07619748264551163,0.420784592628479,-0.903954803943634,0.003840237855911255,-0.001198410987854004,0.007348358631134033,0.008246202021837234,-0.032072365283966064,-0.005842462182044983,-0.08409466400487108,-0.4343100320101215,1.6363312689041045
1687105702.9935122,-0.0778728798031807,0.42088302969932556,-0.9037661552429199,-0.006111562252044678,0.0054780542850494385,-0.021099567413330078,-0.034475959837436676,-0.012313039973378181,-0.007811070419847965,-0.08595255574496177,-0.43441854752510367,1.635275343394009
1687105702.999282,-0.0781589075922966,0.4229065179824829,-0.9027963280677795,0.0002932623028755188,-0.0055481791496276855,0.006205201148986816,-0.03245968371629715,-0.015439413487911224,-0.011089155450463295,-0.08635891721185154,-0.4366504072404922,1.6350252969528563
1687105703.113688,-0.07898721843957901,0.42372503876686096,-0.9023403525352478,0.0011368244886398315,-0.003803163766860962,0.0023922324180603027,-0.041335199028253555,-0.005680016241967678,-0.013201375491917133,-0.08731338580616595,-0.4375538534126698,1.6343842039754082
1687105703.1193051,-0.07962309569120407,0.4257696568965912,-0.9013214111328125,-0.0004703402519226074,-0.0023077726364135742,0.0027618408203125,-0.05049407482147217,-0.01622571237385273,-0.023703616112470627,-0.08811166509017805,-0.4398123225931703,1.6333045456710373
1687105703.233842,-0.08111821115016937,0.4267329275608063,-0.9007323980331421,-0.002072766423225403,0.005563825368881226,-0.0005279779434204102,-0.007869917899370193,-0.02612086571753025,-0.012702099978923798,-0.0898157643118352,-0.4408771775981765,1.632025149358703
1687105703.2444081,-0.08255745470523834,0.42651036381721497,-0.9007070660591125,0.001273825764656067,-0.012676745653152466,0.006740391254425049,-0.022032340988516808,-0.02826211415231228,-0.024600237607955933,-0.09140310174934882,-0.44063108054633815,1.6310342274361023
1687105703.326271,-0.08547786623239517,0.42789945006370544,-0.8997752666473389,0.0037059709429740906,0.009859919548034668,-0.011159121990203857,0.00517744105309248,-0.08409173041582108,-0.07585517317056656,-0.09471488234015586,-0.44216743243286055,1.6285102156761908
1687105703.3466048,-0.09299280494451523,0.4286384582519531,-0.8986775875091553,0.013906456530094147,-0.017047882080078125,0.012798070907592773,-0.05037609860301018,-0.14929819107055664,-0.11247237026691437,-0.10311040494554352,-0.44298522846418736,1.623010944607301
1687105703.411631,-0.10441142320632935,0.4265630841255188,-0.8984109163284302,0.04636693000793457,0.060634762048721313,-0.0021170377731323242,0.25184711813926697,-0.2823089361190796,-0.1225254014134407,-0.11569885487751452,-0.4406893923309218,1.6181162249053338
1687105703.4775372,-0.11392448097467422,0.41582590341567993,-0.9022804498672485,-0.019696786999702454,-0.02999219298362732,0.00028771162033081055,0.07583030313253403,-0.061497919261455536,-0.041580017656087875,-0.12559820269523353,-0.4288507578600098,1.6148348343631418
1687105703.482579,-0.11922399699687958,0.4108006954193115,-0.9038962721824646,0.033286452293395996,0.05602669715881348,0.0077475905418396,0.3395974934101105,-0.17061392962932587,0.02404399774968624,-0.1311430597242152,-0.42333209484790085,1.6158755204273174
1687105703.5276852,-0.1230521947145462,0.3984808325767517,-0.908884584903717,-0.03513573110103607,-0.04621642827987671,0.013254702091217041,0.01898752897977829,0.016934216022491455,0.02638784423470497,-0.1345699019071778,-0.4098599043312064,1.6199372356743484
1687105703.595537,-0.11866538971662521,0.40662771463394165,-0.9058545231819153,0.003263115882873535,-0.02892690896987915,0.004182219505310059,-0.24106162786483765,0.24247892200946808,0.057946838438510895,-0.13025657421664327,-0.41875977744841864,1.6184815803669967
1687105703.601192,-0.11111729592084885,0.4116283357143402,-0.9045524001121521,-0.03985321521759033,-0.04959830641746521,-0.0419808030128479,-0.14004020392894745,0.11684104055166245,0.0735546201467514,-0.12222992548664026,-0.42424008152185666,1.6202767516553283
1687105703.6481981,-0.10649824887514114,0.4159254729747772,-0.9031412601470947,0.012595608830451965,-0.01599261164665222,-0.0049092769622802734,-0.08607177436351776,0.05587584525346756,0.02018880471587181,-0.11737776739322107,-0.42896022677891976,1.6221811322813504
1687105703.681264,-0.10551809519529343,0.4179319739341736,-0.902329683303833,-7.277727127075195e-05,0.015509188175201416,6.222724914550781e-05,-0.026410311460494995,0.012318736873567104,0.00878581590950489,-0.11641091411422452,-0.4311677510155355,1.6225034013404986
1687105703.741293,-0.10438051074743271,0.4203639030456543,-0.9013317227363586,-0.01100650429725647,-0.021209269762039185,0.011805415153503418,-0.08295933902263641,0.018060777336359024,0.021270181983709335,-0.11529340812311673,-0.4338463406150171,1.623040760733924
1687105703.770033,-0.10453309863805771,0.4224831759929657,-0.9003226161003113,-0.006489895284175873,0.004305154085159302,0.004677534103393555,-0.023037685081362724,-0.009897753596305847,0.007402436342090368,-0.11558872258346135,-0.4361832560453474,1.6228801230318997
1687105703.8310552,-0.10432372242212296,0.4229916036128998,-0.9001081585884094,-0.00836249440908432,-0.0004909932613372803,0.0010297894477844238,-0.036226458847522736,0.01576581969857216,0.0034873904660344124,-0.11538649045673723,-0.4367442898113712,1.6229751231389316
1687105703.8589149,-0.10378017276525497,0.4244222939014435,-0.8994972705841064,-0.003412872552871704,0.005356699228286743,-0.0009543299674987793,-0.007040343247354031,0.00892902072519064,0.008732685819268227,-0.1148678527913717,-0.43832378168459263,1.6229846614731138
1687105703.9231548,-0.10415170341730118,0.42460671067237854,-0.8993673324584961,0.0011548176407814026,0.004836618900299072,0.004652976989746094,-0.015179228968918324,0.0015806045848876238,0.0032701422460377216,-0.11529196383852834,-0.4385274642640242,1.6229519487411166
1687105703.982777,-0.10397763550281525,0.42598870396614075,-0.8987337350845337,-0.003062821924686432,0.005133122205734253,0.0036226511001586914,-0.009249967522919178,0.00728607177734375,0.0022781151346862316,-0.11518141056744899,-0.44005440832477516,1.6227286010587307
1687105704.102601,-0.10407935827970505,0.42594483494758606,-0.8987427353858948,0.002593092620372772,0.00037044286727905273,0.0011597275733947754,-0.003502866253256798,-0.005166580900549889,-0.0008936431258916855,-0.11529194650594754,-0.4400059484666144,1.6227223623991505
1687105704.114604,-0.104901522397995,0.42592042684555054,-0.8986586928367615,0.0022555887699127197,-0.004655778408050537,0.0006331801414489746,0.001224511070176959,-0.011825903318822384,-0.01048341952264309,-0.11620530612766922,-0.43997895934903886,1.6221799512387682
1687105704.225861,-0.10536086559295654,0.42600947618484497,-0.8985627293586731,-0.005387470126152039,-0.0037835538387298584,0.003329634666442871,0.00377901503816247,-0.005773759447038174,-0.001015016809105873,-0.11672190159849154,-0.44007736894346317,1.62196233499896
1687105704.2310882,-0.10555025190114975,0.4259338974952698,-0.8985763788223267,-0.0014596953988075256,0.005447328090667725,-0.00309598445892334,0.004240807145833969,-0.004879203625023365,-0.006106980610638857,-0.1169280491335218,-0.4399938317989821,1.6219707906747631
1687105704.341864,-0.10601773113012314,0.42543119192123413,-0.8987594246864319,0.00138816237449646,0.006835043430328369,0.00473177433013916,0.016261784359812737,-0.004256800748407841,-0.002123624086380005,-0.11741747761998847,-0.4394382992169925,1.6216780603322896
1687105704.3479872,-0.106316477060318,0.4251963496208191,-0.898835301399231,-0.0020057186484336853,0.002995789051055908,0.001130223274230957,0.015164827927947044,0.00041345180943608284,-0.0067398143000900745,-0.11773545676629311,-0.43917880331471315,1.6213167647283553
1687105704.436158,-0.10628197342157364,0.4247587323188782,-0.8990462422370911,-0.0039323195815086365,-0.003295719623565674,0.0045455098152160645,0.00668399129062891,0.013712279498577118,0.0037340656854212284,-0.11767023399693802,-0.43869538044939915,1.6212324079927174
1687105704.448042,-0.10623722523450851,0.4244491159915924,-0.8991977572441101,0.002523183822631836,0.004429668188095093,0.0020572543144226074,0.020045602694153786,-0.004447216633707285,-0.001748118083924055,-0.11760151307534765,-0.43835338816347147,1.6210596768092869
1687105704.458961,-0.10711047053337097,0.4234212338924408,-0.8995786905288696,-0.00493486225605011,-0.002370208501815796,0.001812577247619629,0.015601586550474167,0.0006217777263373137,-0.002079082652926445,-0.11850943704174564,-0.43721847564248,1.6207650055410125
1687105704.554765,-0.1073385626077652,0.42312532663345337,-0.8996907472610474,-0.0024484768509864807,0.004563271999359131,0.0020161867141723633,0.029861215502023697,-0.034207042306661606,-0.007614196743816137,-0.11874478746279647,-0.4368918796097904,1.6207004791322033
1687105704.56707,-0.11019241064786911,0.421013742685318,-0.9003360867500305,0.005288176238536835,0.00813966989517212,-0.007485568523406982,0.0817079022526741,-0.0823742151260376,-0.0016356664709746838,-0.12178463719412533,-0.43456266502053603,1.6209211265515409
1687105704.675425,-0.11243480443954468,0.4182394742965698,-0.901351273059845,-0.002418145537376404,-0.003139406442642212,0.006194472312927246,0.03812393918633461,-0.037158358842134476,0.0063610072247684,-0.1240992533359341,-0.4315062749914914,1.6217066329891545
1687105704.68056,-0.11382009088993073,0.41677403450012207,-0.9018560647964478,0.0032396018505096436,0.0027053356170654297,0.001099228858947754,0.07617252320051193,-0.07354490458965302,0.007702840957790613,-0.1255427474002846,-0.4298935562720786,1.6224638053721177
1687105704.7929978,-0.11464453488588333,0.4149174690246582,-0.9026073813438416,-0.015177294611930847,-0.01739552617073059,0.016773700714111328,0.020347872748970985,0.0332028903067112,0.0196086373180151,-0.12633834358177506,-0.42785210028183157,1.6237262181470287
1687105704.798005,-0.11442622542381287,0.4123331606388092,-0.9038185477256775,-0.004058323800563812,0.002339661121368408,0.007608890533447266,0.02314046211540699,0.003991985693573952,0.03739236295223236,-0.12593311067009566,-0.4250135965960357,1.6261639489267823
1687105704.884084,-0.11245843023061752,0.4118219316005707,-0.9042984843254089,-0.006850093603134155,0.000760495662689209,-0.003507852554321289,0.07204462587833405,0.021349981427192688,0.060197409242391586,-0.12372464996520842,-0.42445249135103563,1.628819482798558
1687105704.8955212,-0.11153440177440643,0.406929075717926,-0.9066249132156372,0.009636156260967255,-0.008369505405426025,-0.0006931424140930176,0.11904275417327881,0.0002308255061507225,0.04977799206972122,-0.12240650865430042,-0.4190896643375095,1.6316905479680517
1687105704.907765,-0.10765095800161362,0.40821346640586853,-0.906516969203949,-0.02159104496240616,-0.06254088878631592,-0.0009384751319885254,-0.14912717044353485,0.1552654355764389,0.01693861559033394,-0.11819873307172019,-0.42049619135134186,1.6331763234097998
1687105705.0028381,-0.10304943472146988,0.41080543398857117,-0.9058806300163269,0.020651929080486298,0.05680015683174133,0.014721572399139404,0.08948460221290588,0.05158762261271477,0.010682651773095131,-0.11326917970490513,-0.42333730983910167,1.6337562621361668
1687105705.015003,-0.10069859027862549,0.4066069722175598,-0.9080366492271423,0.00253874808549881,0.0020386576652526855,-0.000563204288482666,0.05327652767300606,0.06658770143985748,0.0042236871086061,-0.1104457753089039,-0.4187370891597558,1.6340897966534629
1687105705.1231198,-0.09805717319250107,0.40678563714027405,-0.9082456827163696,-0.0003315582871437073,-0.015931785106658936,-0.003756880760192871,-0.021425673738121986,0.05259554088115692,-0.004550629295408726,-0.10754670614410829,-0.41893266727273726,1.6341531487994256
1687105705.1351728,-0.09503535181283951,0.4077601134777069,-0.9081299304962158,-0.0028803497552871704,-0.005095958709716797,0.00633549690246582,-0.019170774146914482,0.056333400309085846,0.025429707020521164,-0.10426997380789312,-0.4199996439487448,1.6345117977156771
1687105705.244767,-0.09289227426052094,0.4062803089618683,-0.9090144634246826,0.0011411160230636597,0.006454646587371826,-0.006406068801879883,0.039473097771406174,0.03824392333626747,0.016128215938806534,-0.10183658963286718,-0.4183795668866057,1.635447202261291
1687105705.249504,-0.09165245294570923,0.40566468238830566,-0.9094151854515076,0.003181956708431244,-0.004694253206253052,0.0005865097045898438,0.007316225674003363,0.023110952228307724,0.0071403151378035545,-0.10044260177604114,-0.41770592449101995,1.636079516496676
1687105705.3355908,-0.0914827212691307,0.4031665325164795,-0.9105424880981445,0.0010285675525665283,-0.00750616192817688,0.0025835037231445312,0.08493565022945404,-0.007924794219434261,0.015055827796459198,-0.10013453777378424,-0.41497444817167267,1.6374115958017295
1687105705.346548,-0.09138288348913193,0.40047502517700195,-0.9117395281791687,0.0002573356032371521,-0.04203081130981445,0.005809962749481201,-0.00038989720633253455,-0.005941449664533138,-0.00011673243716359138,-0.09989553332676764,-0.41203519414180273,1.6385874301782448
1687105705.3575292,-0.09145677089691162,0.4024326503276825,-0.9108697175979614,-0.0038954466581344604,-0.008511751890182495,-0.007053256034851074,-0.03408714011311531,0.00644941721111536,0.0019948212429881096,-0.10007060147614766,-0.41417262245372366,1.6379667676991354
1687105705.452623,-0.09186592698097229,0.40189075469970703,-0.91106778383255,0.0072101205587387085,0.0019178390502929688,-0.00018709897994995117,0.022374270483851433,-0.015963923186063766,-0.004209544975310564,-0.10049358940220511,-0.4135807605061008,1.6376306404430767
1687105705.464767,-0.09303110092878342,0.4019163250923157,-0.9109382629394531,0.0015851333737373352,-0.018951237201690674,-0.001842498779296875,-0.055287498980760574,-0.019554995000362396,-0.027845831587910652,-0.10177383319141682,-0.4136086718619399,1.6367592681075
1687105705.5976238,-0.09355413168668747,0.40403667092323303,-0.9099461436271667,-0.00015014410018920898,0.00518876314163208,-0.00014907121658325195,-0.009395642206072807,-0.012606143951416016,-0.011263792403042316,-0.10245284469758921,-0.4159254831283107,1.63579294415718
1687105705.60234,-0.09491584450006485,0.40302774310112,-0.9102525115013123,0.005499288439750671,-0.0036136507987976074,0.002568185329437256,-0.02746519073843956,-0.03432455286383629,-0.024661555886268616,-0.10389870787094821,-0.4148227608762218,1.6352122611599935
1687105705.697046,-0.09607876092195511,0.4051928222179413,-0.9091686606407166,-0.00212685763835907,-0.0012621581554412842,0.006809651851654053,-0.03406796604394913,-0.013136466965079308,-0.010843012481927872,-0.10528681682897714,-0.4171897316374243,1.6341314777549265
1687105705.7022262,-0.09714307636022568,0.40565088391304016,-0.9088512659072876,0.004216991364955902,-0.003383427858352661,0.005042672157287598,-0.01170140691101551,-0.024465953931212425,-0.015055468305945396,-0.10648129332397568,-0.4176908178383115,1.6335366635809763
1687105705.7192202,-0.0980057418346405,0.40699315071105957,-0.9081582427024841,-0.010011270642280579,-0.002085953950881958,-0.010832786560058594,-0.05309571698307991,0.0008668994996696711,-0.0053946515545248985,-0.10750100068173406,-0.41915983454664524,1.6327313704534396
1687105705.8140612,-0.09843230992555618,0.4088706374168396,-0.9072683453559875,-0.0005362555384635925,0.0046425461769104,-0.003086268901824951,-0.030845539644360542,-0.018556687980890274,-0.011136959306895733,-0.1080703458337915,-0.4212161822586239,1.6321772419436167
1687105705.8202062,-0.09920144826173782,0.40916505455970764,-0.9070518016815186,0.000644877552986145,-0.0005347132682800293,0.0012748241424560547,-0.01028407271951437,-0.007622969336807728,-0.0006131455302238464,-0.10893395366956209,-0.42153883295979305,1.6316350608888466
1687105705.935358,-0.09976093471050262,0.4096725881099701,-0.9067613482475281,0.003920435905456543,0.0010787546634674072,0.003456294536590576,-0.020519666373729706,-0.01566334068775177,-0.004497698973864317,-0.10957825925415536,-0.4220951150634939,1.6313512409770627
1687105705.946231,-0.10046463459730148,0.41076552867889404,-0.9061890244483948,-0.006346933543682098,0.005356878042221069,-0.0004577040672302246,-0.023624911904335022,-0.005191170610487461,-0.0027107177302241325,-0.11041409455212041,-0.42329354138585523,1.6306534223176736
1687105706.056503,-0.10189586132764816,0.41048234701156616,-0.9061575531959534,-0.0003685951232910156,0.003976911306381226,0.002196371555328369,0.03169906511902809,-0.08419674634933472,-0.04303916543722153,-0.11197789278253349,-0.4229829534949034,1.6306267361961915
1687105706.0615501,-0.10767050832509995,0.4098651707172394,-0.9057690501213074,0.01013626903295517,0.007218539714813232,-0.011696159839630127,-0.011555199511349201,-0.11025744676589966,-0.06939533352851868,-0.11831671068955762,-0.4223062490991149,1.6276241419031259
1687105706.0776448,-0.11517670005559921,0.40877264738082886,-0.9053393006324768,0.035708874464035034,0.023936092853546143,0.012806951999664307,0.12715980410575867,-0.19120746850967407,-0.07241043448448181,-0.12653962833970409,-0.4211088026580674,1.623967608553785
1687105706.1712341,-0.12286213785409927,0.40065130591392517,-0.9079556465148926,0.006315447390079498,0.03095877170562744,-0.024020671844482422,0.29538795351982117,-0.20063692331314087,-0.02999080717563629,-0.1345003751682436,-0.41222760192844093,1.6227878271123624
1687105706.182476,-0.1286168396472931,0.3853033185005188,-0.9137828350067139,-0.01637221872806549,0.00039309263229370117,0.015131711959838867,0.20834653079509735,-0.06076248362660408,0.05470270663499832,-0.1398334964682124,-0.3955365066076598,1.6270667373848202
1687105706.296165,-0.12719890475273132,0.39183688163757324,-0.9111993908882141,0.02176062762737274,-0.03624606132507324,-0.009058177471160889,-0.2472340315580368,0.028435543179512024,-0.0338064506649971,-0.1386987371765016,-0.40262727835438816,1.62798435150243
1687105706.30093,-0.12068407982587814,0.40308958292007446,-0.9071682095527649,-0.002942681312561035,-0.022169172763824463,0.08876305818557739,-0.4032721221446991,0.13554421067237854,0.05272011458873749,-0.13225726481873884,-0.41489033700536637,1.6241028987767514
1687105706.387237,-0.11381199210882187,0.41416627168655396,-0.9030576348304749,-0.00438264012336731,-0.08257755637168884,-0.03384721279144287,-0.11170443892478943,0.1100931167602539,0.038193441927433014,-0.12536862145342928,-0.42702663062644475,1.6235352777717784
1687105706.398439,-0.10948893427848816,0.4191919267177582,-0.9012714624404907,-8.180737495422363e-06,-0.004625916481018066,-0.013264000415802002,-0.11912266910076141,0.06588094681501389,0.0336562804877758,-0.12089036508518317,-0.43255508979454294,1.6244454772927148
1687105706.408135,-0.10794726014137268,0.42325979471206665,-0.8995546698570251,-0.001961842179298401,0.02522653341293335,-0.0016446709632873535,-0.04803384840488434,0.021213870495557785,0.017849618569016457,-0.11942969885843883,-0.43704026955133396,1.6249713544507292
1687105706.4696078,-0.10624610632658005,0.4254188537597656,-0.8987383246421814,-0.010697297751903534,-0.015201568603515625,-0.00017219781875610352,-0.06910637766122818,0.04466768726706505,0.010090164840221405,-0.11767082278972453,-0.4394246547667886,1.6254458990119596
1687105706.4988089,-0.10468000918626785,0.4283241033554077,-0.8975414037704468,-0.0029555484652519226,0.0051475465297698975,0.014469504356384277,-0.06424690783023834,0.03605826571583748,0.012981957755982876,-0.11610518240257992,-0.4426373242257653,1.6256046662529553
1687105706.564702,-0.10328242182731628,0.43026426434516907,-0.8967750072479248,-0.008869729936122894,-0.006191998720169067,0.007782697677612305,-0.03955380991101265,0.04439784213900566,0.015268748626112938,-0.11466573312116117,-0.4447855129148286,1.6255996509994213
1687105706.621557,-0.10114763677120209,0.4331080913543701,-0.8956486582756042,-0.004992552101612091,0.004712343215942383,-0.0065119266510009766,-0.051015790551900864,0.04460417106747627,0.005495013669133186,-0.11245580722173648,-0.44793821225952385,1.6256198134122752
1687105706.682253,-0.10053978860378265,0.43308648467063904,-0.8957275152206421,-0.0006260350346565247,0.0065496861934661865,-0.009606897830963135,-0.014025014825165272,0.02435223013162613,0.003153495956212282,-0.11177587932018325,-0.44791426238862775,1.6257539549900442
1687105706.710057,-0.09924359619617462,0.4355022609233856,-0.8947002291679382,0.004455938935279846,0.00268438458442688,-0.0031116604804992676,-0.053371623158454895,0.01982920616865158,0.0034911856055259705,-0.11047224639920873,-0.45059615207734505,1.6258664838585883
1687105706.773264,-0.09821230918169022,0.43709003925323486,-0.894039511680603,0.0038061216473579407,0.005506396293640137,0.008129477500915527,-0.031831976026296616,0.02361142635345459,0.00889846682548523,-0.10941360422024875,-0.4523607342470267,1.6261732207316189
1687105706.799766,-0.09719543159008026,0.4382472336292267,-0.8935840129852295,-0.005694642663002014,-0.0038600564002990723,0.003340482711791992,-0.048678334802389145,0.026449380442500114,0.005603071767836809,-0.10834439891443058,-0.4536477575889792,1.6261667558983042
1687105706.8620648,-0.0960925966501236,0.4402690827846527,-0.892708957195282,3.8467347621917725e-05,0.00234261155128479,0.0006344318389892578,-0.024367401376366615,0.02018582448363304,0.008022353984415531,-0.10722870122396164,-0.4558983387573305,1.6261999995674725
1687105706.889525,-0.09561605006456375,0.440888911485672,-0.892454206943512,-0.005809180438518524,0.002882450819015503,-0.008012652397155762,-0.004805151838809252,0.01347490306943655,0.0020647961646318436,-0.10673119209717108,-0.4565887888247585,1.6261407169373137
1687105706.947791,-0.0947786197066307,0.442646861076355,-0.8916730284690857,-0.0012755170464515686,-0.0008744001388549805,0.0017194151878356934,-0.033021342009305954,0.007885483093559742,0.013331898488104343,-0.10589540464217964,-0.45854831018258,1.6263645658499628
1687105706.981728,-0.09472067654132843,0.4435971677303314,-0.8912068009376526,0.0002382025122642517,0.005529999732971191,0.002794325351715088,-0.009365015663206577,-0.004724385216832161,0.0016334974206984043,-0.10588610255286296,-0.4596083980026774,1.6264733664422748
1687105707.0419788,-0.09448365867137909,0.4440990388393402,-0.8909819722175598,-0.0018756464123725891,-0.00135001540184021,0.0043395161628723145,-0.018593933433294296,0.00034474232234060764,0.003779672086238861,-0.1056495687385831,-0.4601684428051884,1.6268137787764565
1687105707.163646,-0.09422657638788223,0.4450206756591797,-0.8905492424964905,-0.0004847869277000427,0.0016193389892578125,0.0039678215980529785,-0.016072720289230347,-0.005427815020084381,0.005874847527593374,-0.10541505054406153,-0.46119734112600524,1.627195097675537
1687105707.170274,-0.09452660381793976,0.4453860819339752,-0.8903347253799438,-0.00843975692987442,-0.01163974404335022,0.008987069129943848,-0.013527270406484604,0.006934956647455692,0.0018157237209379673,-0.10577349646526864,-0.4616054182933392,1.627054655531051
