Timestamp,gravityX,gravityY,gravityZ,accelerationX,accelerationY,accelerationZ,rotationRateX,rotationRateY,rotationRateZ,attitudeRoll,attitudePitch,attitudeYaw
1687104077.6897979,0.13363435864448547,0.6887168288230896,-0.7126085758209229,0.01043921709060669,-0.0025597214698791504,-0.008338749408721924,-0.010535741224884987,-0.0011434985790401697,0.013011094182729721,0.18537541753391173,-0.7597177642833757,1.6067585249197625
1687104077.700386,0.13363267481327057,0.6876465082168579,-0.7136417031288147,-0.001277819275856018,0.016607463359832764,0.00018650293350219727,0.029232177883386612,-0.005600498057901859,0.010050123557448387,0.18511084271263334,-0.758242563127697,1.6070062114049242
1687104077.772956,0.13390451669692993,0.6873521208763123,-0.7138743996620178,-8.481740951538086e-05,-0.007603704929351807,0.001960277557373047,-0.015757935121655464,0.010506033897399902,-0.006426586303859949,0.18541977164524892,-0.757837139860046,1.607342636936636
1687104077.81117,0.1337415724992752,0.6870489716529846,-0.7141965627670288,-0.0030804723501205444,0.0003287792205810547,0.0015348196029663086,0.004967850167304277,0.009137478657066822,-0.00972397904843092,0.18511760498514648,-0.7574198843918577,1.6064226016429521
1687104077.853853,0.13389194011688232,0.6858198642730713,-0.7153488993644714,0.0013315677642822266,0.00288546085357666,-0.01037442684173584,-0.0037457465659826994,0.01285871397703886,-0.015409561805427074,0.18502925761583486,-0.7557296239594298,1.6057214376951767
1687104077.906145,0.13375069200992584,0.6866859793663025,-0.714543879032135,0.013099998235702515,0.014943480491638184,-0.0023140907287597656,0.0012178531615063548,0.007882997393608093,-0.00034525850787758827,0.1850420055806089,-0.7569204235140933,1.6052358280637227
1687104077.991238,0.13352830708026886,0.6857129335403442,-0.7155193090438843,0.004319727420806885,0.0005357265472412109,-0.005290627479553223,-0.0212568286806345,0.011885284446179867,0.0056417942978441715,0.18449511270871985,-0.7555827543766231,1.6044698784509936
1687104078.000207,0.13372443616390228,0.6855870485305786,-0.7156033515930176,-0.00013363361358642578,0.005132436752319336,-0.0014072060585021973,-0.0349273681640625,0.008900369517505169,0.0014032400213181973,0.18473879092655823,-0.7554098181739782,1.6042149058209714
1687104078.049583,0.1335863322019577,0.6855266094207764,-0.7156869769096375,0.0015761107206344604,0.007512152194976807,0.004062831401824951,0.002961158286780119,-0.0023899690713733435,0.008422134444117546,0.18453122586029297,-0.755326775628555,1.6039644232930326
1687104078.12166,0.1336292326450348,0.6850631237030029,-0.7161226272583008,-0.005043327808380127,-0.0072830915451049805,0.0006532669067382812,0.0033670240081846714,0.006015411578118801,0.001702978741377592,0.18447937392596142,-0.7546903584318735,1.6038428877335988
1687104078.160215,0.13386397063732147,0.6849329471588135,-0.7162033319473267,0.0028854310512542725,-0.007137656211853027,-0.0016159415245056152,-0.003403264097869396,0.007121244445443153,0.00045928312465548515,0.18477577811638923,-0.7545116478535443,1.6039829604019316
1687104078.200688,0.13384853303432465,0.684018611907959,-0.7170795798301697,0.001374959945678711,0.004152655601501465,-0.004462838172912598,0.020087415352463722,0.004710639826953411,0.0021980605088174343,0.18453429211672304,-0.7532575147019491,1.6035569348147143
1687104078.284745,0.13417178392410278,0.6833169460296631,-0.7176878452301025,-0.0012981295585632324,0.004716992378234863,-0.008722126483917236,-0.015535560436546803,0.005436795298010111,0.008462082594633102,0.18481662444116728,-0.7522960251995863,1.6037467690593166
1687104078.318204,0.13431474566459656,0.6840064525604248,-0.7170039415359497,0.0062493085861206055,0.0047904253005981445,0.011986792087554932,0.0018924317555502057,-0.0040639652870595455,0.009223146364092827,0.18518157402434784,-0.7532408497963933,1.6041754760712668
1687104078.366763,0.1339922845363617,0.6830096244812012,-0.7180137634277344,-0.007100090384483337,-0.010463416576385498,0.002651214599609375,-0.029422346502542496,0.005420882720500231,0.0012320657260715961,0.18449305690199547,-0.7518752305465259,1.603551178522223
1687104078.410063,0.1344151794910431,0.6836122274398804,-0.7173610329627991,-0.00791969895362854,-0.003772258758544922,0.0006709098815917969,-0.01711002178490162,0.0026610265485942364,0.007742628920823336,0.1852267411403417,-0.752700556771193,1.6038490481741146
1687104078.4502869,0.13425731658935547,0.6832693219184875,-0.7177172303199768,0.002095341682434082,-0.0009879469871520996,-0.0015363693237304688,0.00745204696431756,-0.002227360848337412,-0.0023309774696826935,0.1849243772811483,-0.7522308322366564,1.6039032759738368
1687104078.528579,0.13432539999485016,0.6833480596542358,-0.7176294922828674,-0.001970529556274414,-0.0006241798400878906,0.0010156631469726562,-0.0043670618906617165,-0.006806044839322567,0.004811887163668871,0.18503814405874283,-0.7523386349690611,1.6042390019224158
1687104078.585661,0.13449829816818237,0.683380663394928,-0.7175660729408264,0.0005268454551696777,-0.0001227259635925293,-0.005914211273193359,-0.014956588856875896,-0.001879330025985837,0.011476047337055206,0.18528691837711342,-0.7523833362567129,1.6048129086072693
1687104078.621372,0.1348477602005005,0.6836966276168823,-0.7171993255615234,-0.007162109017372131,-0.0023613572120666504,0.0061702728271484375,-0.016309741884469986,-0.0021134663838893175,0.006171963643282652,0.1858501691376552,-0.7528161776832258,1.6059254225517507
1687104078.687595,0.1347953975200653,0.6834691166877747,-0.717426061630249,-0.0077048540115356445,-0.009320735931396484,0.008273780345916748,-0.006965508218854666,-0.0029581324197351933,0.014712454751133919,0.1857222813308738,-0.7525045088134139,1.6064690950016962
1687104078.723197,0.13522261381149292,0.6837146878242493,-0.7171115875244141,-0.00823885202407837,-0.013716638088226318,0.004968583583831787,-0.015163250267505646,-0.005757092498242855,0.012995313853025436,0.1863772241703567,-0.7528409297685974,1.6076486400435142
1687104078.7666101,0.1353083699941635,0.6835327744483948,-0.7172687649726868,-0.00249578058719635,-0.0051882266998291016,0.0014789700508117676,0.02169942669570446,-0.00908568874001503,0.0013841986656188965,0.1864527531238645,-0.7525916939780888,1.6085549661357599
1687104078.827084,0.1354665905237198,0.6839300394058228,-0.7168601155281067,-0.01145830750465393,-0.005707502365112305,-0.003339529037475586,-0.0009084147168323398,8.255406282842159e-05,-0.0035768707748502493,0.18676972707415804,-0.7531361122960611,1.6088187120871602
1687104078.893656,0.13546425104141235,0.6838716864585876,-0.7169162631034851,0.015719950199127197,0.007931172847747803,0.002301335334777832,0.016435954719781876,-0.0015924853505566716,0.008505623787641525,0.1867522744963426,-0.7530560740779559,1.6086634475296333
1687104078.910243,0.13516362011432648,0.6838362812995911,-0.7170067429542542,-0.00837823748588562,-0.0014938712120056152,0.001918792724609375,-0.013167210854589939,-0.003570370841771364,0.004145097453147173,0.18632438883357388,-0.7530075695633831,1.6084559337385138
1687104078.980721,0.13536588847637177,0.6843999028205872,-0.7164305448532104,-0.005742385983467102,-0.009854733943939209,0.005996644496917725,-0.012544830329716206,-0.007455678656697273,0.005646254867315292,0.18674340177978627,-0.7537802861726209,1.6092550940726216
1687104079.015213,0.13506866991519928,0.6845167279243469,-0.7163751721382141,-0.0020729154348373413,-0.004524052143096924,0.008062243461608887,0.016751272603869438,-0.014442481100559235,0.009466559626162052,0.18635687972745266,-0.7539405377111131,1.6096405788154402
1687104079.0647101,0.13481676578521729,0.684108316898346,-0.7168125510215759,-0.015111476182937622,-0.015819251537322998,-0.0013729333877563477,-0.007155391853302717,-0.01359339989721775,-0.013948019593954086,0.18590638554311673,-0.7533804548129325,1.6099181593466427
1687104079.109761,0.1338496059179306,0.6848066449165344,-0.7163268327713013,0.007095932960510254,0.004966795444488525,-0.005703866481781006,-0.03800278529524803,-0.10666380077600479,0.013337330892682076,0.18472526358952443,-0.7543382979173742,1.6110855082175024
1687104079.18893,0.12847571074962616,0.6829732060432434,-0.7190559506416321,-0.0020870715379714966,0.035974979400634766,0.02191239595413208,0.22883982956409454,-0.1759219765663147,0.01793394610285759,0.1768070433572762,-0.7518253266689768,1.6124527112593585
1687104079.2277741,0.12731193006038666,0.6738550662994385,-0.7278124690055847,-0.0309830904006958,-0.006389975547790527,0.014647126197814941,0.312063604593277,-0.022465255111455917,0.044662896543741226,0.17317201202169655,-0.7394140260794432,1.613841453324058
1687104079.27757,0.12665297091007233,0.668666422367096,-0.7326964735984802,-0.009495869278907776,0.008381128311157227,0.028228700160980225,0.13337349891662598,-0.03878510370850563,0.013712703250348568,0.1711672469139577,-0.7324138462427432,1.6147067195862634
1687104079.316908,0.1262761652469635,0.6655175685882568,-0.7356225848197937,-0.010095670819282532,-0.015569627285003662,-0.004489719867706299,0.06863897293806076,0.006946985609829426,0.015888039022684097,0.17000202595153344,-0.7281870307178578,1.614413199532377
1687104079.370857,0.12671776115894318,0.6625550389289856,-0.7382163405418396,0.005911737680435181,0.0069089531898498535,0.005763888359069824,0.12796860933303833,-0.02231048047542572,0.007361996918916702,0.16999723276061943,-0.724224814266281,1.6153142882885663
1687104079.410818,0.12625113129615784,0.6597504615783691,-0.7408035397529602,-0.0030515938997268677,-0.0006319880485534668,-0.003703296184539795,0.05546271428465843,-0.021039241924881935,0.007127171847969294,0.16880277481722844,-0.7204866227959265,1.6156583059161562
1687104079.484668,0.12592940032482147,0.6584542989730835,-0.7420105338096619,0.0014205724000930786,0.005363881587982178,-0.008569300174713135,0.00702833803370595,-0.011884315870702267,0.01728859543800354,0.1681119381855288,-0.7187631765968071,1.6158138517399796
1687104079.5238729,0.12595446407794952,0.6579033136367798,-0.7424949407577515,-0.000176161527633667,0.0007269382476806641,-0.004727959632873535,-0.025930410251021385,0.001199284102767706,-0.0018597315065562725,0.16803714111248622,-0.7180312610977682,1.61555939287858
1687104079.5643768,0.12569396197795868,0.6578435897827148,-0.742591917514801,0.0003132373094558716,0.00534898042678833,0.0028610825538635254,0.014744315296411514,0.0036459965631365776,0.004231917206197977,0.1676745862745801,-0.7179520103187811,1.6150344985256346
1687104079.606271,0.12576031684875488,0.657944917678833,-0.7424909472465515,-0.00832858681678772,-0.01713693141937256,-0.0030688047409057617,-0.034051455557346344,0.01182332169264555,-0.012722032144665718,0.167783840841211,-0.7180865122209801,1.6147388496078012
1687104079.673266,0.12566840648651123,0.6578651666641235,-0.742577075958252,1.8343329429626465e-05,0.0012990832328796387,-0.0012277960777282715,0.0340849906206131,-0.00011365441605448723,-0.009402602910995483,0.16764442744001143,-0.7179806815523164,1.6143318077090456
1687104079.711032,0.12567470967769623,0.6567256450653076,-0.7435840368270874,0.0032164156436920166,0.001843571662902832,-0.0032268762588500977,0.018839458003640175,0.006553302519023418,-0.006573260296136141,0.16742985149423606,-0.7164685994056329,1.614229211958037
1687104079.795772,0.12614873051643372,0.6566163301467896,-0.7436002492904663,0.002070978283882141,0.011886298656463623,-0.005652070045471191,0.01689028926193714,0.006225134711712599,0.003388094250112772,0.16804598641241272,-0.716323691773948,1.6141420297866151
1687104079.811152,0.1261432021856308,0.6556980609893799,-0.7444111108779907,0.0003064870834350586,0.006609559059143066,0.0006061196327209473,0.005704214330762625,-0.0004882056964561343,0.004156283102929592,0.16785913391944002,-0.7151068175346936,1.6137528194830337
1687104079.886199,0.1260070949792862,0.6557959318161011,-0.7443479299545288,-0.001586824655532837,-0.004581451416015625,0.0032285451889038086,-0.015615188516676426,0.0022919124457985163,-0.00647492241114378,0.16769535581570588,-0.7152364093514348,1.6133999445039178
1687104079.9311461,0.12589521706104279,0.6556182503700256,-0.7445233464241028,-0.0042978376150131226,-0.004678487777709961,0.003175079822540283,-0.0038264403119683266,0.0020728453528136015,0.0009590913541615009,0.16751049614370653,-0.7150011350982117,1.613122488273552
1687104079.992322,0.12596890330314636,0.6553279161453247,-0.7447664737701416,0.0028611719608306885,-0.004327058792114258,-0.0033872127532958984,0.011158102191984653,0.003555715549737215,-0.014668803662061691,0.16755301628558145,-0.7146166901050005,1.6129325479060725
1687104080.000355,0.12581953406333923,0.654870867729187,-0.745193600654602,0.0005843639373779297,0.0032863616943359375,-0.008651673793792725,0.016496142372488976,-0.0019816397689282894,-0.014577790163457394,0.1672638882702189,-0.7140117450144237,1.6125304247792251
1687104080.091261,0.12583845853805542,0.6548416018486023,-0.7452161312103271,0.0015420317649841309,0.0020338892936706543,-0.0049517154693603516,0.009035563096404076,0.0012490854132920504,0.005420018918812275,0.1672836109022235,-0.7139730288645463,1.6124296399995812
1687104080.111404,0.12568789720535278,0.6547017693519592,-0.7453644275665283,0.00237920880317688,-0.0010001063346862793,-0.001004040241241455,-0.005682929884642363,-0.00500144250690937,0.005381670314818621,0.16705455065356678,-0.7137880307897098,1.6123921488703177
1687104080.183786,0.12564726173877716,0.654771089553833,-0.7453103065490723,-0.005240052938461304,-0.004441618919372559,0.005426883697509766,-0.018361706286668777,0.0033649890683591366,0.0029084584675729275,0.16701343434395707,-0.7138797202724432,1.6124851310044972
1687104080.223094,0.1257021576166153,0.6546822190284729,-0.7453792095184326,-0.0036622583866119385,-0.006260037422180176,0.003435850143432617,0.010918950662016869,-0.002991887740790844,-0.006953226402401924,0.16706988938700568,-0.7137621093636314,1.6125647285642872
1687104080.267191,0.12504787743091583,0.6562564373016357,-0.7441037893295288,-0.003953993320465088,-0.010962367057800293,-0.002264678478240967,-0.16252873837947845,0.04739891365170479,-0.0604625940322876,0.1664959303907348,-0.7158466216985638,1.6112009011158903
1687104080.308066,0.12564022839069366,0.6623196601867676,-0.73861163854599,0.021439328789711,0.0009492635726928711,-0.02463299036026001,-0.0491691529750824,0.07586240768432617,-0.04781903326511383,0.1684904767153069,-0.7239106009154832,1.60887673337761
1687104080.39065,0.12604452669620514,0.6658470034599304,-0.7353641986846924,-0.0004798471927642822,-0.005004227161407471,0.0002872943878173828,-0.05682627484202385,0.004504377953708172,-0.030136575922369957,0.16975461288470475,-0.7286284878890774,1.6077885997667114
1687104080.4279451,0.12850792706012726,0.6636807322502136,-0.7368944883346558,-0.0454694926738739,0.009338557720184326,-0.02183353900909424,-0.2054106891155243,0.053195882588624954,0.08935452997684479,0.17265490963094254,-0.7257287810450632,1.6086918331394375
1687104080.470931,0.13008558750152588,0.664033055305481,-0.7363000512123108,0.007976055145263672,-0.002442598342895508,-0.0010199546813964844,-0.017973683774471283,0.02360374666750431,0.019588036462664604,0.1748701335887017,-0.7261998769556738,1.6098021862646117
1687104080.514668,0.1303739845752716,0.6638956069946289,-0.7363729476928711,-0.0016812533140182495,-0.007844150066375732,0.006072044372558594,-0.020744170993566513,0.016993694007396698,0.014935227110981941,0.1752329457434206,-0.7260160626570938,1.6099994049551167
1687104080.5786672,0.1308327615261078,0.6646429300308228,-0.7356171011924744,-0.0032996833324432373,-0.005600690841674805,0.00037229061126708984,-0.023597747087478638,0.014348397962749004,-0.001067373901605606,0.17601392908916366,-0.7270158061175582,1.6100368300824632
1687104080.632715,0.13128389418125153,0.6649166941642761,-0.7352891564369202,0.002367928624153137,0.0036164522171020508,-0.001801908016204834,0.011492595076560974,0.011430350132286549,-0.01256990060210228,0.17668547769995124,-0.7273823108371132,1.6101346488820054
1687104080.690796,0.13150805234909058,0.6654780507087708,-0.7347411513328552,0.005119234323501587,0.0018649697303771973,-0.006607174873352051,-0.01319970190525055,0.004243077710270882,-0.00334717333316803,0.17711014461968055,-0.7281340771191601,1.6100795306310356
1687104080.728837,0.13151122629642487,0.6660168766975403,-0.7342522144317627,0.006184190511703491,0.01264810562133789,-0.00439530611038208,-0.003886361373588443,0.0028757883701473475,0.01258458849042654,0.1772298361948879,-0.7288562425609596,1.6099122865895605
1687104080.777041,0.1316048949956894,0.6659769415855408,-0.7342716455459595,-0.004605889320373535,0.0009694099426269531,0.006152749061584473,-0.034414175897836685,-0.0009833984076976776,0.00611443817615509,0.17734882621539827,-0.728802635898595,1.6101364895072525
1687104080.816864,0.13162246346473694,0.6669780611991882,-0.7333592176437378,-0.0027923882007598877,-0.0012372732162475586,0.006216824054718018,-0.01115892082452774,-0.006477854680269957,0.011853550560772419,0.17758808482561042,-0.7301455433516058,1.610663274759752
1687104080.8890162,0.13171248137950897,0.6671661138534546,-0.7331719994544983,-0.0028213858604431152,-0.0032715797424316406,-0.0007758140563964844,-0.012172253802418709,-0.0030120390001684427,0.001583802979439497,0.17775142768541155,-0.7303979337320368,1.6111841031483376
1687104080.9381108,0.13174505531787872,0.6676700711250305,-0.7327072024345398,0.0015558302402496338,-0.0013341307640075684,-4.649162292480469e-06,-0.000950492569245398,0.0017667370848357677,-0.011423608288168907,0.17790490243596732,-0.7310746950062346,1.6113698200838331
1687104080.9884748,0.13171379268169403,0.6677351593971252,-0.7326534986495972,0.006012141704559326,0.002857983112335205,-0.005566716194152832,-0.002590467222034931,-0.0076076565310359,0.010048194788396358,0.17787631589241776,-0.7311621345706038,1.6115285502053585
1687104081.047779,0.13164687156677246,0.6680327653884888,-0.7323942184448242,-0.00229799747467041,0.00558161735534668,3.331899642944336e-05,-0.005140976514667273,-0.00481067132204771,0.008362546563148499,0.17784945600294244,-0.7315619662495365,1.6119035658638972
1687104081.060172,0.13166965544223785,0.6682809591293335,-0.7321637272834778,-0.005250483751296997,-9.870529174804688e-05,0.0013134479522705078,-0.01290409080684185,0.0028796724509447813,0.0028884857892990112,0.17793442629406367,-0.7318955485626879,1.6121585020649278
1687104081.128279,0.13165068626403809,0.668542742729187,-0.7319280505180359,-0.003461480140686035,-0.0022220611572265625,0.005487561225891113,0.0010098603088408709,-0.0010705722961574793,-0.009507397189736366,0.17796539956395302,-0.7322475308430836,1.6120876226785033
1687104081.169507,0.13157221674919128,0.668552815914154,-0.7319328784942627,-0.009089842438697815,-0.012669205665588379,0.0036156773567199707,-0.014198120683431625,0.0039493972435593605,-0.008097786456346512,0.17786041178560164,-0.7322610952521258,1.612158373094488
1687104081.219091,0.13166892528533936,0.6694299578666687,-0.7311133742332458,0.008330583572387695,-0.002651512622833252,-0.0020257234573364258,0.00366023788228631,0.013265823014080524,-0.011004960164427757,0.17818371170969718,-0.7334412044444263,1.6122640913164177
1687104081.2920098,0.13129682838916779,0.6689821481704712,-0.7315900325775146,-0.0034280866384506226,0.0006648898124694824,-0.004844963550567627,0.011060364544391632,-0.010317311622202396,-0.00596639234572649,0.17757735999217403,-0.7328385051469734,1.6117981020353678
1687104081.3248281,0.13115157186985016,0.6691393852233887,-0.7314723134040833,0.004667028784751892,0.005970358848571777,-0.002475440502166748,-0.001357956207357347,-0.04515960440039635,0.015121381729841232,0.17741295028534904,-0.7330500611754636,1.612243327906339
1687104081.367958,0.12783260643482208,0.670400857925415,-0.7309045791625977,0.006444841623306274,0.00785219669342041,0.01158994436264038,0.03396541252732277,-0.09938649088144302,0.034966591745615005,0.17314518353362518,-0.7347488638353145,1.6131820004111856
1687104081.440337,0.12706325948238373,0.6647862792015076,-0.7361481189727783,-0.003756880760192871,-0.02820497751235962,0.025515735149383545,0.25823739171028137,-0.04785008728504181,0.07017377763986588,0.17092144686153488,-0.7272076846729042,1.6152157412383497
1687104081.4786758,0.12579306960105896,0.6598793864250183,-0.7407666444778442,-0.006911724805831909,-0.008695423603057861,0.014005720615386963,0.11102370917797089,-0.06607729196548462,0.03992905840277672,0.16821006092078714,-0.720658244981176,1.6163700052993883
1687104081.531141,0.12455300241708755,0.6540585160255432,-0.7461193203926086,-0.001948535442352295,-0.015142560005187988,0.003031492233276367,0.15330912172794342,-0.039246588945388794,0.008454158902168274,0.1654091868365812,-0.7129372933923455,1.616261727389075
1687104081.612293,0.12385912239551544,0.6524391174316406,-0.7476510405540466,0.002376943826675415,0.0022696256637573242,0.0050514936447143555,0.04863516986370087,-0.02382202446460724,0.0139820147305727,0.1641732901064646,-0.7107984707535628,1.6169810970769296
1687104081.626116,0.12404435127973557,0.6509081721305847,-0.748953640460968,-0.009221851825714111,-0.007216274738311768,-0.008645296096801758,0.019575288519263268,0.006129305809736252,0.015533305704593658,0.16413357654685853,-0.7087801458321317,1.617670815673554
1687104081.675328,0.12387600541114807,0.649730384349823,-0.750003457069397,0.004374206066131592,-0.0012166500091552734,0.0009494423866271973,0.04324439913034439,-0.008271715603768826,0.006534818559885025,0.16368943197567903,-0.7072296891517262,1.6175483624837903
1687104081.716099,0.12374872714281082,0.6481339335441589,-0.7514044642448425,-0.0068357884883880615,-0.004930317401885986,0.002991318702697754,0.012596209533512592,0.016261456534266472,0.0018709581345319748,0.16322472608290284,-0.7051314358333268,1.617189150532552
1687104081.788224,0.12437217682600021,0.6482497453689575,-0.7512015700340271,-0.0010352730751037598,-0.00614476203918457,0.0021780729293823242,0.012153858318924904,0.0006050886586308479,-0.0026223273016512394,0.16407592637755838,-0.705283525606605,1.6172075401211417
1687104081.8270779,0.12402099370956421,0.6469696760177612,-0.7523621916770935,-0.0008824542164802551,-0.007565557956695557,-0.005023062229156494,0.022805437445640564,-0.0003323440905660391,-0.008819237351417542,0.16337294060656526,-0.7036036160215158,1.6164293528670695
1687104081.912269,0.12448026984930038,0.64711594581604,-0.7521605491638184,0.0007945001125335693,-0.00394284725189209,-0.004629611968994141,-0.009807633236050606,0.009194737300276756,-0.007778540253639221,0.1640103429899731,-0.7037954369908246,1.6165041472096007
1687104081.92644,0.1244201511144638,0.6470299363136292,-0.7522445321083069,0.006088368594646454,0.009189426898956299,-0.005323827266693115,0.0034858009312301874,-0.0037972498685121536,0.008659488521516323,0.1639145730299896,-0.7036825843425033,1.6163753107994416
1687104081.965307,0.1246761754155159,0.6469902992248535,-0.7522361874580383,-0.002727814018726349,0.0002415776252746582,-0.0004798769950866699,-0.012995170429348946,0.0025103804655373096,0.00491115590557456,0.1642476296872412,-0.7036306098522701,1.6165436062471612
1687104082.038488,0.12426083534955978,0.646635890007019,-0.7526095509529114,-0.009926624596118927,-0.005415976047515869,0.011581718921661377,0.0032743460033088923,0.00709769781678915,0.0005625467747449875,0.1636304311598441,-0.7031659613482983,1.6162938655960624
1687104082.0900378,0.12471704930067062,0.646497905254364,-0.7526527047157288,-0.0016548112034797668,-0.0039656758308410645,0.0020118355751037598,0.015588004142045975,-0.0029879151843488216,-0.001714322715997696,0.16421121874892458,-0.7029850265346389,1.616393447350728
1687104082.129219,0.12481045722961426,0.6460919380187988,-0.7529857158660889,-0.006844669580459595,-0.006321549415588379,0.0005595088005065918,0.005864003673195839,0.009754400700330734,-0.010202149860560894,0.16426062951616968,-0.702453034842346,1.6161605638726986
1687104082.186367,0.12501971423625946,0.6459757089614868,-0.7530507445335388,0.0053057074546813965,0.005711793899536133,-0.006013035774230957,0.004338278900831938,0.007135559339076281,-0.011954443529248238,0.1645171399591337,-0.7023008063565753,1.6156860438944745
1687104082.226913,0.12458474934101105,0.6458445191383362,-0.7532353401184082,0.0024600625038146973,0.003554105758666992,-0.004653513431549072,0.0020319814793765545,-0.0015867374604567885,0.0006196717731654644,0.16391550673577587,-0.7021289635059784,1.6150634524922356
1687104082.27582,0.12486306577920914,0.6458332538604736,-0.7531988620758057,-0.0020144283771514893,0.0024362802505493164,0.001703500747680664,-0.008050479926168919,0.00768339354544878,0.009582607075572014,0.1642829487876656,-0.7021141396978974,1.6150429745445274
1687104082.3199139,0.12466970086097717,0.6457428336143494,-0.7533084154129028,0.003168553113937378,-0.004202425479888916,0.008587956428527832,0.007505310233682394,-0.011463558301329613,-0.004516100976616144,0.16400965221823516,-0.7019957301978481,1.6149583987978613
1687104082.41698,0.12415368854999542,0.6460078954696655,-0.7531664371490479,-0.014076679944992065,-0.019787311553955078,0.004432857036590576,-0.047120384871959686,0.0041548158042132854,-0.0068807220086455345,0.16337309995073476,-0.7023429693688713,1.6144581411066337
1687104082.430606,0.12392476946115494,0.6504966020584106,-0.7493308782577515,-0.00095406174659729,-0.006499528884887695,0.0012839436531066895,-0.2269199788570404,0.09441369771957397,-0.0721990093588829,0.16389708308760198,-0.7082380805826909,1.6130087555560182
1687104082.509684,0.1242770180106163,0.6556611061096191,-0.7447574734687805,0.01611921191215515,0.01970803737640381,-0.026864290237426758,-0.08379238098859787,0.052537593990564346,-0.048827704042196274,0.16534563681211567,-0.7150578477185534,1.610248603496305
1687104082.5253391,0.12468608468770981,0.6591931581497192,-0.7415643930435181,0.0017940998077392578,0.008958578109741211,0.01634460687637329,0.10672297328710556,0.13151101768016815,0.034769851714372635,0.16658112743833173,-0.7197453015131503,1.6097258358959556
1687104082.594609,0.12662850320339203,0.6574379205703735,-0.7427923679351807,-0.047603145241737366,-0.06944066286087036,-0.01885014772415161,-0.11334521323442459,0.02893712744116783,0.05966154858469963,0.16885305325612868,-0.7174135353175349,1.6105323694131055
1687104082.640748,0.1273539662361145,0.6589304208755493,-0.7413445115089417,5.704164505004883e-05,-0.0002391338348388672,-0.000293731689453125,-0.05466991290450096,0.006355252582579851,-0.0041902633383870125,0.17012727008360787,-0.7193959157649517,1.6110733787449132
1687104082.6798081,0.12712295353412628,0.6596210598945618,-0.7407697439193726,0.003751784563064575,0.006943762302398682,0.010316252708435059,0.008869647979736328,-0.0021843952126801014,0.004517607390880585,0.16995380112699562,-0.7203144513541206,1.6111881220658841
1687104082.7218142,0.12721121311187744,0.66026371717453,-0.7401818037033081,-0.007734805345535278,-0.01413041353225708,0.00174790620803833,-0.016743836924433708,-0.0021270483266562223,-0.0024034157395362854,0.1702020465531029,-0.7211698457919479,1.6116124899911708
1687104082.790328,0.1274646520614624,0.6613216400146484,-0.7391930818557739,-0.0020525753498077393,-0.0011197328567504883,-0.0034827589988708496,-0.03456144779920578,0.0025300432462245226,-0.007664423901587725,0.17075829474344725,-0.7225793692934341,1.6123257892025251
1687104082.82756,0.12732411921024323,0.6621860861778259,-0.7384429574012756,0.0073806047439575195,0.012801527976989746,0.00017690658569335938,0.01335893850773573,-0.007527029141783714,-0.0010781600140035152,0.17074357552871353,-0.7237323965237693,1.6119508526926036
1687104082.8780642,0.1270550787448883,0.6622039675712585,-0.7384732961654663,0.0014545619487762451,0.0010649561882019043,0.0002835392951965332,0.008956733159720898,0.004554245620965958,-0.0030328533612191677,0.17038288352130052,-0.7237562463629991,1.611598445045413
1687104082.920054,0.127149298787117,0.662446141242981,-0.7382398843765259,-0.0040260255336761475,0.002806425094604492,0.004093766212463379,-0.009110151790082455,0.0007096175104379654,0.010859791189432144,0.1705596590390408,-0.7240794764493225,1.6117310045490112
1687104082.98895,0.1271609514951706,0.662592887878418,-0.7381061315536499,-0.010049626231193542,-0.003611743450164795,0.005363821983337402,-0.026909388601779938,0.005021297372877598,-0.005353465676307678,0.17060530746453104,-0.7242753989051707,1.611823973199526
1687104083.0296621,0.12717820703983307,0.6635346412658691,-0.7372567057609558,-0.0017660856246948242,-0.0030428171157836914,0.005307793617248535,-0.019434960559010506,0.007179412059485912,-0.010833784937858582,0.17082079717249293,-0.7255334228389186,1.6117247923676525
1687104083.08917,0.1271219253540039,0.6638700366020203,-0.7369644641876221,-0.00015345215797424316,-0.0007079243659973145,-0.0003402829170227051,-0.012766937725245953,0.006406406871974468,-0.011984470300376415,0.1708130746431468,-0.7259818465436849,1.6113462849808668
1687104083.1276379,0.12726198136806488,0.6643680930137634,-0.7364912629127502,0.0023157596588134766,0.005614638328552246,-0.006291389465332031,-0.0021598341409116983,-0.0005911147454753518,0.005562365520745516,0.17110536122393194,-0.7266480501941153,1.611399918472886
1687104083.174124,0.1270761787891388,0.6641680002212524,-0.7367037534713745,0.006178945302963257,0.008851289749145508,-0.0016996264457702637,0.0046496023423969746,-0.006763501092791557,0.004085708875209093,0.17081204340916195,-0.726380347410747,1.6114797717812177
1687104083.2205892,0.12708552181720734,0.6641383767127991,-0.736728847026825,-0.01021835207939148,0.0032656192779541016,0.005283474922180176,0.004572903271764517,0.0019097488839179277,0.007744227070361376,0.1708186461605081,-0.7263407559657657,1.6113702767449758
1687104083.2991982,0.12651494145393372,0.6639696955680847,-0.7369791269302368,0.002025216817855835,-0.004652798175811768,0.002604067325592041,-0.02180304378271103,-0.07100826501846313,0.02059357985854149,0.17000982175420104,-0.726115131412883,1.611660830184826
1687104083.3408031,0.12311933189630508,0.6618924140930176,-0.7394186854362488,0.0010415315628051758,0.005771040916442871,0.020439743995666504,0.17783629894256592,-0.09486617892980576,0.03684665262699127,0.16499456456622605,-0.7233405551226848,1.6126857062376947
1687104083.409796,0.12399675697088242,0.6533342003822327,-0.7468461394309998,-0.022006899118423462,-0.014158904552459717,-0.01829063892364502,0.18295036256313324,-0.06746970117092133,0.04880690947175026,0.16452640633505103,-0.7119801839731599,1.614490756083799
1687104083.4477491,0.12278247624635696,0.6460671424865723,-0.7533403038978577,0.004506431519985199,0.009328186511993408,0.002790987491607666,0.20584635436534882,-0.044447097927331924,0.046591490507125854,0.16156349993583388,-0.7024205852228216,1.6149557599048716
1687104083.489706,0.12281842529773712,0.6435768008232117,-0.7554630637168884,-0.003815002739429474,-0.017783522605895996,-0.010497629642486572,0.00608211662620306,-0.005437402054667473,0.027778852730989456,0.16116370212370598,-0.6991623469486502,1.6160024594023135
1687104083.543993,0.12370599806308746,0.6434027552604675,-0.7554665803909302,-0.0027952343225479126,-0.008789777755737305,0.0039559006690979,0.01664607785642147,0.01224412303417921,0.019001875072717667,0.1623073767615745,-0.6989349613338308,1.6169594201545896
1687104083.584656,0.12414758652448654,0.6415348649024963,-0.7569810748100281,-0.006303869187831879,-0.007318675518035889,0.008308589458465576,0.029855091124773026,-0.007278311997652054,0.006872640922665596,0.16255642069841844,-0.6964974427683245,1.6171722485561972
1687104083.626401,0.12402704358100891,0.6401944756507874,-0.7581347227096558,-0.004886314272880554,-0.012051284313201904,-7.450580596923828e-05,0.028424173593521118,2.243323251605034e-05,0.005593923851847649,0.1621585396717509,-0.6947513819814368,1.6168789992619197
1687104083.6875448,0.12429820746183395,0.6395771503448486,-0.7586112022399902,0.00038145482540130615,-0.009267210960388184,-0.004221439361572266,0.027578353881835938,0.009928548708558083,-0.018031643703579903,0.16240658224330204,-0.6939480704401875,1.6166451198175464
1687104083.724827,0.1245502457022667,0.6392502784729004,-0.758845329284668,0.0036236941814422607,0.005265593528747559,-0.004475593566894531,0.024386290460824966,0.006045282818377018,-0.0044131032191216946,0.16268079225269497,-0.6935229080146335,1.6163723265238754
1687104083.80336,0.12476921081542969,0.6390619874000549,-0.758967936038971,0.005159489810466766,-0.0008022785186767578,-0.004490315914154053,0.002672471571713686,0.005737621337175369,0.00683615542948246,0.16293590059300875,-0.6932781321288172,1.6163298385015585
1687104083.841846,0.12467718869447708,0.6387582421302795,-0.7592387795448303,2.4884939193725586e-06,0.0012258291244506836,0.0033183693885803223,0.005963339935988188,-0.006955426186323166,4.2049214243888855e-07,0.1627607716146313,-0.692883232330821,1.6161207010000682
1687104083.879613,0.12482956796884537,0.6379678249359131,-0.7598780393600464,-0.004056140780448914,-0.00013530254364013672,0.0036676526069641113,0.01089950930327177,0.0011914500501006842,0.00528732780367136,0.16282152230772368,-0.691856418501937,1.6163077467479339
1687104083.930614,0.12478421628475189,0.6377925276756287,-0.760032594203949,-0.0030799955129623413,-0.007436811923980713,0.0013502836227416992,0.0009230412542819977,-0.011931941844522953,0.004460282623767853,0.16273089516625178,-0.6916288042375118,1.6162373459456436
1687104083.990813,0.12476515024900436,0.6374478936195374,-0.7603247761726379,0.003393523395061493,-0.0028960704803466797,-0.0041100382804870605,-0.003548672655597329,0.0012950911186635494,-0.0050549255684018135,0.16264503790424684,-0.6911814172415287,1.6164552868346436
1687104084.030552,0.12454291433095932,0.6376439332962036,-0.76019686460495,0.0017084181308746338,0.006398916244506836,-0.005367159843444824,0.0020018876530230045,-0.004156643524765968,0.0008488367311656475,0.1623872413696995,-0.6914358983034828,1.6162484996584323
1687104084.074549,0.12465038150548935,0.6369930505752563,-0.7607247233390808,0.0005175769329071045,0.0032808780670166016,-0.004412055015563965,0.01056528277695179,0.01171661727130413,0.0011050989851355553,0.16241411215751353,-0.6905912559373771,1.6162335358682425
1687104084.1485848,0.12481840699911118,0.6371122002601624,-0.7605974078178406,9.013712406158447e-05,0.004550278186798096,0.0030137300491333008,0.0019566139671951532,-0.0014911966864019632,0.009971695020794868,0.16265594463004934,-0.6907457818216799,1.616270824267102
1687104084.186507,0.12484535574913025,0.6365214586257935,-0.7610874176025391,-0.008558005094528198,-0.009431123733520508,0.003305375576019287,0.0026620852295309305,-0.004296792671084404,0.0009098895825445652,0.16258754413232349,-0.6899795755193443,1.6161057898904099
1687104084.225389,0.12500883638858795,0.6365936398506165,-0.7610001564025879,-0.004403263330459595,-0.009472787380218506,0.00044101476669311523,-0.01247825101017952,0.0034105509985238314,0.001516491174697876,0.16281504566083502,-0.6900731934063606,1.6160471049550664
1687104084.292331,0.12485373765230179,0.6365306377410889,-0.761078417301178,0.0012907832860946655,-0.004420161247253418,-0.002456188201904297,0.02357322722673416,-0.007421256974339485,-0.01131601631641388,0.1626001540981919,-0.6899914766739667,1.615898323748355
1687104084.3356218,0.1248704344034195,0.6364055275917053,-0.7611802220344543,0.0016402900218963623,-0.001090705394744873,-0.00507044792175293,-0.007782300002872944,0.004295253194868565,0.00011273939162492752,0.16260015064194466,-0.6898293365768585,1.6158364990501377
1687104084.378262,0.12473401427268982,0.6366106867790222,-0.7610309720039368,0.00846005231142044,0.010056614875793457,-0.005829989910125732,0.00018534561968408525,-0.002513650804758072,0.004779662471264601,0.16245690953179573,-0.6900953038556322,1.6155806585601902
1687104084.4463,0.1243852898478508,0.636746883392334,-0.7609741687774658,0.0012099146842956543,-0.0009590387344360352,9.459257125854492e-05,-0.013693718239665031,0.0029364638030529022,0.00969199649989605,0.16202252478666995,-0.6902719090690143,1.6153424305428266
1687104084.486906,0.12455055117607117,0.6384753584861755,-0.7594974040985107,-0.002403847873210907,-0.010072767734527588,0.007696866989135742,-0.06749410182237625,0.0024173252750188112,-0.029525447636842728,0.1625439559569198,-0.69251563716392,1.615436300429759
1687104084.527849,0.12392202019691467,0.6403990387916565,-0.7579790949821472,0.0030617043375968933,-0.00540471076965332,-0.006913483142852783,0.006173463072627783,0.051198091357946396,0.00649274094030261,0.16205630730926993,-0.6950177428049306,1.6137758634577004
1687104084.5905728,0.1247682049870491,0.6444524526596069,-0.754396378993988,0.013964802026748657,-0.035779476165771484,-0.011274456977844238,-0.2358386367559433,0.033329080790281296,-0.07321140915155411,0.16390443397415033,-0.7003069974686179,1.613030159233036
1687104084.629015,0.1232794001698494,0.648647665977478,-0.7510381937026978,0.00042369961738586426,0.013614177703857422,0.010117173194885254,0.0027728728018701077,0.07756638526916504,0.004608487710356712,0.16269447181340851,-0.705806230022599,1.6118430173392795
1687104084.679959,0.12434682995080948,0.6483151316642761,-0.7511492967605591,-0.01957988739013672,-0.07994061708450317,-0.03176397085189819,-0.18539650738239288,0.032281503081321716,0.022099463269114494,0.16405430796715217,-0.7053694368873924,1.6119657982192865
1687104084.7520208,0.12499871104955673,0.6509473323822021,-0.7487608194351196,0.0038466081023216248,0.0009384751319885254,-0.005603194236755371,-0.05787049978971481,0.016080651432275772,-0.0009868135675787926,0.16541536704236756,-0.7088317058055823,1.6124728012498506
1687104084.791092,0.12542985379695892,0.651177704334259,-0.7484884262084961,-0.010744690895080566,0.003302156925201416,0.0036764144897460938,-0.023264054208993912,0.016949929296970367,0.012991385534405708,0.16603481181447516,-0.7091352211848923,1.6129154170966749
1687104084.8834991,0.12603454291820526,0.6520891785621643,-0.7475927472114563,-0.0032927393913269043,-0.002705693244934082,0.006030857563018799,-0.022089598700404167,0.0098812784999609,0.0024561877362430096,0.16701667334905104,-0.7103368053384829,1.61328169140465
1687104084.896069,0.12617085874080658,0.6526480913162231,-0.7470818758010864,-0.006785959005355835,-0.0038902759552001953,0.0015221834182739258,-0.020316466689109802,0.008939828723669052,-0.010248223319649696,0.16730618213019222,-0.7110743037738799,1.613270388579681
1687104084.93104,0.12631964683532715,0.6534342169761658,-0.7463692426681519,0.008903831243515015,0.0019306540489196777,-0.00382918119430542,-0.0043707904405891895,0.0036822825204581022,-0.0015227082185447216,0.16765677445414404,-0.7121122825917529,1.6133857200143031
1687104084.979212,0.126581072807312,0.6534073352813721,-0.74634850025177,0.003164529800415039,0.007176041603088379,-0.0028580427169799805,0.020467447116971016,-0.0012860221322625875,0.001503974199295044,0.16800183762343845,-0.7120767876753188,1.613699861483935
1687104085.045613,0.1268957406282425,0.653882622718811,-0.7458786368370056,0.0021021664142608643,0.001451730728149414,-0.0006119012832641602,-0.0028679687529802322,0.0008141687139868736,0.01121392473578453,0.16851572189112154,-0.7127048492175421,1.6142890602426216
1687104085.093,0.1271270513534546,0.654333233833313,-0.7454439401626587,-0.0026762783527374268,-0.00034165382385253906,0.006140351295471191,0.003342789364978671,-0.002438416238874197,0.003640495240688324,0.16891369285522023,-0.7133005245204145,1.6147097470389489
1687104085.13514,0.12708395719528198,0.6541211009025574,-0.7456374764442444,-0.005761206150054932,-0.008567571640014648,0.0031448006629943848,0.0009454117389395833,0.0035625507589429617,0.007450879085808992,0.16881450331767375,-0.7130200402538031,1.6147031638891005
1687104085.210534,0.12728004157543182,0.654324471950531,-0.7454255223274231,-0.006704986095428467,-0.0018129944801330566,0.0007660388946533203,-0.006978291552513838,0.007205355912446976,-0.01571928709745407,0.16911721488544126,-0.7132889705411934,1.6147899678599615
1687104085.254304,0.12748786807060242,0.654198408126831,-0.7455006837844849,0.006469160318374634,0.0072242021560668945,-0.0002726912498474121,0.029385309666395187,-0.006423459853976965,-0.00625175004824996,0.1693713618606635,-0.7131223122317993,1.6149890157008637
1687104085.292685,0.12725681066513062,0.6542279124259949,-0.7455142736434937,0.0025345534086227417,-0.00017529726028442383,-0.0023189783096313477,0.00201227399520576,-0.009553184732794762,0.011188560165464878,0.1690671818801323,-0.7131612521157329,1.6154682724893918
1687104085.350225,0.1273403763771057,0.654980480670929,-0.7448388338088989,-0.00644490122795105,0.0011320114135742188,-0.0013770461082458496,-0.04370274767279625,0.0027746770065277815,0.010351262986660004,0.16932660656815393,-0.7141568252909054,1.6162130514434196
1687104085.402947,0.12766161561012268,0.6564980745315552,-0.7434465885162354,-0.01125219464302063,0.0017354488372802734,-0.0012739300727844238,-0.06147162616252899,0.021360544487833977,-0.006107007153332233,0.1700574037287493,-0.7161668803866151,1.616350362604386
1687104085.437234,0.12744130194187164,0.6579028964042664,-0.7422414422035217,-0.0034177303314208984,0.0034738779067993164,0.010658740997314453,-0.019609929993748665,0.0074048712849617004,-0.012349456548690796,0.1700399056703897,-0.7180307744715068,1.6158422743325067
1687104085.487582,0.12699797749519348,0.6581218242645264,-0.7421233654022217,0.008011862635612488,-0.00011724233627319336,0.0011718273162841797,-0.013689190149307251,-0.00449129194021225,0.0053951856680214405,0.16948612856401313,-0.7183214581663584,1.615484718999627
1687104085.537012,0.12719279527664185,0.6584698557853699,-0.7417812943458557,0.001194775104522705,0.002052485942840576,-0.0026798248291015625,-0.0036682486534118652,-0.00150491192471236,-0.00762021541595459,0.16981793326747255,-0.7187838042142197,1.6160593009687392
