Timestamp,gravityX,gravityY,gravityZ,accelerationX,accelerationY,accelerationZ,rotationRateX,rotationRateY,rotationRateZ,attitudeRoll,attitudePitch,attitudeYaw
1687102106.655164,-0.0785784125328064,0.14105528593063354,-0.9868783354759216,-0.00807623565196991,0.008465632796287537,0.003251016139984131,-0.01765170879662037,0.012704649940133095,-0.000577894039452076,-0.07945557254421445,-0.14152727892532493,2.234440775723149
1687102106.701304,-0.07848791033029556,0.14085078239440918,-0.9869147539138794,0.00608496367931366,-0.0012023001909255981,-0.0042504072189331055,0.007703449111431837,-0.006705577485263348,-0.0012928196229040623,-0.0793615287552032,-0.14132071503197774,2.2345025306826547
1687102106.7761378,-0.07866328209638596,0.14124628901481628,-0.9868442416191101,-0.01397281140089035,0.007816851139068604,0.0013095736503601074,-0.0008697988232597709,-0.013701523654162884,0.006226349156349897,-0.07954376510398792,-0.14172021735123516,2.234597066187983
1687102106.82567,-0.07906180620193481,0.14096009731292725,-0.986853301525116,0.0006316453218460083,0.0024877935647964478,-0.0012600421905517578,0.001426911330781877,-0.010254106484353542,-0.0005198372527956963,-0.07994430359996221,-0.14143113427622916,2.234799817795025
1687102106.864996,-0.0792369395494461,0.1410609930753708,-0.9868248701095581,0.0049876868724823,-0.004464253783226013,0.0013970136642456055,0.002551297890022397,-0.003706214250996709,0.002033268567174673,-0.08012293945228438,-0.14153303746564005,2.234854814682785
1687102106.904449,-0.07924190908670425,0.14091706275939941,-0.9868450164794922,0.004794299602508545,0.0015390217304229736,0.007902204990386963,-0.011572510004043579,-0.0032203872688114643,0.0019051041454076767,-0.08012631252291304,-0.14138766371428876,2.234720449466908
1687102106.9926891,-0.0797378271818161,0.14060750603675842,-0.9868492484092712,-0.010594189167022705,0.006929770112037659,-0.00417858362197876,-0.004576386418193579,-0.010972738265991211,0.0007863766513764858,-0.0806252612466832,-0.14107499354056843,2.234785241243034
1687102107.0070481,-0.07983897626399994,0.1408633440732956,-0.9868045449256897,0.002888917922973633,0.0013791173696517944,0.008731484413146973,-0.013963229954242706,0.0006870916113257408,0.0038558696396648884,-0.08073072523713892,-0.1413334072295273,2.2346541509410827
1687102107.0732288,-0.08020716905593872,0.14069636166095734,-0.9867985248565674,-0.0026785656809806824,0.0007679015398025513,-0.004549741744995117,0.01198235061019659,-0.01805834472179413,-0.0012325658462941647,-0.08110189803934996,-0.14116474422093664,2.2345960819895017
1687102107.127224,-0.08083108067512512,0.14021450281143188,-0.9868162274360657,-0.008539639413356781,-0.00016929209232330322,-0.007003962993621826,-0.021046439185738564,-0.01056241150945425,0.00848510954529047,-0.08172851662585032,-0.1406780512295292,2.2348097568768726
1687102107.150315,-0.08091448992490768,0.14025379717350006,-0.9868037700653076,0.012295722961425781,0.021382614970207214,-0.004361391067504883,0.018477801233530045,-0.01372025441378355,-0.003978085238486528,-0.08181350404196852,-0.14071773489730843,2.2349855983099425
1687102107.2243629,-0.08226289600133896,0.1377575546503067,-0.9870439171791077,0.0016507282853126526,0.01643255352973938,-0.008729398250579834,0.04371684417128563,-0.03314324468374252,0.005054757930338383,-0.08315052575532621,-0.13819703257160476,2.2350675445860326
1687102107.288924,-0.08282359689474106,0.13682642579078674,-0.9871265292167664,-0.005204334855079651,0.012999668717384338,0.0002491474151611328,0.02940155379474163,-0.011427672579884529,0.0035388204269111156,-0.08370766704237002,-0.13725699511820383,2.2348046847495335
1687102107.30175,-0.08317543566226959,0.1360929161310196,-0.9871983528137207,0.0006406530737876892,-0.01249668002128601,0.009491443634033203,0.021313535049557686,-0.017770055681467056,0.01686614379286766,-0.08405550600041664,-0.13651656077906915,2.2351737038386723
1687102107.382925,-0.0833050012588501,0.1348387449979782,-0.9873595237731934,-0.013573043048381805,-0.02190840244293213,0.00809621810913086,-0.010427084751427174,-0.002097087912261486,0.00813257321715355,-0.08417214622050045,-0.1352507218018256,2.2360646033798854
1687102107.419876,-0.08377993851900101,0.133696511387825,-0.9874746203422546,0.005120895802974701,0.01147565245628357,-0.006208181381225586,0.02832643687725067,-0.025568436831235886,0.00720306346192956,-0.08463992679977164,-0.13409804695459387,2.236035512929359
1687102107.460423,-0.08606095612049103,0.1308949738740921,-0.9876537919044495,0.008439511060714722,0.012598708271980286,-0.0004442930221557617,0.08747577667236328,-0.07240183651447296,-0.001661334652453661,-0.08691722599607818,-0.13127166906791432,2.2360211720909104
1687102107.532961,-0.08857417106628418,0.12545812129974365,-0.9881370663642883,-0.0010254308581352234,0.002456352114677429,0.01075059175491333,0.15488357841968536,-0.06577262282371521,0.006267095450311899,-0.08939860949010872,-0.1257895881452952,2.236411261352013
1687102107.597758,-0.09024565666913986,0.1218799576163292,-0.9884335994720459,0.005330510437488556,-0.08817325532436371,-0.015426814556121826,0.10188933461904526,-0.01983615942299366,-0.024899479001760483,-0.09104925402059719,-0.12218374008733322,2.2372440514523415
1687102107.612032,-0.09263645857572556,0.11665676534175873,-0.9888426065444946,-0.05377161502838135,0.07412391901016235,0.02253401279449463,0.09905493259429932,-0.053954578936100006,0.008378716185688972,-0.09340907551810947,-0.11692299509153162,2.2366439890576917
1687102107.6650991,-0.09432888776063919,0.11485618352890015,-0.9888933897018433,0.009932540357112885,-0.03605974465608597,-0.0009595155715942383,-0.004696761257946491,-0.006618913263082504,-0.014660489745438099,-0.09510059178973528,-0.1151102238420155,2.2378870892964877
1687102107.705827,-0.09513448923826218,0.11271102726459503,-0.989063024520874,0.009959936141967773,0.022665001451969147,-0.0050928592681884766,0.06975776702165604,-0.015689240768551826,-0.02081332542002201,-0.0958914833878659,-0.11295104422692931,2.2376170147121024
1687102107.768544,-0.09543441981077194,0.11141521483659744,-0.9891809225082397,0.003652811050415039,-0.012400895357131958,-0.023041367530822754,0.03180825337767601,-0.02251274697482586,0.010658715851604939,-0.0961805443553455,-0.11164701977869677,2.237720932503479
1687102107.820884,-0.0958794429898262,0.11159598082304001,-0.9891175031661987,0.004586122930049896,-0.03144153207540512,0.008572518825531006,0.013206605799496174,0.0014002195093780756,-0.008483554236590862,-0.09663241932487072,-0.11182891951817585,2.2374993966616374
1687102107.8958411,-0.095940500497818,0.1112685278058052,-0.9891484975814819,-0.00524052232503891,-0.041474781930446625,-0.006380677223205566,0.014197833836078644,-0.012080080807209015,-0.0019928982947021723,-0.0966905663802645,-0.11149941500758906,2.2374463428779836
1687102107.908536,-0.0956653282046318,0.10981778800487518,-0.9893372654914856,-0.006614327430725098,0.006255872547626495,0.007830917835235596,0.03606265410780907,0.017311476171016693,0.006317829247564077,-0.09639668173237727,-0.11003972425192307,2.2379019738796484
1687102107.9822211,-0.09462893754243851,0.1103874072432518,-0.989373505115509,0.016198769211769104,-0.022695094347000122,-0.01898825168609619,0.03744270280003548,0.01252197939902544,-0.022266345098614693,-0.09535524391428687,-0.11061282720074864,2.238213338794799
1687102108.032168,-0.09397663921117783,0.11052008718252182,-0.9894208908081055,-0.002779334783554077,0.01626523584127426,-0.02296924591064453,-0.004302879795432091,0.025220820680260658,0.003750874660909176,-0.09469737107512667,-0.11074632698354456,2.238447440163666
1687102108.0717812,-0.09206274896860123,0.11115363240242004,-0.9895298480987549,0.017859265208244324,-0.011223778128623962,-0.021380186080932617,0.01321432925760746,0.02860407717525959,-0.0049795666709542274,-0.0927698072727964,-0.11138380355086165,2.239556785996185
1687102108.1092958,-0.08906983584165573,0.10751096159219742,-0.9902060031890869,0.003880031406879425,-0.008084654808044434,0.00042945146560668945,0.21578581631183624,0.09998265653848648,0.01988796517252922,-0.08970938270405572,-0.10771916280850957,2.240486932601775
1687102108.1938229,-0.08591846376657486,0.10489949584007263,-0.9907643795013428,-0.018283799290657043,-0.01832108199596405,0.02997952699661255,-0.023154331371188164,0.02993479184806347,0.0014163474552333355,-0.08650296004404179,-0.10509284031961856,2.2410753081524586
1687102108.212764,-0.08559596538543701,0.10592911392450333,-0.9906827807426453,0.008279696106910706,0.009259529411792755,-0.018670856952667236,0.03475930169224739,-0.0011404360411688685,0.017483064904808998,-0.08618694621686379,-0.1061282264588121,2.2414068571113956
1687102108.259533,-0.08544346690177917,0.10455571860074997,-0.990841805934906,-0.0035305097699165344,-0.027514047920703888,0.02532672882080078,0.013527516275644302,0.021308857947587967,-0.00909794494509697,-0.08602040530942584,-0.10474715792527023,2.2415946139041236
1687102108.308423,-0.08459875732660294,0.10626780986785889,-0.9907321333885193,-0.0008351877331733704,-0.011998973786830902,-0.010625839233398438,-0.08866409957408905,0.013854626566171646,-0.016506195068359375,-0.08518350145607921,-0.10646884214502685,2.241163515266549
1687102108.3836641,-0.08445834368467331,0.10733912140130997,-0.9906286597251892,0.010788924992084503,0.011603184044361115,0.002652585506439209,-0.013345110230147839,0.01478233840316534,-0.012510254047811031,-0.08505164534294997,-0.10754631883563616,2.2404256833480978
1687102108.418987,-0.08396643400192261,0.10849878937005997,-0.9905441403388977,0.004300311207771301,-0.011315517127513885,0.008732616901397705,-0.06984460353851318,0.010840348899364471,-0.0028170801233500242,-0.08456582698577476,-0.10871279960099542,2.2400752605138803
1687102108.459375,-0.08310194313526154,0.11097858101129532,-0.9903422594070435,-0.009320534765720367,-0.005311422049999237,0.008805394172668457,-0.020398758351802826,0.007940699346363544,0.003302863799035549,-0.08371622088047134,-0.11120766017099716,2.2396996373768636
1687102108.525375,-0.08315765857696533,0.11156816780567169,-0.9902713298797607,-0.004320964217185974,0.0012706220149993896,-0.0025722384452819824,-0.019293013960123062,-0.002288014395162463,0.005406894255429506,-0.08377805993440948,-0.11180092741026244,2.239622046689428
1687102108.565057,-0.08333670347929001,0.11312036216259003,-0.9900801777839661,-0.0028144121170043945,-0.012183427810668945,0.010374367237091064,-0.03154115751385689,0.0056481389328837395,-0.009533106349408627,-0.08397373264752159,-0.11336301447016996,2.2394983234229375
1687102108.620537,-0.08268946409225464,0.11615972220897675,-0.9897825121879578,-0.0009286925196647644,-0.004938371479511261,-0.008798420429229736,-0.08535511791706085,-0.00015986012294888496,0.006743069272488356,-0.08334951532113938,-0.11642254941295097,2.239139474685527
1687102108.688078,-0.08299534022808075,0.11764121055603027,-0.9895818829536438,0.015505731105804443,0.005436226725578308,-0.0009118914604187012,-0.017630401998758316,-0.0024293616879731417,-0.004263642709702253,-0.08367328071254755,-0.11791426058368645,2.2394197878002444
1687102108.728821,-0.083180271089077,0.11756952106952667,-0.9895749092102051,-0.0032455027103424072,0.00913950800895691,0.005291461944580078,-0.017083389684557915,-0.0026959218084812164,-0.005420187022536993,-0.08385943521905707,-0.11784207285169582,2.2389285901509894
1687102108.817455,-0.08323737978935242,0.11862051486968994,-0.9894446730613708,0.009033896028995514,-0.01392991840839386,0.00445932149887085,-0.012677188962697983,-0.004041883163154125,-0.009882313199341297,-0.08392773694184463,-0.11890047266640436,2.238639245861839
1687102108.82738,-0.08368662744760513,0.11868579685688019,-0.9893988966941833,0.00931529700756073,-0.0041380152106285095,-0.016857147216796875,-0.0004066750989295542,-0.01845766231417656,0.0030827540904283524,-0.08438244988700472,-0.11896622060673713,2.2383890221422496
1687102108.8740358,-0.08399492502212524,0.11875870078802109,-0.9893640279769897,-0.005421556532382965,0.003250613808631897,0.010528028011322021,0.006058148108422756,-0.0017143028089776635,-0.010826470330357552,-0.08469480348377798,-0.1190396442493785,2.238299599597023
1687102108.916648,-0.08398962765932083,0.11923649907112122,-0.9893070459365845,0.0027671009302139282,-0.007328495383262634,-0.006206870079040527,9.559706086292863e-05,0.0012402301654219627,0.004828988574445248,-0.08469434171525417,-0.11952086179325482,2.2382525416888615
1687102108.962755,-0.08440607041120529,0.118988037109375,-0.9893015027046204,0.0034276843070983887,0.0054474323987960815,0.005826771259307861,-0.007851275615394115,0.0032241963781416416,-0.0145889176055789,-0.08511273235330576,-0.11927061702861828,2.2380879868392105
1687102109.019637,-0.08427222073078156,0.11957120895385742,-0.9892426133155823,0.000791400671005249,0.0020566433668136597,0.0036774277687072754,0.0028410498052835464,0.008030448108911514,-0.007717296481132507,-0.0849834488014653,-0.11985798041220785,2.2377323925552193
1687102109.062096,-0.08368974179029465,0.12036226689815521,-0.9891961216926575,-0.0016068816184997559,0.009078092873096466,-0.0019995570182800293,-0.010103244334459305,0.005435951519757509,0.007445544470101595,-0.08440279301440133,-0.12065479077855436,2.2373848381674417
1687102109.117176,-0.08395495265722275,0.12111601233482361,-0.989081621170044,0.006074115633964539,-0.0038521811366081238,0.007071793079376221,0.012693947181105614,-0.005114981904625893,-0.004166703671216965,-0.08467874569466909,-0.12141409072342783,2.2374017437658535
1687102109.1637812,-0.08386584371328354,0.12170122563838959,-0.9890173673629761,-0.011272698640823364,-0.010434083640575409,0.011188387870788574,-0.03366369754076004,0.006386611144989729,-0.0071461815387010574,-0.08459476470863386,-0.12200366626521929,2.2369476848862924
1687102109.2368379,-0.08366892486810684,0.12282345443964005,-0.9888952970504761,-0.003824964165687561,0.0051825642585754395,-0.011791348457336426,0.0046733045019209385,0.0030807408038526773,0.006020753178745508,-0.08440744632300519,-0.1231343840550475,2.236831314150094
1687102109.277067,-0.08383260667324066,0.12350727617740631,-0.9887962341308594,0.0048836469650268555,-0.0055720508098602295,0.00846487283706665,-0.00581741938367486,-0.008501347154378891,-0.005917398724704981,-0.08458022109039143,-0.1238234495639925,2.236703032019641
1687102109.31738,-0.08381662517786026,0.12447918951511383,-0.9886757135391235,0.005966290831565857,-0.000730365514755249,-0.009615302085876465,-0.011846283450722694,0.010127398185431957,0.00473611056804657,-0.08457443118577616,-0.1248029199244351,2.236690435843998
1687102109.360828,-0.08337431401014328,0.12530390918254852,-0.9886089563369751,-0.004317939281463623,-0.0014177560806274414,0.015388131141662598,-0.020584380254149437,0.014187542721629143,-0.011303110048174858,-0.08413588568460525,-0.12563415422710947,2.2361715541076896
1687102109.414311,-0.08356842398643494,0.12483993917703629,-0.9886512756347656,-0.0046578869223594666,-0.004081837832927704,0.007526397705078125,0.025278715416789055,-0.020910346880555153,-0.01193907205015421,-0.08432724870752853,-0.12516650729582318,2.2353792001409802
1687102109.4640589,-0.08790068328380585,0.1231175884604454,-0.9884915351867676,0.002420961856842041,5.632638931274414e-06,0.023983478546142578,0.0826629102230072,-0.1333366185426712,-0.04035487025976181,-0.08869077785031532,-0.12343076246038173,2.2339710022331816
1687102109.522474,-0.09265921264886856,0.11910827457904816,-0.9885481595993042,-0.007392652332782745,-0.016614951193332672,-0.023323118686676025,0.11178990453481674,-0.09254511445760727,-0.004305653739720583,-0.09345955663350958,-0.11939171480219296,2.233574927094688
1687102109.564458,-0.09510684013366699,0.11493489891290665,-0.9888097047805786,0.011763341724872589,0.010568678379058838,-0.007619738578796387,0.0976642295718193,-0.0301220640540123,0.01246713474392891,-0.0958881888724835,-0.11518946574381939,2.2336063452724266
1687102109.616281,-0.09672848135232925,0.11209560930728912,-0.9889783263206482,0.029254131019115448,0.04781653732061386,0.0025739669799804688,-0.004599555861204863,-0.04296515882015228,0.015401406213641167,-0.0974963726014329,-0.11233170132279688,2.2343099329305622
1687102109.715994,-0.09792938083410263,0.10970605909824371,-0.9891281127929688,-0.014665216207504272,-0.032527051866054535,0.00078582763671875,0.05568215996026993,-0.009875781834125519,-0.001856544055044651,-0.0986841576323018,-0.10992731856395742,2.234184273441385
1687102109.728897,-0.09903192520141602,0.10799861699342728,-0.9892062544822693,0.0065331608057022095,0.006488114595413208,-0.0011044144630432129,0.011191125027835369,-0.03379620611667633,0.008324987255036831,-0.09978005653424663,-0.1082096729321386,2.2348119591480065
1687102109.762464,-0.0997413620352745,0.10570802539587021,-0.9893823862075806,-0.014180749654769897,0.0004931911826133728,0.012438416481018066,0.03386101871728897,0.007889899425208569,-0.0012362939305603504,-0.1004722937152711,-0.1059058887672603,2.234533763905791
1687102109.840658,-0.0994601845741272,0.10514839738607407,-0.9894703030586243,0.009433336555957794,0.04101559519767761,0.012968838214874268,0.02507418394088745,0.004172681365162134,0.003090609796345234,-0.10018210276451756,-0.10534312274673661,2.2351531473863577
1687102109.9071388,-0.09922806173563004,0.10539010167121887,-0.9894679188728333,-0.010207965970039368,-0.02088688313961029,-0.001437842845916748,0.008747409097850323,0.0032023361418396235,0.014110038056969643,-0.09995009502691576,-0.10558617955718681,2.234917414139874
1687102109.919715,-0.09968678653240204,0.10364868491888046,-0.989605724811554,-0.0032032132148742676,0.002247363328933716,0.004528820514678955,0.014017804525792599,-0.0015666306717321277,-0.009548818692564964,-0.1003951791107498,-0.10383516998168889,2.2351464104665957
1687102110.0339499,-0.0992642417550087,0.10277246683835983,-0.9897395968437195,0.012548550963401794,-0.016758635640144348,-0.020041286945343018,0.010509888641536236,0.002063657622784376,0.020068861544132233,-0.09995903108418704,-0.1029542516893935,2.2352839914152294
1687102110.0417309,-0.09911518543958664,0.10241614282131195,-0.9897914528846741,-0.0008146166801452637,0.01777738332748413,0.011565744876861572,0.015445524826645851,0.0008708941750228405,-0.007007031235843897,-0.09980473398247872,-0.1025960325802849,2.2352232872131754
1687102110.0930529,-0.09902839362621307,0.10238585621118546,-0.9898032546043396,-0.013398341834545135,-0.013472847640514374,-0.008335113525390625,-0.001215743483044207,0.00864785723388195,-0.005861072801053524,-0.09971673515351112,-0.10256558737116747,2.235488908190081
1687102110.136534,-0.09961406141519547,0.10276433080434799,-0.9897052645683289,0.005665712058544159,0.019855335354804993,0.0007069110870361328,0.00434973044320941,-0.007354722358286381,-0.009786572307348251,-0.10031240315468982,-0.10294607011891371,2.235619609564023
1687102110.180221,-0.09922616183757782,0.10242844372987747,-0.9897790551185608,0.004484355449676514,-0.02264019101858139,-0.013623654842376709,-0.033084992319345474,0.02005830407142639,-0.014492245391011238,-0.09991698323667361,-0.10260839767020788,2.235517628273486
1687102110.2268171,-0.09608323872089386,0.10436885803937912,-0.989886462688446,0.014479242265224457,0.02079903334379196,-0.027539074420928955,0.13043975830078125,0.12506482005119324,0.03180421516299248,-0.09676178776575145,-0.10455927146879564,2.2358262460971825
1687102110.271698,-0.0906025841832161,0.10347794741392136,-0.9904965758323669,-0.04028729349374771,-0.01859327405691147,0.11610698699951172,-0.0700928121805191,0.10218368470668793,-0.03320874273777008,-0.09121803753850519,-0.10366351402996295,2.2352627628664714
1687102110.3458982,-0.08734861016273499,0.10625278204679489,-0.9904950857162476,-0.005394287407398224,-0.011617742478847504,0.009461820125579834,-0.03907044604420662,0.02728927507996559,0.008235039189457893,-0.08795927151732826,-0.10645373432264596,2.23437762977561
1687102110.375046,-0.08671867847442627,0.10705740004777908,-0.9904638528823853,-0.004422053694725037,-0.010514996945858002,0.009659409523010254,0.013997032307088375,0.021650275215506554,-0.008351195603609085,-0.0873309115890594,-0.10726296316472762,2.2342050379008307
1687102110.422513,-0.08536070585250854,0.10770241171121597,-0.9905118346214294,-0.01672057807445526,-0.02593051642179489,0.010119438171386719,-0.05213857814669609,0.04637584090232849,-0.013005135580897331,-0.08596598511913646,-0.10791172855569069,2.233971292862314
1687102110.470742,-0.08399863541126251,0.10973907262086868,-0.9904047250747681,0.014220207929611206,0.022600434720516205,-0.016919434070587158,0.0029720773454755545,-0.0011128279147669673,0.015524042770266533,-0.08460994659579198,-0.10996053481597605,2.2336111662431524
1687102110.540415,-0.08455692231655121,0.10958696156740189,-0.9903740882873535,0.004890799522399902,0.0016191378235816956,0.004106998443603516,-0.038207583129405975,0.014149836264550686,-0.005271249450743198,-0.08517221999688807,-0.10980750264479078,2.2335513879396083
1687102110.622421,-0.08401712030172348,0.11066512763500214,-0.9903001189231873,0.007494308054447174,0.030158281326293945,-0.00039201974868774414,-0.0075838943012058735,0.004045160487294197,0.0019221482798457146,-0.08463737897455632,-0.11089226190340301,2.233581628822798
1687102110.636178,-0.08390967547893524,0.11219818890094757,-0.9901367425918579,-0.0040419697761535645,-0.02932766079902649,-0.00865781307220459,-0.08853546530008316,0.009189189411699772,0.011207658797502518,-0.08454353948950674,-0.11243493148101913,2.234082398183031
1687102110.6836782,-0.0837012380361557,0.11395503580570221,-0.9899536967277527,2.205371856689453e-05,0.03658822178840637,-0.007925271987915039,0.02650856226682663,-0.007521170191466808,0.0019931215792894363,-0.08435003867449142,-0.11420312336857619,2.233902840483259
1687102110.7244701,-0.08428866416215897,0.1136574074625969,-0.9899380803108215,0.001891210675239563,-0.006952658295631409,0.003152191638946533,-0.02307630144059658,-0.002956223674118519,-0.0023461664095520973,-0.08494052084987154,-0.11390354697386304,2.2335858015080956
1687102110.769493,-0.08437488228082657,0.11548595875501633,-0.9897190928459167,-0.008123889565467834,0.0005724281072616577,0.001361548900604248,-0.010128011927008629,-0.0037898817099630833,-0.023422157391905785,-0.08504570912194577,-0.11574422129865293,2.2332669316981333
1687102110.834358,-0.08479172736406326,0.11572322994470596,-0.9896557331085205,-0.0003980770707130432,0.009002149105072021,-0.013106048107147217,-0.034522831439971924,-0.004924610257148743,0.003907867707312107,-0.08546927493449064,-0.115983088838018,2.2328834999928944
1687102110.916988,-0.08486398309469223,0.1166558489203453,-0.9895400404930115,0.013559669256210327,0.014523997902870178,0.007820069789886475,0.011434538289904594,0.0029902157839387655,0.0016082283109426498,-0.08555170802693955,-0.11692207014856996,2.2326053490657127
1687102110.927633,-0.08491986244916916,0.11625241488218307,-0.9895827174186707,-0.006159842014312744,-0.0068010687828063965,0.014469802379608154,-0.011858267709612846,0.014022204093635082,-0.01296345703303814,-0.08560408577043951,-0.11651586833027196,2.2323483090708467
1687102110.968009,-0.0845586284995079,0.11777058988809586,-0.9894341230392456,-0.001912914216518402,-0.004565596580505371,-0.005362570285797119,-0.029408499598503113,-0.005933415610343218,0.01322413794696331,-0.08525444940806262,-0.11804454474263792,2.231940169482184
1687102111.0448709,-0.08459139615297318,0.11844120174646378,-0.9893512725830078,-0.005618542432785034,0.005856931209564209,0.016222059726715088,-0.005058684851974249,0.004474750254303217,0.005995253566652536,-0.08529443636136816,-0.11871988292573228,2.2323006477949865
1687102111.083044,-0.08426268398761749,0.11850768327713013,-0.9893713593482971,0.008746951818466187,-0.0001909881830215454,-0.011086344718933105,-0.00045913938083685935,-0.006027203518897295,-0.001595154870301485,-0.08496286588682163,-0.11878683792051317,2.232460327465032
1687102111.12422,-0.08474595844745636,0.11901004612445831,-0.9892697930335999,0.0013719499111175537,-0.0011511072516441345,-0.0016359686851501465,0.01119618583470583,-0.0003943957854062319,-0.001663997769355774,-0.08545653136412253,-0.11929278255143548,2.232351227437876
1687102111.17273,-0.08472227305173874,0.11894620954990387,-0.9892795085906982,0.003926992416381836,0.022487543523311615,0.005072355270385742,-0.0007467607501894236,0.002561579691246152,0.0040699210949242115,-0.08543192601116092,-0.11922849312537535,2.232304375064429
1687102111.252836,-0.08471397310495377,0.11989697813987732,-0.9891654253005981,0.0004702135920524597,-0.011162810027599335,0.00401228666305542,-0.006639537401497364,-0.00043425452895462513,-0.0016413605771958828,-0.0854333999746418,-0.12018611453968532,2.232269548430828
1687102111.268441,-0.0846649557352066,0.12071385979652405,-0.9890702962875366,-0.004568427801132202,0.0009750425815582275,-0.005222916603088379,-0.020994242280721664,-0.0006941790925338864,-0.0031495089642703533,-0.0853923857368664,-0.12100896719425949,2.23207429619649
1687102111.338632,-0.08478081971406937,0.12025927007198334,-0.9891157150268555,0.0030852705240249634,0.024760298430919647,-0.0022783279418945312,0.04950016364455223,-0.006343054585158825,-0.0012372261844575405,-0.08550476143713849,-0.12055104596068851,2.232116299837527
1687102111.392366,-0.08531966060400009,0.11962418258190155,-0.9891464114189148,-0.0070112645626068115,-0.007685661315917969,0.002162158489227295,-0.009296839125454426,-0.006738800089806318,0.002386271022260189,-0.08604288017515033,-0.11991133638171934,2.2326603000440475
1687102111.4328089,-0.08518034219741821,0.12014146894216537,-0.9890957474708557,0.00986296683549881,0.02097184956073761,-0.005273759365081787,-0.002271154196932912,0.00686746696010232,-0.0034204856492578983,-0.08590744994307244,-0.12043238319636478,2.2323819256988675
1687102111.470271,-0.08509841561317444,0.12010294944047928,-0.9891074299812317,0.007812656462192535,0.006987549364566803,0.0033133625984191895,0.015000510960817337,0.0019219550304114819,0.0024666315875947475,-0.08582421777770548,-0.12039358541613261,2.2323785894130377
1687102111.5230532,-0.08568403124809265,0.11969276517629623,-0.9891065955162048,-0.0007417276501655579,-0.005740083754062653,0.004090785980224609,-0.007369776256382465,-0.0005466399015858769,-0.010590115562081337,-0.08641197665606772,-0.11998041379844603,2.232222471890347
1687102111.582014,-0.08717173337936401,0.11828378587961197,-0.9891461133956909,0.0034620314836502075,0.0042595937848091125,-0.006337225437164307,0.050683408975601196,-0.07069723308086395,-0.02330191619694233,-0.08790117025105532,-0.11856135815864569,2.2315913764343254
1687102111.622875,-0.09170053154230118,0.11317788064479828,-0.989333987236023,-0.002263084053993225,0.00013393908739089966,0.02519214153289795,0.13085946440696716,-0.09977124631404877,-0.02871059626340866,-0.09242507386332256,-0.11342090621963555,2.230722735735902
1687102111.6916208,-0.09596575796604156,0.10711256414651871,-0.9896047115325928,-0.003307908773422241,-0.00027047842741012573,0.007854223251342773,0.09173469990491867,-0.07847616821527481,-0.0096849724650383,-0.09667155573937666,-0.1073184484531482,2.231255629338818
1687102111.728514,-0.09754399210214615,0.10341966152191162,-0.9898431897163391,-0.025136664509773254,0.02972857654094696,-0.006036937236785889,0.14355821907520294,-0.005354777909815311,0.05165655165910721,-0.09822774835519314,-0.1036049125843268,2.2321014144443034
1687102111.7733521,-0.09777010977268219,0.09945756942033768,-0.9902268648147583,-0.003120988607406616,-0.096146360039711,0.0087357759475708,0.08877326548099518,-0.0065784333273768425,-0.011945397593080997,-0.09841608653581227,-0.09962227200732097,2.2323963206648205
1687102111.852637,-0.09858804196119308,0.09481389820575714,-0.9906011819839478,-0.0010670945048332214,-0.0024371445178985596,0.005692124366760254,0.0014423576649278402,-0.0035831094719469547,0.01582571491599083,-0.09919679514490039,-0.09495653349934056,2.233053071850213
1687102111.8936229,-0.09906747192144394,0.09334756433963776,-0.9906926155090332,-0.001564227044582367,0.02255823463201523,0.011505663394927979,0.07742660492658615,-0.011552086099982262,0.00697842612862587,-0.09966686644856437,-0.0934836664351551,2.2327246383685924
1687102111.928436,-0.09883157163858414,0.08984988927841187,-0.991039514541626,-0.007262781262397766,-0.021414168179035187,0.0049860477447509766,0.033769138157367706,-0.0067389775067567825,0.006695532239973545,-0.0993965206766769,-0.08997122047070527,2.2334951981321933
1687102111.974772,-0.09921197593212128,0.08788326382637024,-0.9911778569221497,-0.005936332046985626,0.014884725213050842,0.014310181140899658,0.013178909197449684,-0.008598308078944683,-0.011307969689369202,-0.09976273855205314,-0.087996787988908,2.233172870099091
1687102112.035563,-0.09947437793016434,0.08723340183496475,-0.9912089705467224,-0.002072855830192566,-0.00042610615491867065,-0.003038465976715088,0.030157092958688736,0.010243645869195461,-0.01623108983039856,-0.10002172460289849,-0.08734442198784102,2.2333484967265216
1687102112.075581,-0.09884116798639297,0.08662063628435135,-0.9913260340690613,0.007715687155723572,-0.015972398221492767,-0.005774796009063721,-0.022624894976615906,0.0012385656591504812,5.667051300406456e-05,-0.0993775672930605,-0.0867293216187607,2.233105099900262
1687102112.134507,-0.09894903004169464,0.08691774308681488,-0.9912892580032349,-0.002293020486831665,0.0350305512547493,0.013536572456359863,-0.002787008648738265,-0.008381637744605541,-0.003208298236131668,-0.09948897002178067,-0.08702755299143945,2.23309788162156
1687102112.182472,-0.09890022873878479,0.08544810861349106,-0.9914218783378601,-0.011207178235054016,0.005723200738430023,0.020734012126922607,-0.04447586461901665,0.00957401655614376,-0.006026988383382559,-0.09942701276004651,-0.08555243203865462,2.2332474879858406
1687102112.227532,-0.09928978979587555,0.0867312103509903,-0.9912714958190918,-0.0018454492092132568,0.03228739649057388,-0.0025486350059509277,0.029363205656409264,0.0059276157990098,0.001523872371762991,-0.09983109550974119,-0.08684031487000014,2.233299133442732
1687102112.291323,-0.09988696128129959,0.0863531306385994,-0.9912445545196533,0.007479742169380188,-0.011310361325740814,-0.01037287712097168,0.0031345300376415253,-0.025799687951803207,-0.00689251534640789,-0.10043022292953599,-0.08646081371754047,2.232940733137575
1687102112.344051,-0.10018674284219742,0.08845385164022446,-0.9910290241241455,-0.003878191113471985,-0.011122263967990875,0.004975557327270508,-0.06899798661470413,0.012799791991710663,-0.013028504326939583,-0.10075135876825268,-0.08856960401613961,2.232570412770225
1687102112.4163709,-0.09835396707057953,0.09448907524347305,-0.9906554818153381,0.03336680680513382,-0.010947160422801971,-0.02693784236907959,-0.1788770854473114,0.07662481814622879,0.0008510253392159939,-0.09895742000538925,-0.09463024277599791,2.2317853752614476
1687102112.427534,-0.0974210873246193,0.09615294635295868,-0.990587592124939,-0.01878984272480011,0.0472797155380249,0.062136054039001465,-0.01176106184720993,0.023464754223823547,0.05749033764004707,-0.09803152422801088,-0.09630172676746736,2.2313595358832643
1687102112.478126,-0.09571374952793121,0.09709005802869797,-0.9906626343727112,-0.00851903110742569,-0.035581834614276886,0.01905924081802368,-0.026245461776852608,0.009639573283493519,0.0240735225379467,-0.09631693735120939,-0.0972432468887585,2.2325438766835477
1687102112.555444,-0.09524348378181458,0.09837377071380615,-0.9905812740325928,0.005216643214225769,-0.021484695374965668,0.005779087543487549,0.002236245898529887,0.01597161777317524,-0.009237761609256268,-0.09585442977014733,-0.098533131825611,2.2320893732412803
1687102112.588696,-0.09521769732236862,0.09874925017356873,-0.9905464053153992,-0.008831977844238281,-0.018838927149772644,0.00725477933883667,-0.06109825149178505,0.022607792168855667,0.012921934947371483,-0.09583198978962397,-0.09891045285902604,2.23195930564304
1687102112.630012,-0.09346436709165573,0.09987466037273407,-0.9906005859375,-0.008647434413433075,0.04247462749481201,0.007720947265625,-0.008380445651710033,0.035520926117897034,-0.01187928393483162,-0.09407272787129843,-0.10004145222378734,2.2318512442124336
1687102112.715252,-0.0925857201218605,0.1018010675907135,-0.9904869794845581,0.009059116244316101,0.01303662359714508,0.008110880851745605,-0.09700512140989304,0.03962337225675583,-0.03006567806005478,-0.09320412426377293,-0.10197772831221863,2.2306680617031436
1687102112.7278528,-0.09088174253702164,0.10726011544466019,-0.9900685548782349,0.003189489245414734,0.019189506769180298,0.007890820503234863,-0.0032525290735065937,0.024127725511789322,-0.00831550918519497,-0.0915368629423454,-0.1074668576648832,2.2297258773562794
1687102112.800832,-0.09033694863319397,0.10793192684650421,-0.990045428276062,0.007527507841587067,-0.00537756085395813,0.00022304058074951172,-0.07022889703512192,0.024773985147476196,0.005430929828435183,-0.09099328433761449,-0.10814258736948792,2.2295481143987557
1687102112.825834,-0.08973993360996246,0.11047349125146866,-0.989819347858429,-0.006253093481063843,0.00407429039478302,0.007946789264678955,-0.01374857872724533,0.0040965816006064415,0.0021605677902698517,-0.09041574865332051,-0.11069944620386021,2.2293988053581306
1687102112.900749,-0.08963210135698318,0.1117154136300087,-0.9896897077560425,-0.0031108036637306213,-0.009786657989025116,-0.005122244358062744,-0.053912509232759476,0.005064485594630241,-0.00265489355660975,-0.09031945578073017,-0.11194910011683593,2.2292335217669406
1687102112.930499,-0.08920298516750336,0.11356767266988754,-0.9895176887512207,0.007995717227458954,-0.0016138851642608643,-0.012267589569091797,-0.024924801662564278,0.008963308297097683,-0.005496353376656771,-0.08990492633591436,-0.11381322647858536,2.229025501600128
1687102113.018425,-0.08889494091272354,0.11544164270162582,-0.9893285036087036,0.010815724730491638,-0.00043610483407974243,0.003931164741516113,-0.042236145585775375,-0.0006118873134255409,0.012935451231896877,-0.0896131609797419,-0.11569960167017425,2.228612432561129
1687102113.028079,-0.0892677903175354,0.11758061498403549,-0.9890429973602295,0.0019112303853034973,0.0034216195344924927,0.008085966110229492,-0.0175411868840456,-0.01065029576420784,-0.003764366265386343,-0.09001283663070354,-0.1178532442630713,2.2284996863110456
1687102113.103526,-0.09014187008142471,0.11645031720399857,-0.9890974760055542,0.00243435800075531,-0.006007149815559387,-0.0033951997756958008,-0.022872302681207657,-0.011635953560471535,-0.006844378542155027,-0.09088441833181722,-0.11671512366067734,2.228410586704381
1687102113.1424189,-0.09021635353565216,0.11748110502958298,-0.9889687299728394,-0.0064938366413116455,0.018322162330150604,-0.002226889133453369,-0.03532444313168526,-0.011143358424305916,-0.004938620608299971,-0.09097087129036781,-0.11775304294669425,2.228226213856587
1687102113.1823878,-0.09067317843437195,0.11678143590688705,-0.9890098571777344,-0.006845735013484955,-0.002432025969028473,0.000194549560546875,-0.002840005559846759,-0.01664070039987564,-0.002986923325806856,-0.09142517899930913,-0.11704851969587451,2.227985943906409
1687102113.253355,-0.09080669283866882,0.11757475882768631,-0.9889035820960999,0.006318792700767517,-0.013860717415809631,-0.0063814520835876465,-0.02733709290623665,-0.0030804378911852837,-0.0063739982433617115,-0.09156883730884338,-0.11784734489313643,2.2277870188639413
