Timestamp,gravityX,gravityY,gravityZ,accelerationX,accelerationY,accelerationZ,rotationRateX,rotationRateY,rotationRateZ,attitudeRoll,attitudePitch,attitudeYaw
1687093001.611656,0.9464359879493713,0.3014700710773468,0.11564899981021881,-0.010187208652496338,0.02573937177658081,0.028393983840942383,-0.06387455761432648,-0.002901132218539715,-0.06522586196660995,1.6923877535106955,-0.3062340925345076,-3.022859790450917
1687093001.667547,0.9451137185096741,0.30442380905151367,0.11868517845869064,-0.011550486087799072,0.03506892919540405,0.0008674785494804382,-0.052667971700429916,-0.010436257347464561,-0.07139154523611069,1.6957200641656849,-0.3093334626962096,-3.0133202785406112
1687093001.727154,0.9437089562416077,0.30872872471809387,0.11874327808618546,0.012635648250579834,0.00799793004989624,0.009659528732299805,-0.3173217475414276,-0.024099716916680336,-0.09214456379413605,1.6959646894022762,-0.3138561647848371,-3.008062969437218
1687093001.767662,0.9419289827346802,0.3118855953216553,0.12448729574680328,0.0008963346481323242,0.012912899255752563,-0.0029205158352851868,-0.08400832116603851,0.0049239895306527615,-0.11136339604854584,1.7021968920117252,-0.31717698989968995,-2.9895885749889137
1687093001.84828,0.9402614235877991,0.3173532783985138,0.12326924502849579,-0.0030818581581115723,-0.0030069947242736816,-0.001153111457824707,0.21045872569084167,0.018573932349681854,-0.0736042931675911,1.7011539148969286,-0.3229371875203836,-2.995372763465429
1687093001.8646631,0.9391957521438599,0.3207802474498749,0.12252169847488403,-0.006197035312652588,-0.014978885650634766,0.029242277145385742,0.00904306210577488,0.01842213235795498,-0.04584909975528717,1.7005176088467324,-0.3265531502163731,-2.9989167790885505
1687093001.918354,0.9386556148529053,0.32272738218307495,0.12154366821050644,0.008976340293884277,-0.006031244993209839,-0.009788259863853455,-0.004422944970428944,-0.029347632080316544,-0.03976890444755554,1.6995667940517405,-0.32860966125552815,-3.0030514229386136
1687093001.9820251,0.9385335445404053,0.3228743076324463,0.1220945343375206,-0.0068318843841552734,0.008668631315231323,-0.011819243431091309,0.04340796172618866,-0.044704750180244446,0.0034400844015181065,1.7001605670964801,-0.328764875227524,-2.9984662422147204
1687093002.029151,0.938978374004364,0.32337185740470886,0.1172618642449379,0.014238178730010986,0.00383758544921875,-0.0032024383544921875,-0.03565569967031479,-0.08681920170783997,-0.015127806924283504,1.6950355214464263,-0.32929062321255836,-3.004019207027805
1687093002.061932,0.9403975009918213,0.32048091292381287,0.11377458274364471,-0.0010053515434265137,-0.034073472023010254,-0.03912854194641113,-0.2569899559020996,-0.2356473207473755,0.07884389162063599,1.6911967774548764,-0.32623713575892055,-2.9908746744402683
1687093002.144428,0.9432888031005859,0.3136614263057709,0.10873229801654816,0.015588700771331787,-0.04600706696510315,-0.012739188969135284,-0.4565486013889313,-0.2139400690793991,0.12274796515703201,1.6855591922322612,-0.31904660228672366,-2.971778688294187
1687093002.1667871,0.9459430575370789,0.3066781461238861,0.10554783791303635,-0.023457646369934082,-0.057944655418395996,0.03837299346923828,-0.26346275210380554,-0.10423842817544937,0.08162236958742142,1.681916183577557,-0.31170103842958496,-2.957443614528909
1687093002.218056,0.9473497867584229,0.30036771297454834,0.11093968152999878,-0.002373039722442627,-0.06814426183700562,0.0581887885928154,-0.5336974263191223,0.009958496317267418,0.12147484719753265,1.6873706797261108,-0.3050781441470227,-2.9342612960662438
1687093002.266792,0.949513852596283,0.2916109263896942,0.1156996339559555,0.014414310455322266,0.0017544925212860107,0.06145487725734711,-0.24220754206180573,0.023395009338855743,0.13483984768390656,1.692050014927943,-0.2959105227643233,-2.918166911917929
1687093002.337031,0.9514749646186829,0.28279218077659607,0.12134229391813278,-0.012906908988952637,0.030440181493759155,0.012568943202495575,-0.25221651792526245,0.01976243406534195,0.1557280272245407,1.6976423323908312,-0.28670388114646206,-2.904355911392375
1687093002.374605,0.9527234435081482,0.27641355991363525,0.12614795565605164,0.0020951032638549805,0.06492546200752258,0.02907964587211609,0.008620152249932289,0.09203969687223434,0.07297175377607346,1.7024383184221674,-0.28006026605564155,-2.898596878511996
1687093002.472589,0.9528900384902954,0.27351272106170654,0.1311158835887909,-0.00415956974029541,0.05511575937271118,0.02420330047607422,-0.09036395698785782,0.06882540136575699,0.04306245967745781,1.707535795601127,-0.27704312145963095,-2.8935604568402944
1687093002.48154,0.9520634412765503,0.2746632397174835,0.1346665769815445,0.010842323303222656,0.059519439935684204,0.005088672041893005,-0.0555066354572773,0.06948063522577286,-0.04411345347762108,1.71131122231027,-0.2782394639464052,-2.8936168021699755
1687093002.5218592,0.9510482549667358,0.2773577868938446,0.1363086998462677,0.007982015609741211,0.037415772676467896,-0.009416565299034119,0.0616210512816906,0.027292147278785706,-0.03670966625213623,1.7131515502509511,-0.2810429152223848,-2.8948737397479833
1687093002.571303,0.949987530708313,0.2800277769565582,0.13823267817497253,0.009958148002624512,-0.009352147579193115,-0.015536785125732422,-0.2485610544681549,-0.030109716579318047,-0.0806419625878334,1.7152922011647913,-0.2838230342283866,-2.8865204811873526
1687093002.618264,0.9493284821510315,0.28324949741363525,0.13617965579032898,0.003338634967803955,-0.0018927454948425293,-0.06452442705631256,0.11287172138690948,-0.11308933049440384,-0.040258463472127914,1.713272775692818,-0.2871806916880618,-2.8822662748069114
1687093002.677977,0.9496012330055237,0.2854931950569153,0.12942646443843842,0.006056785583496094,-0.02539190649986267,0.02117776870727539,-0.41440433263778687,-0.13098552823066711,-0.06927499920129776,1.7062572421641415,-0.28952099040175133,-2.8813776737093826
1687093002.747892,0.9508415460586548,0.2840809226036072,0.12328166514635086,0.013300299644470215,0.0020671486854553223,-0.01581406593322754,-0.33373159170150757,-0.25851473212242126,-0.012302792631089687,1.699732363832687,-0.2880477254548291,-2.86138253930769
1687093002.785431,0.9505264163017273,0.2831175625324249,0.12784233689308167,-0.001689314842224121,-0.03458249568939209,0.05004464089870453,-0.6272212266921997,-0.038103215396404266,-0.04885774105787277,1.7044903804769445,-0.2870431181823841,-2.825573132498695
1687093002.8248749,0.9506590366363525,0.2834998071193695,0.12599685788154602,-0.004522562026977539,0.009957194328308105,0.028437376022338867,-0.3475797772407532,-0.10303688049316406,-0.06019648164510727,1.7025646852728862,-0.28744167716924707,-2.8112687203854323
1687093002.868562,0.949793815612793,0.2828806936740875,0.1336800903081894,-0.002329707145690918,-0.028409868478775024,-0.012601599097251892,-0.6925534009933472,-0.003964243922382593,-0.06973958760499954,1.7106242813813979,-0.2867961607304401,-2.7816682258478393
1687093002.925953,0.948998212814331,0.28062868118286133,0.1437000036239624,0.0009986162185668945,0.024135053157806396,0.058402642607688904,-0.7126762270927429,0.02383052557706833,-0.04495654255151749,1.7210775180635247,-0.28444904653486486,-2.743947551927043
1687093002.965086,0.9483731985092163,0.27653056383132935,0.15530434250831604,-0.013619661331176758,-0.0002549588680267334,0.015105858445167542,-0.524084210395813,0.06797885149717331,-0.020852137356996536,1.7331142850231207,-0.2801820097025501,-2.7086281356059625
1687093003.044557,0.9476522207260132,0.2747498154640198,0.16268880665302277,-0.016576290130615234,0.001357942819595337,0.01561020314693451,-0.05710320174694061,0.07061906903982162,0.014615440741181374,1.740814613238976,-0.27832948692731435,-2.6922180556169355
1687093003.08413,0.946923553943634,0.27386751770973206,0.1683221310377121,0.002493560314178467,-0.030321985483169556,0.032102108001708984,-0.15416477620601654,0.12737667560577393,0.004376784898340702,1.746715645110361,-0.2774120131305342,-2.688223483214958
1687093003.123359,0.9461205005645752,0.27311548590660095,0.17396503686904907,0.02307194471359253,0.004685938358306885,-0.04562331736087799,0.22393378615379333,0.11169301718473434,0.024701165035367012,1.7526371761885473,-0.27663015430683746,-2.691018499131989
1687093003.180702,0.9454156756401062,0.27315521240234375,0.1776943802833557,0.027042150497436523,-0.012184202671051025,0.009469971060752869,0.12028862535953522,0.10864613950252533,0.040748175233602524,1.7565825315336827,-0.27667145200539006,-2.7013049590303573
1687093003.229645,0.9452908635139465,0.2719357907772064,0.1802106499671936,0.008978426456451416,-0.0033812224864959717,-0.010975390672683716,0.09623388946056366,0.07895603030920029,0.021778877824544907,1.759176320297441,-0.27540406906281323,-2.7047002641314806
1687093003.291322,0.945489227771759,0.2724462151527405,0.17839062213897705,-0.04519015550613403,0.025008559226989746,-0.035965099930763245,0.2254621833562851,0.024915384128689766,0.007538023870438337,1.7572795814672444,-0.2759345247045273,-2.7182597846429184
1687093003.350124,0.9448347687721252,0.2724037170410156,0.18188819289207458,0.010472118854522705,-0.0111733078956604,-0.019809260964393616,0.16042432188987732,0.08785317838191986,0.018651727586984634,1.7609777130627304,-0.2758903550307985,-2.7192786942713285
1687093003.366026,0.9446724057197571,0.2731066644191742,0.18167825043201447,0.01064985990524292,-0.011418431997299194,0.006401538848876953,-0.06147477775812149,0.06391509622335434,0.020051751285791397,1.7607953055671042,-0.2766209823257135,-2.727084101713058
1687093003.442426,0.9445579051971436,0.27174142003059387,0.18430118262767792,0.01888197660446167,0.03560104966163635,-0.02083374559879303,0.0886518657207489,0.032576724886894226,0.015687430277466774,1.7634942363119057,-0.27520208741602015,-2.7271712521176568
1687093003.478773,0.9445013999938965,0.2728140354156494,0.18300126492977142,7.861852645874023e-05,0.026822715997695923,-0.002474561333656311,0.2960412800312042,0.02871234342455864,0.011227833107113838,1.7621793137841235,-0.2763168058771533,-2.737803999514438
1687093003.5247478,0.9440594911575317,0.2741128206253052,0.18334127962589264,-0.0003795623779296875,0.0038870275020599365,0.02239300310611725,-0.06166918948292732,0.045199573040008545,-0.015408704057335854,1.7626138210888687,-0.27766707443506417,-2.741239653110358
1687093003.5685492,0.9436298608779907,0.27547773718833923,0.18350628018379211,-0.009914100170135498,0.018177568912506104,-0.01956583559513092,-0.1463364064693451,-0.024323511868715286,-0.022669613361358643,1.7628675145862227,-0.2790866467699407,-2.7400518540600634
1687093003.650249,0.9432497024536133,0.27667543292045593,0.18365997076034546,0.0009337067604064941,0.03303217887878418,-0.030843138694763184,0.08277613669633865,-0.04392156004905701,-0.036807067692279816,1.7631000289233916,-0.2803327611000365,-2.736424362492712
1687093003.69025,0.9432328939437866,0.2789054811000824,0.18034261465072632,-0.002131819725036621,-0.007909446954727173,0.013047337532043457,0.006600677501410246,-0.017824621871113777,-0.02336663007736206,1.7597126104563952,-0.2826541867528579,-2.7394714890498495
1687093003.737488,0.9429515600204468,0.28043073415756226,0.17944559454917908,0.00019407272338867188,-0.013691902160644531,0.012494787573814392,0.0030530805233865976,0.0063903480768203735,-0.0003502592444419861,1.758849750370801,-0.2842428297157445,-2.740445747907241
1687093003.782271,0.9431496858596802,0.2794923484325409,0.1798694133758545,-0.008274078369140625,-0.01836872100830078,0.0201275497674942,-0.09348118305206299,0.004576070234179497,0.014867443591356277,1.7592448087301433,-0.2832653473265983,-2.739797943739874
1687093003.817144,0.9429542422294617,0.27868080139160156,0.18213754892349243,0.0006033778190612793,0.0020197927951812744,0.00563715398311615,0.11364883184432983,0.058273229748010635,0.010072221048176289,1.7616028309634941,-0.2824202295165796,-2.7400890387493346
1687093003.937636,0.9425022602081299,0.2787407636642456,0.18437150120735168,0.0007501840591430664,-0.010247200727462769,0.031586140394210815,0.07433311641216278,0.0808519497513771,0.0077336993999779224,1.7639760172640155,-0.28248264552684454,-2.7459991974192373
1687093003.959251,0.9422520995140076,0.2783367335796356,0.18625101447105408,0.00866025686264038,-0.0018170177936553955,0.010633215308189392,0.0058731017634272575,0.050247639417648315,0.03134695068001747,1.765946462656171,-0.2820619813307334,-2.751161517233451
1687093003.9917688,0.9420365691184998,0.277256578207016,0.1889340579509735,0.0026503801345825195,-8.07046890258789e-05,-0.0019681453704833984,0.25820040702819824,0.07112283259630203,0.050267111510038376,1.7687294793988224,-0.28093754937066096,-2.755998078299188
1687093004.033547,0.9421618580818176,0.2786127030849457,0.18629588186740875,-0.0010912418365478516,0.006833434104919434,-0.0016340017318725586,0.4759671092033386,0.06614862382411957,0.03731070086359978,1.7660105146295138,-0.28234931446111045,-2.7773349018091062
1687093004.080099,0.9435132741928101,0.2847258746623993,0.16945171356201172,0.05016958713531494,0.10173344612121582,-0.09566020965576172,2.241377353668213,-0.05590298771858215,0.16643886268138885,1.7484984309382963,-0.28872045351294273,-2.841979552706173
1687093004.118475,0.9467827677726746,0.29661160707473755,0.12499602138996124,0.04537421464920044,0.015400081872940063,-0.08140159398317337,3.515998125076294,-0.13255681097507477,0.30832788348197937,1.7020590712930748,-0.30114261596894587,-2.9876593075606483
1687093004.176755,0.9551003575325012,0.2943096160888672,0.034133430570364,0.023888230323791504,0.22937199473381042,-0.1060481071472168,7.112185955047607,-0.21257896721363068,0.5864776968955994,1.6065191805254262,-0.2987330454856008,3.007672088556266
1687093004.259646,0.96583491563797,0.24625730514526367,-0.0807478055357933,0.027786850929260254,0.08221858739852905,-0.06370710581541061,8.928223609924316,0.050368811935186386,0.9350141882896423,1.487386150528041,-0.24881674085404434,2.5940465388259963
1687093004.276102,0.9778902530670166,0.14656442403793335,-0.14916300773620605,-0.032089412212371826,0.06902699172496796,0.21038132905960083,9.369156837463379,1.0794947147369385,0.8170053958892822,1.4194275706628925,-0.14709429041315247,2.132489783874181
1687093004.3210258,0.9924184679985046,0.053057413548231125,-0.11086253076791763,0.26354771852493286,0.09832504391670227,0.1544722318649292,8.551335334777832,1.994132161140442,0.20010261237621307,1.45954809487773,-0.05308233893824602,1.6729579650150608
1687093004.398809,0.9994426965713501,0.03288919851183891,-0.005711778532713652,0.2544788122177124,0.14397543668746948,0.38579297065734863,7.927435874938965,2.612739086151123,-0.550001859664917,1.5650814254514878,-0.03289512894601188,1.2641561424652592
1687093004.4361072,0.9907181262969971,0.10605419427156448,0.08503086119890213,0.34172511100769043,0.269083172082901,0.27420687675476074,7.754762172698975,2.034079074859619,-1.6903610229492188,1.6564140061159442,-0.10625401648046211,0.8715525635804245
1687093004.5012321,0.958114743232727,0.25892871618270874,0.1223592609167099,0.2593533992767334,0.44209057092666626,0.4115304946899414,7.286733627319336,1.9143846035003662,-2.9561691284179688,1.697817119359381,-0.2619129374918334,0.5099031190518596
1687093004.546838,0.8844448328018188,0.4637085497379303,0.0522637702524662,0.4826357364654541,0.2817290723323822,0.18192815780639648,5.535578727722168,0.24065308272838593,-4.207627773284912,1.6298198645675894,-0.48217642546319367,0.15767994464175314
1687093004.5819712,0.7671791911125183,0.6366757154464722,-0.07797615230083466,0.3110373616218567,-0.3114193081855774,-0.07926571369171143,3.0585501194000244,-1.0679537057876587,-3.8844823837280273,1.4695040974076639,-0.6901795994722997,-0.08035863856958252
1687093004.624363,0.642062246799469,0.7482995986938477,-0.16674531996250153,0.095944344997406,-0.8633660674095154,0.11008942127227783,0.06589515507221222,-1.6592788696289062,-2.7411136627197266,1.3167067223481514,-0.8454950116975068,-0.20484230865750003
1687093004.693056,0.5463914275169373,0.8004053831100464,-0.2465919405221939,-0.015492439270019531,-0.6914881467819214,-0.07118760049343109,0.30501747131347656,-1.463689923286438,-1.2657519578933716,1.1468534898113802,-0.9279711447625386,-0.320956606161488
1687093004.733253,0.4899391829967499,0.8155449032783508,-0.3079710900783539,-0.11699911952018738,-0.42014384269714355,0.0009948015213012695,1.0372381210327148,-1.0581212043762207,-0.6599650979042053,1.0096192956093297,-0.9536702287705642,-0.40695522909362286
1687093004.7740932,0.4632379114627838,0.8100907802581787,-0.3593934178352356,-0.2272760272026062,-0.2429521083831787,0.6128419041633606,1.4487231969833374,0.45182254910469055,-0.26172420382499695,0.9109685289448344,-0.9443068974823149,-0.5015418463880155
1687093004.85611,0.4695862829685211,0.792400062084198,-0.3893466889858246,-0.014111489057540894,-0.303477942943573,0.14615216851234436,0.592420220375061,0.5032715797424316,-0.04379966855049133,0.8785456060630646,-0.9147334768741456,-0.5826554666887483
1687093004.8945189,0.4643428325653076,0.782814085483551,-0.41423147916793823,-0.059664636850357056,0.37136054039001465,-0.1246633529663086,0.5101985931396484,0.262801855802536,-0.5479815602302551,0.8423735314432422,-0.8991754079034237,-0.6468526751166956
1687093004.9393358,0.45266830921173096,0.7858926057815552,-0.4212649166584015,0.13996773958206177,0.019695162773132324,0.0553133487701416,0.18548600375652313,0.05696086958050728,-0.15356823801994324,0.8213161161465754,-0.9041383426316708,-0.68795014126659
1687093004.9828029,0.4488416314125061,0.7848747968673706,-0.4272153079509735,0.032176464796066284,0.060370683670043945,0.007461249828338623,0.1012376993894577,0.0693124309182167,-0.10404995828866959,0.8100791404687738,-0.9024940071847463,-0.7043127731471835
1687093005.026448,0.44660016894340515,0.7839332818984985,-0.4312734305858612,-0.04630115628242493,0.04236060380935669,0.07098296284675598,0.09012672305107117,0.06725975126028061,-0.0921885073184967,0.8028553276668559,-0.9009761335446549,-0.7163937828301625
1687093005.098007,0.4428218901157379,0.785024881362915,-0.43317970633506775,0.017596781253814697,0.006234884262084961,-0.11749470233917236,0.1652587652206421,-0.12942250072956085,0.014364836737513542,0.7964047294457595,-0.9027363125264661,-0.7219251356774952
1687093005.146755,0.441575288772583,0.784984827041626,-0.4345228374004364,0.031584471464157104,0.010837316513061523,0.11858966946601868,-0.3456045091152191,-0.07860210537910461,-0.01561170257627964,0.7934478261829518,-0.9026716226107995,-0.7208870679822756
1687093005.230454,0.4385809004306793,0.7923032641410828,-0.4241490066051483,0.011217653751373291,0.03771388530731201,-0.030486583709716797,-0.10893071442842484,-0.06806711107492447,0.002366431523114443,0.802124768680541,-0.9145748251534502,-0.702160829516313
1687093005.246646,0.4383266270160675,0.7935367822647095,-0.42210081219673157,0.00985446572303772,-0.027820289134979248,0.0006988346576690674,-0.07902155071496964,-0.017448805272579193,0.009458296000957489,0.8042537682617967,-0.9165992996811567,-0.6961649076713515
1687093005.279325,0.4384079873561859,0.7951526045799255,-0.4189639389514923,0.0094221830368042,0.017683088779449463,-0.009640216827392578,-0.0984322652220726,0.04919113963842392,-0.02484634891152382,0.8080729160244978,-0.9192592327940302,-0.6932877044320707
1687093005.324955,0.438385933637619,0.7968304753303528,-0.41578710079193115,-0.004487037658691406,-0.010926544666290283,-0.02632102370262146,0.030511869117617607,0.019390901550650597,-0.016705596819519997,0.811848954837107,-0.9220310922619398,-0.6923296023100497
1687093005.389728,0.4383787512779236,0.7955843806266785,-0.41817423701286316,-0.009988248348236084,-0.011358857154846191,0.05470991134643555,0.01789620891213417,0.03802834451198578,-0.017239227890968323,0.8089819406592519,-0.9199715554934589,-0.6963357795797928
1687093005.44527,0.43795666098594666,0.7992669939994812,-0.41154131293296814,-0.00018203258514404297,0.013339817523956299,-0.018130868673324585,-0.18478873372077942,-0.018851492553949356,0.022250790148973465,0.8164833932252505,-0.9260745612795064,-0.6885175862061717
1687093005.497958,0.4427550137042999,0.8023236393928528,-0.40030574798583984,0.020105034112930298,-0.02295053005218506,0.15128237009048462,-0.71781986951828,0.008222203701734543,0.24385829269886017,0.8357070544482751,-0.9311780067866623,-0.6651508277221512
1687093005.536377,0.4608428478240967,0.818610668182373,-0.3427833318710327,0.07355040311813354,-0.03328657150268555,0.06765210628509521,-2.3871028423309326,-0.3864322602748871,0.7372211217880249,0.9312632806490297,-0.9589878835454495,-0.5373986889792582
1687093005.580132,0.49969756603240967,0.8397845029830933,-0.21228380501270294,0.016537755727767944,-0.19735896587371826,-0.025615975260734558,-4.5182881355285645,-0.5001577138900757,1.9450843334197998,1.1690742780144427,-0.9968861684981956,-0.21567310111947208
1687093005.6324859,0.6112881302833557,0.790033221244812,0.04662894457578659,0.08262050151824951,-1.1247652769088745,0.2188587188720703,-7.61745548248291,-1.0446112155914307,3.1940040588378906,1.6469287017202354,-0.9108631372466459,0.407347691164689
1687093005.683907,0.750908374786377,0.6277394890785217,0.2051340788602829,0.06322431564331055,-0.48729753494262695,-0.23964941501617432,-4.7091546058654785,-1.866499662399292,3.5254244804382324,1.8374708786855256,-0.6786458060504764,0.7847997441370211
1687093005.747136,0.8686699867248535,0.43620118498802185,0.23482158780097961,0.07742071151733398,0.15887638926506042,0.05672812461853027,-4.465205669403076,-2.3409183025360107,3.437011480331421,1.8348092991632239,-0.45137272174725523,0.9816885218015386
1687093005.785847,0.9459577798843384,0.25549593567848206,0.1997140794992447,0.21396958827972412,0.27428925037384033,0.2930837869644165,-5.816496849060059,-3.0730600357055664,2.0991578102111816,1.7788644850171396,-0.2583606296610317,1.2189739461078979
1687093005.83779,0.9846978783607483,0.13944561779499054,0.10452336072921753,0.10804504156112671,0.35667866468429565,0.23103272914886475,-7.6308488845825195,-3.3639495372772217,0.2228611260652542,1.6765479758715014,-0.13990154679528813,1.5572462654830865
1687093005.8820472,0.9881669282913208,0.15240539610385895,-0.017292337492108345,0.22864532470703125,0.15522705018520355,0.7219127416610718,-7.797370910644531,-3.297226905822754,-1.3095685243606567,1.5532987029792453,-0.15300164665378832,1.9376328566391328
1687093005.928852,0.9599952697753906,0.2699437737464905,-0.07442695647478104,0.0444602370262146,0.36048829555511475,0.5123847723007202,-6.839937210083008,-2.272820234298706,-2.6197073459625244,1.4934226421216363,-0.27333463831908356,2.324062591166789
1687093005.996036,0.910496175289154,0.41133517026901245,-0.04242854565382004,0.10932499170303345,-0.21078890562057495,0.2630401849746704,-6.945805072784424,-1.2037529945373535,-2.397408962249756,1.5242306483127894,-0.423918405262606,2.67498014235452
1687093006.045546,0.8601601123809814,0.5057066679000854,0.06622307747602463,0.05300217866897583,-0.23056018352508545,0.27432262897491455,-6.101390361785889,-0.3785407543182373,-1.7422473430633545,1.647633996709281,-0.5302008754507223,3.0386905342460357
1687093006.094614,0.8253340721130371,0.5356629490852356,0.17857441306114197,0.019545018672943115,0.19619429111480713,-0.192703977227211,-4.304854869842529,-0.38576069474220276,-1.0763076543807983,1.783877964061419,-0.5652926309923293,-2.9450007745472493
1687093006.137902,0.8103548884391785,0.5163769721984863,0.27691134810447693,0.2330564260482788,0.1398424506187439,-0.13740015029907227,-3.457505702972412,-0.3164343237876892,-0.4042796194553375,1.900072344143033,-0.542614815048321,-2.7045496850587605
1687093006.17974,0.8092876672744751,0.4792168140411377,0.33971261978149414,0.008949577808380127,0.04899662733078003,-0.10748913884162903,-1.778421401977539,-0.35553446412086487,-0.02517618052661419,1.9682266331498153,-0.49976216614378877,-2.544599059920444
1687093006.2437491,0.8158971667289734,0.4505891501903534,0.3623273968696594,0.042043447494506836,-0.05891138315200806,0.060508936643600464,-1.6806726455688477,-0.045132387429475784,0.1404878795146942,1.988720167912941,-0.4674251560930772,-2.467013547635048
1687093006.349081,0.8187052607536316,0.4278069734573364,0.38301828503608704,0.043111205101013184,0.1335485875606537,-0.09120917320251465,-0.3423227071762085,0.07385554164648056,0.15468953549861908,2.008381781518185,-0.4420651137098135,-2.421353651152124
1687093006.3650641,0.8169847726821899,0.4184131920337677,0.3968198895454407,0.019975006580352783,0.14034828543663025,-0.030120670795440674,0.12637288868427277,0.19804073870182037,0.09000840038061142,2.022948925968529,-0.43169751871203704,-2.411348079964464
1687093006.376968,0.8146880865097046,0.42035141587257385,0.3994850516319275,0.01947951316833496,0.09850847721099854,-0.00666278600692749,-0.058380719274282455,0.19376240670681,-0.03066462092101574,2.026696902413404,-0.43383257700867955,-2.4236510901486557
1687093006.457108,0.8114328980445862,0.4223676919937134,0.40395793318748474,0.025633692741394043,0.06837016344070435,-0.1370970606803894,0.12124097347259521,-0.006364062428474426,-0.05773046240210533,2.0327087056566184,-0.4360558491130745,-2.4226051642712254
1687093006.514694,0.810559093952179,0.4292639195919037,0.39840495586395264,-0.015332043170928955,0.025142788887023926,-0.030561327934265137,0.04748179763555527,0.011716803535819054,-0.07357028126716614,2.027635903301755,-0.4436776454927096,-2.431667174857708
1687093006.554008,0.8087186217308044,0.4339055120944977,0.39711514115333557,-0.00018578767776489258,-0.009482234716415405,-0.030583679676055908,0.06590767204761505,-0.007122686132788658,-0.07989615201950073,2.027252195251113,-0.44882312583751877,-2.431118373731595
1687093006.5930362,0.8075571656227112,0.442922443151474,0.38944971561431885,0.010756373405456543,-0.006780564785003662,-0.023803293704986572,0.3538651466369629,0.006083108019083738,-0.049195297062397,2.020148670216157,-0.45885567930655047,-2.4466936930018273
1687093006.646356,0.8074758052825928,0.4450601637363434,0.3871743381023407,0.027088284492492676,-0.04260966181755066,-0.01919347047805786,0.19521932303905487,-0.03214106336236,0.003609861247241497,2.017899469403684,-0.46124143663969924,-2.4523145544469065
1687093006.6859388,0.8100705742835999,0.4430539011955261,0.38404279947280884,0.004733443260192871,-0.0605161190032959,0.022863328456878662,-0.04594508931040764,-0.0806855633854866,0.06153188645839691,2.0134983259325563,-0.45900229584138075,-2.452756789663987
1687093006.730849,0.8127307891845703,0.4404524564743042,0.38140571117401123,0.0043773651123046875,-0.008735597133636475,0.00899040699005127,0.02476396970450878,-0.047835737466812134,0.040792517364025116,2.0095747817510303,-0.4561025849052709,-2.454398429983284
1687093006.7835588,0.8146040439605713,0.44131234288215637,0.3763824701309204,0.0025652050971984863,0.01651233434677124,0.02092587947845459,0.07750707119703293,-0.004009606316685677,0.024060141295194626,2.003620353223476,-0.4570606104266206,-2.4637620067594166
1687093006.850395,0.8154413104057312,0.44013091921806335,0.37595251202583313,-0.0007745623588562012,0.01981469988822937,-0.03511694073677063,0.14464935660362244,-0.05273398011922836,0.04716845974326134,2.0027945633183837,-0.4557444845629017,-2.465029557863966
1687093006.885553,0.8164715766906738,0.43963369727134705,0.3742942214012146,0.010066449642181396,0.013460695743560791,0.03143686056137085,0.11358198523521423,0.004912227392196655,0.02007731795310974,2.000637653540986,-0.4551908068834129,-2.4688442652731637
1687093006.953028,0.8169946074485779,0.4417828321456909,0.37060508131980896,-0.00565415620803833,0.024235904216766357,-0.004561871290206909,0.013842877000570297,0.024996768683195114,0.033244919031858444,1.9966565464699868,-0.4575849727676961,-2.4774469234544827
1687093006.991348,0.8160250186920166,0.44221025705337524,0.37222787737846375,0.0017394423484802246,0.025380074977874756,0.008295804262161255,-0.02283630706369877,0.04449181631207466,-0.022667348384857178,1.9987508430234975,-0.45806146815918636,-2.478429303251844
1687093007.037374,0.8145429491996765,0.4442516565322876,0.3730415999889374,-0.008222818374633789,0.02549007534980774,-0.014612734317779541,0.1262783408164978,0.055935751646757126,-0.025045884773135185,2.000263757197626,-0.4603387839793568,-2.4810728698733855
1687093007.1040459,0.8126914501190186,0.44541454315185547,0.375683456659317,0.017218708992004395,-0.004008382558822632,-0.021344006061553955,0.13977336883544922,0.03884793445467949,0.0003369692713022232,2.0038076023771243,-0.4616372250525019,-2.481070023214017
1687093007.1399841,0.8123365044593811,0.44857412576675415,0.37268054485321045,0.0025591254234313965,-0.010997891426086426,-0.011657506227493286,0.07672809809446335,0.02465861104428768,0.009644185192883015,2.0009244250327987,-0.4651693081795508,-2.4894869141641003
1687093007.187196,0.8123052716255188,0.4495095908641815,0.3716196119785309,-0.0012091398239135742,-0.01718240976333618,-0.011329084634780884,0.022075774148106575,-0.0038081826642155647,0.0010003629140555859,1.999859487941077,-0.46621624972714504,-2.492555523579802
1687093007.250587,0.8142961263656616,0.45249807834625244,0.36354824900627136,0.011540055274963379,0.002930939197540283,-0.04297637939453125,0.4930427670478821,-0.10565228015184402,0.06503626704216003,1.9907000290062702,-0.4695646300935514,-2.506744138797794
1687093007.288518,0.8191404342651367,0.46518832445144653,0.33557265996932983,0.016171514987945557,0.08312100172042847,-0.06140267848968506,1.8560645580291748,-0.19253389537334442,0.1518295556306839,1.9596062047994878,-0.48384734950804975,-2.5590745956432914
1687093007.3690372,0.8301443457603455,0.5034166574478149,0.23964959383010864,0.06426477432250977,0.161820650100708,-0.04496265947818756,5.793938159942627,-0.03620089963078499,0.6434183120727539,1.8518396310130814,-0.5275485164689981,-2.7640391026516737
1687093007.3844361,0.8502537608146667,0.5237107872962952,0.052871618419885635,0.025234460830688477,0.20433169603347778,0.09591685980558395,9.039634704589844,0.5878586173057556,0.9441268444061279,1.6328997013356101,-0.5512010838792368,3.0741483501058435
1687093007.4609241,0.8814955949783325,0.43894609808921814,-0.17404593527317047,0.02513587474822998,0.39337509870529175,0.14079701900482178,12.310774803161621,1.5399070978164673,1.1171129941940308,1.3758597504829475,-0.4544253822486097,2.444400238332179
1687093007.549407,0.9238852858543396,0.26263248920440674,-0.27831676602363586,0.1356545090675354,-0.03460514545440674,0.48209792375564575,9.562785148620605,2.546720266342163,0.7435257434844971,1.2781967916434038,-0.2657494566945231,1.8828314127787267
1687093007.5646582,0.9688299298286438,0.11941522359848022,-0.21704527735710144,0.2982599139213562,-0.005309969186782837,0.31975221633911133,10.325167655944824,3.4878883361816406,-0.042152635753154755,1.350406998571585,-0.11970086758770455,1.4259479775862123
1687093007.5840092,0.9928814172744751,0.0732816681265831,-0.09389578551054001,0.2930377721786499,0.4049898087978363,0.6902245283126831,10.072510719299316,3.235557794570923,-1.5765392780303955,1.476507756177109,-0.07334741710153878,0.8796539640275343
1687093007.658221,0.9842333793640137,0.17671950161457062,0.007419401314109564,0.24699842929840088,0.25185418128967285,0.5307581424713135,6.391286373138428,2.5351924896240234,-3.3182337284088135,1.5783344380055793,-0.17765249770997135,0.44043583229851685
1687093007.688782,0.9275251626968384,0.3735557794570923,0.012383203022181988,0.3020738363265991,0.3244270086288452,-0.07437968254089355,5.434398651123047,0.8522249460220337,-4.292319297790527,1.5841463334478787,-0.38283936759505693,0.15509244841466838
1687093007.750413,0.8290543556213379,0.5525903105735779,-0.08551570028066635,0.3063216209411621,-0.3213738203048706,-0.09983277320861816,2.5467946529388428,-0.9154874086380005,-3.6440303325653076,1.468011344032932,-0.585468940110056,-0.08209973988884701
1687093007.789283,0.7210307121276855,0.6721041202545166,-0.16849587857723236,0.18392229080200195,-0.6397554874420166,-0.052680253982543945,0.04306308180093765,-1.527406096458435,-2.674057960510254,1.3412285169446787,-0.7370467976681112,-0.18248863246292377
1687093007.850432,0.6272132396697998,0.7431330680847168,-0.233145609498024,0.1364281177520752,-0.470824658870697,-0.09459793567657471,0.6878135800361633,-1.3103445768356323,-1.782913088798523,1.2149073029361515,-0.8377404303059409,-0.2516086648120062
1687093007.8900142,0.5589944124221802,0.77751624584198,-0.2880863547325134,0.09797269105911255,-0.5528305172920227,0.15817302465438843,0.4661320447921753,-0.8932144641876221,-1.061935305595398,1.0949321193581103,-0.8907065286488659,-0.3375989010429114
1687093007.99241,0.5151787996292114,0.7892416715621948,-0.33419838547706604,0.0180395245552063,-0.22303372621536255,-0.019591927528381348,1.0804897546768188,-0.4643632173538208,-0.5164082050323486,0.9953329725643093,-0.9095731077248274,-0.4214928724144528
1687093008.008672,0.49104127287864685,0.7913872599601746,-0.36412185430526733,0.011278033256530762,-0.18739855289459229,-0.058394014835357666,0.8443523645401001,-0.19707797467708588,-0.43850889801979065,0.9327380621567022,-0.9130750119159677,-0.4732612347479002
1687093008.040639,0.4860181212425232,0.7759419083595276,-0.40212002396583557,0.0006761550903320312,-0.3058033585548401,0.42561855912208557,0.11816634982824326,0.42946866154670715,-0.1324128806591034,0.8795838060746305,-0.8882068682845081,-0.5608595789165712
1687093008.086575,0.4908462166786194,0.7648793458938599,-0.41716867685317993,0.029081732034683228,0.17004191875457764,-0.2209690809249878,0.5520523190498352,0.08417116850614548,-0.07384844869375229,0.8663620951327918,-0.8708540423042881,-0.5960744499622336
1687093008.154365,0.48682764172554016,0.7679862976074219,-0.41616830229759216,-0.05422568321228027,0.039066433906555176,0.12400823831558228,0.038384173065423965,0.17895101010799408,-0.11474614590406418,0.8634889290826258,-0.8756911119460077,-0.6094322875384162
1687093008.195591,0.4877372980117798,0.7678229808807373,-0.4154035449028015,0.0062049031257629395,-0.00781327486038208,0.012052744626998901,-0.23653768002986908,0.09493113309144974,-0.0635974109172821,0.8653188913704768,-0.875436092728423,-0.6130785569249021
1687093008.279633,0.48592448234558105,0.7732242941856384,-0.4074329435825348,0.040351152420043945,0.07386738061904907,-0.1233440637588501,-0.09350594878196716,-0.06784426420927048,-0.048494286835193634,0.8730343986715434,-0.8839100975031418,-0.6046525354663843
1687093008.295614,0.4849737286567688,0.7740585803985596,-0.4069814682006836,0.0165979266166687,-0.00855553150177002,0.13902181386947632,-0.1803250014781952,0.04456094652414322,-0.007794726639986038,0.8726160083452544,-0.8852267506383711,-0.6045945052006445
1687093008.337697,0.48387303948402405,0.7764778137207031,-0.40366941690444946,-0.018876761198043823,0.0597800612449646,-0.16546812653541565,0.07863039523363113,-0.13344846665859222,0.029727350920438766,0.8755193182223521,-0.8890569510472871,-0.5971770908030228
1687093008.412056,0.48322567343711853,0.7757092118263245,-0.4059164822101593,-0.031931787729263306,-0.04397398233413696,0.1277182400226593,-0.17477551102638245,-0.02401389554142952,-0.026499304920434952,0.8721281185716582,-0.887838099343552,-0.5995135306319012
1687093008.448591,0.48069292306900024,0.7782171964645386,-0.40411922335624695,-0.025752156972885132,0.032695889472961426,0.004949331283569336,0.12102791666984558,0.02040674351155758,-0.04016212001442909,0.8717254128824113,-0.891821898942506,-0.5973413645550977
1687093008.4880838,0.47897523641586304,0.779388427734375,-0.40390148758888245,0.04556089639663696,0.00927734375,0.004685759544372559,0.014199741184711456,0.03948673605918884,-0.05565306544303894,0.8702272262352447,-0.8936891076937263,-0.6001105815347919
1687093008.5836859,0.47798866033554077,0.7808007597923279,-0.402339369058609,0.024208545684814453,0.004294455051422119,-0.04407179355621338,-0.034977659583091736,-0.023802774026989937,-0.018037576228380203,0.8711206430292445,-0.8959464477005938,-0.6000640247753084
1687093008.599162,0.47854748368263245,0.7810630202293396,-0.40116453170776367,0.003019869327545166,0.005313992500305176,0.06684446334838867,-0.10307975113391876,0.050375428050756454,0.02902427315711975,0.8731362869509136,-0.8963663625438494,-0.5991724394105136
1687093008.640176,0.4793391227722168,0.7826744318008423,-0.39705756306648254,-0.009719401597976685,0.020166754722595215,-0.044653892517089844,-0.008841929025948048,-0.0377824641764164,0.03195727989077568,0.8790099819851275,-0.8989510738299601,-0.5899174974329588
1687093008.689035,0.4800984263420105,0.7820103168487549,-0.3974483609199524,-0.011501133441925049,-0.011731505393981934,0.04835754632949829,-0.12323614954948425,-0.02947031334042549,0.010900931432843208,0.8793042471039039,-0.8978848108071092,-0.5883279058200098
1687093008.763233,0.480026513338089,0.7826224565505981,-0.39632874727249146,0.0024410784244537354,0.02565079927444458,-0.014620929956436157,0.07059803605079651,0.00938201043754816,0.018459247425198555,0.8806160325056226,-0.8988675712876827,-0.5841014996575962
1687093008.8075309,0.48079007863998413,0.7844879031181335,-0.3916882276535034,0.015166312456130981,-0.021304309368133545,-0.026356786489486694,-0.1696673035621643,-0.07340101897716522,0.057926762849092484,0.8871703055027762,-0.9018699284981795,-0.5750998535613067
1687093008.883115,0.4829472303390503,0.7828417420387268,-0.3923276960849762,-0.017035365104675293,0.0035200119018554688,0.07209146022796631,-0.13362860679626465,-0.013613875955343246,0.08049352467060089,0.8885632538032747,-0.8992198602588006,-0.5705736127674579
1687093008.898398,0.48624929785728455,0.7870907783508301,-0.3795386552810669,0.02176147699356079,-0.0015073418617248535,-0.0007713437080383301,-0.7505333423614502,-0.04261001944541931,0.1378369778394699,0.908032315047826,-0.906078336763956,-0.5440792249962618
1687093008.939193,0.4899434745311737,0.8038105964660645,-0.3374078869819641,0.0631571114063263,0.1451641321182251,-0.2654974162578583,-1.409506916999817,-0.4960181415081024,0.32354626059532166,0.9677170080946121,-0.9336733987846182,-0.4521949540651227
1687093009.038188,0.5094571709632874,0.8179293870925903,-0.2672919034957886,-0.08074629306793213,-0.43671900033950806,0.3259009122848511,-3.150820255279541,-0.14110054075717926,1.1197178363800049,1.087615776941087,-0.9578026715257681,-0.2799612180416901
1687093009.070816,0.5943514704704285,0.7986896634101868,-0.09402858465909958,0.09839755296707153,-1.154600739479065,0.10513697564601898,-5.239369869232178,-0.2347421795129776,2.858853340148926,1.4138930556991862,-0.925114473182409,0.126135532758514
1687093009.110529,0.7295834422111511,0.6799836754798889,0.07300788909196854,0.0755159854888916,-0.6802278161048889,0.02948545664548874,-4.487311363220215,-0.7358396649360657,4.095848560333252,1.6705322113924412,-0.7477403613347031,0.4962217113521003
1687093009.186368,0.8629960417747498,0.47922149300575256,0.15995220839977264,0.18763262033462524,-0.3115883767604828,0.03975486755371094,-4.86130952835083,-1.4654269218444824,4.446430206298828,1.7540619017833927,-0.49976749141499754,0.7373668580041478
1687093009.202567,0.9563018083572388,0.25184693932533264,0.14852747321128845,0.5956087112426758,0.44686833024024963,-0.040983423590660095,-5.306453704833984,-3.085496664047241,3.320742607116699,1.7248796628664527,-0.2545882334540687,0.9758673172677464
1687093009.250572,0.993273913860321,0.10607646405696869,0.04642050713300705,0.33834540843963623,0.2155330926179886,0.5765196084976196,-9.487923622131348,-3.566673517227173,0.9132620096206665,1.6174971965085663,-0.1062764082634882,1.3327377933970466
1687093009.292702,0.9846935868263245,0.1438070684671402,-0.09847873449325562,0.14427369832992554,0.387900710105896,0.6693406105041504,-10.27314281463623,-3.641389846801758,-1.73601496219635,1.4711182461807066,-0.14430739830732203,1.831974836368831
1687093009.364295,0.9346886873245239,0.3307635486125946,-0.13020239770412445,0.02049630880355835,0.475358247756958,0.4238578677177429,-7.651381969451904,-2.3719022274017334,-3.189929723739624,1.432386709154013,-0.33711254512289984,2.309745354099188
1687093009.4058352,0.8616998195648193,0.5039592385292053,-0.05914916843175888,0.010523080825805664,-0.15393787622451782,0.38422244787216187,-7.274127006530762,-1.0822354555130005,-2.801143169403076,1.5022614060199289,-0.5281765583861151,2.6813871949106813
1687093009.488224,0.794221043586731,0.5986161231994629,0.10426618158817291,0.18716317415237427,-0.17019522190093994,0.1940278708934784,-6.59189510345459,-0.1711188405752182,-1.893781065940857,1.701330901350915,-0.6417724166885601,3.0944885134227684
1687093009.4976501,0.7495748400688171,0.607255220413208,0.26339808106422424,0.17416167259216309,0.030928313732147217,-0.18284693360328674,-4.424753665924072,-0.19866648316383362,-1.14713454246521,1.9087148404173826,-0.6526013102177751,-2.831700169766936
1687093009.544488,0.7327845096588135,0.5674027800559998,0.3756074011325836,0.07828110456466675,0.02288341522216797,-0.20628061890602112,-3.2800190448760986,-0.4166073203086853,-0.22339792549610138,2.0444536555525024,-0.6033483010715097,-2.585160198505137
1687093009.613175,0.7415771484375,0.5133132934570312,0.4319412112236023,0.07894903421401978,0.02501678466796875,-0.08733659982681274,-1.8513948917388916,-0.31613829731941223,0.2148413360118866,2.098221110553634,-0.5390410914025149,-2.4504610105132474
1687093009.6554642,0.7558559775352478,0.48952019214630127,0.43480047583580017,0.07754844427108765,0.15455317497253418,-0.18861517310142517,-0.14963793754577637,-0.28199493885040283,0.2827048897743225,2.0928128386883897,-0.5115394146263181,-2.426312507780291
1687093009.695815,0.7626294493675232,0.47057268023490906,0.44379931688308716,0.04814642667770386,0.07485276460647583,-0.0009586215019226074,-0.45667538046836853,-0.01857583224773407,0.14261826872825623,2.097825396624134,-0.4899397099552005,-2.4068743313819594
1687093009.778611,0.7652900815010071,0.463053435087204,0.44711607694625854,0.01747065782546997,0.07098895311355591,-0.016131579875946045,0.23195230960845947,0.10430683195590973,0.11477113515138626,2.0995499163581695,-0.48143714349774624,-2.4051801851547197
1687093009.816352,0.766591489315033,0.4758695363998413,0.43114444613456726,-0.0020956993103027344,0.11061722040176392,-0.12882214784622192,0.18958114087581635,-0.024467963725328445,0.03554569184780121,2.083123115668987,-0.4959524098945276,-2.4403139047928026
1687093009.857187,0.7662939429283142,0.48135700821876526,0.4255457818508148,0.009676516056060791,0.12005287408828735,-0.07367801666259766,0.6637181043624878,-0.07949628680944443,-0.043522629886865616,2.0777222255021353,-0.5022022262250951,-2.4506538335701573
1687093009.896038,0.7672446370124817,0.499014675617218,0.4028894305229187,0.010282158851623535,0.03684341907501221,-0.005459129810333252,0.36424562335014343,-0.01942162960767746,-0.047452256083488464,2.054331195727375,-0.522461405504786,-2.489747550779578
1687093009.9487262,0.7668026089668274,0.5046770572662354,0.39662966132164,0.010312438011169434,0.023979008197784424,-0.08799010515213013,0.31282398104667664,-0.058090705424547195,-0.05521983280777931,2.048149552214917,-0.5290078262771368,-2.499155033714182
1687093010.021436,0.7666955590248108,0.5102899670600891,0.3895918130874634,0.004620909690856934,-0.03597062826156616,0.0023606419563293457,0.13489605486392975,-0.05280821770429611,-0.01905323937535286,2.0409379436365604,-0.5355219046673376,-2.5088257051820464
1687093010.0820808,0.7677802443504333,0.5152318477630615,0.3808542788028717,-0.0014073848724365234,-0.021823585033416748,0.007100403308868408,0.21348674595355988,-0.0756448432803154,-0.02469627931714058,2.031275703358274,-0.5412781375191399,-2.520046202445632
1687093010.0975971,0.7694774866104126,0.519530713558197,0.37147337198257446,0.019874930381774902,-0.02026313543319702,-0.024030685424804688,0.388669490814209,-0.1465010792016983,0.0129696074873209,2.020557496163402,-0.5463016095775289,-2.5323122553113655
1687093010.1675549,0.7727887034416199,0.52093106508255,0.3625306785106659,0.009926140308380127,-0.04833585023880005,0.04139995574951172,-0.024744994938373566,-0.1512748897075653,-0.003138256026431918,2.009436221225652,-0.5479413355941671,-2.5390900894853163
1687093010.2145991,0.7758821249008179,0.5219550728797913,0.3543577194213867,-0.005176067352294922,-0.001035451889038086,-0.003054678440093994,0.07806766778230667,-0.10779758542776108,0.0004408992826938629,1.9992211483881497,-0.5491414156929285,-2.543576552054222
1687093010.252598,0.7778069972991943,0.5206241607666016,0.35208940505981445,-0.01447075605392456,-0.016504347324371338,0.014716625213623047,0.004431532695889473,-0.08352003246545792,0.005601839162409306,1.995867912576442,-0.547581865017445,-2.5416798659124575
1687093010.297229,0.7785155177116394,0.5202012658119202,0.3511471152305603,-0.0012785792350769043,0.010255277156829834,0.03676176071166992,0.09990186244249344,-0.0006958128651604056,0.01453408133238554,1.9945206200715957,-0.5470866088854683,-2.5426011386991827
1687093010.380117,0.7780275940895081,0.5228841304779053,0.3482312262058258,0.00032317638397216797,0.013767361640930176,0.038823097944259644,0.1026449128985405,0.031083732843399048,0.024141035974025726,1.9916377065270023,-0.5502310066733862,-2.5526155375095247
1687093010.4034538,0.7774509191513062,0.5224321484565735,0.3501926362514496,0.004501044750213623,0.004484295845031738,0.0023463964462280273,0.0140460766851902,0.04428792744874954,0.021072739735245705,1.994013591732967,-0.5497008100763373,-2.554961034413339
1687093010.4493232,0.7773842811584473,0.5222370028495789,0.3506315052509308,-0.00815814733505249,0.017435848712921143,-0.010162115097045898,0.22640307247638702,0.05922216176986694,0.056692056357860565,1.9945148745849821,-0.5494719486640407,-2.5608670220339014
1687093010.505199,0.7770601511001587,0.5215899348258972,0.35230934619903564,0.01403200626373291,-0.014113068580627441,-0.008299857378005981,0.10478236526250839,0.10921475291252136,0.03678412735462189,1.996463708702276,-0.5487134074150761,-2.5660695117272896
1687093010.547965,0.7778074741363525,0.5257790684700012,0.34434276819229126,0.008920431137084961,0.015602707862854004,-0.056867122650146484,0.6778051853179932,0.023243939504027367,0.12018933147192001,1.9875709746490844,-0.5536307615609599,-2.589018206735355
1687093010.599105,0.7821431756019592,0.5368107557296753,0.31636446714401245,0.0352703332901001,0.0010005831718444824,-0.04040929675102234,1.8154178857803345,0.055237848311662674,0.3153889775276184,1.9551623087827037,-0.5666524642307118,-2.652445523116866
1687093010.683115,0.7966896295547485,0.562811017036438,0.22029347717761993,0.05810767412185669,0.09952718019485474,-0.1251702457666397,5.415831089019775,0.06038351729512215,0.7722612023353577,1.8405667847682652,-0.5977826233715385,-2.8641175043194806
1687093010.7278662,0.8243697881698608,0.5658195614814758,0.016211582347750664,0.012590110301971436,0.2104560136795044,-0.026602745056152344,9.441479682922363,0.6144843697547913,1.1737879514694214,1.5904592169953484,-0.60142691990953,2.9563299446562943
1687093010.775433,0.8640934824943542,0.4548100531101227,-0.21561574935913086,0.03689217567443848,0.19149118661880493,0.21042785048484802,11.826355934143066,1.821873426437378,1.2422442436218262,1.3262616817751016,-0.472158905095141,2.339999318118054
1687093010.8203,0.9181548357009888,0.24190494418144226,-0.31380507349967957,0.20084840059280396,0.33309200406074524,0.6482014656066895,12.207817077636719,3.320619821548462,0.36870792508125305,1.2414649737966166,-0.24432863139338074,1.7248702874199764
1687093010.853478,0.9689478278160095,0.10020943731069565,-0.2260487675666809,0.4292759895324707,0.08068349212408066,0.6374410390853882,10.863335609436035,3.677246570587158,-1.1605180501937866,1.3416026212012317,-0.1003779137473046,1.1639706157609386
1687093010.923805,0.9871135354042053,0.11765515804290771,-0.10846254229545593,0.3401111960411072,0.24306261539459229,0.5813477039337158,8.587897300720215,3.1498682498931885,-2.9858076572418213,1.4613568570892612,-0.11792830563441567,0.6343189387088405
1687093010.981598,0.9596524834632874,0.2758910059928894,-0.05432555079460144,0.37146323919296265,0.3054078221321106,0.21635866165161133,7.148113250732422,1.6330218315124512,-4.37018346786499,1.5142470733643834,-0.2795165672243907,0.2475347664328182
1687093011.0003362,0.8738905191421509,0.4673076868057251,-0.1339365690946579,0.4373888373374939,-0.19083359837532043,-0.013249769806861877,4.940708160400391,-0.48703065514564514,-4.735469341278076,1.418715065533833,-0.48624303810870534,-0.09601815099956551
1687093011.077501,0.7433935403823853,0.616798996925354,-0.25869858264923096,0.27522212266921997,-0.8589407801628113,0.049271732568740845,0.2156476378440857,-1.839358925819397,-3.6531805992126465,1.235907225876982,-0.6646694919391528,-0.33142032663215126
1687093011.121001,0.6185216307640076,0.7158153653144836,-0.32409781217575073,0.07650089263916016,-0.9193218350410461,-0.16612133383750916,-0.308443546295166,-2.120450973510742,-2.0900216102600098,1.0881431117401998,-0.7977910853864074,-0.4024612693062856
1687093011.167608,0.5256067514419556,0.7639943361282349,-0.37423282861709595,0.05656176805496216,-0.6717854142189026,-0.020862996578216553,-0.016921158879995346,-1.7891106605529785,-1.145116925239563,0.95206098148134,-0.8694812434246109,-0.45296303547686456
1687093011.2019129,0.4832875728607178,0.7634513974189758,-0.4284568130970001,0.10342812538146973,-0.48455119132995605,0.8913168907165527,1.6109424829483032,0.4464031159877777,-0.3466622829437256,0.8454641237289164,-0.868640170541291,-0.5374664983699403
1687093011.28269,0.4919185936450958,0.7620363831520081,-0.4210897386074066,0.1807955801486969,-0.22790247201919556,-0.1499093472957611,-0.10678873211145401,0.4352285861968994,-0.10296671092510223,0.8628205312231114,-0.8664521136896708,-0.5584638735197511
1687093011.3123732,0.49135005474090576,0.7571580410003662,-0.43044978380203247,-0.05781733989715576,0.32021939754486084,-0.1374518871307373,0.45362797379493713,0.33711862564086914,-0.3510013520717621,0.8513689676133284,-0.8589514320211588,-0.5971810484726779
1687093011.351112,0.4876907765865326,0.7621682286262512,-0.4257432222366333,0.01856529712677002,-0.02181178331375122,0.1215897798538208,-0.08573245257139206,0.20523138344287872,-0.10881409049034119,0.8531127832756243,-0.8666557586805611,-0.6141573220707349
1687093011.426077,0.4881179928779602,0.7667827606201172,-0.4168754816055298,-0.07565769553184509,0.09533888101577759,0.11137926578521729,-0.06484394520521164,0.10398320108652115,-0.017604678869247437,0.8639577400905485,-0.8738140440831382,-0.609156937550558
1687093011.462685,0.4874582588672638,0.7710826396942139,-0.40965360403060913,-0.02896219491958618,-0.0002849102020263672,-0.01759248971939087,-0.18547528982162476,-0.053587768226861954,-0.011111028492450714,0.8719096149394321,-0.8805396788319215,-0.5983096952415952
1687093011.5420542,0.4875517785549164,0.7717196345329285,-0.40834054350852966,0.06077274680137634,0.017007172107696533,0.012634426355361938,-0.04161825031042099,0.021378375589847565,-0.003798453835770488,0.8735848655285731,-0.8815407030636533,-0.5967350632669906
1687093011.5598621,0.4873650372028351,0.7704824805259705,-0.41089197993278503,0.049256086349487305,0.05413299798965454,0.0004305839538574219,0.1675187200307846,0.0651772990822792,0.006631949916481972,0.8703282978594177,-0.8795977081720228,-0.6007004661860913
1687093011.608708,0.48830872774124146,0.7724381685256958,-0.40607118606567383,-0.016430705785751343,-0.0097581148147583,-0.03802061080932617,-0.06689777970314026,0.012199812568724155,-0.022833332419395447,0.8770895735620083,-0.8826712896663718,-0.5959447675908145
1687093011.654739,0.48798617720603943,0.7700995206832886,-0.4108723998069763,-0.03721112012863159,0.007961392402648926,0.0850515067577362,0.13255088031291962,0.03426441550254822,-0.01913939230144024,0.8709794069310127,-0.8789971341187128,-0.6043503929193241
1687093011.725823,0.48678579926490784,0.7721084952354431,-0.40851956605911255,0.032135069370269775,0.01004183292388916,-0.02626436948776245,-0.037065308541059494,-0.0336272194981575,-0.0001242239959537983,0.8725949641507934,-0.8821524032749564,-0.6015400237425794
1687093011.7736921,0.4872889518737793,0.7703405022621155,-0.41124823689460754,0.019440174102783203,0.012145519256591797,0.019371986389160156,0.02259642258286476,-0.03738604858517647,0.040559690445661545,0.869824232720773,-0.879374951058857,-0.6044489385825279
1687093011.84183,0.4875105619430542,0.7703731060028076,-0.41092434525489807,-0.012824922800064087,0.04557538032531738,0.007207274436950684,0.031233586370944977,-0.032344020903110504,0.056048233062028885,0.8704366129734442,-0.8794261479136353,-0.5995724886711874
1687093011.8590221,0.48910826444625854,0.7700728178024292,-0.4095863401889801,0.008358776569366455,-0.005821108818054199,0.008646368980407715,-0.141411691904068,-0.07359953969717026,0.05792403221130371,0.8736543405762547,-0.8789552787077151,-0.5923312166523581
1687093011.90277,0.48959994316101074,0.7719652652740479,-0.4054153263568878,0.015542209148406982,-0.0050890445709228516,-0.02160191535949707,-0.13171085715293884,-0.10693927109241486,0.060231465846300125,0.8791816538472962,-0.8819270827929715,-0.5796047724571197
1687093011.975467,0.4904784560203552,0.7735482454299927,-0.4013153910636902,-0.020339906215667725,-0.012790799140930176,0.022653281688690186,-0.12141534686088562,-0.022698495537042618,0.049136798828840256,0.8850486907910129,-0.8844211114015385,-0.5681909699533068
1687093012.0200438,0.4921763241291046,0.7751546502113342,-0.3961033225059509,0.003780066967010498,0.0005717277526855469,0.017090260982513428,-0.2817211449146271,-0.02519085817039013,0.059058938175439835,0.893135635809553,-0.886959845564579,-0.5554926243956079
1687093012.060286,0.49460020661354065,0.7801724076271057,-0.3830164670944214,0.006437331438064575,0.03537935018539429,0.039007097482681274,-0.5147005319595337,-0.046825557947158813,0.14091180264949799,0.9118636598056213,-0.8949413571138721,-0.528434590730017
1687093012.139543,0.5013524889945984,0.7922227382659912,-0.3478919267654419,0.08196038007736206,0.05099320411682129,0.10925975441932678,-1.4746100902557373,-0.08422057330608368,0.2828202545642853,0.9641714515796621,-0.9144428907299139,-0.4581457979518971
1687093012.176137,0.5162526965141296,0.8140068650245667,-0.2662253975868225,0.09245079755783081,-0.02933889627456665,-0.0619606077671051,-3.1735048294067383,-0.3349788188934326,0.6195294260978699,1.0946771172213055,-0.9510173173310602,-0.2824360793210476
1687093012.219017,0.5596295595169067,0.8227443695068359,-0.09953102469444275,0.06945973634719849,-0.5324306488037109,-0.10411273688077927,-4.970548629760742,-0.6175094842910767,1.9172303676605225,1.3947851239445939,-0.9662223767356867,0.1082616581653965
1687093012.2619529,0.6618544459342957,0.7476328015327454,0.054718539118766785,0.019786179065704346,-0.8230264186859131,-0.1134648248553276,-4.093769550323486,-0.9485914707183838,3.2798256874084473,1.6532833136395444,-0.8444904644503188,0.4864607111958985
1687093012.306178,0.7927196621894836,0.5895423889160156,0.15503287315368652,0.024159491062164307,-0.5640602111816406,0.0003473609685897827,-3.2221412658691406,-1.0394690036773682,4.054633617401123,1.7639294880065375,-0.6304921996689555,0.7127030423882489
1687093012.3793569,0.9083638191223145,0.38254863023757935,0.1689131259918213,0.07521766424179077,-0.15299540758132935,0.10377667844295502,-3.560624122619629,-1.6195403337478638,4.42615270614624,1.754649551320486,-0.39255317172042087,0.8320931041386623
1687093012.443419,0.97807377576828,0.15504075586795807,0.13904660940170288,0.4125206470489502,0.20737074315547943,0.3120795488357544,-6.331599235534668,-2.444369316101074,3.365598440170288,1.7120137671704065,-0.15566870718378406,1.0534151414363682
1687093012.4800591,0.9996477961540222,0.015958057716488838,0.02120385132730007,0.391129732131958,0.5052669048309326,0.38898301124572754,-7.3325653076171875,-3.3167474269866943,0.9149009585380554,1.5920044684088748,-0.01595873563980654,1.4044944836070126
1687093012.527642,0.9897347688674927,0.03903432935476303,-0.13748136162757874,0.177531898021698,0.27015450596809387,0.6405332088470459,-7.671947002410889,-3.2764673233032227,-1.0701930522918701,1.4327722723812752,-0.03904424980973495,1.7666185930087641
1687093012.577122,0.946698784828186,0.20691654086112976,-0.24687449634075165,0.15835797786712646,-0.13294194638729095,0.47500866651535034,-9.182286262512207,-2.561882495880127,-2.4131646156311035,1.3157033467081838,-0.20842223538698756,2.1386657588534255
1687093012.612215,0.8808035850524902,0.4408397078514099,-0.172758549451828,-0.020818233489990234,0.2585011124610901,0.3254075050354004,-8.879892349243164,-1.1322338581085205,-2.719761371612549,1.3771175364585488,-0.45653396459298506,2.5922887126019094
1687093012.6553922,0.8152168989181519,0.5783974528312683,0.029632022604346275,0.05477839708328247,0.16176068782806396,0.10339415073394775,-7.4948530197143555,-0.19979695975780487,-2.073361873626709,1.6071289661863817,-0.6167627912938588,3.0899059759963556
1687093012.741101,0.7717356085777283,0.6012666821479797,0.20712986588478088,0.054375410079956055,-0.030359089374542236,-0.07343229651451111,-4.570244312286377,-0.10001993924379349,-0.7064228653907776,1.8330114861870843,-0.6450853994669958,-2.8034845359086815
1687093012.761911,0.7638444900512695,0.5781493186950684,0.2868534326553345,0.04169744253158569,0.06882327795028687,-0.2016940414905548,-2.220313549041748,-0.1822100728750229,-0.23660613596439362,1.9300394902722666,-0.6164586783702027,-2.623296299409845
1687093012.810206,0.7634591460227966,0.5573713779449463,0.3262929618358612,0.026747703552246094,0.08831948041915894,-0.08604338765144348,-1.1667790412902832,-0.10334930568933487,-0.0014491463080048561,1.9746875504763008,-0.5912164334527259,-2.5321456435519645
1687093012.880769,0.7666211128234863,0.5375828742980957,0.35113659501075745,0.06954532861709595,-0.06297355890274048,-0.13723886013031006,-0.6944069266319275,-0.10035784542560577,0.12346383184194565,2.0003090993523758,-0.5675679129216374,-2.4758543195850473
1687093012.909954,0.771785318851471,0.5195580124855042,0.36661583185195923,0.054173052310943604,-0.000820159912109375,-0.10198256373405457,-0.3469640612602234,-0.09518108516931534,0.16860075294971466,2.0142634855288155,-0.5463335493082759,-2.4440438621519007
1687093012.988171,0.7760114073753357,0.5127431750297546,0.3672882914543152,0.011479437351226807,0.061078786849975586,0.03169843554496765,-0.053146541118621826,0.0453488864004612,0.09650585055351257,2.0128588965451257,-0.5383769193663229,-2.4431102509878984
1687093013.048094,0.7783001661300659,0.5103950500488281,0.3657122850418091,0.02020740509033203,0.049419283866882324,-0.0958910584449768,0.0809691771864891,0.08256108313798904,0.09179877489805222,2.010063751136637,-0.5356441208980409,-2.451678541422813
1687093013.063714,0.7788310647010803,0.5114893913269043,0.3630443513393402,0.016594529151916504,0.020706653594970703,-0.10842081904411316,0.2902265191078186,-0.03039671666920185,0.0746738538146019,2.0069909686026324,-0.5369172128196301,-2.4625008889611024
1687093013.125099,0.7801709175109863,0.5142052173614502,0.35626742243766785,0.009120523929595947,0.015305280685424805,0.021402835845947266,0.020760972052812576,0.018614057451486588,-0.0032009733840823174,1.9991691267474365,-0.5400807079987419,-2.4768973447369906
1687093013.168305,0.7807530760765076,0.5175471901893616,0.3500993251800537,-0.002097010612487793,0.04922521114349365,-0.05137801170349121,0.259522944688797,-0.016919102519750595,0.030237611383199692,1.9923291752072838,-0.5439819006713142,-2.487785382595678
1687093013.235853,0.7800664305686951,0.5211390852928162,0.34628093242645264,0.0020990967750549316,0.004236161708831787,-0.045789510011672974,0.2194671332836151,0.009343371726572514,-0.0366690531373024,1.9885760554169294,-0.5481850740630856,-2.4962125356241716
1687093013.281406,0.7801708579063416,0.5245192050933838,0.34090057015419006,0.022624611854553223,-0.03706192970275879,-0.021686673164367676,-0.033772844821214676,-0.004993022885173559,-0.0029794652946293354,1.9827503247430134,-0.5521502788101569,-2.5035481141493263
1687093013.3413591,0.7813374400138855,0.525204598903656,0.3371524512767792,0.010944604873657227,-0.01821613311767578,-0.02413371205329895,0.059199441224336624,-0.09833431243896484,0.010190464556217194,1.9781654155429298,-0.5529555021790858,-2.5054357075335405
1687093013.38153,0.7835274934768677,0.5242531895637512,0.333530992269516,0.0016591548919677734,-0.015738964080810547,0.005595505237579346,0.11138381063938141,-0.05439457297325134,0.012983256950974464,1.9732417285142463,-0.5518379133682694,-2.5066569515634773
1687093013.4304981,0.785535454750061,0.5257480144500732,0.32637861371040344,-0.0038735270500183105,-0.006430506706237793,0.023932665586471558,0.046515870839357376,-0.05450132116675377,0.028053419664502144,1.9645806123317082,-0.5535942530765796,-2.5170855222946225
1687093013.472505,0.7868388891220093,0.5235005021095276,0.32685187458992004,-0.0011637210845947266,0.023023605346679688,0.010108023881912231,-0.02724650129675865,-0.03370043635368347,0.019702810794115067,1.9645066013919514,-0.5509542157384875,-2.5139564087517097
1687093013.5225859,0.7886927127838135,0.5228062868118286,0.3234767019748688,-0.013027548789978027,0.014699757099151611,-0.004659563302993774,0.08099927753210068,-0.043633002787828445,0.06853918731212616,1.9600158795688283,-0.5501396827295633,-2.519918438783191
1687093013.562072,0.790327787399292,0.5201793909072876,0.3237214684486389,0.003113985061645508,0.010597586631774902,0.01036977767944336,-0.00599474273622036,-0.00658668065443635,0.02884817123413086,1.9595545528427472,-0.5470609986661432,-2.5196090066399015
1687093013.648497,0.791782557964325,0.5198659896850586,0.32065489888191223,0.0069539546966552734,0.00962918996810913,0.0052728354930877686,0.09220079332590103,-0.01486223191022873,0.05387403070926666,1.9555870925499836,-0.5466940479245477,-2.525550731855767
1687093013.682631,0.7927869558334351,0.5186067819595337,0.32021209597587585,0.009001314640045166,-0.003531157970428467,0.01789209246635437,-0.0042509050108492374,-0.03233878314495087,0.023909740149974823,1.954666134147179,-0.5452206986988293,-2.5260976768449632
1687093013.727525,0.7934865951538086,0.5184519290924072,0.31872662901878357,0.0020608901977539062,0.008968114852905273,0.033751487731933594,-0.02163548767566681,-0.006626849994063377,0.0005793836899101734,1.9527489727415346,-0.5450395727100782,-2.527837786131041
1687093013.771611,0.7928939461708069,0.5196667313575745,0.3182230293750763,0.005323886871337891,0.02095210552215576,0.013014793395996094,0.08689924329519272,0.012049920856952667,-0.02588225156068802,1.9524605779205675,-0.5464608133773544,-2.5286599580912497
1687093013.825248,0.7916913032531738,0.5214613080024719,0.3182810842990875,0.0024370551109313965,-0.004508852958679199,-0.0005168020725250244,0.08429919928312302,0.0010979148792102933,-0.017713868990540504,1.9530486933879079,-0.5485626394684078,-2.5301182704071894
1687093013.8688622,0.7908417582511902,0.5233423113822937,0.31730493903160095,0.0018829703330993652,-0.00016415119171142578,-0.010496348142623901,0.1011921614408493,0.0023197513073682785,-0.01647024042904377,1.9523577109251156,-0.550768561550444,-2.5326069144902217
1687093013.943098,0.7906619906425476,0.5246232151985168,0.31563252210617065,0.002718687057495117,-0.0035356879234313965,4.121661186218262e-05,0.007787381764501333,-0.0029558157548308372,-0.00320882978849113,1.9506131374399371,-0.5522724875265403,-2.5360337279563394
1687093013.9848762,0.790667712688446,0.5254400372505188,0.31425726413726807,-0.004000723361968994,7.271766662597656e-05,0.001386195421218872,0.09523653239011765,-0.012608553282916546,0.0048013594932854176,1.9491094532032338,-0.5532321827440557,-2.5391185846955944
1687093014.025682,0.7914353013038635,0.525905430316925,0.31153368949890137,0.0062787532806396484,-0.0116080641746521,0.004002749919891357,0.10722129046916962,0.01153586432337761,0.018791543319821358,1.945800414294519,-0.5537793016227591,-2.5454323628918583
1687093014.077873,0.7923055291175842,0.5254214406013489,0.31013548374176025,-0.004799485206604004,-0.0007938742637634277,0.01586848497390747,0.04268890619277954,-0.023906059563159943,0.05000046268105507,1.9438966752382472,-0.5532103416727399,-2.549366457425352
1687093014.1179872,0.7944744825363159,0.5231457948684692,0.3084295094013214,-0.010645747184753418,0.006547749042510986,0.007076472043991089,0.012778411619365215,-0.041345592588186264,0.04272044450044632,1.9411049656574886,-0.5505379948765535,-2.5505731396151057
1687093014.1716251,0.795227587223053,0.5226060748100281,0.30740153789520264,0.0001672506332397461,0.015891671180725098,0.006441175937652588,0.11315800994634628,0.0032918713986873627,0.02470322884619236,1.93966129776812,-0.5499048289367628,-2.553644793494605
1687093014.2396379,0.7964237928390503,0.5228624939918518,0.30384883284568787,0.005654573440551758,0.0014600157737731934,0.019454389810562134,0.0034890400711447,-0.005954512860625982,0.04507221654057503,1.9352678418596574,-0.5502056275627418,-2.561617561343553
1687093014.273333,0.7968778610229492,0.5226114392280579,0.3030892312526703,-0.0022611618041992188,0.02800196409225464,0.023464173078536987,0.08367735147476196,-0.012500163167715073,0.011312788352370262,1.9342455750830387,-0.5499110693317727,-2.563690527764997
1687093014.313284,0.7976027131080627,0.5231103897094727,0.3003087043762207,0.0035904645919799805,0.006766259670257568,0.02026316523551941,-0.04865911602973938,-0.020151736214756966,-0.01467127539217472,1.9308938131710074,-0.550496455968799,-2.5681348897198837
1687093014.367044,0.7972481846809387,0.5231625437736511,0.30115804076194763,0.005272507667541504,0.026199519634246826,-0.018641531467437744,0.0292146448045969,-0.02017677016556263,-0.008492475375533104,1.9319730707315235,-0.5505575993510528,-2.5642082897928216
1687093014.43526,0.7968604564666748,0.5243591070175171,0.3001011610031128,0.0076285600662231445,-0.0026459097862243652,0.006341069936752319,0.031946782022714615,-0.01468832790851593,-0.03416155278682709,1.9309728528878918,-0.5519622802483244,-2.565542236730604
