Timestamp,gravityX,gravityY,gravityZ,accelerationX,accelerationY,accelerationZ,rotationRateX,rotationRateY,rotationRateZ,attitudeRoll,attitudePitch,attitudeYaw
1687102833.407376,-0.923431932926178,0.378325879573822,0.0643661692738533,-0.010756850242614746,-0.02175849676132202,0.0005141496658325195,0.05794451758265495,-0.06873175501823425,-0.1093655377626419,-1.6403869796115222,-0.3879870685414453,-2.150267219978553
1687102833.459159,-0.9254353642463684,0.37294986844062805,0.06691619008779526,-0.0013529658317565918,-0.01003485918045044,0.0014126300811767578,0.11391191184520721,-0.0669153705239296,-0.1312715709209442,-1.6429784999805273,-0.38218623339396635,-2.146199487197126
1687102833.5002341,-0.9278993606567383,0.3666127622127533,0.06780800223350525,0.0006380081176757812,0.0020547807216644287,-0.0003947019577026367,0.15934224426746368,-0.08796339482069016,-0.1458558440208435,-1.6437435492544896,-0.3753656797793469,-2.13787108273099
1687102833.559283,-0.9302167296409607,0.3603818416595459,0.06943810731172562,-0.009587287902832031,0.0006105899810791016,-0.0066176652908325195,0.07153249531984329,-0.08501722663640976,-0.1284017413854599,-1.6453053704118394,-0.368677206634663,-2.129989182415365
1687102833.6024761,-0.9319861531257629,0.35543856024742126,0.07117099314928055,0.011011481285095215,0.018035531044006348,-0.009250879287719727,0.14468207955360413,-0.07639817148447037,-0.12126234918832779,-1.647013264086427,-0.36338323846979903,-2.1241152105445424
1687102833.669304,-0.9336934685707092,0.35054337978363037,0.07304735481739044,-0.013221204280853271,-0.010653883218765259,0.0007593631744384766,-0.046567779034376144,-0.0591326542198658,-0.09547822177410126,-1.6488721324169213,-0.3581512229236129,-2.1208045140006373
1687102833.707981,-0.9348270893096924,0.3468899726867676,0.07593245804309845,-0.019106626510620117,0.006991833448410034,0.01565074920654297,0.04825780168175697,-0.11327516287565231,-0.11160099506378174,-1.6518446031092973,-0.3542531330361366,-2.119803195371598
1687102833.752617,-0.9369084239006042,0.33964917063713074,0.08271115273237228,-0.030147850513458252,-0.06860727071762085,0.014288902282714844,0.008523703552782536,-0.1712314337491989,-0.18086190521717072,-1.6588489876735535,-0.34654386677628285,-2.118644855705075
1687102833.809623,-0.9401029348373413,0.32961633801460266,0.08694500476121902,0.08162826299667358,-0.01937466859817505,-0.0202794149518013,0.16849260032176971,-0.07969432324171066,-0.23427505791187286,-1.6630185460254059,-0.3358971681114641,-2.1105245215941744
1687102833.849679,-0.9435117840766907,0.31933993101119995,0.08836100250482559,0.0190122127532959,0.01707056164741516,-0.04031109809875488,-0.056559693068265915,-0.019503243267536163,-0.19358274340629578,-1.6641751599596768,-0.32503285626577255,-2.1071493491673574
1687102833.9187288,-0.9455515146255493,0.31289538741111755,0.0896044373512268,-0.026494383811950684,0.09922924637794495,-0.06087219715118408,-0.1241091713309288,0.015987129881978035,-0.05317017808556557,-1.665278380885054,-0.3182399592734446,-2.1104188872908547
1687102833.972124,-0.9454296231269836,0.313157856464386,0.08997227996587753,-0.016606509685516357,0.09731879830360413,-0.07884860038757324,-0.2973925471305847,0.10554493218660355,0.09412113577127457,-1.6656760829794863,-0.3185163321972858,-2.1236703300599666
1687102834.025466,-0.9433374404907227,0.3201689124107361,0.08721296489238739,0.022103428840637207,0.07460641860961914,-0.08377981930971146,-0.8645672798156738,0.33893296122550964,0.3168978989124298,-1.6629857702957622,-0.3259077782160008,-2.1480435462210323
1687102834.065364,-0.9373274445533752,0.3376358151435852,0.08613590896129608,-0.0031632184982299805,0.1514999270439148,-0.106781005859375,-1.6614550352096558,0.5583860874176025,0.6856081485748291,-1.6624341654952497,-0.34440408874516604,-2.220682009131596
1687102834.1031852,-0.9256474375724792,0.3677906394004822,0.08892085403203964,-0.06504470109939575,0.20064502954483032,-0.07263970375061035,-0.7989294528961182,0.3059079647064209,0.7797061204910278,-1.6665658701638733,-0.3766319989263918,-2.2955307766422566
1687102834.1472511,-0.912097156047821,0.40056678652763367,0.0873209536075592,-0.03524470329284668,0.04590532183647156,-0.04845679551362991,-0.7997720837593079,0.41121137142181396,0.7969967126846313,-1.6662418923077595,-0.4121353577746296,-2.3359665587148175
1687102834.2250671,-0.8962900042533875,0.4344021677970886,0.08921365439891815,-0.02553921937942505,0.04843169450759888,-0.008952498435974121,-1.821241021156311,0.6449136137962341,0.9967713952064514,-1.6700061454533166,-0.44937444356207107,-2.411591138826401
1687102834.274372,-0.8718651533126831,0.47686487436294556,0.11158396303653717,-0.06868654489517212,0.33124056458473206,-0.053814180195331573,-1.8843765258789062,0.42124196887016296,1.3858484029769897,-1.698087399910588,-0.4970844704815074,-2.5332372850611398
1687102834.312968,-0.829809844493866,0.541405975818634,0.1352596879005432,-0.05170559883117676,0.6409823298454285,-0.02757836878299713,-1.1996192932128906,0.1345789134502411,2.1542880535125732,-1.7323761272800402,-0.5721084485167632,-2.6311149815987247
1687102834.3474932,-0.7479703426361084,0.6399765014648438,0.17598512768745422,-0.22607451677322388,0.6578598618507385,0.11370290815830231,-1.155360221862793,-0.5526086688041687,3.2329843044281006,-1.801876986134166,-0.6944676822545024,-2.733834966979531
1687102834.450738,-0.6114004850387573,0.753453254699707,0.24186281859874725,-0.4044076204299927,0.5163068175315857,0.13019226491451263,-0.8429770469665527,-1.1315367221832275,3.9480695724487305,-1.9474936592354546,-0.8532984887181286,-2.8785343190259316
1687102834.4674459,-0.43128132820129395,0.8507061004638672,0.3004924952983856,-0.5285271406173706,0.27952778339385986,0.10627630352973938,-0.40662264823913574,-1.237155795097351,4.023123741149902,-2.1793334460325524,-1.017327155198762,-3.090426854811937
1687102834.5343819,-0.23876267671585083,0.9184370040893555,0.31538233160972595,-0.563666582107544,0.1700029969215393,0.13752904534339905,0.2678878903388977,-1.2801094055175781,3.791811943054199,-2.4935897983432946,-1.1641109547662256,2.910253464976432
1687102834.547548,-0.03545939177274704,0.9431559443473816,0.3304535150527954,-0.6459065675735474,0.08662921190261841,0.16716599464416504,-0.1326075941324234,-1.4458343982696533,3.923922538757324,-3.034696445330789,-1.2320016550896031,2.4038925515539677
1687102834.601336,0.17506681382656097,0.9390668272972107,0.29581302404403687,-0.6402920484542847,0.18059271574020386,0.19794610142707825,1.2621463537216187,-1.6147193908691406,3.869389057159424,2.607212692335433,-1.2199054268668577,1.807418819719377
1687102834.670195,0.3758282959461212,0.897560715675354,0.23051616549491882,-0.6623120903968811,0.02690821886062622,0.2338392734527588,0.5175512433052063,-1.57756507396698,3.9513142108917236,2.1209778509845756,-1.1142054060869833,1.3675363523349413
1687102834.7101521,0.5674191117286682,0.808639645576477,0.15536317229270935,-0.7135220170021057,0.21810919046401978,0.22726620733737946,1.3499164581298828,-1.6735349893569946,4.187215328216553,1.838052813508331,-0.9418360666621483,1.1335959896974777
1687102834.758391,0.7364389896392822,0.6749929189682007,0.04519128426909447,-0.722370445728302,0.17536413669586182,0.25981664657592773,1.538774013519287,-1.7139599323272705,4.397964000701904,1.6320840751088201,-0.7409550997437536,0.9736266512782077
1687102834.83359,0.8683898448944092,0.49164634943008423,-0.06467563658952713,-0.746258556842804,0.18933814764022827,0.25714999437332153,1.2506657838821411,-1.6949959993362427,4.591223239898682,1.496455926116762,-0.5139793768739342,0.8883834019745874
1687102834.925579,0.9480634331703186,0.26933664083480835,-0.16921482980251312,-0.6390882134437561,0.21482473611831665,0.25336700677871704,1.7760571241378784,-1.624123454093933,4.732780456542969,1.3941715075899705,-0.27270415358376976,0.839801849936186
1687102834.939342,0.966741144657135,0.011195708997547626,-0.25551217794418335,-0.682362973690033,0.31465572118759155,0.20322027802467346,2.5313265323638916,-1.2736109495162964,4.886410713195801,1.3124023555550068,-0.011195942727218668,0.7779367716098959
1687102834.948718,0.9184761643409729,-0.23751503229141235,-0.31620872020721436,-0.6078988909721375,0.03265054523944855,0.30542078614234924,-0.364618718624115,-1.4333701133728027,4.9918212890625,1.2392304823715123,0.23980687839181244,0.8096931855073759
1687102834.9977078,0.8079511523246765,-0.4601074755191803,-0.36812493205070496,-0.5610640048980713,0.2787262201309204,0.15145015716552734,1.2819904088974,-1.3115140199661255,4.812219619750977,1.1432722599418899,0.4781162294778818,0.8845203630642493
1687102835.0648599,0.6621974110603333,-0.6408412456512451,-0.38835182785987854,-0.44898635149002075,-0.23920941352844238,0.09632909297943115,-0.19764117896556854,-1.0006771087646484,4.073480129241943,1.0403927387682952,0.6955935726081602,0.9666075096293121
1687102835.101891,0.5117170810699463,-0.7435152530670166,-0.4305005669593811,-0.2961866855621338,-0.16151398420333862,0.014515459537506104,0.06573532521724701,-1.0390046834945679,3.3770089149475098,0.8713828028917098,0.8383118235187167,1.1362426311886884
1687102835.151968,0.3668399453163147,-0.8142795562744141,-0.4498637020587921,-0.2297549843788147,-0.04366111755371094,0.05357766151428223,-0.41015052795410156,-1.102289080619812,2.8038511276245117,0.6840890645389527,0.9514869424984856,1.3069678935181637
1687102835.2377648,0.24336937069892883,-0.8397363424301147,-0.48540112376213074,-0.17659692466259003,-0.21681272983551025,-0.08131033182144165,0.12828606367111206,-0.8508936762809753,1.906829595565796,0.4647492955097702,0.9967974772040065,1.50844058825918
1687102835.2523088,0.16836580634117126,-0.8699902296066284,-0.4634328782558441,-0.14254790544509888,-0.23128235340118408,-0.19766944646835327,0.7693901658058167,-0.5066881775856018,1.0035102367401123,0.3484751143339436,1.0551824523017512,1.608473046072947
1687102835.333781,0.11979342252016068,-0.8882626295089722,-0.4434400200843811,-0.030880451202392578,-0.09492218494415283,0.017155170440673828,0.27668696641921997,-0.6400294303894043,0.7259051203727722,0.26384765589503073,1.093548883397949,1.6733131578790197
1687102835.34803,0.07794684171676636,-0.9006627798080444,-0.4274700880050659,-0.033116526901721954,-0.02553039789199829,0.042323023080825806,0.2353302240371704,-0.5245524048805237,0.5106801986694336,0.1803629722442068,1.121292424111354,1.7327233763457153
1687102835.420205,0.05755465477705002,-0.9063763618469238,-0.41853243112564087,-0.05624237656593323,-0.1427873969078064,-0.006470620632171631,0.4682585299015045,-0.2248237431049347,0.04865805059671402,0.13665827767737054,1.134626312173754,1.7597655678612583
1687102835.4639459,0.05739004164934158,-0.9121680855751038,-0.405778169631958,-0.02322559803724289,-0.06898742914199829,-0.006590664386749268,0.021146554499864578,0.012304289266467094,0.033761925995349884,0.14050019900317623,1.148543615684556,1.7518563089774235
1687102835.5037131,0.0505928099155426,-0.913255512714386,-0.4042333960533142,0.0429130494594574,0.08574092388153076,0.04632323980331421,-0.014277482405304909,-0.024789860472083092,0.1583402156829834,0.12450999414841156,1.1512050906611242,1.7673832321344003
1687102835.549104,0.04740702360868454,-0.9150740504264832,-0.40048959851264954,-0.044782496988773346,-0.07433629035949707,-0.047889888286590576,0.15579570829868317,0.06525986641645432,0.026511602103710175,0.11782438604797797,1.1556914468873734,1.7763856844772952
1687102835.6164088,0.047930650413036346,-0.9162881374359131,-0.3976413309574127,0.007550325244665146,0.03530675172805786,-0.0022762715816497803,-0.02199266105890274,0.02939923107624054,0.026829518377780914,0.11995865819739333,1.1587123781220758,1.7766592650406012
1687102835.656664,0.04875857010483742,-0.9150790572166443,-0.4003159999847412,-0.01599794626235962,-0.027090132236480713,-0.008909463882446289,-0.08789258450269699,0.011568613350391388,-0.06100379675626755,0.1212031863813128,1.1557038959990713,1.7761832299680245
1687102835.698584,0.053073424845933914,-0.915412962436676,-0.39900174736976624,0.0016445815563201904,0.0118333101272583,-0.015198111534118652,0.010905634611845016,0.021862952038645744,-0.13486823439598083,0.13223926362213295,1.1565326589292169,1.7647013030868897
1687102835.817291,0.058094967156648636,-0.9124606847763062,-0.4050191342830658,0.006709098815917969,0.011108756065368652,0.005757629871368408,-0.1597720980644226,0.0619606152176857,-0.12049901485443115,0.1424658368702382,1.149258204497501,1.7553532395025624
1687102835.822408,0.0687054917216301,-0.904874324798584,-0.4200976490974426,-0.05707830190658569,-0.03146594762802124,-0.07813239097595215,-0.3997724652290344,0.3052820563316345,-0.2949191629886627,0.16211129807460706,1.1310844255394066,1.7423302797647973
1687102835.85187,0.1021735891699791,-0.8908379673957825,-0.44268307089805603,-0.12185743451118469,-0.14451664686203003,-0.05086243152618408,-0.8668392300605774,0.6104460954666138,-0.7414076328277588,0.22683307271039907,1.0991862264178107,1.6959631940814555
1687102835.916672,0.1627959907054901,-0.858548104763031,-0.486202210187912,-0.1954345703125,-0.10498332977294922,0.0037345290184020996,-1.3297711610794067,0.8762249946594238,-1.250518560409546,0.3230986287589321,1.0324312468583137,1.6283716884985293
1687102835.9610019,0.25331541895866394,-0.8154215216636658,-0.5204988718032837,-0.26698726415634155,-0.06675004959106445,0.006735444068908691,-0.4643764793872833,1.176295280456543,-1.903435468673706,0.4529334127091419,0.9534570305792257,1.5334284292322664
1687102836.003257,0.38360795378685,-0.7726925611495972,-0.5057579874992371,-0.43113911151885986,-0.20809656381607056,-0.05434638261795044,-0.3478453457355499,1.543038249015808,-2.8937172889709473,0.6489070731405343,0.883071990092425,1.3733767692073509
1687102836.056843,0.546330451965332,-0.6618411540985107,-0.5133121013641357,-0.5020800232887268,-0.298592746257782,0.06304055452346802,-1.835974931716919,2.01336932182312,-3.5177018642425537,0.8165479879065906,0.7232721403962962,1.2631441809876218
1687102836.1101751,0.7129294276237488,-0.5133008360862732,-0.47775912284851074,-0.639580488204956,-0.0010117888450622559,-0.00786706805229187,-0.9045578837394714,2.433162212371826,-3.8994619846343994,0.9803962526698394,0.5390265992716902,1.1793804372749628
1687102836.164598,0.8533351421356201,-0.31948402523994446,-0.4120060205459595,-0.6175106167793274,-0.18693986535072327,0.23356977105140686,-1.6392778158187866,2.41835355758667,-4.229089736938477,1.1209881243454336,0.325184933748486,1.1339048797458076
1687102836.205853,0.9453248381614685,-0.10374988615512848,-0.3091873526573181,-0.6161775588989258,0.06548089534044266,0.1508316695690155,-0.9869803190231323,2.571479558944702,-4.407726287841797,1.2546933604729993,0.10393692450732649,1.1043146488803692
1687102836.269582,0.9742062091827393,0.1347290277481079,-0.18102605640888214,-0.6485226154327393,-0.21793517470359802,0.23653751611709595,-1.5897350311279297,2.688660144805908,-4.5809149742126465,1.3870727449498779,-0.1351399889000511,1.1277256154709743
1687102836.313128,0.9305636882781982,0.36356088519096375,-0.043298568576574326,-0.5548770427703857,0.08501702547073364,0.180688738822937,-0.6279763579368591,2.612416982650757,-4.6953444480896,1.52430046255806,-0.3720874962148994,1.1312193820976928
1687102836.406105,0.817316472530365,0.566946804523468,0.10278808325529099,-0.5798438191413879,0.0003903508186340332,0.1662854105234146,-0.9502281546592712,2.8080356121063232,-4.646064281463623,1.6959024068880806,-0.6027946408765387,1.2083531889235422
1687102836.421586,0.641399621963501,0.7329758405685425,0.2266114056110382,-0.32175856828689575,0.030757009983062744,0.2576262652873993,-0.9922744035720825,2.6974735260009766,-4.641102313995361,1.9104147945651981,-0.8226863120582751,1.3217601718940382
1687102836.454815,0.4194670021533966,0.8396916389465332,0.3449136018753052,-0.4949064552783966,0.1051020622253418,0.22352206707000732,-0.9422815442085266,2.7801926136016846,-4.595539093017578,2.258967634393544,-0.9967151061408877,1.5865292926092769
1687102836.5314898,0.16537748277187347,0.8945489525794983,0.4152502417564392,-0.39847075939178467,0.15167003870010376,0.3040338158607483,-0.7417747974395752,2.4371590614318848,-4.603386878967285,2.762587330995133,-1.1074210266674824,2.0123578642064626
1687102836.563334,-0.08756939321756363,0.8910070061683655,0.44546395540237427,-0.5208901166915894,0.14781135320663452,0.25480759143829346,-0.28702512383461,2.3515071868896484,-4.378641605377197,-2.9474875102736484,-1.0995584973799515,2.519062526620776
1687102836.6354241,-0.33146393299102783,0.8426960706710815,0.42425864934921265,-0.43394753336906433,0.134904146194458,0.17756327986717224,0.04478823393583298,2.1346774101257324,-4.538529396057129,-2.478372291942539,-1.0022714433503432,2.9279664625739272
1687102836.649809,-0.5541608929634094,0.7485297322273254,0.3641548454761505,-0.4865494966506958,0.3071953058242798,0.193386048078537,0.734771728515625,1.9476869106292725,-4.461273193359375,-2.1521663982233363,-0.8458420175993869,-3.0760493598552654
1687102836.726587,-0.7265908122062683,0.6254317164421082,0.28443142771720886,-0.39149701595306396,0.44144755601882935,0.2422868013381958,0.6243032813072205,1.3792121410369873,-3.743037223815918,-1.9439192522238729,-0.6756846997449575,-2.9020140300349024
1687102836.7682319,-0.8302806615829468,0.5096032619476318,0.2256954312324524,-0.34147220849990845,0.6931249499320984,0.29041779041290283,0.9681146740913391,0.3673686683177948,-2.7775044441223145,-1.836213283909287,-0.5347235973175379,-2.7877019665815728
1687102836.811336,-0.8875798583030701,0.4179590940475464,0.19368025660514832,-0.16004276275634766,0.7741032838821411,0.1438593864440918,1.9198966026306152,-0.1968693733215332,-2.156952381134033,-1.7856401922901333,-0.4311976130817576,-2.6836216478749995
1687102836.855715,-0.9202048778533936,0.35254642367362976,0.17009897530078888,-0.02329164743423462,0.6502459049224854,-0.02713945508003235,1.6200389862060547,-0.4063703119754791,-1.448973298072815,-1.753582103629333,-0.3602908415830833,-2.5518065348167087
1687102836.931641,-0.9346035718917847,0.3125220537185669,0.16984109580516815,0.06379979848861694,0.45841294527053833,-0.10901953279972076,1.1055275201797485,-0.21198904514312744,-0.7157571911811829,-1.750559893230601,-0.3178469058342319,-2.5011156908257597
1687102837.0183902,-0.9410548210144043,0.29782384634017944,0.1603650450706482,-0.008057236671447754,0.31490808725357056,-0.16262339055538177,-0.0005033478373661637,0.008124013431370258,-0.18977023661136627,-1.739584831980786,-0.30241222821164027,-2.4402924323463857
1687102837.064652,-0.9428918957710266,0.29632675647735596,0.15213525295257568,0.04755204916000366,0.23026922345161438,-0.04832972586154938,0.8042330741882324,0.1590404063463211,-0.04124540835618973,-1.7307672514035983,-0.3008443825951563,-2.42578422367005
1687102837.082133,-0.9437645077705383,0.2996709942817688,0.13966350257396698,0.04160386323928833,-0.1301916539669037,0.06280528008937836,-0.20299839973449707,0.11303474009037018,0.09906962513923645,-1.7177155679328047,-0.3043477665173814,-2.4111271844605
1687102837.120759,-0.9428139925003052,0.3034057021141052,0.13800860941410065,0.038502037525177,-0.021896392107009888,0.06546732783317566,0.21686919033527374,-0.04591003805398941,0.023923343047499657,-1.7161435420205868,-0.30826482408204386,-2.4069220315556383
1687102837.165509,-0.9426974654197693,0.30395469069480896,0.13759665191173553,0.05759626626968384,-0.08741721510887146,0.0752328485250473,-0.2089391052722931,0.07745328545570374,0.009735684841871262,-1.7157333966035513,-0.30884100647102325,-2.4083843198303905
1687102837.2128549,-0.9425022006034851,0.30295154452323914,0.14110295474529266,-0.05177575349807739,0.007824212312698364,0.03237426280975342,-0.0033856872469186783,-0.16905434429645538,0.009266369044780731,-1.7194036387380693,-0.3077882192148477,-2.4107401451511175
1687102837.3001962,-0.9412198066711426,0.30224427580833435,0.1508413851261139,0.01376032829284668,0.016115009784698486,-0.014870434999465942,0.09568949788808823,-0.12017334997653961,-0.051546916365623474,-1.7297066378010846,-0.30704616763014025,-2.41045034637454
1687102837.315569,-0.9419418573379517,0.30026814341545105,0.15028196573257446,0.02182161808013916,0.013101577758789062,-0.05729496479034424,0.28402450680732727,-0.05984540656208992,-0.07216197997331619,-1.7290077720110018,-0.30497375093568097,-2.394734188464957
1687102837.367764,-0.9417445063591003,0.30023807287216187,0.1515726000070572,0.007128477096557617,-0.02899789810180664,-0.03104342520236969,0.06862006336450577,-0.02525724656879902,-0.01767636463046074,-1.7303765187963092,-0.30494223699982836,-2.3915632219442973
1687102837.410513,-0.9424235224723816,0.2992422878742218,0.1493053287267685,-0.04300433397293091,-0.022905617952346802,-0.011945724487304688,-0.023901348933577538,-0.04862155765295029,-0.029794415459036827,-1.727917469587198,-0.30389844828274015,-2.3868669195684102
1687102837.4831681,-0.9429181218147278,0.29733946919441223,0.1499820202589035,0.04951608180999756,0.04259580373764038,-0.05574369430541992,0.01850789412856102,0.04537205025553703,-0.04219808429479599,-1.7285364350111168,-0.30190486641772174,-2.389823483808947
1687102837.517043,-0.9436613917350769,0.2978825867176056,0.1441149264574051,-0.038317978382110596,0.02012580633163452,-0.032084956765174866,-0.21052822470664978,0.09330899268388748,0.07856681197881699,-1.722344284897723,-0.30247376246540025,-2.389194161592242
1687102837.599155,-0.9420216083526611,0.3035680651664734,0.1429741233587265,-0.0015208125114440918,0.055547505617141724,-0.03102041780948639,-0.23464420437812805,0.11824596673250198,0.17023421823978424,-1.7214205021573141,-0.3084352170801719,-2.404817887717908
1687102837.6155438,-0.9396718144416809,0.3116479516029358,0.14104078710079193,0.03998309373855591,0.036969542503356934,0.010814666748046875,-0.5585319995880127,0.17689280211925507,0.31833985447883606,-1.7197799618158869,-0.31692687774633693,-2.4254468419988995
1687102837.664721,-0.9332836270332336,0.32914963364601135,0.1436736136674881,0.07406127452850342,0.20809707045555115,-0.013287320733070374,-1.0183626413345337,0.22944433987140656,0.7258530259132385,-1.7235414468405847,-0.33540288321543127,-2.4702518498279247
1687102837.735581,-0.917719304561615,0.364158034324646,0.1586819887161255,-0.06548064947128296,0.24430140852928162,-0.05176366865634918,-1.7101821899414062,0.20358118414878845,1.1983946561813354,-1.7420124628354317,-0.37272860660037727,-2.5528835717529605
1687102837.779031,-0.8935579061508179,0.4126317799091339,0.17688731849193573,-0.10464149713516235,0.4741174578666687,-0.15583015978336334,-1.244336724281311,0.34641045331954956,1.531867504119873,-1.766228067034145,-0.4253413888184355,-2.6513482457016853
1687102837.819859,-0.855875551700592,0.485222727060318,0.17898643016815186,-0.13205480575561523,0.6960517168045044,-0.08648763597011566,-0.4601375460624695,0.21806900203227997,2.183957815170288,-1.7769519574866914,-0.5066178714445958,-2.711352722808229
1687102837.929533,-0.7800312638282776,0.5920954942703247,0.20242120325565338,-0.21995359659194946,0.6900089979171753,0.0712299644947052,-0.9044276475906372,-0.39099952578544617,3.403639793395996,-1.8246997091026316,-0.6336566687453313,-2.794516385094579
1687102837.938098,-0.6406829357147217,0.7273668646812439,0.24589191377162933,-0.4482452869415283,0.5859417915344238,0.19682657718658447,0.39087212085723877,-1.2013576030731201,4.4150824546813965,-1.9372566885145055,-0.8144771358857975,-2.9053702088655804
1687102838.0177898,-0.42680370807647705,0.8656387329101562,0.26174092292785645,-0.766342043876648,0.41242218017578125,0.30326151847839355,0.11394227296113968,-1.6573922634124756,5.284621715545654,-2.1209075730056606,-1.0464247509761404,-3.041292136500507
1687102838.032208,-0.14610102772712708,0.9485376477241516,0.2809465527534485,-0.9624500274658203,0.4156286120414734,0.3470747470855713,0.7524732351303101,-2.0251998901367188,5.733753681182861,-2.6620486814933297,-1.2485854877523497,2.7547661528748866
1687102838.1043901,0.15750545263290405,0.9638915061950684,0.21472133696079254,-0.9734691977500916,0.35640573501586914,0.37522923946380615,1.6607483625411987,-1.896342158317566,5.708341598510742,2.508713190216267,-1.3012488799264692,1.704192829721162
1687102838.119139,0.4367501735687256,0.8935109972953796,0.10434283316135406,-0.9372231960296631,0.26815587282180786,0.38306868076324463,1.9391205310821533,-1.6449464559555054,5.5604777336120605,1.8053079288990266,-1.1051042680094378,1.0514212129555554
1687102838.198114,0.670116662979126,0.741960883140564,-0.02091294154524803,-0.963344931602478,0.292417049407959,0.44219285249710083,1.9948906898498535,-1.3815053701400757,5.531620502471924,1.5395985414971163,-0.8359903806451184,0.8250821139872484
1687102838.233695,0.8400351405143738,0.5283433198928833,-0.12326546013355255,-0.8686606287956238,0.1536482572555542,0.41423529386520386,1.266761064529419,-1.1913161277770996,5.330564022064209,1.4250976695237507,-0.556648122085382,0.7476474297862845
1687102838.288527,0.9377106428146362,0.28436657786369324,-0.1995856910943985,-0.8908661603927612,0.19561392068862915,0.3905036449432373,1.148905873298645,-1.1264867782592773,5.084931373596191,1.3610822196998245,-0.28834566676591444,0.7333993274191002
1687102838.32962,0.9634597897529602,0.03686017543077469,-0.2653047740459442,-0.7707565426826477,0.1665700078010559,0.3441621661186218,0.7019514441490173,-1.29116952419281,4.7942094802856445,1.3020891953212783,-0.03686852612419187,0.7449130641280483
1687102838.37071,0.92461097240448,-0.19847989082336426,-0.325115829706192,-0.7254379987716675,0.21999478340148926,0.29008162021636963,0.6411474943161011,-1.2398393154144287,4.728054046630859,1.2326750528181714,0.19980671245933185,0.7873154497149132
1687102838.421757,0.8320353031158447,-0.4149395227432251,-0.36816084384918213,-0.6343730092048645,0.19786801934242249,0.14713728427886963,0.1982443630695343,-1.0699772834777832,4.567459583282471,1.1542117385210338,0.42787634657077966,0.8513766235145483
1687102838.500098,0.6998964548110962,-0.5816423892974854,-0.4145321547985077,-0.5387637615203857,0.06662780046463013,0.08340123295783997,-0.18343988060951233,-1.0199426412582397,4.239577770233154,1.0360753217229843,0.6207463106818771,0.9805381933312975
1687102838.51621,0.5527779459953308,-0.709685206413269,-0.4367877244949341,-0.4122750759124756,-0.026429295539855957,-0.04340636730194092,0.26840266585350037,-0.6874266862869263,3.6247220039367676,0.9020790176332932,0.7890513069354412,1.120221277864016
1687102838.599731,0.41529107093811035,-0.790023148059845,-0.4509953558444977,-0.30336785316467285,-0.14486759901046753,-0.015008091926574707,-0.12582717835903168,-0.6526309847831726,2.8295838832855225,0.7442061425146671,0.9108467671204142,1.2861577241900621
1687102838.605103,0.3007773756980896,-0.8320019841194153,-0.46616071462631226,-0.1952018141746521,-0.17176693677902222,-0.008524954319000244,0.18378978967666626,-0.7793447971343994,1.9789364337921143,0.5730093510931582,0.9827066015619217,1.4529974125560972
1687102838.686955,0.21901728212833405,-0.8601359128952026,-0.46064916253089905,-0.15262630581855774,-0.2281513810157776,-0.08041223883628845,0.3582257628440857,-0.6680979132652283,1.0128085613250732,0.4438183456285734,1.035536068552217,1.5610656664513978
1687102838.726538,0.17808897793293,-0.8729339838027954,-0.4541703462600708,-0.06814941763877869,-0.2287200689315796,-0.0570906400680542,0.12660560011863708,-0.5646569728851318,0.3404594957828522,0.3736942890637773,1.0611845887500129,1.6072837790185281
1687102838.815467,0.15870292484760284,-0.8732052445411682,-0.46078839898109436,-0.056652143597602844,-0.02443873882293701,-0.06074175238609314,-0.2291218787431717,-0.2835235893726349,0.17270343005657196,0.3316916121895302,1.0617408831772936,1.630388918046989
1687102838.8314152,0.1464291363954544,-0.8709463477134705,-0.46905335783958435,-0.0147000253200531,0.03375762701034546,-0.026597917079925537,0.06805494427680969,-0.10777615755796432,0.17048828303813934,0.302593437382709,1.0571248922679917,1.6537370889002814
1687102838.865279,0.14096657931804657,-0.8723640441894531,-0.4680912494659424,-0.004278331995010376,-0.061321258544921875,-0.03341937065124512,-0.07013222575187683,0.012923228554427624,0.05049463361501694,0.2925132712574312,1.060017551413717,1.6616317569469583
1687102838.939712,0.14121675491333008,-0.871192216873169,-0.470193475484848,-0.016491428017616272,-0.007683455944061279,-0.015249639749526978,0.006093301810324192,0.037316855043172836,-0.03130369260907173,0.29176645048098115,1.057625584051233,1.6643556435096913
1687102838.972821,0.1427852064371109,-0.8713229894638062,-0.46947699785232544,0.03398787975311279,0.011581778526306152,-0.0075127482414245605,0.016773110255599022,0.033534031361341476,-0.03948831930756569,0.2952476347451056,1.0578919627476269,1.6614241635503064
1687102839.047948,0.14428095519542694,-0.8709135055541992,-0.4697793424129486,-0.006997615098953247,-0.007245004177093506,0.01113063097000122,-0.06790023297071457,-0.002730343025177717,-0.026886042207479477,0.2979805563204214,1.0570581349136943,1.6596395736989091
1687102839.092855,0.14569871127605438,-0.8698177337646484,-0.4713691771030426,0.01757030189037323,0.020193159580230713,-0.027425378561019897,0.005436566658318043,0.02374933287501335,-0.02982017956674099,0.2997814670564164,1.0548327196269045,1.657128904775516
1687102839.170998,0.14762525260448456,-0.8700050115585327,-0.47042325139045715,0.009616553783416748,-0.01355510950088501,0.009867191314697266,-0.051446158438920975,-0.0007246501045301557,-0.04103921353816986,0.3040812493905822,1.05521254374933,1.65323096449275
1687102839.185543,0.14971600472927094,-0.8675665259361267,-0.47425025701522827,0.0033753961324691772,0.01881176233291626,-0.004890948534011841,0.01167875062674284,0.011204469949007034,-0.018157798796892166,0.30578829628196263,1.0502881111190128,1.6515658841230325
1687102839.224097,0.15106628835201263,-0.86726313829422,-0.47437727451324463,0.017146587371826172,-0.01121586561203003,-0.02388322353363037,-0.048076990991830826,0.023082301020622253,0.0031500207260251045,0.30829789591905293,1.049678316324581,1.650343796423324
1687102839.270287,0.15229356288909912,-0.8678439259529114,-0.4729202687740326,0.02130568027496338,-0.0031734704971313477,-0.026545703411102295,0.10105283558368683,-0.017470650374889374,-0.07851827889680862,0.3115414671822272,1.0508461616038327,1.6464366816868368
1687102839.338851,0.16520807147026062,-0.8588342070579529,-0.4848816990852356,-0.09359857439994812,-0.14691835641860962,-0.1059233546257019,-0.5855865478515625,0.2869465947151184,-0.4541400969028473,0.3283822281439244,1.032989480864227,1.6325480138726225
1687102839.386633,0.21611402928829193,-0.8283366560935974,-0.5168686509132385,-0.2606391906738281,-0.1640492081642151,-0.11135101318359375,-1.3380250930786133,0.8565198183059692,-1.2670563459396362,0.39603033340397575,0.9761320957746066,1.5854453444801127
1687102839.460053,0.31533893942832947,-0.7647953629493713,-0.5618268251419067,-0.4749763607978821,-0.1398524045944214,-0.02371394634246826,-1.1633989810943604,1.4514753818511963,-2.2048935890197754,0.5114578485680099,0.8707236628267577,1.5130138172743495
1687102839.475292,0.4647849500179291,-0.6924671530723572,-0.5517827272415161,-0.6152366399765015,-0.16960859298706055,0.04487049579620361,-0.2727908194065094,1.863480567932129,-3.2953827381134033,0.7000262829943935,0.764903176563188,1.3708988916411282
1687102839.543592,0.6393909454345703,-0.5806414484977722,-0.5040186047554016,-0.7144947648048401,-0.19235354661941528,0.10246831178665161,-0.8036765456199646,2.086106300354004,-4.153748989105225,0.9032431707819145,0.61951630994352,1.2118546886517936
1687102839.609999,0.7999536991119385,-0.38701367378234863,-0.4585789144039154,-0.6469842791557312,-0.15972405672073364,0.18381386995315552,-1.7627547979354858,2.3701274394989014,-4.460959434509277,1.050273080813076,0.3973906749055673,1.1413154922882336
1687102839.646692,0.9170271158218384,-0.16608156263828278,-0.3625992238521576,-0.4666944742202759,0.020787417888641357,0.06503760814666748,-1.129433274269104,2.8245134353637695,-4.475394248962402,1.194255413755334,0.1668547061407887,1.09757066930932
1687102839.689425,0.9729334712028503,0.06572616845369339,-0.22154125571250916,-0.4238002300262451,-0.03827559947967529,0.09062087535858154,-1.6019954681396484,3.1338717937469482,-4.236827373504639,1.346909276731867,-0.06577358141525512,1.1090631957643
1687102839.760479,0.959098756313324,0.2770346403121948,-0.058147650212049484,-0.4123764634132385,0.05722436308860779,0.10657907277345657,-0.7366412878036499,3.250636100769043,-4.140233516693115,1.5102430608030426,-0.28070657704339935,1.125334894775244
1687102839.775432,0.8785322904586792,0.4633523225784302,0.11612728238105774,-0.463798463344574,-0.035038113594055176,0.13793158531188965,-1.3739840984344482,3.2079877853393555,-3.937870740890503,1.7022177337438413,-0.4817743934194908,1.199290086575386
1687102839.8244529,0.7424634099006653,0.6135241389274597,0.2689535915851593,-0.5378736257553101,0.020692050457000732,0.1939675211906433,-0.7882709503173828,3.000967502593994,-3.843662977218628,1.918337834672087,-0.6605156703288594,1.3099329392033898
1687102839.906338,0.5674107074737549,0.7293330430984497,0.3822545111179352,-0.4814731478691101,-0.02913767099380493,0.24633127450942993,-0.4140901565551758,2.7455813884735107,-3.740844249725342,2.163640150889173,-0.8173465695141711,1.458986143211577
1687102839.9277349,0.36568310856819153,0.8084831237792969,0.46111923456192017,-0.5242676734924316,-0.0572471022605896,0.20277535915374756,-0.33925744891166687,2.486131191253662,-3.816246271133423,2.471113918782831,-0.9415700570252938,1.6868093658214072
1687102839.980907,0.14271944761276245,0.8551493287086487,0.498347669839859,-0.43573400378227234,-0.007798433303833008,0.18928956985473633,-0.05588351562619209,2.4304559230804443,-3.9860317707061768,2.8626727265003438,-1.0258388058608807,2.009976224467248
1687102840.062712,-0.09592125564813614,0.8568590879440308,0.506549060344696,-0.41147929430007935,0.045210063457489014,0.1596192717552185,-0.1013956069946289,2.4762840270996094,-4.219552040100098,-2.9544463220505057,-1.029146172083246,2.4077173808428727
1687102840.106425,-0.34034255146980286,0.8178702592849731,0.4639558792114258,-0.32655802369117737,0.2670295834541321,0.16739174723625183,0.7992327213287354,2.59423828125,-4.382069110870361,-2.5086921162961353,-0.9576999548838863,2.7875226255908827
1687102840.119368,-0.5639742612838745,0.7316898107528687,0.3828360140323639,-0.49037766456604004,0.3680874705314636,0.20754188299179077,0.29793021082878113,2.5224788188934326,-4.113308429718018,-2.1671644474277474,-0.8207976934483829,3.055176559351447
1687102840.194271,-0.7283739447593689,0.6247283220291138,0.28140005469322205,-0.3648114800453186,0.7470825910568237,0.26286566257476807,1.5074410438537598,1.587589144706726,-3.2962241172790527,-1.9394717378281265,-0.674783520240553,-3.049850291713147
1687102840.230694,-0.8206481337547302,0.5346006751060486,0.20183773338794708,-0.14419549703598022,0.6140503287315369,0.31874629855155945,1.827064871788025,0.3943331241607666,-2.375722646713257,-1.8119588263275899,-0.5640351541762677,-2.9114012240097242
1687102840.272578,-0.877983808517456,0.45577067136764526,0.1463462859392166,-0.1119300127029419,0.4710022807121277,0.20242378115653992,1.4298818111419678,0.1864454597234726,-2.076117515563965,-1.735962358119608,-0.4732378435405267,-2.780546887572232
1687102840.3447518,-0.9157314896583557,0.38426682353019714,0.11736612766981125,-0.03943818807601929,0.5314435958862305,0.17610609531402588,1.9813644886016846,-0.3413139581680298,-1.5108541250228882,-1.6982679125394118,-0.39441354745040685,-2.689184244318272
1687102840.383119,-0.9348731637001038,0.3380011320114136,0.10847778618335724,-0.04573291540145874,0.29497918486595154,-0.04078984260559082,1.0879721641540527,-0.4350384771823883,-0.9370363354682922,-1.6863144911385701,-0.3447922188696535,-2.589277473790922
1687102840.4372401,-0.9462989568710327,0.3062836825847626,0.10348130762577057,0.015696048736572266,0.38599228858947754,-0.06264878809452057,1.3760812282562256,-0.284427672624588,-0.6205487847328186,-1.6797172539907776,-0.31128663732960604,-2.507239654369772
1687102840.483293,-0.9514616131782532,0.2874797284603119,0.10989328473806381,0.05409210920333862,0.07435193657875061,-0.0693201869726181,-0.020530052483081818,-0.05531592294573784,-0.294656902551651,-1.685786248105135,-0.29159443854475253,-2.503984832981908
1687102840.548787,-0.9541032910346985,0.28078898787498474,0.10413628816604614,-0.008207440376281738,0.25751054286956787,-0.06655395776033401,0.45483726263046265,-0.12108934670686722,-0.08398142457008362,-1.6795117043490284,-0.28461608426958024,-2.460438583664031
1687102840.588126,-0.9535205364227295,0.28113803267478943,0.10844172537326813,0.12390035390853882,0.10667926073074341,-0.06316902488470078,-0.13344702124595642,0.10515964031219482,0.09121236205101013,-1.6840375056182277,-0.28497977867747837,-2.4733790778254003
1687102840.6417708,-0.9517786502838135,0.28886204957962036,0.10332696884870529,-0.042484164237976074,0.05221766233444214,-0.02520190179347992,-0.08781055361032486,0.03174431994557381,0.20613455772399902,-1.6789347990444097,-0.29303800805113883,-2.4690825066628923
1687102840.679625,-0.9482942819595337,0.2991516888141632,0.10604900121688843,0.03104269504547119,0.04708552360534668,-0.014191031455993652,-0.43294399976730347,0.1347344070672989,0.30046844482421875,-1.6821649166426997,-0.3038034939400309,-2.4902524179248657
1687102840.724787,-0.9432584047317505,0.314368337392807,0.10693856328725815,-0.0028321146965026855,0.043496012687683105,-0.027272485196590424,-0.7354495525360107,0.12404713779687881,0.47104278206825256,-1.6836857601546102,-0.31979116754848125,-2.51735110043924
1687102840.7834601,-0.9326499104499817,0.34077954292297363,0.1184629574418068,0.06234961748123169,0.22761031985282898,-0.008584387600421906,-1.5206116437911987,0.16616475582122803,0.9518019556999207,-1.6971373925364273,-0.3477459570475032,-2.5821416329939337
1687102840.831283,-0.9117060899734497,0.38554489612579346,0.14194050431251526,0.001198887825012207,0.38825878500938416,-0.06778287887573242,-1.4043726921081543,0.01974545046687126,1.4167289733886719,-1.7252431464183582,-0.3957983065129015,-2.6698983600889274
1687102840.940003,-0.8757383227348328,0.4516497552394867,0.17057141661643982,-0.12891548871994019,0.5571697950363159,-0.0293818861246109,-1.2631316184997559,-0.030414944514632225,2.015962839126587,-1.7631622716224693,-0.46861358789812785,-2.7641708892998897
1687102840.956637,-0.8165560364723206,0.5405640602111816,0.20255011320114136,-0.2041805386543274,0.6214842200279236,0.04531368613243103,-0.7793775796890259,-0.35335472226142883,2.5758554935455322,-1.8139427581749208,-0.5711074090033184,-2.847185746462753
1687102840.9801478,-0.7264479398727417,0.643146276473999,0.24214918911457062,-0.24448400735855103,0.4772607684135437,0.0909806340932846,-0.7783389687538147,-0.5846254229545593,3.1193127632141113,-1.8925467219738719,-0.6985999896301788,-2.940337577474137
1687102841.023559,-0.5999704003334045,0.7452513575553894,0.29092302918434143,-0.43498748540878296,0.3390076756477356,0.08805957436561584,-0.4145828187465668,-0.9504398703575134,3.4666748046875,-2.022287586957776,-0.8409117682907884,-3.0702648663338152
1687102841.0872722,-0.44209447503089905,0.8345100283622742,0.3288552761077881,-0.5237869620323181,0.19974613189697266,0.11888328194618225,-0.18943625688552856,-1.1735213994979858,3.646895408630371,-2.2103546138310866,-0.9872428928300392,3.042319576885811
1687102841.126511,-0.2534880042076111,0.9000070691108704,0.3545854985713959,-0.6216645836830139,0.1491718888282776,0.11137208342552185,0.04921707138419151,-1.509321928024292,3.925938844680786,-2.520946182966204,-1.119785784112103,2.763487752155109
1687102841.24104,-0.040405403822660446,0.9314389824867249,0.36164718866348267,-0.6705778241157532,0.09810197353363037,0.12901434302330017,0.08964944630861282,-1.6665565967559814,3.9703848361968994,-3.030328059216552,-1.1983474208749447,2.2974255251596523
1687102841.256575,0.17289580404758453,0.9246717691421509,0.3392482101917267,-0.6457351446151733,0.043193280696868896,0.13328590989112854,0.6552859544754028,-1.6917842626571655,3.8762893676757812,2.6702596581949054,-1.1801727286483745,1.7629929012209702
1687102841.290621,0.37433257699012756,0.8796708583831787,0.2933504581451416,-0.6692086458206177,-0.05490279197692871,0.1638638973236084,0.31293123960494995,-1.757724642753601,3.8024532794952393,2.2354957555247985,-1.0751696606148606,1.3788997303999984
1687102841.330445,0.5556231737136841,0.7998066544532776,0.22713863849639893,-0.6224872469902039,0.007810413837432861,0.1484411656856537,0.8879945278167725,-1.6904184818267822,3.683683156967163,1.9588656573140126,-0.9269730913149281,1.1538961612296081
1687102841.4097419,0.7088724374771118,0.6887391209602356,0.1521124690771103,-0.5806681513786316,-0.048892319202423096,0.22395563125610352,0.28968584537506104,-1.775957703590393,3.641122579574585,1.7821745413529193,-0.7597484871673038,1.0331677560769588
1687102841.44891,0.8329950571060181,0.5499157905578613,0.06092466786503792,-0.5420863032341003,0.1191515326499939,0.21553409099578857,1.0264172554016113,-1.9310264587402344,3.6790125370025635,1.6438056225363755,-0.5822634430278973,0.9609898125097357
1687102841.481192,0.9208551645278931,0.38640379905700684,-0.05213548243045807,-0.4237084984779358,0.12757334113121033,0.23583602905273438,0.8384765386581421,-1.970345139503479,3.736666202545166,1.5142403287883697,-0.39672933710786235,0.8948831325482556
1687102841.5405002,0.9669945240020752,0.20175667107105255,-0.15561442077159882,-0.43064814805984497,0.19449882209300995,0.18991614878177643,1.028479814529419,-1.870984673500061,3.8530328273773193,1.4112384564394669,-0.20315115142066154,0.8750727301945195
1687102841.584748,0.968375027179718,-0.0009199235937558115,-0.24949763715267181,-0.40167880058288574,0.18784010410308838,0.18501397967338562,1.1237636804580688,-1.7277950048446655,3.9445760250091553,1.318634781002535,0.0009199237068855377,0.858858338236725
1687102841.627224,0.9252281188964844,-0.20227332413196564,-0.32099562883377075,-0.3772546052932739,0.10431194305419922,0.12546953558921814,0.8395519256591797,-1.4585118293762207,3.860793113708496,1.2368530734399532,0.20367867299803064,0.8667286040848114
1687102841.695734,0.8453394174575806,-0.3778488039970398,-0.3776659071445465,-0.34724682569503784,0.0022384822368621826,0.12246263027191162,0.13765506446361542,-1.3435636758804321,3.778323173522949,1.150638013712532,0.3874717612583808,0.9240293573599164
1687102841.744371,0.7348356246948242,-0.5323677062988281,-0.4202396273612976,-0.30641454458236694,0.10911941528320312,0.09588348865509033,0.44631701707839966,-1.3049652576446533,3.600808620452881,1.0513080674304507,0.5613951294195295,0.9965395155830726
1687102841.7845721,0.5988091826438904,-0.6605327725410461,-0.45290613174438477,-0.32405948638916016,0.11439025402069092,0.11951687932014465,0.2720935344696045,-1.254583477973938,3.534991979598999,0.9232469583013322,0.7215281301522091,1.1040469548817005
1687102841.84437,0.45588260889053345,-0.7526746392250061,-0.47502848505973816,-0.27195316553115845,-0.0799364447593689,-0.02024132013320923,-0.01488974317908287,-0.977570652961731,2.9753310680389404,0.7648342492293186,0.8521150602351237,1.2460741535195732
1687102841.923953,0.3368481397628784,-0.8038262128829956,-0.49030259251594543,-0.2050885260105133,-0.2749853730201721,-0.12732741236686707,0.408332884311676,-0.49364104866981506,2.0817177295684814,0.6019619586974541,0.9336996170910272,1.4064941285100103
1687102841.941438,0.26634418964385986,-0.8394348621368408,-0.4737190902233124,-0.16356101632118225,-0.3068053126335144,-0.09660860896110535,0.11515694111585617,-0.28325000405311584,1.0066730976104736,0.5121925122661048,0.9962424750250685,1.4952394076116802
1687102841.993789,0.22866466641426086,-0.8410080671310425,-0.49032434821128845,-0.03220777213573456,-0.15413957834243774,0.015409767627716064,-0.27543798089027405,-0.46207287907600403,0.44152411818504333,0.43637028442027614,0.999143830798477,1.5616780289606174
1687102842.0341048,0.20296348631381989,-0.84612637758255,-0.4928244948387146,-0.03694787621498108,0.020259737968444824,-0.0350685715675354,0.025386307388544083,-0.403475821018219,0.30554696917533875,0.39066906550923836,1.0086750265292612,1.5899844397675384
1687102842.138264,0.18277418613433838,-0.8414695262908936,-0.5084511637687683,0.008418411016464233,-0.04041212797164917,-0.01683264970779419,-0.3343689441680908,-0.25890377163887024,0.2198202759027481,0.3450884923441669,0.9999972873534863,1.623573767764879
1687102842.175375,0.17563515901565552,-0.8431636691093445,-0.5081607103347778,-0.04926188290119171,-0.009390592575073242,-0.14873015880584717,0.1913643628358841,0.03677494451403618,0.07869591563940048,0.33277566476568377,1.003140577711012,1.6332093582632377
1687102842.189437,0.17269718647003174,-0.8419528603553772,-0.5111664533615112,0.005067691206932068,-0.009411275386810303,0.05404365062713623,-0.22489677369594574,-0.004457935690879822,0.07109751552343369,0.32580933478652907,1.0008925036543193,1.6427107339226863
1687102842.234558,0.17150740325450897,-0.8414516448974609,-0.5123908519744873,-0.02856305241584778,0.015249252319335938,-0.035613298416137695,0.12453712522983551,0.08430105447769165,0.009006710723042488,0.32299793549762923,0.9999642147237591,1.64800506197457
1687102842.284429,0.17340470850467682,-0.8413042426109314,-0.5119941830635071,-0.005084991455078125,-0.0008741021156311035,0.009369611740112305,-0.08159127831459045,0.015490494668483734,-0.023278990760445595,0.3265592361504838,0.9996914146840697,1.6473350222156224
1687102842.357501,0.1732127070426941,-0.8398172855377197,-0.5144941210746765,-0.0019480735063552856,-0.011455237865447998,-0.02147078514099121,-0.009823079220950603,0.0065758065320551395,-0.02888474613428116,0.32474697947447323,0.9969466064382388,1.6482710849564037
1687102842.395977,0.1745271533727646,-0.8385200500488281,-0.516163170337677,0.014239341020584106,0.006610870361328125,-0.000774085521697998,-0.0093503687530756,-0.00392807787284255,-0.04525712877511978,0.3260559359349611,0.9945613761510643,1.646428591695208
1687102842.4443731,0.17662003636360168,-0.8381443619728088,-0.5160614252090454,0.0011906474828720093,-0.002645432949066162,-0.0014404058456420898,-0.04779363051056862,0.01785018853843212,-0.07321898639202118,0.32975054644505775,0.9938722540863195,1.6415569803275931
1687102842.488636,0.1825050562620163,-0.8320106863975525,-0.5238797068595886,-0.02590411901473999,-0.004506528377532959,-0.0414736270904541,-0.23147077858448029,0.13942331075668335,-0.1253112107515335,0.33522379832905835,0.9827223547486672,1.638639901013988
1687102842.5632272,0.194578617811203,-0.8223772048950195,-0.5346352458000183,-0.0376724898815155,-0.020976006984710693,-0.034441232681274414,-0.7109844088554382,0.32123976945877075,-0.27470269799232483,0.3490448765491624,0.9655767977086559,1.6351444258343133
1687102842.599411,0.22675538063049316,-0.7876224517822266,-0.5729160904884338,-0.18235228955745697,-0.10458940267562866,-0.04305070638656616,-0.7968138456344604,0.6528586149215698,-0.701059103012085,0.37687319983522255,0.9069407776538178,1.63016673843211
1687102842.665262,0.29247990250587463,-0.7595952749252319,-0.58092200756073,-0.22013798356056213,-0.1380792260169983,-0.12069237232208252,-0.8346623778343201,1.0654178857803345,-1.3851492404937744,0.46642401905277797,0.8626906543836973,1.5703686594720987
1687102842.747387,0.38918444514274597,-0.6985061168670654,-0.6005204319953918,-0.26406237483024597,-0.12899327278137207,-0.04886317253112793,-1.1503846645355225,1.4787023067474365,-1.786755919456482,0.5750233225819298,0.7733077819726699,1.51073965833836
1687102842.76683,0.5070655345916748,-0.6323460340499878,-0.585681676864624,-0.3579108715057373,-0.04834848642349243,-0.08546090126037598,-0.3900785446166992,1.7222471237182617,-2.3623290061950684,0.7135783379505909,0.6845778794540942,1.4245437680973516
1687102842.80919,0.6396397352218628,-0.5376964211463928,-0.5493118762969971,-0.4115360975265503,-0.15895885229110718,-0.08720850944519043,-0.6455502510070801,2.2772727012634277,-2.948413372039795,0.8612251482257925,0.5677025387668662,1.3373995329307173
1687102842.852606,0.7780299782752991,-0.41072431206703186,-0.4753682017326355,-0.4418788552284241,-0.13695937395095825,-0.025913536548614502,-0.6636613607406616,2.5981903076171875,-3.2889981269836426,1.0223354281116481,0.42324833816043517,1.2611614142647896
1687102842.892826,0.895501434803009,-0.24587146937847137,-0.37097734212875366,-0.6774229407310486,-0.11577707529067993,0.04495808482170105,-0.757629930973053,2.9058237075805664,-3.727334499359131,1.178051011785033,0.24841865717127312,1.2095440641502972
1687102842.9384642,0.9704311490058899,-0.05310044810175896,-0.23546470701694489,-0.6575802564620972,-0.12420662492513657,0.06429162621498108,-0.43393707275390625,3.0652318000793457,-4.0900349617004395,1.3327573144621465,0.05312543552865729,1.1778788076567206
1687102842.9997082,0.9838697910308838,0.15940867364406586,-0.08117219805717468,-0.6478713750839233,-0.13424693048000336,0.1640731692314148,-0.7569215297698975,3.0656750202178955,-4.301906585693359,1.4884797690555047,-0.16009164070325846,1.175411530927065
1687102843.040911,0.9245429635047913,0.37381523847579956,0.07404348254203796,-0.735761284828186,0.0045569539070129395,0.16849493980407715,-0.2867470979690552,3.1147093772888184,-4.545688152313232,1.6507123372435826,-0.3831190926426955,1.1950382182957475
1687102843.112008,0.7912764549255371,0.5695436000823975,0.22248975932598114,-0.5635237693786621,-0.10695815086364746,0.1961655616760254,-0.6490933299064636,3.148030996322632,-4.7524614334106445,1.8448973248715808,-0.6059504602420097,1.2748893625374227
1687102843.161639,0.5889281034469604,0.7277540564537048,0.3514794707298279,-0.42320239543914795,0.026548922061920166,0.25546932220458984,-0.5287653207778931,3.1906723976135254,-4.728029727935791,2.1088685313080577,-0.8150414655176914,1.4320165438688603
1687102843.2004561,0.3373812139034271,0.8275793194770813,0.44864991307258606,-0.49624043703079224,0.06356459856033325,0.2705884575843811,-0.5039553046226501,3.192683696746826,-4.757364273071289,2.49681779311752,-0.9747815741355278,1.7200129854014001
1687102843.2503319,0.060890089720487595,0.8644023537635803,0.49909988045692444,-0.4992293417453766,0.20301085710525513,0.2896420359611511,-0.33330103754997253,3.07071852684021,-4.554848670959473,3.020192781162993,-1.0439605703661579,2.1486693778770207
1687102843.294416,-0.2014414221048355,0.8455078601837158,0.494507759809494,-0.38544216752052307,0.32006537914276123,0.24629122018814087,0.007842466235160828,2.8690032958984375,-4.219733238220215,-2.7547598001862026,-1.0075155566921037,2.5678385554435015
1687102843.386907,-0.43636196851730347,0.7805003523826599,0.44766855239868164,-0.49013635516166687,0.31665223836898804,0.2339414656162262,-0.012063863687217236,2.7882659435272217,-3.93455171585083,-2.368983598509449,-0.8954657367089408,2.8637395551824025
1687102843.445734,-0.6270961761474609,0.6848844289779663,0.3710572123527527,-0.4240512251853943,0.44991159439086914,0.2611144483089447,0.6596452593803406,2.1222825050354004,-3.5014309883117676,-2.105095729318589,-0.7544451130367571,3.051513671525365
1687102843.45616,-0.7529474496841431,0.5896224975585938,0.2922595739364624,-0.2803472876548767,0.5169754028320312,0.2707287073135376,0.864179253578186,1.2623789310455322,-2.6442439556121826,-1.9410491436479977,-0.6305913635795898,-3.1071247626547724
1687102843.515475,-0.8301926851272583,0.5104966163635254,0.22399410605430603,-0.1539839506149292,0.5692915916442871,0.24335205554962158,1.2814737558364868,0.5940406322479248,-2.0747270584106445,-1.8343308667750151,-0.5357622147944548,-2.9946804456261664
1687102843.558621,-0.8786294460296631,0.4449280798435211,0.17334826290607452,-0.007875800132751465,0.5248290300369263,0.1879950910806656,1.6633018255233765,0.247262105345726,-1.621575951576233,-1.765588551841389,-0.4610939665343237,-2.8937370160375036
1687102843.591418,-0.908013641834259,0.396028071641922,0.13664878904819489,-0.02471029758453369,0.4628738462924957,0.08483241498470306,1.1957255601882935,-0.019161492586135864,-1.056342601776123,-1.7201674104644444,-0.40718720472732145,-2.796602863370704
1687102843.641553,-0.92319256067276,0.3665440082550049,0.11558850109577179,-0.04101020097732544,0.43092599511146545,0.054409608244895935,1.3027234077453613,-0.2095358967781067,-0.6318750381469727,-1.695353348263871,-0.3752917850065479,-2.711545327041435
1687102843.691112,-0.9310076832771301,0.34945565462112427,0.10538333654403687,0.13977831602096558,0.251786470413208,-0.017019733786582947,1.195094347000122,-0.08859585225582123,-0.36775481700897217,-1.6835093475110106,-0.35699005721923593,-2.6581154697603817
1687102843.7668,-0.9343299269676208,0.34230947494506836,0.09925580024719238,0.016773223876953125,-0.019769221544265747,0.01816057413816452,-0.016706019639968872,-0.10598710924386978,-0.06442802399396896,-1.6766314586910154,-0.34937377238545597,-2.6211763323122463
1687102843.8032699,-0.9345709085464478,0.3414081335067749,0.10008911043405533,0.08760130405426025,0.1403576135635376,0.029579997062683105,0.5347132086753845,-0.13945716619491577,-0.03260771185159683,-1.6774859958111328,-0.3484146276486551,-2.6058142396355595
1687102843.841737,-0.9328297972679138,0.34449586272239685,0.1055990532040596,0.0025166869163513184,-0.01858341693878174,0.041190505027770996,-0.21353065967559814,-0.14126837253570557,0.10995262861251831,-1.6835193654206475,-0.3517017356922382,-2.601059952486684
1687102843.887926,-0.929903507232666,0.35042840242385864,0.1117115169763565,0.007174015045166016,0.10631293058395386,0.0024394989013671875,0.2849518060684204,-0.1741160750389099,0.1406562179327011,-1.690355745621597,-0.3580284850047461,-2.598079310328058
1687102843.937402,-0.925839900970459,0.35953211784362793,0.11643414944410324,-0.041246771812438965,-0.006779462099075317,-0.029489658772945404,0.11635509133338928,-0.1437309831380844,0.17730139195919037,-1.6959001156494375,-0.36776643103205625,-2.5892207461317716
1687102844.012095,-0.9223364591598511,0.3679971992969513,0.11778557300567627,0.014407992362976074,-0.01803690195083618,-0.04434502124786377,0.4566945433616638,-0.11110269278287888,0.13654369115829468,-1.697812317695508,-0.37685415373647424,-2.577461539728783
1687102844.0529652,-0.919269859790802,0.37747299671173096,0.1116115003824234,0.0438578724861145,-0.016129642724990845,-0.016839154064655304,0.5952710509300232,-0.10160978138446808,0.11358211934566498,-1.691618167290527,-0.3870658806327101,-2.545571458903787
1687102844.091882,-0.9166392683982849,0.38455384969711304,0.10904419422149658,-0.028825759887695312,-0.07443425059318542,0.04300951212644577,0.2361704409122467,-0.11873539537191391,0.1148780807852745,-1.6892007389634003,-0.39472446222182844,-2.526056320234135
1687102844.145637,-0.9135116338729858,0.39376387000083923,0.10220742970705032,-0.030885279178619385,0.04848155379295349,0.042873017489910126,1.758670687675476,-0.32297995686531067,0.07485349476337433,-1.68221705022806,-0.40472269351046325,-2.480810178250092
1687102844.192447,-0.9113984107971191,0.40547943115234375,0.07028212398290634,0.04950559139251709,0.026908904314041138,0.0842588022351265,3.4614834785461426,-0.6366430521011353,-0.04600687325000763,-1.6477586174137229,-0.4175032673686905,-2.334310135839372
1687102844.270885,-0.9114277958869934,0.4108390808105469,0.022596443071961403,-0.004160523414611816,-0.006038665771484375,0.17340266704559326,4.450989723205566,-0.9714195132255554,-0.12013815343379974,-1.5955836060584365,-0.42337419875296683,-2.1078147936434055
1687102844.307421,-0.9119743704795837,0.4101904332637787,0.006824110168963671,-0.06330639123916626,-0.2659796476364136,0.04803121089935303,-0.44387945532798767,-0.46281373500823975,0.007945374585688114,-1.5782789743795451,-0.422662863889622,-1.9658526675691044
1687102844.350667,-0.9108104109764099,0.40982702374458313,0.04965933412313461,-0.027330398559570312,-0.04881933331489563,0.028984427452087402,-1.1675028800964355,-0.14273394644260406,-0.014876184985041618,-1.6252645392955016,-0.42226441826510913,-2.0525601560768334
1687102844.415487,-0.9113896489143372,0.40722909569740295,0.05944095179438591,0.038937926292419434,0.09595996141433716,-0.0825122594833374,0.4020771086215973,-0.3010164499282837,-0.0834939256310463,-1.635924214628312,-0.4194181347621281,-2.050158028550429
1687102844.45243,-0.9117803573608398,0.40321236848831177,0.07795226573944092,-0.04197031259536743,-0.08653143048286438,-0.07784544676542282,-0.6481084823608398,-0.14117665588855743,-0.0695965513586998,-1.6560834980785937,-0.41502452839079135,-2.070111405756586
