Timestamp,gravityX,gravityY,gravityZ,accelerationX,accelerationY,accelerationZ,rotationRateX,rotationRateY,rotationRateZ,attitudeRoll,attitudePitch,attitudeYaw
1687102146.708323,-0.8209438323974609,0.5540820360183716,-0.13800130784511566,-0.0022678375244140625,-0.03629034757614136,-0.02175818383693695,-0.02277136966586113,0.058333300054073334,-0.07233384251594543,-1.4042526038473706,-0.5872598692829227,-2.0805697970920694
1687102146.725359,-0.8227328062057495,0.5499606132507324,-0.1437154859304428,0.010843098163604736,0.017544269561767578,0.010628342628479004,0.15117698907852173,0.04657815396785736,-0.11153783649206161,-1.3978605584498822,-0.5823170684008698,-2.077820040505046
1687102146.799803,-0.825745165348053,0.5441238284111023,-0.14857405424118042,-0.012038648128509521,-0.023005664348602295,0.04417341947555542,-0.058429230004549026,0.09113562852144241,-0.076558418571949,-1.392773867909169,-0.5753444548252598,-2.0755949345278157
1687102146.8513842,-0.8271210193634033,0.5413485169410706,-0.15103879570960999,0.026202380657196045,0.05086034536361694,0.018989205360412598,0.08061201125383377,0.051678746938705444,-0.09570181369781494,-1.3901785204163726,-0.5720401332954526,-2.076012633834999
1687102146.89031,-0.8284692764282227,0.5398160815238953,-0.14912165701389313,0.03278452157974243,0.008874654769897461,0.03730525076389313,-0.1311337947845459,-0.03922117501497269,0.0168563574552536,-1.3927066822020944,-0.570218619915436,-2.078860974817246
1687102146.93308,-0.8267295360565186,0.5450913310050964,-0.1392609179019928,0.01612168550491333,0.006513833999633789,0.007241860032081604,-0.14781557023525238,-0.07355866581201553,0.07378668338060379,-1.4039149859185711,-0.5764980310690284,-2.090542988424791
1687102147.00942,-0.8272271156311035,0.5448881983757019,-0.1370849758386612,-0.00843578577041626,0.0030854344367980957,-0.0216217041015625,0.1978699266910553,0.015211904421448708,-0.10786712914705276,-1.4065725213265317,-0.5762557924011232,-2.089259206994197
1687102147.073719,-0.8297712206840515,0.5390619039535522,-0.14454016089439392,0.004469156265258789,0.02600151300430298,0.0450223833322525,0.15020467340946198,0.0430174395442009,-0.09504827111959457,-1.3983339906434016,-0.5693229226951295,-2.077748225706613
1687102147.088379,-0.8306739926338196,0.5379037261009216,-0.14366836845874786,0.018463730812072754,0.0073081254959106445,0.037451907992362976,-0.1979684829711914,-0.04765503108501434,0.044766880571842194,-1.399536579195774,-0.5679484529274101,-2.0811806827965573
1687102147.1420531,-0.8286579847335815,0.5435001254081726,-0.13391730189323425,0.021651029586791992,0.001681208610534668,-0.021722331643104553,-0.10982344299554825,-0.05963769927620888,0.1051267683506012,-1.410574139950234,-0.5746012376448794,-2.093154133197945
1687102147.1849508,-0.8278436660766602,0.5447437167167664,-0.133900448679924,-0.01998049020767212,-0.013203799724578857,-0.055949389934539795,0.001938238157890737,0.11595351248979568,-0.039760518819093704,-1.4104390593528175,-0.5760834648794624,-2.0935005636234925
1687102147.291675,-0.8278698921203613,0.5431752800941467,-0.13997115194797516,-0.0076403021812438965,-0.03260105848312378,-0.02021561563014984,0.0036037792451679707,0.13578124344348907,-0.06445933878421783,-1.4033064448136048,-0.5742143169975685,-2.0951803097261186
1687102147.305284,-0.827976644039154,0.542018711566925,-0.14377284049987793,0.0059397220611572266,0.015552699565887451,0.019505247473716736,-0.03101571649312973,0.032415613532066345,0.02690306305885315,-1.3988670537751269,-0.5728374424326063,-2.0958504683949357
1687102147.329498,-0.8279354572296143,0.5416111350059509,-0.145534485578537,0.015252351760864258,0.013778209686279297,0.0091208815574646,0.004394471645355225,0.05243217572569847,-0.047853000462055206,-1.3967939457691727,-0.5723525191390125,-2.094226162221308
1687102147.388686,-0.8270318508148193,0.5430372357368469,-0.14535777270793915,0.011541128158569336,0.006874203681945801,0.06839247047901154,-0.12765544652938843,0.05080476403236389,0.04731865972280502,-1.3968149185713816,-0.5740499031488067,-2.1007442915249106
1687102147.441509,-0.826259434223175,0.5454744100570679,-0.1405460238456726,0.013728857040405273,0.03120100498199463,0.026044011116027832,-0.11268368363380432,-0.060416076332330704,0.06317578256130219,-1.4023098108479497,-0.576955025315978,-2.1071779865792317
1687102147.481885,-0.825509250164032,0.5482960343360901,-0.13381287455558777,-0.007117092609405518,-0.05485737323760986,-0.036932989954948425,-0.08420729637145996,0.024755319580435753,-0.030595581978559494,-1.4100967200206027,-0.580325337584778,-2.114916898580707
1687102147.587609,-0.8273234963417053,0.5450452566146851,-0.13587291538715363,-0.016243338584899902,-0.023591458797454834,0.0074549466371536255,-0.09980649501085281,0.09912839531898499,-0.11989257484674454,-1.4080175327098265,-0.5764431149353505,-2.1179615888086176
1687102147.604154,-0.8298971652984619,0.5413143038749695,-0.13509008288383484,-0.01649254560470581,-0.04165011644363403,0.0035898983478546143,-0.2588326632976532,0.11042100191116333,-0.11141839623451233,-1.4094323116565495,-0.5719994613783776,-2.1312842823450153
1687102147.6515288,-0.8331963419914246,0.5372917056083679,-0.13077370822429657,-0.008249759674072266,-0.025954365730285645,0.048986539244651794,-0.31432199478149414,0.07222478836774826,-0.12965571880340576,-1.4151121917145166,-0.5672226040746774,-2.150764894054097
1687102147.69244,-0.8352294564247131,0.5352987051010132,-0.12588582932949066,0.02492666244506836,0.042734742164611816,0.06375205516815186,-0.44604620337486267,0.0721144899725914,0.029941799119114876,-1.4212022397727573,-0.5648613597047244,-2.1698669925549594
1687102147.740347,-0.826219916343689,0.5541053414344788,-0.10162747651338577,0.07150489091873169,0.26973193883895874,0.2890053987503052,-1.2140642404556274,-0.2182614803314209,0.7028531432151794,-1.4484081548088992,-0.5872878519378726,-2.214172053638051
1687102147.780828,-0.7939386367797852,0.6069989204406738,-0.034839894622564316,0.2672662138938904,0.5918688774108887,0.10753273963928223,-1.8909921646118164,-0.8669034242630005,1.7258763313293457,-1.5269421118194682,-0.6522787374749076,-2.3038458791923047
1687102147.838732,-0.7105183005332947,0.6982085108757019,0.08757060766220093,-0.009238779544830322,0.9007599949836731,0.4128870964050293,-2.1701223850250244,-1.936400294303894,3.2501776218414307,-1.6934268043248017,-0.7728919462678286,-2.4577015890012666
1687102147.91156,-0.5347338318824768,0.8102449774742126,0.23992247879505157,-0.2527416944503784,1.3724331855773926,0.4857093095779419,-0.8238784670829773,-3.741563320159912,4.708932876586914,-1.9925490559589187,-0.9445699871110501,-2.6624835807103495
1687102147.953889,-0.23814111948013306,0.9037931561470032,0.3555935025215149,-0.6767148971557617,1.228317379951477,0.497418612241745,-0.14722168445587158,-4.925142288208008,5.804556846618652,-2.551492707260953,-1.128551297343128,-3.056529387855536
1687102147.9950829,0.1439172327518463,0.9380588531494141,0.31517258286476135,-1.122341275215149,1.32021164894104,0.4601265490055084,2.141799211502075,-5.116922855377197,6.704451560974121,2.71323898848452,-1.2169845598429647,2.4067924787049733
1687102148.0574532,0.5126099586486816,0.8498358130455017,0.12251484394073486,-1.4028383493423462,1.0320611000061035,0.5426157712936401,2.912992000579834,-4.4966936111450195,6.981139659881592,1.8053975156646178,-1.0156736804771007,1.6776368211002504
1687102148.100585,0.7722741961479187,0.6201973557472229,-0.1376512348651886,-1.474041223526001,0.9535179138183594,0.6406266689300537,3.9041354656219482,-3.4037489891052246,6.796848773956299,1.3944073268174562,-0.6689942747267935,1.4037507069606818
1687102148.185567,0.8855729103088379,0.3089640438556671,-0.3468457758426666,-1.2871384620666504,0.5725057125091553,0.7171612977981567,3.316303014755249,-2.670825958251953,5.792586803436279,1.1974979737103812,-0.3141035988850157,1.3095184779096192
1687102148.1934009,0.8804185390472412,-0.0032911787275224924,-0.474185973405838,-1.0855271816253662,0.43986043334007263,0.6829567551612854,3.5257372856140137,-1.8271358013153076,4.832915306091309,1.0767541828664482,0.00329118456025159,1.258106046338898
1687102148.2334828,0.8138725161552429,-0.2682107090950012,-0.5154363512992859,-0.9696494936943054,0.3147500455379486,0.6576787829399109,2.6132705211639404,-1.2272261381149292,4.103065490722656,1.0062411613778577,0.27153520529972125,1.2430899143578575
1687102148.2835069,0.7097227573394775,-0.4918188154697418,-0.5043885707855225,-0.7558958530426025,0.3974279761314392,0.50058913230896,2.7327260971069336,-0.9704881310462952,3.877368927001953,0.9529358603481801,0.5141774389220466,1.2351280718597417
1687102148.366181,0.5736284852027893,-0.6833271980285645,-0.45167940855026245,-0.5674029588699341,0.48044639825820923,0.43957915902137756,3.193678855895996,-1.1232417821884155,3.6437153816223145,0.9037810342017423,0.7523100779707685,1.2291849447020982
1687102148.3989701,0.41440314054489136,-0.8305053114891052,-0.37219738960266113,-0.42987558245658875,0.3498077392578125,0.3131153881549835,3.0216856002807617,-1.1891993284225464,3.4364893436431885,0.8390026244072813,0.980014257193062,1.2423294690614983
1687102148.5367851,0.24286265671253204,-0.9464668035507202,-0.21264615654945374,-0.32260510325431824,0.2855476140975952,0.20570337772369385,4.298575401306152,-1.224410057067871,3.456433057785034,0.8516368432147781,1.2421086498924971,1.1561403619696506
1687102148.556944,0.07516218721866608,-0.9965329766273499,-0.035677824169397354,-0.3124363422393799,0.08779573440551758,0.37358367443084717,3.1660385131835938,-1.0816441774368286,2.9582035541534424,1.1276108535721103,1.4875011276984915,0.8151230511629524
1687102148.560835,-0.0343555323779583,-0.9947478175163269,0.09641829878091812,-0.8715740442276001,-0.9612763524055481,0.2281818389892578,2.918590545654297,0.22960378229618073,1.6222580671310425,-2.7993008285221963,1.4682606978996173,-1.5781404484604293
1687102148.5950751,-0.0658288300037384,-0.9773886203765869,0.20094366371631622,-0.2749304473400116,-0.23759257793426514,0.09603813290596008,0.2539747357368469,-0.13667821884155273,0.3523334264755249,-2.825012335051999,1.3577372034127722,-1.5632693273297995
1687102148.646311,-0.07069440931081772,-0.9780771732330322,0.19587679207324982,-0.02093461900949478,-0.0804709792137146,0.01896694302558899,0.14934420585632324,0.137113556265831,0.20526514947414398,-2.7952293709666782,1.3610182786545577,-1.6003448923810506
1687102148.704531,-0.0692766010761261,-0.9741320013999939,0.21509909629821777,0.035081662237644196,0.025172650814056396,-0.015346303582191467,0.5873425602912903,-0.07378581166267395,-0.11885567009449005,-2.830014657475797,1.3428477455810794,-1.5648603480936507
1687102148.748011,-0.06706605106592178,-0.9715855717658997,0.2269880175590515,-0.05187620967626572,0.026013731956481934,0.10090802609920502,-0.13428963720798492,0.15622174739837646,-0.028013847768306732,-2.854305489063913,1.3318402840722061,-1.5393388715435439
1687102148.8309011,-0.06532124429941177,-0.9725609421730042,0.22328922152519226,-0.01033182442188263,0.0718347430229187,-0.00926952064037323,0.028214316815137863,0.11917833983898163,-0.07269290089607239,-2.856992965663358,1.3359966638036536,-1.5283335694609663
1687102148.845385,-0.06305451691150665,-0.9737964868545532,0.21850596368312836,0.007359914481639862,-0.022099018096923828,0.05668631196022034,-0.19450664520263672,0.012644195929169655,-0.041157279163599014,-2.8606537253947506,1.341367590774185,-1.5220513872257038
1687102148.895595,-0.06172763928771019,-0.9754690527915955,0.21130499243736267,0.009222153574228287,-0.000956118106842041,9.022653102874756e-05,-0.1387016922235489,0.05745472386479378,-0.055294934660196304,-2.8573754625761585,1.3488417266480695,-1.5239062335378621
1687102148.973849,-0.05920040234923363,-0.9776318669319153,0.20181986689567566,-0.008899565786123276,-0.017927825450897217,0.007103428244590759,-0.16149862110614777,0.13082174956798553,-0.0392892025411129,-2.856263657192342,1.3588906896633064,-1.5200299669230313
1687102149.019405,-0.05805475264787674,-0.9795151352882385,0.19282060861587524,-0.007847961038351059,-0.024452149868011475,0.005284294486045837,-0.22243495285511017,0.13753469288349152,-0.07098747789859772,-2.8491437944893874,1.3680393495640122,-1.520283692532489
1687102149.064361,-0.0571947917342186,-0.9811448454856873,0.18461765348911285,0.026005804538726807,0.043080270290374756,-0.02221834659576416,0.04155861958861351,0.0873795747756958,-0.03792000561952591,-2.841168252194507,1.376298578425002,-1.5215627825476372
1687102149.126402,-0.05853015556931496,-0.9807170033454895,0.18646341562271118,0.0006077885627746582,-0.0047261714935302734,-0.028977394104003906,-0.007651804946362972,0.14177574217319489,0.016994241625070572,-2.8374363172385637,1.3740972527345505,-1.5198555825626114
1687102149.140849,-0.05833528935909271,-0.9804083704948425,0.18813875317573547,0.003205280750989914,0.06141740083694458,-0.006208211183547974,0.09037516266107559,0.08951450139284134,-0.038705773651599884,-2.840927445702899,1.372524129707658,-1.5103884206306415
1687102149.18943,-0.058267444372177124,-0.9803343415260315,0.18854568898677826,0.004327632486820221,0.0020476579666137695,0.02655741572380066,-0.0012932413956150413,0.022121276706457138,-0.00467796390876174,-2.8418665132035485,1.3721486603760809,-1.5061064699477285
1687102149.261199,-0.0566353015601635,-0.9800583124160767,0.19046860933303833,0.010004434734582901,0.014802515506744385,0.0116492360830307,0.11561207473278046,-0.0907229408621788,-0.053316738456487656,-2.852571427816872,1.3707546838556768,-1.496547362434074
1687102149.303858,-0.05501478165388107,-0.9796969890594482,0.19278769195079803,-0.0015495643019676208,0.011786282062530518,-0.00920918583869934,-0.011569580994546413,0.014230109751224518,-0.002609353279694915,-2.8636163285360356,1.368944380581568,-1.4877421082923752
1687102149.369051,-0.054699428379535675,-0.9791277647018433,0.195746511220932,0.005550902336835861,7.814168930053711e-05,-0.01590636372566223,0.12138500809669495,0.03625667095184326,0.009411622770130634,-2.8691031941958327,1.3661246052519682,-1.4806387466828823
1687102149.4261498,-0.05478611961007118,-0.9792740345001221,0.19498978555202484,0.003989607095718384,-0.01059412956237793,0.033129096031188965,-0.12219782173633575,0.0543929748237133,-0.03509192913770676,-2.8676854559670133,1.3668456814730603,-1.4792183791128872
1687102149.441352,-0.05354419723153114,-0.9805210828781128,0.18897421658039093,-0.01960643380880356,-0.013100683689117432,0.0227261483669281,-0.06725148856639862,0.09513312578201294,-0.04890681058168411,-2.8654882702588456,1.3730971195946122,-1.4780679373741308
1687102149.5175672,-0.05137648805975914,-0.9806795120239258,0.18875379860401154,-0.02980029210448265,-0.013888299465179443,0.02317546308040619,-0.1254628598690033,0.2401120662689209,-0.08447971940040588,-2.87584276018716,1.3739054811552793,-1.461010316868719
1687102149.555083,-0.03425861522555351,-0.9888858199119568,0.14467662572860718,-0.182049959897995,-0.06246006488800049,0.1452556848526001,-1.9648213386535645,0.7856670022010803,-0.6094892024993896,-2.909080875146817,1.4215662431860565,-1.4044788079613748
1687102149.600426,0.047014329582452774,-0.998610258102417,0.023820100352168083,-0.7091084718704224,-0.21901065111160278,0.586455225944519,-1.9265053272247314,0.45646461844444275,-2.67706036567688,2.039754685519161,1.5180690014466391,-0.03983087367587116
1687102149.655549,0.21641947329044342,-0.9681116342544556,-0.12618447840213776,-0.8421823978424072,-0.32925164699554443,0.5130252838134766,-4.606988906860352,0.505827009677887,-4.339684963226318,1.042929488483881,1.317579716395917,0.9899674378153781
1687102149.7255921,0.4528183043003082,-0.8192929029464722,-0.3517310917377472,-0.9842361211776733,0.12654387950897217,0.7866370677947998,-5.503146171569824,0.9047631025314331,-5.589402675628662,0.9103876844456101,0.9601767510859796,1.1650509263152495
1687102149.757124,0.6712306141853333,-0.5307549834251404,-0.5174442529678345,-0.9023860692977905,0.3101128935813904,0.9109227061271667,-5.844672679901123,1.4448975324630737,-5.695043563842773,0.9140597796492628,0.5594910961573291,1.2485731331448915
1687102149.833642,0.8169599175453186,-0.15873073041439056,-0.5544193983078003,-0.9377791285514832,0.32872891426086426,0.7574529051780701,-5.34151554107666,1.7170488834381104,-5.937453746795654,0.9745521325992518,0.15940494510329495,1.3098739678197973
1687102149.8494658,0.854586124420166,0.2317093163728714,-0.4647510349750519,-0.8829827308654785,0.1477157473564148,0.4546191692352295,-4.930618762969971,2.1915578842163086,-6.397695064544678,1.0727011937412212,-0.2338344528435869,1.3568860753951901
1687102149.908006,0.7601740956306458,0.5869276523590088,-0.27865973114967346,-0.9788631200790405,0.5576189160346985,0.47465887665748596,-2.7509548664093018,2.5058672428131104,-6.810374736785889,1.2194336140807178,-0.6272588555474354,1.4100381940278037
1687102149.965704,0.544770359992981,0.8332033753395081,-0.09485515207052231,-1.037568211555481,0.30147069692611694,0.09297829866409302,-3.419300079345703,3.4321134090423584,-6.616541385650635,1.3984051110059017,-0.9848757494247677,1.4635200656196714
1687102150.028605,0.2536945044994354,0.9579106569290161,0.13433703780174255,-0.6578693389892578,0.5214900374412537,0.27688729763031006,-2.493410587310791,3.6049013137817383,-5.8982343673706055,2.057782286193984,-1.2796332974152034,1.9877447173119698
1687102150.072705,-0.058080535382032394,0.9803359508514404,0.1885954737663269,-0.4103948473930359,0.7525742650032043,0.22697770595550537,0.2668095529079437,3.371507406234741,-5.72503137588501,-2.842845938531641,-1.3721568205546135,-3.0619643830355754
1687102150.1176,-0.35688287019729614,0.9237323999404907,0.13911491632461548,-0.5368702411651611,0.678669273853302,0.2241206020116806,0.3009129464626312,3.176297903060913,-5.475604057312012,-1.9424835830738756,-1.177712998175419,-2.3047333367442153
1687102150.149703,-0.5894537568092346,0.8072991371154785,0.028512224555015564,-0.6372614502906799,0.9244515299797058,0.05324447527527809,1.5328638553619385,2.659740447998047,-4.500916481018066,-1.6191292449211447,-0.9395610227553967,-2.1030296683580834
1687102150.1955628,-0.7358404994010925,0.6684955358505249,-0.10794678330421448,-0.40298396348953247,0.8521801233291626,0.26808780431747437,1.5381169319152832,1.8204665184020996,-3.6433496475219727,-1.4251366715401805,-0.7321840187999209,-1.9968083307182407
1687102150.2643008,-0.8178722858428955,0.5364375114440918,-0.2081339955329895,-0.2944324016571045,0.8901371359825134,0.2187541276216507,1.0925770998001099,1.046460509300232,-2.4876656532287598,-1.3216035242201278,-0.5662101867400067,-1.9455894503475826
1687102150.322305,-0.8595426678657532,0.4440072476863861,-0.25306880474090576,0.07110583782196045,0.7713399529457092,0.00924864411354065,0.8940985202789307,0.2476544827222824,-1.5278240442276,-1.2844642031297626,-0.46006601669031505,-1.9289501216802984
1687102150.363981,-0.8786701560020447,0.38941943645477295,-0.2762088477611542,0.1669696569442749,0.5197144150733948,0.08252900838851929,0.34037619829177856,0.2625696659088135,-0.5149126648902893,-1.266228104745353,-0.40000118677668645,-1.9059185128092775
1687102150.410633,-0.8790652751922607,0.3814130425453186,-0.2859514653682709,0.14865756034851074,0.397761732339859,0.08378782868385315,-0.46243610978126526,0.28652772307395935,-0.03847101703286171,-1.2563018266012578,-0.39132440649986516,-1.9163319175343312
1687102150.4593291,-0.8729166388511658,0.3945223093032837,-0.28699931502342224,0.08025312423706055,0.15975311398506165,0.12185350060462952,-0.6870508193969727,0.203793004155159,0.32535088062286377,-1.2531475233740192,-0.40554793346945883,-1.9403471624656785
1687102150.506846,-0.8624265789985657,0.4233761131763458,-0.27744045853614807,0.0495297908782959,0.06305879354476929,0.07588708400726318,-0.8272510766983032,0.11542272567749023,0.423719197511673,-1.2595543244613918,-0.4371686650930365,-1.975052096508283
1687102150.5472531,-0.8521284461021423,0.4506787955760956,-0.2660180330276489,0.0014204978942871094,-0.015589714050292969,0.07262817025184631,-0.4791322648525238,0.034117329865694046,0.4122282564640045,-1.2682024050288099,-0.4675255762841124,-2.004757231571202
1687102150.628901,-0.8436675071716309,0.4718351662158966,-0.2561182975769043,-0.054953038692474365,-0.015612691640853882,0.035079509019851685,-0.29854676127433777,-0.09283134341239929,0.29033470153808594,-1.27606085469192,-0.4913710443346512,-2.018232986372605
1687102150.664932,-0.8398141264915466,0.48423072695732117,-0.2454235851764679,-0.04038912057876587,-0.09232401847839355,-0.03523127734661102,-0.42023006081581116,-0.06496404856443405,0.15419676899909973,-1.2864779757596563,-0.5054837163898496,-2.0300708414386492
1687102150.703959,-0.838060736656189,0.4920937716960907,-0.23558008670806885,-0.01679772138595581,-0.09562468528747559,-0.05465734004974365,-0.20820274949073792,0.04247044771909714,-0.012552531436085701,-1.2967665466652307,-0.514493250955184,-2.051281713568042
1687102150.746663,-0.8372991681098938,0.4943768084049225,-0.23349903523921967,0.010333776473999023,-0.023795783519744873,0.00811147689819336,-0.17096616327762604,0.0014004861004650593,0.011639557778835297,-1.2988342092180223,-0.5171177609735772,-2.0607670547642787
1687102150.818438,-0.8383405208587646,0.49478012323379517,-0.22886204719543457,-0.04164910316467285,0.023423582315444946,-0.029041990637779236,-0.18610303103923798,0.08681833744049072,-0.130402073264122,-1.3042958959197435,-0.5175817956920519,-2.0771048159268424
1687102150.8613591,-0.839397132396698,0.4912659525871277,-0.23253048956394196,0.025432229042053223,0.03346851468086243,-0.01898014545440674,0.037317801266908646,0.07384336739778519,-0.04299965128302574,-1.3005523372821357,-0.5135425895651085,-2.0797929173828087
1687102150.946137,-0.8402188420295715,0.4893941581249237,-0.23350755870342255,0.021264374256134033,-0.021910667419433594,-0.04618602991104126,-0.1455865055322647,0.06255143135786057,-0.06777118146419525,-1.299724140843058,-0.5113949104193759,-2.081621656760215
1687102150.960065,-0.8399832844734192,0.4885157346725464,-0.23617857694625854,0.010271430015563965,0.003213942050933838,0.024188190698623657,-0.0031665090937167406,0.09587794542312622,-0.00471052061766386,-1.2967024927806243,-0.5103878830592868,-2.083755142013607
1687102151.009697,-0.8396212458610535,0.4885576367378235,-0.2373761236667633,0.03551369905471802,0.02619752287864685,0.022410377860069275,-0.04308995604515076,-0.03318321332335472,-0.04764607176184654,-1.2952689165720987,-0.5104359132154,-2.0851184281773514
1687102151.0497088,-0.8414364457130432,0.4855961799621582,-0.23702557384967804,0.0015468597412109375,-0.026794910430908203,0.046702682971954346,0.08000161498785019,-0.018866635859012604,-0.024688689038157463,-1.2962196939426645,-0.5070450079786311,-2.0826091378269305
1687102151.12537,-0.8404795527458191,0.4903542101383209,-0.23053587973117828,0.016245603561401367,-0.04311913251876831,0.029760748147964478,-0.3537474572658539,-0.04693014174699783,0.06943941116333008,-1.3030894865803568,-0.5124961161774308,-2.09132000567254
1687102151.161982,-0.840383768081665,0.4948582053184509,-0.2210666835308075,-0.002893209457397461,0.039306193590164185,0.026761308312416077,-0.16878530383110046,-0.12542571127414703,0.034426696598529816,-1.313569364621464,-0.5176716465017839,-2.1021059720319872
1687102151.2292771,-0.84126216173172,0.49879154562950134,-0.20853033661842346,0.03333979845046997,0.04230031371116638,0.07130809128284454,-0.19680441915988922,-0.2101627141237259,0.17722424864768982,-1.3278158950448744,-0.5222039419592577,-2.112124947426374
1687102151.267956,-0.8298185467720032,0.5300362706184387,-0.17453518509864807,0.07356256246566772,0.245857834815979,0.21385706961154938,-1.3629754781723022,-0.5982191562652588,1.072940707206726,-1.3634887292184288,-0.5586433557629861,-2.145242722202799
1687102151.309145,-0.7870686054229736,0.6114163994789124,-0.08181088417768478,0.13168835639953613,0.9316896796226501,0.3155145049095154,-2.3055145740509033,-1.2317583560943604,2.4131031036376953,-1.4672244896224522,-0.6578493215088942,-2.244851200699568
1687102151.350749,-0.6723347902297974,0.7374725937843323,0.06403189152479172,0.005556225776672363,1.3309324979782104,0.42716383934020996,-1.7923613786697388,-2.9665756225585938,4.339103698730469,-1.6657480418979385,-0.8293204478853836,-2.39247279915685
1687102151.400702,-0.4272386133670807,0.8824787139892578,0.1967194527387619,-0.6739729642868042,1.7504253387451172,0.4836699962615967,0.3338770270347595,-4.835737705230713,6.189717769622803,-2.0023014549586495,-1.0811063666392873,-2.5587325966133774
1687102151.448379,-0.04118078947067261,0.9769173264503479,0.2096114605665207,-1.3546017408370972,1.5948143005371094,0.6298966407775879,2.3157520294189453,-5.52077054977417,7.610812664031982,-2.9476008474585136,-1.355519759715172,3.0130665288282943
1687102151.5230532,0.37992677092552185,0.9249975681304932,-0.005925789941102266,-1.7055188417434692,1.3114526271820068,0.7180687785148621,4.063965320587158,-4.616241931915283,8.303773880004883,1.555200401969163,-1.1810292656361003,1.456143295348797
1687102151.560763,0.6889708638191223,0.6660273671150208,-0.2858789563179016,-1.658178687095642,1.008502721786499,0.6701563000679016,3.9204492568969727,-3.213717460632324,8.151518821716309,1.1774806079344944,-0.7288702766483619,1.2505623416214529
1687102151.610043,0.8230611681938171,0.2877674996852875,-0.48965322971343994,-1.4471304416656494,0.9675731062889099,0.6935716867446899,4.473461151123047,-2.324551582336426,7.1939826011657715,1.0341225840763928,-0.2918949269189508,1.2407514407819669
1687102151.655885,0.8082902431488037,-0.10005013644695282,-0.58022141456604,-1.2373979091644287,0.6443769335746765,0.7216856479644775,3.4385411739349365,-1.3306348323822021,6.120212554931641,0.9481986282638014,0.10021780687827186,1.2560919961817667
1687102151.703985,0.7032884359359741,-0.4129650294780731,-0.5786581635475159,-1.0580552816390991,0.6017467975616455,0.6909323930740356,2.974395513534546,-0.7179608941078186,5.170163154602051,0.8823131199428473,0.42570725505692003,1.2946419522147834
1687102151.7681751,0.5570163726806641,-0.655316948890686,-0.5101885795593262,-0.8363743424415588,0.558271050453186,0.48372989892959595,3.9713330268859863,-0.7186357975006104,4.386962413787842,0.8292489455537488,0.7146021379703821,1.3365249724444948
1687102151.823998,0.3836977779865265,-0.8553666472434998,-0.3480287790298462,-0.7287294864654541,0.37862104177474976,0.2176271677017212,5.468150615692139,-0.6848368644714355,4.021451473236084,0.8341059569919406,1.026258221417643,1.2880558347644828
1687102151.854195,0.20012199878692627,-0.9724308848381042,-0.11970570683479309,-0.525027334690094,0.4623295068740845,0.3736425042152405,4.486237525939941,-0.42577192187309265,3.6443023681640625,1.0317281754213736,1.3354382953950505,1.046603046988429
1687102151.9006739,0.030934099107980728,-0.9975053668022156,0.0634528249502182,-0.36861106753349304,0.2737962603569031,0.4695671796798706,2.7856578826904297,-0.5068632960319519,3.161686897277832,2.687984187417367,1.50014720451648,-0.6444722296909456
1687102151.951052,-0.08003562688827515,-0.9830270409584045,0.1650824099779129,-0.5806546807289124,-0.49133819341659546,0.386599063873291,1.3869866132736206,-0.6966476440429688,1.3059197664260864,-2.6901607716677756,1.386290680912175,-1.588834518257222
1687102152.0244741,-0.09740587323904037,-0.9702871441841125,0.22148391604423523,-0.42067578434944153,-0.7912485599517822,-0.12546038627624512,0.7555896639823914,-0.2681671977043152,-0.07902010530233383,-2.7272637627636085,1.3264146825140548,-1.568599036915091
1687102152.059979,-0.0871291533112526,-0.9679515957832336,0.23553821444511414,0.057221919298172,0.031061947345733643,0.03397774696350098,-0.05387469381093979,-0.06023276224732399,-0.24420493841171265,-2.787287365612891,1.316941886194269,-1.51257904251443
1687102152.12515,-0.08558505773544312,-0.963922917842865,0.2520475387573242,0.10877841711044312,0.040399909019470215,0.008053779602050781,0.5953618884086609,-0.09441831707954407,0.07351211458444595,-2.8142493250331824,1.3013667618690319,-1.4877986677461195
1687102152.176745,-0.08855560421943665,-0.9600364565849304,0.2654961347579956,-0.02966950088739395,0.025374412536621094,0.03363719582557678,-0.0869881734251976,0.027968447655439377,0.02436494082212448,-2.8196492398975215,1.2871323867719278,-1.484099531143838
1687102152.2388391,-0.08726514875888824,-0.9601891040802002,0.2653711140155792,-0.05178818106651306,0.0627434253692627,0.021921396255493164,-0.012414335273206234,0.030484579503536224,-0.03588169068098068,-2.823889794747014,1.287678463789036,-1.478200700028262
1687102152.261807,-0.08507027477025986,-0.9629045128822327,0.25608277320861816,0.012148521840572357,0.02102506160736084,0.07144716382026672,-0.13581882417201996,-0.05315379053354263,-0.06904050707817078,-2.8208639370405586,1.297566953434634,-1.4806438823229577
1687102152.3039021,-0.08243419975042343,-0.9644923806190491,0.25091680884361267,-0.0026793479919433594,-0.0352482795715332,0.013411164283752441,-0.1904762089252472,-0.0937354788184166,-0.07591892033815384,-2.824169498131153,1.303514633113026,-1.4813168490354296
1687102152.3597732,-0.07867512851953506,-0.9659704566001892,0.24639682471752167,-0.034209392964839935,-0.000444948673248291,-0.03585602343082428,-0.07242467254400253,0.024930845946073532,-0.05219854414463043,-2.8325225117565926,1.3091694134750227,-1.4744892931339633
1687102152.4330192,-0.07632523030042648,-0.9666189551353455,0.24458689987659454,0.012818120419979095,-0.0019328594207763672,-0.03371044993400574,-0.04569718986749649,0.05386844277381897,-0.05613722652196884,-2.8391107779365767,1.3116884091603898,-1.4659163746327484
1687102152.474461,-0.07467514276504517,-0.9673146605491638,0.24233458936214447,0.011702120304107666,0.007399499416351318,-0.014810800552368164,0.025755686685442924,0.024884972721338272,-0.06580376625061035,-2.8426766469808755,1.3144179502466578,-1.459383547318371
1687102152.510727,-0.07206211984157562,-0.9680843949317932,0.24004200100898743,-0.01920069009065628,0.0017145872116088867,-0.014074534177780151,0.03152542561292648,0.03427762910723686,-0.08077965676784515,-2.84994662297893,1.3174711598156006,-1.4501305965917217
1687102152.588578,-0.06974095851182938,-0.9682666063308716,0.23999209702014923,0.008888892829418182,-0.009287834167480469,0.0017681419849395752,-0.00862891785800457,0.06290914863348007,-0.06653080880641937,-2.858784728528136,1.3181991768356507,-1.4390972584808481
1687102152.618338,-0.06837724894285202,-0.968122124671936,0.24096515774726868,0.0011012554168701172,0.024411797523498535,-0.04325699806213379,0.1192997545003891,0.11868308484554291,-0.0693327933549881,-2.8650969672584403,1.3176216329929578,-1.4269632362114033
1687102152.663897,-0.06662624329328537,-0.9678400158882141,0.24258340895175934,0.005285926163196564,-0.03003901243209839,-0.01566995680332184,0.0791264995932579,0.12156324833631516,-0.04064881429076195,-2.8735491548424426,1.3164978794020934,-1.411671229590182
1687102152.727229,-0.0668463334441185,-0.9666303396224976,0.2473001629114151,0.010266758501529694,0.008622527122497559,0.0124349445104599,0.14425809681415558,0.0920429527759552,-0.03275320678949356,-2.877597083745631,1.3117329088518805,-1.4018429592049826
1687102152.77,-0.06564804911613464,-0.9669921398162842,0.2462044358253479,-0.021418564021587372,-0.00735783576965332,0.010387390851974487,-0.04167448729276657,0.10667312890291214,-0.03509485721588135,-2.8810147789781944,1.3131489986269125,-1.3934219732949338
1687102152.82093,-0.0634835883975029,-0.9666024446487427,0.24829360842704773,0.018714308738708496,-0.0079154372215271,0.020627260208129883,0.0026889832224696875,0.0514819398522377,-0.07392221689224243,-2.8912757505354914,1.3116240223418163,-1.3791827419394946
1687102152.8780131,-0.061463333666324615,-0.9664841890335083,0.2492595762014389,-0.004759803414344788,-0.0067059993743896484,-0.010368049144744873,0.09236294031143188,0.019875522702932358,-0.052734702825546265,-2.8998319638307546,1.311162973233917,-1.3679058925567393
1687102152.920685,-0.05787205323576927,-0.9658519625663757,0.25254833698272705,0.006739862263202667,-0.002104520797729492,0.02958664298057556,-0.07647880911827087,0.00035756989382207394,-0.08419755101203918,-2.916329443438799,1.3087117342994559,-1.35050556027867
1687102153.023803,-0.054312530905008316,-0.9660871028900146,0.2524401545524597,0.0029209554195404053,0.03510254621505737,-0.002379179000854492,0.050916966050863266,-0.035649899393320084,-0.05786135420203209,-2.929673007258778,1.3096207501358204,-1.3378167498592455
1687102153.040351,-0.050874095410108566,-0.9664014577865601,0.25195249915122986,0.027696017175912857,-0.018431246280670166,0.004898756742477417,-0.1078798696398735,-0.011974042281508446,-0.05855351313948631,-2.9423521962860346,1.3108409613103005,-1.3262507859657988
1687102153.0935411,-0.04930386692285538,-0.9679875373840332,0.24610808491706848,0.009768370538949966,-0.015502393245697021,0.0035867542028427124,-0.2141658365726471,0.07312823086977005,-0.028347207233309746,-2.94387576679885,1.3170849448971487,-1.3235469722559772
1687102153.1086988,-0.04758134484291077,-0.9688037037849426,0.24321947991847992,0.02536454051733017,0.0305711030960083,-0.011240094900131226,-0.08063094317913055,0.05058605223894119,-0.040920060127973557,-2.948401271002536,1.3203573566248357,-1.317154374322222
1687102153.180069,-0.04531363397836685,-0.9721623659133911,0.22988519072532654,-0.029164522886276245,-0.030385911464691162,0.022922396659851074,-0.6138677000999451,0.17772306501865387,-0.11099901050329208,-2.9469734458658587,1.3342893917791516,-1.313712663202358
1687102153.218888,-0.03108319453895092,-0.9869751930236816,0.15784046053886414,-0.20423784852027893,-0.09485757350921631,0.07470342516899109,-2.093719244003296,0.2698391377925873,-0.9623509049415588,-2.9471527490504843,1.4092215591643853,-1.294148387202333
1687102153.264642,0.04887927323579788,-0.9969605803489685,0.06066703796386719,-0.6513420343399048,-0.060534536838531494,0.5781726837158203,-2.60422420501709,0.29422250390052795,-2.412126064300537,2.463387371260182,1.492809704172524,-0.4057160399075577
1687102153.32408,0.22745005786418915,-0.9615947008132935,-0.1536296010017395,-0.9666773676872253,-0.15409743785858154,0.5604289174079895,-5.997415065765381,0.23134157061576843,-4.694273471832275,0.9767421999392517,1.2927542286941218,1.101617834698986
1687102153.3829432,0.47724735736846924,-0.758739173412323,-0.4433395266532898,-1.0334606170654297,0.14254355430603027,1.0041000843048096,-7.435189723968506,1.6567851305007935,-5.711752414703369,0.8222143656427066,0.8613753851138223,1.3233301657247334
1687102153.42872,0.7056071162223816,-0.3835352957248688,-0.5958349704742432,-0.9386850595474243,0.2583216726779938,1.4281866550445557,-6.763331890106201,2.3515613079071045,-6.168721675872803,0.8695454983849058,0.39362132144764045,1.4176125818568488
1687102153.498488,0.8317407369613647,0.046966683119535446,-0.5531740188598633,-0.8931268453598022,0.13562002778053284,0.9387025833129883,-5.720245361328125,2.357058525085449,-6.57903528213501,0.9838930879642886,-0.04698396667515668,1.477788372960205
1687102153.514832,0.8002269268035889,0.4671483635902405,-0.37604427337646484,-0.8173625469207764,0.2488856017589569,0.6435766816139221,-5.8045654296875,2.619985342025757,-7.033550262451172,1.131499280263584,-0.4860628535847315,1.557911786999039
1687102153.627647,0.6154927611351013,0.7730793356895447,-0.15335282683372498,-0.6732472777366638,0.8781964182853699,0.41731464862823486,-3.0039737224578857,2.7947185039520264,-6.559925556182861,1.3266135531822314,-0.8836815502188998,1.658352920670071
1687102153.644081,0.34922873973846436,0.9367218017578125,0.024326907470822334,-0.5623635053634644,0.6470795273780823,0.2743638753890991,-2.29339337348938,2.6536636352539062,-6.026112079620361,1.640342931269617,-1.213145576885934,1.8568006880873573
1687102153.686836,0.05469099432229996,0.9874151349067688,0.14839236438274384,-0.7177922129631042,0.9015161395072937,0.15833985805511475,-1.2135939598083496,3.411271810531616,-5.25280237197876,2.7884828522878786,-1.411979855554986,2.8787548355956565
1687102153.729198,-0.21280376613140106,0.9595126509666443,0.18452681601047516,-0.4974623918533325,0.6427212357521057,0.23037505149841309,-0.6114727258682251,3.449437379837036,-4.569295406341553,-2.2851469677281746,-1.2852668578606055,-2.3476039822833936
1687102153.771605,-0.44272226095199585,0.8856555819511414,0.14003989100456238,-0.40978631377220154,0.7098643779754639,0.2509819269180298,0.052717529237270355,3.0444271564483643,-4.100472927093506,-1.877153416716595,-1.0879040099279396,-2.086796780412341
1687102153.813144,-0.6200576424598694,0.7831016778945923,0.047754425555467606,-0.4561295509338379,0.634333074092865,0.060384511947631836,0.705040693283081,2.6872260570526123,-3.718082904815674,-1.6476606964705534,-0.8996377263411015,-1.9838045142818959
1687102153.863906,-0.7455965280532837,0.6624748706817627,-0.072200246155262,-0.4154447317123413,0.6893012523651123,0.2108110785484314,1.1580026149749756,2.1669692993164062,-3.198610782623291,-1.4742617728595244,-0.7241178366639995,-1.9189499036502848
1687102153.926408,-0.8195053339004517,0.5475348830223083,-0.16916462779045105,-0.17365878820419312,0.6447868347167969,0.20107078552246094,0.8056341409683228,1.2282966375350952,-2.2324681282043457,-1.3672326461473292,-0.5794154474117712,-1.8816826484355536
1687102153.965201,-0.8564528822898865,0.46456339955329895,-0.22509850561618805,0.055381715297698975,0.6316431760787964,-0.015425801277160645,1.000684380531311,0.43805721402168274,-1.252077579498291,-1.3137825814252353,-0.4831415306141606,-1.8539570012090285
1687102154.011866,-0.8695113658905029,0.4223751127719879,-0.2560260593891144,0.04706263542175293,0.4145846962928772,0.008833646774291992,0.11127245426177979,0.36263346672058105,-0.49176040291786194,-1.2844406843429153,-0.4360640535945453,-1.8298791630559423
1687102154.0577168,-0.8706138730049133,0.40956369042396545,-0.27256032824516296,0.08112412691116333,0.48949941992759705,0.18044298887252808,0.10478046536445618,0.3497118353843689,-0.02574789524078369,-1.267395146160299,-0.42197575127427145,-1.8276019338264073
1687102154.106967,-0.8628221154212952,0.4169760048389435,-0.28577813506126404,0.11405801773071289,0.14595121145248413,0.17824941873550415,-0.32629984617233276,0.3556475341320038,0.21594668924808502,-1.2509550576451847,-0.43011574442538264,-1.830767060677368
1687102154.179037,-0.8533889055252075,0.43444809317588806,-0.28806620836257935,0.048945605754852295,0.02592483162879944,0.2485765516757965,-0.4504798352718353,0.23136581480503082,0.3019982874393463,-1.245250548280762,-0.4494254252935662,-1.850599812053594
1687102154.2262502,-0.8435213565826416,0.4552694261074066,-0.28495848178863525,-0.003493964672088623,-0.015617996454238892,0.20584169030189514,-0.37638670206069946,0.045790523290634155,0.35175833106040955,-1.2450131233081458,-0.4726747976068535,-1.8681073813522386
1687102154.265027,-0.8376771211624146,0.47306889295578003,-0.27295181155204773,0.0005190372467041016,0.018889665603637695,0.069903165102005,-0.42708078026771545,-0.21495673060417175,0.3135659098625183,-1.2558015323842888,-0.492770837091964,-1.8808642922457102
1687102154.313946,-0.8333828449249268,0.49038806557655334,-0.25493666529655457,-0.011084318161010742,-0.06488150358200073,-0.005851268768310547,-0.20431560277938843,-0.23924200236797333,0.2599371075630188,-1.2739301910620582,-0.5125349689556334,-1.8935809708170483
1687102154.3698258,-0.8315509557723999,0.4993749260902405,-0.24320322275161743,-0.03676575422286987,-0.09083610773086548,-0.06206411123275757,-0.02944604866206646,-0.18030190467834473,0.09678301215171814,-1.2862625550674354,-0.5228771460931465,-1.8974853598760453
1687102154.451833,-0.8310441970825195,0.5053159594535828,-0.23242463171482086,-0.04177373647689819,-0.12154227495193481,-0.07491788268089294,-0.3125600516796112,-0.0864010900259018,0.06912042200565338,-1.2980863942950511,-0.5297480980718318,-1.9061037818863416
1687102154.4688091,-0.8323136568069458,0.5063732266426086,-0.22547729313373566,-0.009010136127471924,-0.008067011833190918,-0.06285272538661957,-0.07917845249176025,-0.040485136210918427,-0.11279677599668503,-1.306241880503527,-0.5309737196908926,-1.9159887910735411
1687102154.5331268,-0.8343827128410339,0.5025782585144043,-0.22631977498531342,-0.02018582820892334,-0.06309467554092407,-0.01449441909790039,-0.13003630936145782,0.0047379592433571815,-0.040902480483055115,-1.3059270881669642,-0.5265784891833993,-1.9194985841081098
1687102154.589693,-0.835824728012085,0.501587986946106,-0.22317367792129517,-0.005880594253540039,-0.018174290657043457,-0.009675443172454834,-0.18924130499362946,0.0002163334283977747,-0.059431225061416626,-1.3098733010542198,-0.525433403081736,-1.9327459923671346
1687102154.633078,-0.8349646329879761,0.5073955059051514,-0.21303533017635345,-0.0024225711822509766,0.03864032030105591,0.10839053988456726,-0.5504538416862488,-0.18570639193058014,0.2370835244655609,-1.3209831417905833,-0.5321596178882309,-1.948647049661541
1687102154.6609569,-0.8280265927314758,0.53122878074646,-0.17935442924499512,0.03855210542678833,0.12657761573791504,0.17213702201843262,-0.7953304648399353,-0.5064101815223694,0.5780413746833801,-1.357486909902757,-0.5600502359501885,-1.9819256087886286
1687102154.765476,-0.8157957196235657,0.5601680874824524,-0.14383728802204132,0.15658551454544067,0.09446448087692261,0.0675434023141861,-0.5971595644950867,-0.29225483536720276,0.5603242516517639,-1.3962747049189774,-0.5945886792406079,-2.0131381279940195
1687102154.781258,-0.7961663007736206,0.59405916929245,-0.11494754999876022,0.1762017011642456,0.3300282955169678,0.22487187385559082,-0.8006298542022705,-0.2955704629421234,1.009440541267395,-1.4274108151841274,-0.6360955913113197,-2.050058059259982
1687102154.82084,-0.7539446949958801,0.6531981229782104,-0.06999894231557846,0.06304186582565308,0.6072999835014343,0.21761244535446167,-0.9613220691680908,-0.9459463357925415,1.8981471061706543,-1.478218116619774,-0.7118004761704418,-2.090119449398006
1687102154.903294,-0.6666862368583679,0.7449899911880493,0.022796113044023514,0.023940205574035645,1.0443778038024902,0.4108281135559082,-0.47599291801452637,-2.656580924987793,3.3353071212768555,-1.6049761763203774,-0.8405197925649464,-2.1486255643692926
1687102154.913873,-0.4774840176105499,0.8699816465377808,0.12304788082838058,-0.4890381395816803,1.4338970184326172,0.2965688407421112,0.29833605885505676,-4.168439865112305,5.267281532287598,-1.8230093019516829,-1.055165077273404,-2.1971855439270684
1687102154.98703,-0.15352362394332886,0.9718513488769531,0.17870478332042694,-1.1015576124191284,1.5310478210449219,0.5035004615783691,1.1663486957550049,-4.88036584854126,6.967356204986572,-2.43184455847944,-1.3329656612584186,-2.597311425532097
1687102155.010618,0.24284325540065765,0.966089129447937,0.08774232864379883,-1.5678861141204834,1.1815853118896484,0.38354063034057617,1.8721383810043335,-4.31735372543335,7.5701117515563965,1.9175134206385234,-1.3096287341834865,1.948694037822295
1687102155.082749,0.579343855381012,0.804964542388916,-0.12803366780281067,-1.5775891542434692,0.9162725806236267,0.45583826303482056,3.7676854133605957,-3.228508472442627,7.2736496925354,1.3532945552136897,-0.9356156738563115,1.549534847117566
1687102155.118475,0.7732469439506531,0.5195066928863525,-0.3635959029197693,-1.3613665103912354,0.5241182446479797,0.6163577437400818,4.483401298522949,-2.405742883682251,6.165112495422363,1.131255559687122,-0.5462735165894375,1.4339030779334678
1687102155.191756,0.8341092467308044,0.19659847021102905,-0.515374481678009,-1.0917692184448242,0.30480536818504333,0.5850918889045715,4.245624542236328,-1.6159946918487549,5.13884973526001,1.017337696318143,-0.19788747236096507,1.3834784843956365
1687102155.227048,0.8107499480247498,-0.1159249022603035,-0.5737996101379395,-0.9242295622825623,0.4333382844924927,0.5549398064613342,3.141770601272583,-0.8105179667472839,4.515395164489746,0.9548950561540787,0.11618613171929665,1.3417999813497172
1687102155.2712688,0.738627016544342,-0.35736188292503357,-0.5715965032577515,-0.6979928612709045,0.526917576789856,0.5022148489952087,2.20365834236145,-0.6650888323783875,4.073429107666016,0.9121966735292151,0.365441709448003,1.3688874287309587
1687102155.311201,0.6285926103591919,-0.5485829710960388,-0.5512967109680176,-0.6084662675857544,0.4667500853538513,0.5181851387023926,2.3364620208740234,-0.8975449204444885,3.7512238025665283,0.8508158301106321,0.5806684899731193,1.4205129934649454
1687102155.391172,0.48325082659721375,-0.7293959856033325,-0.48420071601867676,-0.5210925936698914,0.43781578540802,0.39081692695617676,3.3573150634765625,-1.1251330375671387,3.6617891788482666,0.7844163269400042,0.8174385922679758,1.4436477946148938
1687102155.493816,0.315011590719223,-0.8914638161659241,-0.3256683349609375,-0.430703729391098,0.4125363230705261,0.2644501030445099,5.821588516235352,-1.2997993230819702,3.260986566543579,0.7687661835679186,1.1005657259000985,1.3899478506821876
1687102155.510909,0.15073122084140778,-0.9833535552024841,-0.10146822780370712,-0.3691455125808716,0.0933542251586914,0.5198031663894653,3.5339088439941406,-0.9033563733100891,3.2331762313842773,0.9783026883087775,1.3880787085377473,1.1150850904512224
1687102155.52301,-0.0032834133598953485,-0.9991331100463867,0.04150250926613808,-0.25434598326683044,0.06027501821517944,0.5667586326599121,2.832710027694702,-1.1581621170043945,2.3603885173797607,-3.062643485668806,1.5291551339400933,-1.1782997180843438
1687102155.5858932,-0.08280575275421143,-0.9859393239021301,0.1451449990272522,-0.5722235441207886,-1.1323010921478271,0.2577786445617676,1.7569928169250488,-0.7841543555259705,0.6641943454742432,-2.62314405129834,1.4029050074440885,-1.6525389378754916
1687102155.633194,-0.07620429247617722,-0.9787544012069702,0.19034843146800995,-0.1688976287841797,-0.17026281356811523,0.42406198382377625,-0.9527184963226318,-0.854434609413147,-0.318511039018631,-2.7607922929867668,1.364295761831637,-1.5624677538452303
1687102155.675976,-0.05424721539020538,-0.987299919128418,0.14931844174861908,0.012651775032281876,-0.005589425563812256,-0.5734364986419678,0.7826310992240906,0.0688663050532341,-0.3272278308868408,-2.793119779975715,1.411252771103997,-1.5399615906348922
1687102155.7250519,-0.04839378222823143,-0.9797272682189941,0.19440247118473053,0.046288080513477325,0.11473715305328369,0.0022070109844207764,0.4854007661342621,0.14545086026191711,-0.06926914304494858,-2.8976156024620887,1.369095632044759,-1.4284475555498133
1687102155.7932072,-0.05046846717596054,-0.981357753276825,0.18544484674930573,-0.021659813821315765,0.03856301307678223,0.12911508977413177,-0.2970580756664276,0.19600945711135864,0.061042193323373795,-2.8758797284995956,1.3774030076822465,-1.4418390083456032
1687102155.8358312,-0.04949807748198509,-0.9819886088371277,0.18234090507030487,-0.03172444552183151,-0.015508890151977539,-0.06690813601016998,0.06260478496551514,-0.00014738761819899082,-0.08719687163829803,-2.8765214815519715,1.3807135804554753,-1.4369185846937331
1687102155.876611,-0.04629368335008621,-0.9823555946350098,0.18120239675045013,-0.0004439912736415863,-0.014806210994720459,0.021174892783164978,-0.05833442136645317,0.06146925687789917,-0.0674101859331131,-2.8914625526411077,1.382665827123738,-1.4209979841533231
1687102155.9308162,-0.04323989152908325,-0.9830958247184753,0.17791308462619781,0.006786644458770752,0.027559876441955566,0.05431044101715088,-0.07950975000858307,0.05741468444466591,-0.10015934705734253,-2.9031757756563135,1.3866658987762392,-1.406151988900493
1687102155.97162,-0.03971928730607033,-0.9841275811195374,0.17296020686626434,-0.016860302537679672,-0.03036820888519287,-0.06979550421237946,-0.0820847600698471,0.11666400730609894,-0.048323243856430054,-2.9158623288637906,1.3923891201793492,-1.3883722681365311
1687102156.114056,-0.03775563836097717,-0.983841061592102,0.17501860857009888,0.015950825065374374,0.0151824951171875,0.0019529014825820923,-0.030035139992833138,0.06575345993041992,-0.04467271640896797,-2.9291249969736453,1.3907817129316349,-1.371066768660503
1687102156.139453,-0.037145234644412994,-0.984432578086853,0.1717928647994995,0.0014701783657073975,0.004482626914978027,-0.02350795269012451,-0.05243099480867386,0.1166435182094574,-0.027091126888990402,-2.928649681787707,1.394116063139391,-1.366898947082153
1687102156.1430569,-0.03601675480604172,-0.9846537113189697,0.1707620918750763,0.006841931492090225,-0.024119973182678223,0.0034932941198349,0.08261231333017349,0.10175110399723053,-0.045448362827301025,-2.933721631368258,1.39537867089902,-1.3558889411190136
1687102156.179178,-0.0348464697599411,-0.9845166206359863,0.1717931479215622,0.009761035442352295,-0.017314493656158447,-0.015939950942993164,-0.016167528927326202,0.1348169445991516,-0.01958440989255905,-2.941468124960004,1.3945946834018832,-1.3419219949227637
1687102156.2584481,-0.03384970501065254,-0.9843042492866516,0.17320314049720764,0.007467273622751236,0.020315051078796387,-0.013641968369483948,0.05183948576450348,0.1177283376455307,-0.022623341530561447,-2.948591734172235,1.3933874503391488,-1.328745053286098
1687102156.2772331,-0.03353576362133026,-0.9843730330467224,0.17287296056747437,-0.0021240077912807465,0.0014019012451171875,0.018685802817344666,-0.04197994992136955,0.09186069667339325,-0.021876856684684753,-2.9499817763980536,1.3937773195711163,-1.3217993974733007
1687102156.320883,-0.03289042413234711,-0.9845890998840332,0.17176362872123718,0.007698174566030502,0.003998160362243652,0.0055129677057266235,0.06319866329431534,0.03238902613520622,-0.01608901098370552,-2.952396355863449,1.3950088383145558,-1.316088064595461
1687102156.39008,-0.032064855098724365,-0.9846439361572266,0.17160530388355255,-0.0032134689390659332,-0.013387799263000488,0.01754261553287506,-0.09509403258562088,0.06689121574163437,-0.03450756520032883,-2.9568704283053364,1.3953224882174453,-1.3086981918495697
1687102156.456229,-0.03057841956615448,-0.985092282295227,0.16928702592849731,-0.004837242886424065,0.0008851885795593262,0.009988412261009216,-0.11036140471696854,0.06640873849391937,-0.03583008795976639,-2.962888957930338,1.39790957491924,-1.2994950036393838
1687102156.49192,-0.029600128531455994,-0.985932469367981,0.16450253129005432,0.00045582838356494904,0.03636276721954346,0.017443284392356873,-0.11815834045410156,0.04574040696024895,-0.02281196042895317,-2.96356052566863,1.4028640505825523,-1.2955589764258915
1687102156.534755,-0.02828237973153591,-0.9865936636924744,0.16072668135166168,-0.007499486207962036,-0.010781824588775635,0.02546107769012451,-0.08316094428300858,0.03619679436087608,-0.048663534224033356,-2.9674101668545143,1.406867193444828,-1.289639583908137
1687102156.577537,-0.026115382090210915,-0.9872528910636902,0.15700146555900574,0.00559232197701931,-0.01816380023956299,0.0072745829820632935,-0.13951316475868225,0.0733693465590477,-0.02617000602185726,-2.9767633247863077,1.4109570692145144,-1.2780103572140074
1687102156.625143,-0.024991046637296677,-0.9882588982582092,0.15073126554489136,-0.02289101481437683,-0.06040143966674805,0.0014445781707763672,-0.029227936640381813,0.04529796913266182,-0.05753025785088539,-2.9772886105217604,1.4174069932972289,-1.273760478592217
1687102156.691304,-0.020823827013373375,-0.9895914793014526,0.14239169657230377,-0.022404314950108528,0.02094811201095581,0.013705745339393616,-0.41619962453842163,0.15012329816818237,-0.12542349100112915,-2.99637879056895,1.4263896006965826,-1.2503981513640203
1687102156.73171,-0.011239085346460342,-0.9949178695678711,0.10006117075681686,-0.07355400919914246,-0.08975321054458618,0.10793137550354004,-1.434583067893982,0.20211070775985718,-0.42916759848594666,-3.029739326843797,1.4699354337973132,-1.20689455795689
1687102156.7821841,0.04562795162200928,-0.9987670183181763,0.019559720531105995,-0.3842967450618744,-0.08001410961151123,0.29156696796417236,-1.6205798387527466,0.08858507126569748,-1.7158113718032837,1.9757785371501693,1.5211328738925158,0.07806374411739538
1687102156.8309221,0.16733701527118683,-0.9808791875839233,-0.0993708074092865,-0.6828399300575256,-0.07658553123474121,0.4970453381538391,-3.515504837036133,-0.00590219022706151,-3.2868573665618896,1.034921230662127,1.37492881101423,1.0255678059464977
1687102156.89263,0.3565865457057953,-0.8813472986221313,-0.3099563717842102,-0.9024239778518677,0.2613674998283386,0.5996445417404175,-5.678432941436768,0.507875382900238,-4.467563629150391,0.8552426216558453,1.0787063009018862,1.2219354617364733
1687102156.932764,0.560869038105011,-0.6509400606155396,-0.511569082736969,-0.7777117490768433,0.3483125567436218,0.963687002658844,-5.0991692543029785,0.5380846858024597,-5.301929950714111,0.8313358242876263,0.7088221032253891,1.2904554815663594
1687102156.991664,0.7166112065315247,-0.29753702878952026,-0.630824863910675,-0.9726079702377319,0.29982590675354004,1.0440328121185303,-6.078824520111084,0.6539757251739502,-6.1209001541137695,0.8489787352711761,0.302111806928026,1.3205018440944727
1687102157.036069,0.7561246156692505,0.14661091566085815,-0.6377936601638794,-0.8160764575004578,0.10781414806842804,0.7639839053153992,-5.920440673828125,0.4130898714065552,-6.9199018478393555,0.8700859979115048,-0.14714129622296038,1.3409577534566621
1687102157.103409,0.6435413360595703,0.5688155293464661,-0.5121556520462036,-1.0382556915283203,0.5953691005706787,0.5940191149711609,-5.065781593322754,0.7994194030761719,-7.774500370025635,0.8985973999497904,-0.6050649587422253,1.3089110539664326
1687102157.1433868,0.37978100776672363,0.8643492460250854,-0.32964658737182617,-1.1058857440948486,0.6814424395561218,0.027263164520263672,-2.7574825286865234,1.9033386707305908,-7.708956241607666,0.855949705898253,-1.043854929014836,1.1858739819862893
1687102157.2119498,0.05651528015732765,0.9745250940322876,-0.21704073250293732,-0.5916715860366821,0.7758257389068604,0.1524503082036972,-1.9240206480026245,1.7875888347625732,-7.168323993682861,0.254733530981521,-1.34459365198654,0.4575200468082185
1687102157.2284741,-0.2592025697231293,0.961276113986969,-0.09360639750957489,-0.4622329771518707,0.8194397687911987,0.13016647100448608,-2.969475507736206,2.2904646396636963,-6.348874568939209,-1.2242388110622757,-1.291595977658461,-1.1673002751304902
1687102157.301507,-0.5238538384437561,0.8492903709411621,-0.06544554233551025,-0.6241869330406189,0.9178757667541504,-0.07212769985198975,-0.6468307375907898,2.733966588973999,-5.644665241241455,-1.4465093617167246,-1.0146396835987814,-1.5461928268126512
1687102157.362438,-0.7169387340545654,0.6815334558486938,-0.14666637778282166,-0.6461441516876221,0.9321292042732239,0.17784012854099274,0.2181198000907898,2.5255234241485596,-4.939364433288574,-1.3690074420993699,-0.7498560613117738,-1.6206632862969526
1687102157.377914,-0.8176857829093933,0.5175403952598572,-0.2520757019519806,-0.6621269583702087,1.0013347864151,0.19419905543327332,0.2757284939289093,2.2296109199523926,-3.2833750247955322,-1.2717611587444793,-0.5439739110707017,-1.6658041653726556
1687102157.43365,-0.8535814881324768,0.41571593284606934,-0.3139728605747223,-0.05636113882064819,0.7064764499664307,0.0882190465927124,-0.5768212676048279,1.020194411277771,-1.8232859373092651,-1.218326480018895,-0.4287298223887326,-1.7183353941741204
1687102157.4975739,-0.8672600984573364,0.36395201086997986,-0.33970415592193604,0.11922848224639893,0.7351232767105103,0.014447808265686035,-0.47168341279029846,0.8230168223381042,-1.078686237335205,-1.1974671592715742,-0.3725074009942893,-1.7761754808464512
1687102157.5361152,-0.8655585050582886,0.34324130415916443,-0.36468321084976196,0.17609012126922607,0.6003011465072632,0.13377195596694946,-0.500530481338501,0.6362056732177734,-0.20062044262886047,-1.1720408140964134,-0.35036569550339225,-1.809181572124856
1687102157.589818,-0.8541362285614014,0.364060640335083,-0.3713642358779907,0.11623626947402954,0.3648516833782196,0.13676032423973083,-0.9450712203979492,0.22864072024822235,0.48893389105796814,-1.1606683373757742,-0.37262404081271266,-1.838786244744703
1687102157.640719,-0.8417021036148071,0.4041905403137207,-0.3580051064491272,0.02013838291168213,0.1723169982433319,0.13098490238189697,-0.615520179271698,-0.017946381121873856,0.6613619923591614,-1.168642219032828,-0.41609367721921475,-1.8664277895881125
1687102157.686404,-0.8284128308296204,0.44488754868507385,-0.3403044641017914,0.029722154140472412,-0.11575552821159363,0.12466725707054138,-0.5978562235832214,-0.11202666908502579,0.6008085012435913,-1.1810221917373103,-0.4610487029829315,-1.8920409081996508
1687102157.741434,-0.8187018036842346,0.47413381934165955,-0.32392072677612305,-0.06263065338134766,-0.14520013332366943,0.03324079513549805,-0.4773378372192383,-0.0900261402130127,0.4202759265899658,-1.1940441207613866,-0.4939799740785892,-1.9053109831865307
1687102157.782213,-0.8131501078605652,0.49091285467147827,-0.3127160370349884,-0.07243943214416504,-0.11716413497924805,-0.015012234449386597,-0.15521356463432312,-0.08677131682634354,0.15542003512382507,-1.2036589010897596,-0.513137257401676,-1.9181452503592722
1687102157.8491101,-0.8121663331985474,0.49517372250556946,-0.3085266053676605,-0.007139027118682861,-0.09765183925628662,-0.0468810498714447,-0.01530572958290577,-0.08171776682138443,0.06361241638660431,-1.2077532496655692,-0.5180347840004362,-1.916906015878714
1687102157.88865,-0.8111751079559326,0.4997650384902954,-0.303693950176239,0.020586669445037842,-0.028344780206680298,-0.029374897480010986,-0.019960135221481323,-0.045552752912044525,0.0612560473382473,-1.212562609665388,-0.5233274993718211,-1.921403250754962
1687102157.950953,-0.8104012608528137,0.5021335482597351,-0.3018474578857422,-0.012963056564331055,-0.020871341228485107,0.0014324188232421875,0.020352132618427277,-0.04525084048509598,0.08473234623670578,-1.2142485088006014,-0.5260641408550174,-1.9203063111298206
1687102157.987934,-0.810238242149353,0.5037014484405518,-0.2996642589569092,-0.008105814456939697,0.03728359937667847,-0.03699037432670593,-0.013972284272313118,-0.11801641434431076,0.038662515580654144,-1.2165509023123209,-0.5278781532063496,-1.916214732948566
1687102158.033972,-0.8088160753250122,0.5068683624267578,-0.2981628477573395,0.013329625129699707,0.025510728359222412,-9.179115295410156e-06,0.08387251943349838,-0.03538433834910393,0.1096569299697876,-1.217612203373412,-0.5315480177955916,-1.9124923371315066
1687102158.075886,-0.8067031502723694,0.512002170085907,-0.2950994074344635,0.00305330753326416,-0.029214203357696533,0.0033819377422332764,-0.09940942376852036,-0.018448207527399063,0.07020546495914459,-1.2201076049457151,-0.5375140663939763,-1.9169768957985631
1687102158.125721,-0.8044298887252808,0.5156633257865906,-0.29493045806884766,-0.02601444721221924,0.016593754291534424,-0.010275840759277344,-0.03348979353904724,-0.04758918285369873,0.0688796117901802,-1.219381285923861,-0.5417816655408072,-1.9137330005714948
1687102158.198519,-0.804495096206665,0.5162582993507385,-0.2937091290950775,0.012365579605102539,0.005668520927429199,0.008919060230255127,0.15932120382785797,-0.0850471630692482,0.04309967905282974,-1.2207464305791855,-0.5424762584297459,-1.9098414030607065
1687102158.2710528,-0.8046820759773254,0.5164129734039307,-0.29292380809783936,-0.0069939494132995605,-0.03257209062576294,-0.020049184560775757,0.07325848937034607,-0.025292910635471344,-0.014712422154843807,-1.221682755165987,-0.5426568641656192,-1.9073674871022566
1687102158.279578,-0.8050159811973572,0.5142606496810913,-0.29577910900115967,0.007271230220794678,-0.02047097682952881,-0.011456608772277832,0.08505389839410782,0.00405132956802845,0.011897683143615723,-1.2186875048679997,-0.5401453263593349,-1.900226411035405
1687102158.331135,-0.8052144050598145,0.5128521919250488,-0.29767856001853943,-0.008460581302642822,-0.012394428253173828,-0.002339780330657959,-0.059939511120319366,-0.005191170610487461,0.016601890325546265,-1.216690362562232,-0.5385038763023021,-1.8955976831922792
1687102158.402324,-0.8049576878547668,0.5132055878639221,-0.29776355624198914,0.014521896839141846,0.0043419599533081055,0.0043828487396240234,0.00857749953866005,-0.0060792905278503895,0.021633535623550415,-1.2164937648538587,-0.5389156276593202,-1.897882902545083
1687102158.433229,-0.8053659200668335,0.5124015212059021,-0.2980445325374603,-0.005242049694061279,0.000537872314453125,0.00960761308670044,0.06336750835180283,-0.04382806643843651,2.8440728783607483e-05,-1.2163518238620346,-0.5379790411588811,-1.8949867373286
1687102158.478375,-0.8055497407913208,0.5136200785636902,-0.2954387962818146,-0.017326295375823975,-0.045785605907440186,0.016813278198242188,-0.19801563024520874,0.022281378507614136,0.0019768760539591312,-1.2192743365429726,-0.5393985826700471,-1.8989050269232555
1687102158.5284538,-0.8051713705062866,0.5160825252532959,-0.2921608090400696,0.02268540859222412,0.009521722793579102,-0.00652998685836792,-0.1972808539867401,0.013484091497957706,0.002591067925095558,-1.222715208023882,-0.5422710200203114,-1.9080406484664807
