Timestamp,gravityX,gravityY,gravityZ,accelerationX,accelerationY,accelerationZ,rotationRateX,rotationRateY,rotationRateZ,attitudeRoll,attitudePitch,attitudeYaw
1687022043.13206,0.16965875029563904,-0.03481091931462288,-0.9848878383636475,-0.0005609393119812012,0.0006923377513885498,0.002893209457397461,0.019317707046866417,-0.005250065587460995,-0.022326530888676643,0.170587796291262,0.03481795351120297,-0.5975645934756919
1687022043.147526,0.16853803396224976,-0.03763224929571152,-0.9849765300750732,0.001292213797569275,-0.0025898516178131104,-6.985664367675781e-05,0.09180673211812973,-0.0507599376142025,-0.04088889807462692,0.1694675046876373,0.03764113676921585,-0.5998601952704022
1687022043.2164779,0.16575266420841217,-0.041691455990076065,-0.9852856993675232,0.0069919973611831665,0.007878053933382034,-0.016820013523101807,0.10331642627716064,-0.07485826313495636,-0.03617090359330177,0.16666744389197188,0.04170354463955831,-0.6025235953501809
1687022043.221664,0.1628153771162033,-0.04526665061712265,-0.9856176376342773,-0.002109900116920471,-0.012075807899236679,-0.007241249084472656,0.056651629507541656,-0.06810146570205688,-0.04607773199677467,0.16371276386710693,0.04528212406262942,-0.6051625225947114
1687022043.310526,0.16041208803653717,-0.04542049393057823,-0.9860045313835144,0.00560346245765686,-0.0010577104985713959,-0.018451035022735596,-0.010497535578906536,-0.05255011469125748,-0.03652677312493324,0.1612760377745552,0.04543612703245427,-0.6070596814715925
1687022043.323892,0.15866214036941528,-0.0457700677216053,-0.9862715005874634,-0.0010999739170074463,-0.00269177183508873,0.009861588478088379,0.014419220387935638,-0.03244173899292946,-0.041562341153621674,0.15950406419494148,0.04578606525883618,-0.6089472252382705
1687022043.399755,0.15708282589912415,-0.045441873371601105,-0.9865394234657288,-0.0002835988998413086,0.009141284972429276,0.0018592476844787598,-0.0009213415323756635,-0.02850070409476757,-0.02416224777698517,0.15790059676652418,0.04545752793487212,-0.6105775990681415
1687022043.413416,0.15551725029945374,-0.04582522436976433,-0.9867696762084961,-0.0035092830657958984,0.0021698959171772003,-0.004075050354003906,0.024427380412817,-0.027644319459795952,-0.019672488793730736,0.1563166233304241,0.04584127981877267,-0.6116281228258748
1687022043.4904451,0.15422992408275604,-0.04681664705276489,-0.9869251847267151,0.0028439760208129883,-0.011304017156362534,-0.0014323592185974121,0.018890224397182465,-0.028069451451301575,-0.016316240653395653,0.1550193490414267,0.046833766901491464,-0.612938416706539
1687022043.498596,0.15298542380332947,-0.04682203382253647,-0.9871186017990112,0.003478124737739563,0.004173789173364639,-0.01152336597442627,0.010287725366652012,-0.02443893998861313,-0.02259177900850773,0.15375852454457722,0.04683916049756702,-0.6140136010526881
1687022043.5495682,0.15225571393966675,-0.04689251631498337,-0.9872280955314636,-0.0010259449481964111,-0.0008674301207065582,-0.007339775562286377,-0.008864485658705235,-0.011409069411456585,-0.020330358296632767,0.15301985905040272,0.046909718756309955,-0.6149543221434383
1687022043.642674,0.15136338770389557,-0.046765752136707306,-0.9873713254928589,0.005588427186012268,-0.0016655772924423218,0.0031641125679016113,0.00821862742304802,-0.02026328071951866,-0.009913535788655281,0.15211513446150582,0.04678281504799582,-0.6156781145021395
1687022043.656425,0.15037605166435242,-0.046459853649139404,-0.987536609172821,0.00193709135055542,0.0006530359387397766,-0.006924450397491455,-0.00764511339366436,-0.017254885286092758,-0.0009065919439308345,0.15111306483718936,0.04647658385490638,-0.6158933663621523
1687022043.694324,0.1493932008743286,-0.0470271110534668,-0.9876589179039001,-0.0047857314348220825,-0.0015873238444328308,-0.0031705498695373535,0.012434410862624645,-0.017155107110738754,-0.019969364628195763,0.15012190809786816,0.04704446277062832,-0.6164680436136308
1687022043.7946,0.1490159034729004,-0.04672349989414215,-0.9877303242683411,-0.00021226704120635986,0.003800593316555023,-0.0076615214347839355,0.0043162084184587,-0.007782553788274527,1.1133379302918911e-05,0.14973775672090903,0.04674051835830253,-0.6169303103644401
1687022043.808113,0.14842787384986877,-0.04751883074641228,-0.9877809286117554,0.0005740970373153687,-0.0070160143077373505,-0.004070878028869629,0.0013363086618483067,-0.00967863667756319,0.0024826801382005215,0.14914809183253877,0.047536731456256844,-0.6172605800347024
1687022043.848806,0.14779147505760193,-0.04712273180484772,-0.9878953099250793,-0.0004069209098815918,0.0006750449538230896,-0.007862746715545654,0.027411984279751778,-0.01956162601709366,-0.008160310797393322,0.14850104220566845,0.04714019046031344,-0.6172495678366655
1687022043.942749,0.14700180292129517,-0.04907826706767082,-0.9879179000854492,0.006013244390487671,-0.0018707625567913055,-0.006726264953613281,0.028094153851270676,-0.016548259183764458,-0.0002253553830087185,0.14771577487895973,0.04909799123707091,-0.6177260831592742
1687022043.9502249,0.14666153490543365,-0.05016101896762848,-0.9879140853881836,0.004964977502822876,-0.0026038065552711487,-0.007325172424316406,-0.0005499195540323853,0.003319365670904517,0.010322093963623047,0.14737934352262821,0.0501820778805461,-0.6176767283591107
1687022043.9953861,0.14711220562458038,-0.049928657710552216,-0.9878588318824768,0.004590585827827454,-0.003980576992034912,0.0033465027809143066,-0.007864601910114288,0.01789901778101921,0.013503040187060833,0.1478338121248827,0.04994942689037156,-0.6169478244006523
1687022044.093073,0.14757901430130005,-0.04989022761583328,-0.9877911806106567,-0.004650026559829712,0.007150426506996155,0.004392743110656738,0.02865927666425705,0.016136182472109795,0.00865828339010477,0.14830608913268764,0.04991094676891846,-0.6161093225813863
1687022044.106694,0.14810094237327576,-0.050371162593364716,-0.9876886606216431,0.00521928071975708,-0.0018138289451599121,0.0010401010513305664,-0.01726529374718666,0.011012350209057331,0.020513145253062248,0.1488381018192975,0.0503924879770195,-0.615605545487341
1687022044.1467528,0.14853286743164062,-0.05066853016614914,-0.9876085519790649,-3.889203071594238e-06,-0.00372898206114769,-0.007752776145935059,-0.01043850276619196,0.012138157151639462,0.020405089482665062,0.14927769828163268,0.05069023729535364,-0.6147065147509516
1687022044.2419028,0.1493985950946808,-0.04996534436941147,-0.9875138401985168,0.0018617063760757446,0.0012746192514896393,-0.01074671745300293,0.0025322900619357824,0.021463748067617416,0.021692926064133644,0.15014897161218263,0.04998615956329621,-0.613480467935032
1687022044.249978,0.14994190633296967,-0.05088548734784126,-0.9873844981193542,0.0022339075803756714,-0.010378479957580566,-0.001095116138458252,0.0032856538891792297,0.008722830563783646,0.015639759600162506,0.15070624132087512,0.050907471038550076,-0.6125771543221793
1687022044.2967591,0.15015432238578796,-0.0512271411716938,-0.9873345494270325,-0.002449348568916321,0.006457921117544174,-0.0010077357292175293,0.006240209098905325,0.003519635181874037,0.021145911887288094,0.15092403949834568,0.051249573705968506,-0.6117260183318862
1687022044.422508,0.15013909339904785,-0.050247881561517715,-0.9873871803283691,0.0014263689517974854,-0.0012504644691944122,0.006674289703369141,-0.042934659868478775,0.008940765634179115,0.02665073238313198,0.15090103405366762,0.0502690491720687,-0.6101819649154417
1687022044.4349,0.15005822479724884,-0.04919363185763359,-0.9874525666236877,-0.0034213513135910034,-0.0010077133774757385,-0.004033029079437256,-0.000801233050879091,-0.004643042106181383,0.01021929644048214,0.15081114514234606,0.04921349467679247,-0.6088579543720946
1687022044.513634,0.1499405801296234,-0.04932914674282074,-0.987463653087616,-0.002266108989715576,-0.007052011787891388,-0.006844818592071533,0.0036640893667936325,-0.0014645594637840986,0.0029503311961889267,0.15069303237136475,0.04934917562534075,-0.6086919511633583
1687022044.525312,0.14977437257766724,-0.049230027943849564,-0.9874938130378723,0.006933316588401794,0.003972526639699936,-0.010522544384002686,-0.004755716770887375,0.0013028199318796396,0.016633586958050728,0.15052397473644868,0.04924993712268531,-0.6084388831444556
1687022044.6024551,0.1498575061559677,-0.04915633797645569,-0.987484872341156,0.0007771700620651245,-0.005103852599859238,-0.006960928440093994,0.0019235803047195077,-0.00032472657039761543,0.012085839174687862,0.150607607167705,0.04917615520402745,-0.6078901467457003
1687022044.615073,0.1495235413312912,-0.04916226863861084,-0.9875351786613464,0.00045502185821533203,-0.003190569579601288,-0.0013106465339660645,0.014213668182492256,-0.015768131241202354,0.001129794167354703,0.15026945763717492,0.04918209204275406,-0.6074622203646424
1687022044.691358,0.14890360832214355,-0.05044445022940636,-0.987564206123352,-0.005120113492012024,0.0014638006687164307,0.0033723115921020508,0.015176179818809032,-0.009310143068432808,0.007168578915297985,0.14965138216456994,0.05046586720576767,-0.6076464351035719
1687022044.698996,0.148382306098938,-0.050860803574323654,-0.9876213073730469,0.0012452900409698486,-0.005672946572303772,0.001583099365234375,-0.012275861576199532,-0.013983813114464283,0.003659997135400772,0.149126718016412,0.05088275674328805,-0.6075499242758158
1687022044.7829242,0.14801327884197235,-0.0507180318236351,-0.9876840114593506,0.0008513927459716797,-0.004091471433639526,-0.002886056900024414,0.0033141050953418016,-0.003057218622416258,-0.0025692698545753956,0.1487519847369647,0.05073980267308924,-0.6075645763203288
1687022044.796126,0.147801011800766,-0.05099213123321533,-0.9877017140388489,0.0015061497688293457,-0.0008724257349967957,-0.009322822093963623,0.00011888914741575718,-0.010458586737513542,0.010243797674775124,0.14853917225484062,0.051014255220342745,-0.6073371190805795
1687022044.836082,0.14744852483272552,-0.05159853398799896,-0.9877228736877441,0.001858636736869812,-0.008627839386463165,-0.01583242416381836,0.0052157798781991005,-0.005481138825416565,-0.0163376796990633,0.14818696008492757,0.05162145734284628,-0.6076626055642464
1687022044.901583,0.14760296046733856,-0.050473980605602264,-0.9877579212188721,0.0033826828002929688,0.0020273923873901367,-0.00795435905456543,-0.022099686786532402,0.00576681038364768,-0.006722403224557638,0.14833470710936936,0.05049543527693815,-0.6079038732747208
1687022044.9930959,0.1477157324552536,-0.050028152763843536,-0.9877637624740601,-0.00663304328918457,-0.01125108078122139,-0.0022722482681274414,-0.03345859795808792,0.0023196148686110973,-0.013073110021650791,0.1484455221796286,0.05004904374972982,-0.6083437767106795
1687022045.0063848,0.1480792760848999,-0.04875199869275093,-0.9877731204032898,0.006598979234695435,0.0002596341073513031,0.002024829387664795,-0.01979849487543106,0.014191364869475365,0.001519880723208189,0.1488041173782437,0.04877133245123079,-0.6084620612100559
1687022045.079856,0.14882607758045197,-0.04755106940865517,-0.9877194166183472,-0.010047480463981628,-0.015894901007413864,0.0024289488792419434,-0.06592874228954315,0.028823483735322952,-0.016310714185237885,0.14955145969053482,0.0475690083148363,-0.6085614972362366
1687022045.09113,0.14987507462501526,-0.04467162862420082,-0.9876952767372131,0.0014309883117675781,-0.0025084763765335083,-0.007910192012786865,-0.04999155178666115,0.018587712198495865,-0.019605644047260284,0.15059339158355423,0.04468650108273539,-0.6092175669152965
1687022045.136695,0.1512610763311386,-0.04285609722137451,-0.9875643849372864,0.0007621645927429199,-0.009573038667440414,-0.002715766429901123,-0.0482465997338295,0.028061728924512863,-0.015260363928973675,0.15198461699327048,0.0428692263083777,-0.609849224232334
1687022045.20216,0.15212520956993103,-0.04124528914690018,-0.9875002503395081,0.009083807468414307,0.0010842271149158478,-0.010973870754241943,-0.02463390678167343,0.015221919864416122,-0.028664520010352135,0.15284924984449066,0.041256992485292236,-0.610615577754651
1687022045.292249,0.1526784598827362,-0.04009384289383888,-0.9874622821807861,-0.0026846379041671753,-0.0013031847774982452,0.0014851093292236328,0.006362492218613625,-0.0010971322190016508,-0.03490477055311203,0.15340226230034487,0.04010459229622297,-0.6120107746117968
1687022045.299368,0.15283380448818207,-0.038766030222177505,-0.987491250038147,0.002012297511100769,0.016930777579545975,-0.015285789966583252,-0.05640856921672821,-0.005951719358563423,-0.04079208895564079,0.1535514627060385,0.03877574762775483,-0.6135632976252889
1687022045.381288,0.15265445411205292,-0.03900663182139397,-0.987509548664093,-0.006734743714332581,-0.03534938022494316,0.021063625812530518,-0.05132663622498512,0.0016959912609308958,-0.013885107822716236,0.1533713025024211,0.039016530862573236,-0.6150888556557995
1687022045.392367,0.15284696221351624,-0.03729004040360451,-0.9875460863113403,-0.0068356990814208984,0.01283026859164238,-0.003741145133972168,-0.017916038632392883,0.01085442490875721,-0.00300223333761096,0.15355610182326937,0.03729868917530113,-0.615138210006916
1687022045.4355268,0.15296803414821625,-0.035012003034353256,-0.9876106977462769,0.00908021628856659,0.01758653298020363,-0.012938618659973145,-0.050541624426841736,-0.014461052604019642,-0.008668242022395134,0.15366592001496773,0.035019160167390616,-0.615729573228898
1687022045.531941,0.15248343348503113,-0.03071768581867218,-0.9878285527229309,0.03339904546737671,0.002565290778875351,0.002309143543243408,-0.05549106374382973,-0.016675915569067,0.02061021886765957,0.15315345099153307,0.03072251946808943,-0.6148373164776914
1687022045.5445762,0.1520654559135437,-0.02867044322192669,-0.9879544973373413,0.01227162778377533,0.013579567894339561,-0.01833212375640869,-0.041670236736536026,-0.01700330525636673,0.02945670671761036,0.15272096402772453,0.02867437316389497,-0.6128751705664744
1687022045.589735,0.15182186663150787,-0.026558775454759598,-0.9880509972572327,-0.0026978105306625366,0.0002984683960676193,-0.009248197078704834,-0.07625129818916321,-0.03099857084453106,0.038759127259254456,0.15246545487488283,0.026561897888569823,-0.6110708696185745
1687022045.682551,0.1508529782295227,-0.023629140108823776,-0.9882737398147583,-0.017628580331802368,-0.011008244007825851,0.005821347236633301,-0.0484355092048645,-0.006478847935795784,0.033468425273895264,0.15147369447569564,0.023631340091226614,-0.6090916201524943
1687022045.695394,0.1502678245306015,-0.019148318096995354,-0.9884598851203918,-0.00939875841140747,0.018827948719263077,-0.015248000621795654,-0.05727888643741608,-0.0021292841993272305,0.03421730548143387,0.15086703311841418,0.019149488110682605,-0.6066353019522673
1687022045.736456,0.15018649399280548,-0.01787230744957924,-0.9884961247444153,0.003850892186164856,0.0055432748049497604,-0.004469573497772217,-0.03591226041316986,0.013787008821964264,0.028247298672795296,0.1507811698900809,0.0178732586659407,-0.6050507692063112
1687022045.831932,0.15023159980773926,-0.016423339024186134,-0.9885144233703613,0.012625381350517273,0.013005439192056656,-0.0009417533874511719,-0.03603529557585716,-0.021716389805078506,0.029404975473880768,0.15082302706754733,0.01642407795148696,-0.6032091401862978
1687022045.8442779,0.14977510273456573,-0.016352219507098198,-0.9885848760604858,-0.001993805170059204,0.003183949738740921,-0.02288973331451416,0.03357427194714546,-0.006024778820574284,0.0242460984736681,0.1503610574332242,0.016352947763681003,-0.6014345946027336
1687022045.8860722,0.1501837819814682,-0.016870934516191483,-0.9885141253471375,-0.0038215667009353638,-0.007588839158415794,-0.004131138324737549,-0.007274756208062172,0.004995381459593773,-0.011669358238577843,0.15077578671406988,0.016871735129814918,-0.6011938477268389
1687022045.981248,0.15054450929164886,-0.016245968639850616,-0.9884697198867798,-0.0006117522716522217,-0.014134213328361511,0.01341789960861206,-0.07538088411092758,0.029927806928753853,0.006966444663703442,0.15113913732840165,0.016246682440044347,-0.6014108820789654
1687022045.993483,0.15118283033370972,-0.01514416839927435,-0.988389790058136,0.00669977068901062,-0.004890552721917629,-0.0030805468559265137,-0.04186806455254555,0.015380555763840675,0.0062286825850605965,0.15178228903433427,0.015144747151079017,-0.6009644512053196
1687022046.0392408,0.15244819223880768,-0.01322290301322937,-0.9882230162620544,-0.008466333150863647,0.007775584235787392,0.0014981627464294434,-0.029314501211047173,0.028647270053625107,-0.018748240545392036,0.15305843849567388,0.013223288379084966,-0.600869472787936
1687022046.131579,0.1538631021976471,-0.011724606156349182,-0.9880226254463196,0.004309430718421936,0.0011045560240745544,-0.00242537260055542,0.0012069677468389273,0.02460654452443123,-0.00140806520357728,0.15448745481401138,0.011724874372653769,-0.600927038936922
1687022046.143488,0.154800146818161,-0.009621650911867619,-0.9878989458084106,0.002319514751434326,0.016778089106082916,-0.019028544425964355,-0.03292175382375717,0.01235458254814148,-0.0038973884657025337,0.1554324174589397,0.009621799107863755,-0.6000433311067693
1687022046.18716,0.1557031124830246,-0.00832491647452116,-0.987768828868866,-0.012606263160705566,-0.020849822089076042,-0.017541229724884033,-0.04783651977777481,0.03052506595849991,-0.017285365611314774,0.1563446664300793,0.008325012345647807,-0.6006003272292844
1687022046.286361,0.15657712519168854,-0.005486342124640942,-0.9876505136489868,-0.0083533376455307,-0.01787479594349861,-0.0033162832260131836,-0.10105478018522263,0.020544514060020447,0.00029515952337533236,0.15722645480926845,0.00548636983665425,-0.600619040273702
1687022046.2934709,0.15698136389255524,-0.0006703052786178887,-0.9876013398170471,-0.0056905597448349,0.01757710985839367,0.002127707004547119,-0.06469149142503738,0.014883343130350113,0.00757444417104125,0.1576334159621789,0.0006703053178169067,-0.5993016163972816
1687022046.369376,0.15708382427692413,0.0028020311146974564,-0.9875813126564026,-0.007807180285453796,-0.014001913368701935,-0.0005168318748474121,-0.10892743617296219,0.012932755053043365,0.0010668104514479637,0.15773774198865556,-0.0028020347109941235,-0.5987228294406246
1687022046.381083,0.1573929637670517,0.011658750474452972,-0.9874672293663025,0.00856153666973114,-0.010727898217737675,7.098913192749023e-05,-0.25817424058914185,0.0043253302574157715,-0.002216534223407507,0.1580609917363368,-0.011659014930081034,-0.5973384480529151
1687022046.427884,0.15736223757266998,0.023469753563404083,-0.9872620105743408,-0.006101936101913452,-0.007600545883178711,-0.00877070426940918,-0.253567099571228,0.009239127859473228,0.005007090512663126,0.1580629406257805,-0.02347190868172122,-0.5954178425189253
1687022046.521778,0.1578124314546585,0.03347555920481682,-0.9869015216827393,0.0066924989223480225,0.008181001991033554,-0.013357877731323242,-0.13540245592594147,-0.0015686890110373497,-0.0370442233979702,0.15856454579119736,-0.033481816294795144,-0.5946264398145815
1687022046.5349998,0.15837688744068146,0.03709126636385918,-0.9866818189620972,-0.0025389641523361206,-0.007946912199258804,-0.008069157600402832,-0.053403858095407486,0.02462856099009514,-0.0264090895652771,0.15915702302143064,-0.03709977600726838,-0.5955999758390297
1687022046.578381,0.1586528867483139,0.03894377127289772,-0.9865660667419434,0.001900017261505127,0.027050558477640152,0.00017690658569335938,0.007763714529573917,-0.006625321693718433,-0.050800446420907974,0.1594480923257279,-0.03895362162604106,-0.5971182535519963
1687022046.668706,0.15793298184871674,0.03946659713983536,-0.9866608381271362,-0.004719570279121399,0.002937640994787216,0.0012634992599487305,-0.0443321093916893,-0.009503666311502457,-0.010085975751280785,0.15872171363236492,-0.03947685137417591,-0.5985198381764
1687022046.6819181,0.1574004739522934,0.03917000815272331,-0.9867576956748962,0.006509348750114441,0.0025781020522117615,0.011370182037353516,-0.00745514128357172,-0.027606679126620293,-0.026036977767944336,0.1581801682800653,-0.03918003155688943,-0.5994399636567874
1687022046.7295651,0.15733149647712708,0.03942260518670082,-0.9867586493492126,-0.005125164985656738,0.02316901460289955,-0.011868059635162354,0.07541226595640182,0.009539267048239708,-0.02318147011101246,0.1581118603966833,-0.039432825056243105,-0.6004256222608988
1687022046.792934,0.15797743201255798,0.03531447798013687,-0.9868110418319702,0.0016752034425735474,0.000299602746963501,-0.009526848793029785,0.13683967292308807,0.013532144948840141,-0.04059348627924919,0.15874188465299424,-0.03532182373365391,-0.6030137602632846
1687022046.882722,0.1571539044380188,0.032318081706762314,-0.987045168876648,0.015468686819076538,-0.008895769715309143,-0.006088376045227051,-0.03423362597823143,-0.0031087950337678194,-0.021787572652101517,0.15789125350485728,-0.032323708699212694,-0.6048066921562313
1687022046.8957171,0.15766899287700653,0.03436877951025963,-0.9868937730789185,0.0006103366613388062,0.010568417608737946,-0.011366724967956543,-0.033876627683639526,0.017461728304624557,-0.02295823022723198,0.15842405191107534,-0.034375549481730126,-0.6053145105043958
1687022047.002423,0.15835575759410858,0.03446107357740402,-0.98678058385849,0.00039659440517425537,-0.00519464910030365,0.0027565360069274902,-0.010445825755596161,0.002764362609013915,-0.013749485835433006,0.1591204955607175,-0.03446789823309741,-0.6063385781397026
1687022047.015751,0.15846170485019684,0.03635816648602486,-0.9866954684257507,-0.012618288397789001,0.008273854851722717,-0.006575405597686768,0.022814614698290825,0.018342701718211174,-0.02135234698653221,0.15923866519134092,-0.03636618322281857,-0.6067400139664095
1687022047.09089,0.15893450379371643,0.03489835187792778,-0.9866721630096436,0.0013895183801651,0.021650787442922592,0.006233930587768555,0.01875542476773262,0.008245059289038181,-0.012013704515993595,0.1597094689536537,-0.034905439375252804,-0.6076797782602976
1687022047.103836,0.15930914878845215,0.03484103083610535,-0.9866137504577637,0.0016099661588668823,0.011194802820682526,-0.010197162628173828,0.02189551293849945,0.002528228797018528,-0.008732223883271217,0.1600888534024269,-0.03484808308573186,-0.6079183874298092
1687022047.214642,0.15914860367774963,0.03355279564857483,-0.9866843223571777,0.007156863808631897,0.002656377851963043,-0.011667728424072266,0.039653513580560684,-0.005884608253836632,-0.006157147232443094,0.1599190163501331,-0.0335590946512972,-0.6085257005517724
1687022047.2271461,0.15877027809619904,0.033332716673612595,-0.9867527484893799,0.0033542662858963013,0.005134753882884979,-0.008730649948120117,-0.01459503173828125,-0.0060437764041125774,0.0002984219463542104,0.15953441878384014,-0.03333889147280366,-0.6086861080730301
1687022047.302277,0.15837876498699188,0.03342217206954956,-0.9868125915527344,-0.0022356659173965454,-0.0016685649752616882,0.002696990966796875,-0.006570660974830389,-0.008140215650200844,0.006587210111320019,0.15913814718826788,-0.03342839921014197,-0.6085158763834483
1687022047.3146849,0.15796716511249542,0.03388144075870514,-0.9868628978729248,-0.0015646666288375854,-0.004431914538145065,0.0007637143135070801,-0.02363877184689045,-0.009384267963469028,-0.0008475363720208406,0.15872352540659154,-0.03388792576175244,-0.6082369332139564
1687022047.39675,0.15780594944953918,0.032994676381349564,-0.9869187474250793,-0.0036159753799438477,-0.003911357372999191,0.006968796253204346,0.030285311862826347,-0.00046374346129596233,-0.0016978171188384295,0.15855543088327625,-0.03300066655309246,-0.6086605727593049
1687022047.410077,0.15776680409908295,0.03232203796505928,-0.9869472980499268,0.00321333110332489,0.0068625956773757935,-0.004568815231323242,0.01826913096010685,0.010035769082605839,0.017993062734603882,0.15851224094219604,-0.03232766896525155,-0.6083811512168404
1687022047.5158792,0.15810787677764893,0.03033580258488655,-0.9869557619094849,0.006442829966545105,0.0032946355640888214,-0.012784838676452637,0.04264260455965996,0.008907032199203968,0.0008923067944124341,0.15884785460506923,-0.030340457961379356,-0.6083505433493118
1687022047.527345,0.1586093157529831,0.02834329940378666,-0.9869345426559448,-0.00252726674079895,-0.005851779133081436,-0.017780423164367676,0.038192059844732285,0.016873879358172417,0.01166366133838892,0.15934655025936584,-0.02834709632871514,-0.6086684791730054
1687022047.632135,0.1594979166984558,0.02772476151585579,-0.9868088960647583,0.0067007094621658325,-0.009765101596713066,-0.0033339262008666992,-0.006354456767439842,0.02091291919350624,0.007322176359593868,0.1602441733057296,-0.027728314760565802,-0.6082130018645064
1687022047.64448,0.16000773012638092,0.027597125619649887,-0.9867299199104309,-0.00461229681968689,0.005789171904325485,0.0011647343635559082,0.0015200222842395306,0.020235231146216393,0.01621360518038273,0.16076023959233685,-0.027600629286569145,-0.6077348630664434
1687022047.691371,0.16117484867572784,0.027960894629359245,-0.9865297079086304,-0.0071679651737213135,5.4309144616127014e-05,-0.0004087686538696289,0.0029607038013637066,0.030225103721022606,-0.0033467798493802547,0.16194482075683647,-0.02796453882179855,-0.6072962117317358
1687022047.696939,0.162439227104187,0.027201561257243156,-0.9863435626029968,0.002340346574783325,0.0015155449509620667,0.008239924907684326,0.001682475209236145,0.02462012693285942,0.010671167634427547,0.16322315643907018,-0.027204916659035638,-0.6073734143583319
1687022047.701972,0.16379041969776154,0.02734835259616375,-0.9861159920692444,-0.0009486973285675049,0.0015823785215616226,-0.0018448233604431152,-0.012543998658657074,0.03211958706378937,0.010449659079313278,0.1645938665547194,-0.02735176316659901,-0.6065137124314713
1687022047.779311,0.1650795191526413,0.027899745851755142,-0.9858855605125427,0.0051627010107040405,-0.00394337996840477,-0.009353697299957275,-0.004767834208905697,0.02178172953426838,0.00896081980317831,0.16590381970969661,-0.027903366173627573,-0.6058480400241307
1687022047.8703651,0.16649910807609558,0.02744031511247158,-0.9856597185134888,0.003453195095062256,0.009486021474003792,-0.01441657543182373,0.018369575962424278,0.023575101047754288,0.007164717186242342,0.16734176000886106,-0.027443760824211353,-0.6054366499409302
1687022047.883627,0.16777624189853668,0.027019940316677094,-0.9854547381401062,0.0014131218194961548,-0.0031398702412843704,-0.009738743305206299,-0.012723139487206936,0.030441975221037865,0.027028769254684448,0.1686356562381063,-0.02702322974944414,-0.6047969290568773
1687022047.966022,0.16937869787216187,0.02808401919901371,-0.9851508140563965,-0.005346804857254028,-0.0065080225467681885,-0.003984928131103516,-0.02752654254436493,0.03807494789361954,0.01607232354581356,0.17026704507165807,-0.028087712044435928,-0.6034873890259419
1687022047.977812,0.1700361669063568,0.02841235138475895,-0.9850281476974487,-0.0026320666074752808,-0.001831473782658577,-0.00021660327911376953,-0.006962500512599945,0.0038193296641111374,0.009443983435630798,0.170936055121945,-0.028416176402728796,-0.6029010356595829
1687022048.018486,0.17039857804775238,0.024485984817147255,-0.9850709438323975,-0.029773667454719543,0.04942765831947327,-0.01914048194885254,0.25389108061790466,0.015185700729489326,-0.005409864243119955,0.17128602007036084,-0.024488433175217168,-0.6034288748566173
1687022048.082581,0.17105010151863098,0.018330078572034836,-0.9850918054580688,0.01735009253025055,-0.008198173716664314,0.0023189783096313477,0.058958057314157486,0.005412432365119457,0.02054796740412712,0.17192454555242848,-0.01833110474402807,-0.6049564664138716
1687022048.1713362,0.17147280275821686,0.015926243737339973,-0.9850600957870483,-0.009638160467147827,0.02534884586930275,-0.02562105655670166,0.134824737906456,0.0380028635263443,0.02988946996629238,0.1723465020727105,-0.01592691782223172,-0.6037861855142274
1687022048.1850982,0.17385388910770416,0.011173146776854992,-0.9847080707550049,0.023137003183364868,-0.005740949884057045,0.006619691848754883,0.05707507207989693,0.0271142665296793,0.0069444733671844006,0.17475283441552206,-0.011173379450968723,-0.6039094581814948
1687022048.290832,0.17377008497714996,0.0073389639146625996,-0.9847589135169983,-0.0011779963970184326,-0.00044192373752593994,-0.011029660701751709,0.1113017350435257,0.01788969710469246,0.042995817959308624,0.1746614651833261,-0.00733902971662024,-0.6029347657647373
1687022048.3058739,0.17649239301681519,0.0006822050781920552,-0.984301745891571,-0.012613102793693542,-0.01673438400030136,0.01144719123840332,0.1327141672372818,0.04265487566590309,0.02385900914669037,0.17742180202268823,-0.0006822051111645395,-0.6029194470095794
1687022048.382597,0.17901937663555145,-0.0030334722250699997,-0.9838408827781677,-0.018451228737831116,0.007519622799009085,0.013000428676605225,0.02039850503206253,0.08369462937116623,0.0162056814879179,0.17999047715210625,0.003033476865958662,-0.6020833303050798
1687022048.3957229,0.18185800313949585,-0.0053700353018939495,-0.9833101630210876,0.013103455305099487,-0.003556289244443178,0.0055574774742126465,0.07886731624603271,0.05758509039878845,0.05695191025733948,0.18287829530372168,0.0053700611850746585,-0.6008677916391706
1687022048.472938,0.1845063865184784,-0.007826555520296097,-0.9828001260757446,0.008807122707366943,0.02078133448958397,-0.0008729100227355957,0.05125895142555237,0.022855514660477638,0.013606437481939793,0.18557534626167907,0.007826635784773358,-0.5988171097011189
1687022048.4848862,0.18479520082473755,-0.015785111114382744,-0.9826502799987793,-0.004070177674293518,0.004280049353837967,-0.007080554962158203,0.264356404542923,0.012069092132151127,0.01217339001595974,0.18588689784908066,0.015785766003496692,-0.5997370823550585
1687022048.5644941,0.18558812141418457,-0.024105152115225792,-0.9823319315910339,0.023564010858535767,-0.026737067848443985,0.012849509716033936,0.036328114569187164,0.003790301037952304,0.03843109309673309,0.18672523727777515,0.024107486493727535,-0.600649126679391
1687022048.575481,0.18611101806163788,-0.029235780239105225,-0.9820936918258667,-0.012084618210792542,0.013061530888080597,-0.007743954658508301,0.16477109491825104,0.034128587692976,0.04973694309592247,0.18728351575121213,0.029239946556390613,-0.5989336839493916
1687022048.616447,0.18771721422672272,-0.035692036151885986,-0.9815744161605835,0.01560606062412262,-0.02519046515226364,0.011176466941833496,0.019370879977941513,0.026832325384020805,0.03412942215800285,0.18895938271727827,0.03569961814721647,-0.5987248253254387
1687022048.717441,0.18945501744747162,-0.03837623819708824,-0.9811391830444336,-0.022661283612251282,0.005798790603876114,0.009520530700683594,0.09633712470531464,0.058926522731781006,0.0314129963517189,0.1907493263628223,0.038385663750767955,-0.5966985623877857
1687022048.730091,0.19167685508728027,-0.04147294908761978,-0.9805814623832703,0.023273617029190063,-0.026047121733427048,-0.004922688007354736,0.018162071704864502,0.02408767119050026,0.040011946111917496,0.1930385688035735,0.041484846170918736,-0.5964484435177002
1687022048.7654362,0.19350029528141022,-0.04113103821873665,-0.9802376627922058,-0.011188358068466187,0.01731213554739952,-0.0011771321296691895,-0.005847080145031214,0.0646735355257988,0.0295211561024189,0.1948956694738126,0.04114264266997224,-0.5936285810669756
1687022048.862181,0.1958734542131424,-0.042215730994939804,-0.9797200560569763,0.026111334562301636,-0.019765399396419525,-0.008500158786773682,0.01957789808511734,0.025890277698636055,0.020983127877116203,0.19732630895673364,0.04222828193273366,-0.5927442110712269
1687022048.869873,0.1968754231929779,-0.043783266097307205,-0.9794504046440125,-0.012274682521820068,-0.011483997106552124,-0.004497349262237549,0.06021449342370033,0.03374278545379639,0.015006660483777523,0.19836269573073498,0.043797266633130306,-0.5916958812857488
1687022048.917835,0.19825348258018494,-0.04628663510084152,-0.979057252407074,0.0038338452577590942,-0.011513590812683105,-0.006004393100738525,-0.002685330808162689,0.01677187904715538,0.01916179060935974,0.19979273508898435,0.04630318013539409,-0.5918596893019062
1687022049.01565,0.19811497628688812,-0.0487951785326004,-0.9789634943008423,-0.004252135753631592,0.019376296550035477,-0.00864642858505249,0.16518449783325195,0.010266309604048729,0.0220579132437706,0.1996754565151243,0.0488145615013138,-0.5914026391584409
1687022049.026871,0.19921758770942688,-0.05320161208510399,-0.9785100817680359,0.010377049446105957,-0.01759909838438034,0.01885432004928589,-0.033250607550144196,0.015680428594350815,0.03116585686802864,0.2008477604977629,0.053226739671894015,-0.5917385724754154
1687022049.066992,0.2001040130853653,-0.054353978484869,-0.9782658219337463,-0.0042270272970199585,0.016878459602594376,-0.019765794277191162,0.11585507541894913,0.023348644375801086,0.017544720321893692,0.20176645151431158,0.05438077881038446,-0.5903607810961665
1687022049.1649141,0.20146732032299042,-0.05716553330421448,-0.9778256416320801,0.014047741889953613,-0.03041984885931015,0.005093097686767578,-0.06096350774168968,0.019118480384349823,0.016810687258839607,0.20319264343594623,0.05719671278989786,-0.5906946848902003
1687022049.1767678,0.20182691514492035,-0.057118237018585205,-0.9777542948722839,0.007432028651237488,0.009205710142850876,-0.00968778133392334,0.07058857381343842,-0.007604388054460287,0.0043051475659012794,0.20355985334957652,0.057149340461579504,-0.5894893115958225
1687022049.217692,0.2015860676765442,-0.05671042203903198,-0.9778276681900024,-0.0016654878854751587,-0.010885942727327347,0.0032030344009399414,-0.08476533740758896,-0.015180282294750214,0.0018061704467982054,0.20330872574704434,0.0567408631880467,-0.5891115318955659
1687022049.3159099,0.20084255933761597,-0.05565011873841286,-0.9780415892601013,-0.00289037823677063,-0.007536463439464569,0.0034169554710388184,0.016510378569364548,-0.00965937227010727,0.0056720818392932415,0.2025361502661267,0.05567888184083362,-0.5889412665557224
1687022049.327547,0.20128133893013,-0.05593181401491165,-0.9779353141784668,0.005169972777366638,0.012627441436052322,-0.006241321563720703,0.007354964502155781,0.006280711852014065,0.007953611202538013,0.20298804792448932,0.055961018822235004,-0.588573069826868
1687022049.3672872,0.200905442237854,-0.05646918714046478,-0.977981686592102,0.006491944193840027,-0.004993148148059845,-0.01318347454071045,-0.01221616379916668,-0.004831505473703146,0.019529040902853012,0.20260991086769475,0.05649924024201983,-0.5881083768812939
1687022049.46505,0.2007807046175003,-0.05515264347195625,-0.9780824780464172,0.007486432790756226,-0.004097167402505875,-0.006872355937957764,-0.014660234563052654,-0.008364899083971977,0.008526191115379333,0.20246722091501432,0.05518064145495874,-0.5874084405166612
1687022049.476108,0.1998148411512375,-0.05534730106592178,-0.9782692193984985,0.003935694694519043,-0.011608198285102844,-0.008898138999938965,-0.002035785699263215,-0.02516544982790947,0.009082258678972721,0.20148201755036693,0.055375596350048635,-0.5870871841315777
1687022049.551036,0.1987505704164505,-0.05466451123356819,-0.978524386882782,0.00527462363243103,-0.010307345539331436,0.0032283663749694824,-0.05136290192604065,-0.024814002215862274,0.015872586518526077,0.2003865800519678,0.05469177225834065,-0.5862710891319703
1687022049.56423,0.1974494904279709,-0.05322751775383949,-0.9788669347763062,-0.0028389692306518555,0.003712821751832962,-0.007186532020568848,-0.033303070813417435,-0.02760632522404194,0.009226469323039055,0.19904144565579757,0.05325268461099443,-0.5854500235544274
1687022049.609911,0.19608406722545624,-0.052376337349414825,-0.9791873097419739,-0.002602711319923401,-0.004279471933841705,0.004959404468536377,-0.000876556325238198,-0.025964753702282906,0.006358977407217026,0.19763771357352963,0.05240031514596287,-0.5848525482054371
1687022049.703203,0.19450241327285767,-0.05447189882397652,-0.979388415813446,-0.0011888891458511353,-0.004243846982717514,-0.01310431957244873,0.035453978925943375,-0.026135284453630447,0.007323640864342451,0.19604499039854548,0.054498874260718325,-0.5849168302868298
1687022049.716161,0.19399042427539825,-0.05391036346554756,-0.9795209765434265,0.0075933486223220825,0.020646274089813232,-0.010072529315948486,0.008751791901886463,-0.018412116914987564,0.0036095967516303062,0.19551621833564914,0.053936512250800775,-0.5844671330094701
1687022049.7575731,0.19279377162456512,-0.05506259575486183,-0.9796931743621826,0.0014657676219940186,-0.0069490522146224976,0.017214536666870117,0.02625972405076027,-0.01095118373632431,0.019294749945402145,0.19430708351792594,0.055090459100542326,-0.5845545139822086
1687022049.85204,0.1919967532157898,-0.05490677058696747,-0.9798583984375,0.001393049955368042,-0.01191139966249466,-0.0118865966796875,-0.0033735802862793207,-0.02199912816286087,0.004878725856542587,0.1934919209106404,0.054934395640684856,-0.5839841184762908
1687022049.864701,0.19107002019882202,-0.05555242300033569,-0.9800031781196594,0.0020146220922470093,0.005381595343351364,-0.011558771133422852,0.006438570097088814,-0.03481106460094452,-0.0001650347257964313,0.19255320254822578,0.055581036785912044,-0.5839623627518554
1687022049.907844,0.19048689305782318,-0.055268723517656326,-0.9801326990127563,0.024951860308647156,3.197789192199707e-05,-0.003967642784118652,0.0019914908334612846,-0.010020763613283634,0.012030711397528648,0.1919551448641523,0.05529689832403223,-0.5838588974550367
1687022050.003131,0.1898866593837738,-0.05505241081118584,-0.9802613258361816,-0.006613418459892273,-0.0018933191895484924,0.01296091079711914,-0.019369369372725487,0.0004688065964728594,-0.0011601914884522557,0.19134046217870274,0.055080258732467455,-0.5836825646791147
1687022050.016609,0.18986263871192932,-0.05437999218702316,-0.9803035259246826,0.0037865787744522095,-0.008013129234313965,-0.00011944770812988281,-0.018921425566077232,-0.00880458578467369,0.007186288945376873,0.191308812135528,0.054406828571170386,-0.5835376962640998
1687022050.058793,0.18965627253055573,-0.05351969599723816,-0.9803907871246338,0.005350977182388306,0.0024028196930885315,-0.011995077133178711,-0.01318395510315895,0.009552227333188057,0.004859018139541149,0.1910892965675048,0.05354527759045401,-0.583173097635605
1687022050.153421,0.19007566571235657,-0.053086914122104645,-0.9803330898284912,0.01822197437286377,0.003602728247642517,-0.01751542091369629,-0.0009377645328640938,-0.009053592570126057,-0.003135524457320571,0.19151261925379812,0.05311188136962355,-0.5831563885803936
1687022050.165482,0.1902332901954651,-0.05321531370282173,-0.9802955985069275,-0.002504497766494751,-0.012641549110412598,-0.01091533899307251,-0.009850610047578812,0.018971828743815422,0.004876395687460899,0.19167473333452942,0.05324046164493429,-0.582823298330057
1687022050.20928,0.19083604216575623,-0.05343984439969063,-0.9801661968231201,0.003209903836250305,-0.004177279770374298,-0.009946107864379883,-0.006332574412226677,0.0040948777459561825,-0.008609319105744362,0.19229197881619015,0.053465311714934474,-0.5830999878533654
1687022050.3038058,0.19110846519470215,-0.05318571627140045,-0.9801269173622131,0.012855678796768188,0.004113517701625824,0.010964930057525635,0.013539445586502552,0.00903912540525198,0.004753157962113619,0.19256726729403711,0.053210821319177495,-0.5831366992620222
1687022050.3162708,0.19083410501480103,-0.05495981499552727,-0.9800825119018555,0.0032881200313568115,-0.0016197040677070618,0.009333610534667969,0.030193878337740898,0.0027387964073568583,-0.0020670644007623196,0.19230608761609347,0.054987521660161506,-0.5834404915156676
1687022050.35603,0.19099317491054535,-0.0546254888176918,-0.9800702333450317,-0.005034402012825012,-0.0003213435411453247,-0.008806109428405762,-0.007618525996804237,-0.00021340628154575825,0.0066999951377511024,0.19246481212673966,0.05465269200682492,-0.583175076309111
1687022050.45404,0.19123688340187073,-0.05402906984090805,-0.9800557494163513,0.009828105568885803,0.008161220699548721,-0.010666906833648682,-0.005010314751416445,-0.0033699623309075832,-0.0007364824996329844,0.19270714200612601,0.054055389715303465,-0.5828146925879122
1687022050.466621,0.1909707933664322,-0.053455863147974014,-0.9801390767097473,0.01686909794807434,-0.003856077790260315,-0.0032746195793151855,0.0060102446004748344,-0.01920059137046337,-0.0034954508300870657,0.19242961757915392,0.05348135398664202,-0.5827855405554159
1687022050.5087972,0.19018694758415222,-0.05389583110809326,-0.9802674055099487,0.0017990320920944214,4.7635287046432495e-05,-0.0019103288650512695,0.00023171817883849144,-0.008852079510688782,-0.007746787741780281,0.19163455411638525,0.05392195870502059,-0.583072684372932
1687022050.604137,0.19003799557685852,-0.053605832159519196,-0.980312168598175,-0.00746665894985199,-0.005064141005277634,0.006786167621612549,0.011685885488986969,-0.0023996843956410885,-0.009177971631288528,0.19147956563610866,0.05363153794307282,-0.5834570218912589
1687022050.616164,0.18924269080162048,-0.05430479347705841,-0.9804275631904602,-0.0006746500730514526,-0.009034376591444016,0.003361523151397705,-0.018219728022813797,-0.0098299914970994,-0.005311593413352966,0.19067565822249294,0.05433151895337206,-0.5838339416488345
1687022050.659243,0.19009768962860107,-0.049739181995391846,-0.9805043935775757,0.004192382097244263,0.004802115261554718,0.016728758811950684,-0.11249881982803345,0.00899589341133833,-0.028561921790242195,0.1915016212838309,0.04975971285211577,-0.5841268527639948
1687022050.7814121,0.18946781754493713,-0.0492425374686718,-0.9806513786315918,-0.001723751425743103,0.02420293539762497,-0.008255481719970703,0.08105124533176422,-0.007546775974333286,-0.04085274040699005,0.19085450457114364,0.049262459697126025,-0.5849306152418581
1687022050.794187,0.1879301220178604,-0.04978129640221596,-0.9809200167655945,0.04490366578102112,-0.015541508793830872,-0.0016239285469055176,-0.043163470923900604,-0.05863570421934128,0.02481827884912491,0.1892918275254174,0.04980188072880491,-0.5858161341443234
1687022050.8720942,0.18603050708770752,-0.0500217042863369,-0.9812698364257812,-0.014460757374763489,0.006702069193124771,-0.01573944091796875,0.02149297669529915,-0.03556562587618828,-0.004636482335627079,0.1873578983104189,0.05004258891767553,-0.5850152231686584
1687022050.885244,0.18514031171798706,-0.04985195770859718,-0.9814468026161194,0.00023864209651947021,-0.042372092604637146,-0.016584813594818115,-0.12495287507772446,-0.02109232172369957,0.02273302525281906,0.18644918512151534,0.049872628722324654,-0.5847037011830266
1687022050.964748,0.1850411295890808,-0.04310327395796776,-0.9817850589752197,-0.01345612108707428,0.011502392590045929,0.0041391849517822266,-0.1282452493906021,0.009709709323942661,0.020332317799329758,0.18628887065683797,0.043116633363396016,-0.5820680358947632
1687022050.9710488,0.18449851870536804,-0.03894088789820671,-0.9820610284805298,0.013758853077888489,0.016037512570619583,0.005132317543029785,-0.04818686097860336,-0.023158935829997063,0.03526792302727699,0.1857040857762078,0.03895073520371346,-0.5796858471313895
1687022051.052013,0.18322989344596863,-0.036038074642419815,-0.9824092984199524,-0.004732653498649597,-0.0019715018570423126,-0.0013553500175476074,-0.12191899865865707,-0.019245686009526253,0.014748334884643555,0.18439212159616575,0.03604588122348246,-0.5776286189364519
1687022051.064475,0.18166261911392212,-0.031820379197597504,-0.9828459620475769,0.0007103532552719116,-0.007165752351284027,-0.008227646350860596,-0.06746845692396164,-0.04250849038362503,0.04862281307578087,0.18277053699498297,0.03182575277490352,-0.5754879815281939
1687022051.1428142,0.1796666979789734,-0.028934253379702568,-0.9833019375801086,-0.006357461214065552,0.006168210878968239,-0.010792911052703857,-0.09013444185256958,-0.040206097066402435,0.013251105323433876,0.18072412530505894,0.028938292332287195,-0.5731357435536445
1687022051.155188,0.17845462262630463,-0.026311468333005905,-0.9835962653160095,-0.01748974621295929,-0.024027204141020775,-0.017166614532470703,-0.10471303015947342,-0.013358592055737972,-0.005434964317828417,0.17947844779826017,0.026314505531622172,-0.5723559726945755
1687022051.268141,0.17754755914211273,-0.022752124816179276,-0.9838491678237915,0.004092991352081299,-0.024855230003595352,-0.006141066551208496,-0.07425650209188461,0.002158227376639843,-0.012040136381983757,0.17854056604418866,0.022754088067301212,-0.5721576837225649
1687022051.2788181,0.1771024912595749,-0.0192584078758955,-0.9840039610862732,-0.010537639260292053,0.02232549712061882,-0.010975897312164307,-0.03513697162270546,-0.0011463116388767958,-0.028642281889915466,0.17807500332529616,0.01925959876198693,-0.5721969326007993
1687022051.354669,0.1769549399614334,-0.01783175580203533,-0.9840574264526367,-0.0020740628242492676,-0.005926104262471199,-0.0024385452270507812,-0.07391161471605301,-0.00280137755908072,-0.014427260495722294,0.1779202980565682,0.017832701118821993,-0.5731072550458407
1687022051.367406,0.17686468362808228,-0.01348376739770174,-0.9841428399085999,0.0028990358114242554,0.010142158716917038,-0.005420207977294922,-0.05272297561168671,0.0021001705899834633,-0.02240728959441185,0.17781633269821026,0.013484175751471176,-0.5731357529447816
1687022051.439291,0.1769964098930359,-0.00945353601127863,-0.9841660857200623,0.001592382788658142,0.004357168450951576,-0.010508596897125244,-0.09598611295223236,0.0036819104570895433,-0.008841547183692455,0.1779418715804187,0.009453677172957869,-0.5731638053264231
1687022051.450818,0.17726224660873413,-0.0057562715373933315,-0.9841468334197998,-0.0020914226770401,0.0010718945413827896,-0.012374162673950195,-0.06239841878414154,0.003095837775617838,-0.01142175029963255,0.17820692280723813,0.005756303284276197,-0.5729413588208085
1687022051.498745,0.17754600942134857,-0.002808656543493271,-0.9841085076332092,-0.009867250919342041,-0.02773936837911606,-0.0052561163902282715,-0.11511041224002838,0.020155692473053932,-0.021924393251538277,0.17849299449432912,0.002808660258941471,-0.5732742639365549
1687022051.591401,0.17745710909366608,0.004122642800211906,-0.9841198921203613,0.013888031244277954,-0.013354138471186161,0.005131244659423828,-0.2037862241268158,-0.004127809777855873,-0.0074165561236441135,0.17840347618177407,-0.0041226543561997545,-0.5726277344757953
1687022051.603887,0.17755690217018127,0.012525968253612518,-0.9840308427810669,-0.014959335327148438,0.037065163254737854,-0.0035332441329956055,-0.07400105148553848,0.0015612354036420584,-0.021788304671645164,0.17851750861181234,-0.012526295744247217,-0.5714461316234324
1687022051.649129,0.1769510954618454,0.015444145537912846,-0.984098494052887,-0.004984632134437561,-0.02397373877465725,0.0007458329200744629,-0.11845436692237854,-0.0024669733829796314,-0.034219808876514435,0.17790923686784904,-0.015444759980865114,-0.5724340166536589
1687022051.744183,0.17636331915855408,0.021483974531292915,-0.9840906858444214,-0.005510762333869934,0.004776466637849808,0.0007838010787963867,-0.09724219888448715,-0.012130342423915863,-0.006487378850579262,0.17733199154919174,-0.02148562843855643,-0.5725394423576041
1687022051.750876,0.17664673924446106,0.024023279547691345,-0.9839811325073242,-0.010570183396339417,0.009240947663784027,-0.02621173858642578,-0.02953554317355156,0.018231913447380066,0.011086354963481426,0.17763037613427032,-0.024025591370963207,-0.5718850503870614
1687022051.79861,0.1767013520002365,0.02411779947578907,-0.98396897315979,0.01487267017364502,-0.007470389828085899,-0.00025343894958496094,-0.03209550678730011,-0.0010043650399893522,-0.009897557087242603,0.1776862837716,-0.024120138901821762,-0.5720935826890767
1687022051.898802,0.1770247519016266,0.025348342955112457,-0.9838799238204956,-0.014427170157432556,0.010357294231653214,-0.011786580085754395,0.023040981963276863,0.02145061083137989,0.00243647419847548,0.17802043968359327,-0.025351057498864935,-0.5718662322813355
1687022051.90561,0.17788630723953247,0.024467211216688156,-0.9837468266487122,0.00360165536403656,-0.008124975487589836,0.008038818836212158,-0.01873788982629776,0.011287188157439232,0.0040408954955637455,0.17889220875523246,-0.024469652416442753,-0.5718024768764557
1687022051.947802,0.17819063365459442,0.024906039237976074,-0.9836807250976562,-0.00013591349124908447,0.010891150683164597,-0.00205230712890625,0.04101474583148956,0.008875607512891293,-0.008086474612355232,0.17920354801406846,-0.02490861513012435,-0.5717666947061816
1687022052.073915,0.178528293967247,0.023697108030319214,-0.9836493730545044,-0.00044305622577667236,-0.006302017718553543,0.0041419267654418945,-0.010971978306770325,-0.00495596369728446,0.0012828594772145152,0.17954148420444646,-0.023699326436608735,-0.5723130793974881
1687022052.086204,0.17838966846466064,0.025817954912781715,-0.9836211204528809,0.0033882111310958862,0.010345444083213806,-0.01253366470336914,-0.012572050094604492,9.033828973770142e-08,-0.014709489420056343,0.1794100740838084,-0.025820823768074562,-0.5720287033315112
1687022052.1572351,0.17824959754943848,0.023999424651265144,-0.9836925864219666,0.002917930483818054,0.0011013541370630264,-0.018535196781158447,0.04597408324480057,-0.013154326938092709,-0.02585548348724842,0.17925946248562483,-0.024001729067045934,-0.5731635061499816
1687022052.170166,0.17817933857440948,0.023784244433045387,-0.983710527420044,0.002835601568222046,-0.0015368591994047165,-0.009270429611206055,-0.010339743457734585,-0.002505322452634573,-0.005239088553935289,0.17918711579290353,-0.023786487194916273,-0.5738060314836688
1687022052.254895,0.17783944308757782,0.024305395781993866,-0.9837592840194702,-0.007612481713294983,0.0006885677576065063,0.00870746374130249,-0.006356498226523399,-0.0037155519239604473,-0.01162328477948904,0.17884385796715271,-0.024307789265343573,-0.5740812507669334
1687022052.268124,0.1778351068496704,0.02387446165084839,-0.9837706685066223,-0.0017029941082000732,0.002538571134209633,-0.0029084086418151855,0.03332052007317543,2.8142239898443222e-05,-0.0025494960136711597,0.1788375736867781,-0.023876729934278793,-0.5743891067291456
1687022052.343385,0.17771540582180023,0.021744996309280396,-0.9838416576385498,-0.004879176616668701,-0.008012015372514725,0.013352155685424805,0.019773639738559723,-0.003192773787304759,-0.0042328801937401295,0.178707117154795,-0.021746709600749925,-0.5749832007285335
1687022052.356279,0.17717556655406952,0.02130317874252796,-0.9839486479759216,0.004464969038963318,-0.005830695852637291,0.0016030669212341309,-0.001530317822471261,-0.0004340049345046282,0.004099884536117315,0.17815673726051628,-0.021304790577922058,-0.5750297825565761
1687022052.39914,0.17774541676044464,0.020436352118849754,-0.9838643074035645,0.012348487973213196,0.003916744142770767,-0.015098094940185547,0.024988507851958275,0.008334985002875328,-0.006702895276248455,0.1787326325020489,-0.020437774954567535,-0.5751074533092755
1687022052.49124,0.17782984673976898,0.020738346502184868,-0.9838427305221558,0.010310947895050049,-0.006440792232751846,-0.004652202129364014,-0.02486293762922287,-0.004019951447844505,0.003956273198127747,0.1788195722075848,-0.020739833378209435,-0.5748461209517
1687022052.504012,0.17810402810573578,0.021411661058664322,-0.9837786555290222,-0.003833487629890442,0.0054286178201437,-0.005555450916290283,-0.004466008860617876,0.016368499025702477,-0.01758437231183052,0.17910084118795472,-0.02141329684978086,-0.574931881078938
1687022052.546101,0.1784651130437851,0.021968593820929527,-0.9837009906768799,0.008226066827774048,-0.009059593081474304,-0.003893613815307617,-0.036589235067367554,0.012853037565946579,0.004164732992649078,0.17947009060250455,-0.021970362150301934,-0.5749545714165167
1687022052.640341,0.17882224917411804,0.022751450538635254,-0.9836183190345764,-0.0032852143049240112,-0.008423376828432083,-0.010903775691986084,-0.037475936114788055,0.002323431894183159,0.0036761092487722635,0.1798363376420903,-0.02275341326555005,-0.5741700555220366
1687022052.654231,0.17919178307056427,0.02460937388241291,-0.9835063219070435,0.01786014437675476,0.006045602262020111,-0.009383082389831543,-0.016201183199882507,0.012303005903959274,-0.004165036138147116,0.1802200568856895,-0.024611858768988595,-0.5740970839990759
1687022052.7610621,0.17946688830852509,0.023501228541135788,-0.9834832549095154,0.007987260818481445,-0.005144834518432617,-0.007575094699859619,0.037771545350551605,3.258092328906059e-05,0.0003063448239117861,0.18049490997488218,-0.023503392858471316,-0.5743894971307045
1687022052.774675,0.17955297231674194,0.024316780269145966,-0.9834477305412292,0.006268486380577087,0.005117494612932205,-0.008755028247833252,-0.040045395493507385,0.0022857924923300743,-0.000685150153003633,0.18058600024885454,-0.024319176441035123,-0.5742566937354209
1687022052.854422,0.1796027272939682,0.02436131052672863,-0.9834375381469727,0.00661545991897583,-0.0030599720776081085,-0.007315635681152344,0.02278527431190014,0.003984445706009865,0.002626956906169653,0.18063679816465406,-0.02436372055850788,-0.5743071845405483
1687022052.866406,0.17984320223331451,0.024198926985263824,-0.9833976030349731,-0.0028413236141204834,0.001359613612294197,-0.011826395988464355,0.003912118263542652,0.0014243486803025007,-0.008721771650016308,0.18088060862645766,-0.024201290239327874,-0.574441196136313
1687022052.943057,0.18020686507225037,0.022642362862825394,-0.9833680987358093,-0.008942291140556335,-0.004011310636997223,0.012085139751434326,0.04224725812673569,0.016754303127527237,0.003700943198055029,0.18124373047875628,-0.02264429823028991,-0.5750983321944705
1687022052.950424,0.1807398796081543,0.020032428205013275,-0.9833269119262695,-0.007033899426460266,0.011721182614564896,-0.009379386901855469,0.0627085417509079,0.012745358049869537,0.014379220083355904,0.1817755481934231,-0.020033769207680373,-0.5750177878501406
1687022053.031465,0.1814538687467575,0.01840139366686344,-0.9832272529602051,0.0006291866302490234,0.01072770357131958,-0.006961345672607422,0.071395643055439,0.006377473473548889,0.0008781254291534424,0.18249590462955495,-0.01840243162276542,-0.5748988862085302
1687022053.038485,0.18086393177509308,0.012382560409605503,-0.9834302067756653,7.468461990356445e-05,0.04196931794285774,-0.026823699474334717,0.22602130472660065,-0.02328481525182724,-0.007832608185708523,0.18187889992258963,-0.012382876535414564,-0.5758785951760671
1687022053.086771,0.18012389540672302,0.00781321246176958,-0.9836128950119019,-0.024423301219940186,0.00842220801860094,-0.012709736824035645,0.030506888404488564,-0.015024043619632721,-0.0021058134734630585,0.18111799344301485,-0.007813292280874719,-0.5767514399184122
1687022053.183821,0.17868731915950775,0.0008660053135827184,-0.983905553817749,0.0066305845975875854,0.023807527497410774,-0.04581856727600098,0.2343040108680725,-0.033243972808122635,-0.027401916682720184,0.17965220702979082,-0.000866005421734435,-0.5786740244776614
1687022053.197291,0.17908504605293274,-0.006916516926139593,-0.9838092923164368,-0.029426932334899902,0.020573202520608902,0.007811367511749268,0.09942261874675751,0.02647874690592289,-0.016912389546632767,0.18006074460336036,0.006916572079474481,-0.5806784236489942
1687022053.2358,0.17983534932136536,-0.01790049485862255,-0.9835338592529297,0.02606666088104248,-0.009382149204611778,-0.025758743286132812,0.18917953968048096,-0.007339138071984053,-0.025981184095144272,0.18084837296806006,0.017901450822156058,-0.5841606272607703
1687022053.336081,0.18057462573051453,-0.023972928524017334,-0.9832690954208374,-0.02630835771560669,-0.004972923547029495,0.023079276084899902,0.03917636349797249,0.04228922352194786,0.007174370810389519,0.181623427882723,0.023975226067655245,-0.5846460708300129
1687022053.348727,0.18138670921325684,-0.03582548722624779,-0.9827590584754944,0.028085872530937195,-0.00816553458571434,0.018632471561431885,0.2609994411468506,0.0034078711178153753,-0.04242534190416336,0.1825148429550266,0.03583315591393178,-0.5885075242401044
1687022053.385246,0.1811782866716385,-0.04118866100907326,-0.9825873374938965,0.023472502827644348,0.008290782570838928,0.0021796226501464844,0.038487184792757034,-0.013691131956875324,0.029342589899897575,0.18234091108880487,0.0412003177464616,-0.5892325355634029
1687022053.4820209,0.18084104359149933,-0.04566420987248421,-0.9824516773223877,-0.008142143487930298,0.01241537556052208,-0.030945539474487305,0.18192575871944427,-0.018081797286868095,0.023690029978752136,0.18203354030736194,0.045680093780060785,-0.5889611117329809
1687022053.490047,0.180904820561409,-0.05265042930841446,-0.9820902943611145,-0.00616125762462616,-0.04373927786946297,-0.008907020092010498,0.01965188980102539,-0.005614474415779114,0.008705089800059795,0.18216186202134274,0.05267478301472432,-0.5899842152852716
1687022053.5366678,0.18040190637111664,-0.05498998984694481,-0.982054591178894,-0.018353641033172607,-0.02035784348845482,0.00036513805389404297,-0.015655945986509323,0.005463387817144394,-0.008927566930651665,0.181672992364677,0.05501774032826413,-0.5902742186351492
1687022053.6335878,0.18021684885025024,-0.0534275658428669,-0.982174813747406,0.024189814925193787,0.04614918678998947,0.0766724944114685,-0.09621208906173706,-0.0205288864672184,-0.0016369638033211231,0.1814689640428604,0.05345301490940557,-0.5892585881389094
1687022053.647012,0.1784369796514511,-0.059223778545856476,-0.9821674227714539,0.014815494418144226,0.035649023950099945,-0.017786800861358643,0.20750699937343597,-0.05272765830159187,0.04546044021844864,0.179716585521901,0.05925845366640741,-0.5882762816111929
1687022053.7228,0.17661979794502258,-0.06657949090003967,-0.9820247292518616,-0.015380248427391052,-0.019327431917190552,0.018249094486236572,0.06905929744243622,-0.033563464879989624,0.017320547252893448,0.1779502544011604,0.06662877650202478,-0.587933925242023
1687022053.735883,0.17597892880439758,-0.0671754777431488,-0.9820992350578308,0.001709580421447754,0.000769302248954773,-0.0056326985359191895,0.012163789942860603,-0.00771775096654892,-0.013458802364766598,0.1773048678314417,0.0672261010942842,-0.5881758808733155
1687022053.777495,0.1756143718957901,-0.06857190281152725,-0.9820679426193237,0.01705828309059143,0.0072621554136276245,-0.02058708667755127,0.027100970968604088,-0.0051176175475120544,-0.0005575846880674362,0.17695070084179002,0.0686257551066813,-0.5891509104396773
1687022053.8414059,0.17565511167049408,-0.06895101815462112,-0.9820341467857361,-0.0049246251583099365,-0.008456744253635406,0.006143033504486084,-0.007181412540376186,0.010206921026110649,0.0005578137934207916,0.17699687656981974,0.06900576966367847,-0.5889812534355143
1687022053.932894,0.17592062056064606,-0.06825380027294159,-0.9820353388786316,-0.00241301953792572,0.009888999164104462,0.007090210914611816,0.02251274324953556,-0.0022472627460956573,0.0021727546118199825,0.1772586372246096,0.06830690413933749,-0.5888649761669612
1687022053.940115,0.1756972372531891,-0.06942813098430634,-0.9819929599761963,-0.00579071044921875,0.0024573728442192078,0.003614664077758789,0.03553595766425133,0.0014429909642785788,0.011045741848647594,0.17704570725841406,0.06948402806463327,-0.5890340138004962
1687022054.021707,0.17584922909736633,-0.06961072236299515,-0.9819528460502625,0.003410935401916504,0.00820942223072052,-0.004253208637237549,0.03111790493130684,0.005912041291594505,0.007824447937309742,0.1772027726403586,0.0696670618900252,-0.5888071851890683
1687022054.033685,0.17638391256332397,-0.0703718513250351,-0.9818027019500732,0.008460968732833862,-0.0034043118357658386,0.0001437664031982422,0.020702194422483444,0.005490285810083151,0.01467290148139,0.17775691519914674,0.07043006402129091,-0.5886645887442818
1687022054.075622,0.17659848928451538,-0.06924635916948318,-0.9818441271781921,0.005637139081954956,0.007158420979976654,-0.01647740602493286,0.04018983244895935,-0.002162130316719413,-0.0006247628480195999,0.17796127975116,0.06930182126996386,-0.5881826626333159
1687022054.1755838,0.17664259672164917,-0.0696655660867691,-0.9818065762519836,0.001961439847946167,0.0010468736290931702,-0.007268130779266357,-0.022265156731009483,-0.0013112504966557026,0.0016794706461951137,0.17801146024228218,0.06972204187474076,-0.588186798930003
1687022054.188774,0.17664934694766998,-0.07020445168018341,-0.981766939163208,0.0014969408512115479,-0.00695917010307312,0.009537935256958008,0.003418589709326625,0.0028887323569506407,0.010802195407450199,0.17802514683311688,0.07026225075648516,-0.5878257597152994
1687022054.226548,0.1767028272151947,-0.06959770619869232,-0.9818004965782166,-0.005178853869438171,-0.001233525574207306,-0.009807169437408447,-0.004270488861948252,0.009712549857795238,-0.001880976022221148,0.17807195409803606,0.06965401640397259,-0.5874300864836682
1687022054.321241,0.17740167677402496,-0.06889047473669052,-0.9817243814468384,-0.006976336240768433,-0.0012388527393341064,0.008564591407775879,-0.049898695200681686,0.029455361887812614,0.009787531569600105,0.17877491646410776,0.0689450845550969,-0.5873795296177626
1687022054.334202,0.17818902432918549,-0.06760255992412567,-0.9816713333129883,0.006076022982597351,0.0056977346539497375,-0.009844779968261719,0.014654022641479969,0.004876959603279829,0.0018738147336989641,0.17956094595046757,0.06765415881941818,-0.5869598102649584
1687022054.377019,0.17847727239131927,-0.06756910681724548,-0.981621265411377,0.000996515154838562,-0.005444124341011047,-0.002952098846435547,-0.03199492767453194,0.01739630103111267,-0.005828646011650562,0.17985416902918006,0.06762062650100412,-0.5868388882309644
1687022054.475943,0.1791149526834488,-0.06714589893817902,-0.9815341234207153,0.0017321407794952393,-0.004051543772220612,-0.008135676383972168,-0.021618453785777092,0.0030767517164349556,-0.0011417490895837545,0.18049860355495262,0.06719645349854363,-0.586837397758777
1687022054.488507,0.1794987916946411,-0.06617497652769089,-0.981529951095581,0.0009515583515167236,0.0030189231038093567,-0.007315874099731445,-0.008493240922689438,0.004848463926464319,0.002415568334981799,0.18087778899795087,0.06622337228551027,-0.586559407945319
1687022054.525793,0.17974458634853363,-0.066136933863163,-0.981487512588501,-0.0034293681383132935,-0.01275094598531723,0.0049860477447509766,-0.04187823086977005,0.012790275737643242,-0.010335180908441544,0.18112775698752176,0.06618524060239538,-0.5867006756373426
1687022054.654959,0.18006910383701324,-0.06495240330696106,-0.9815071821212769,-0.002029627561569214,0.007915116846561432,0.00013810396194458008,0.0003369130427017808,0.0010831092949956656,0.003807735862210393,0.1814440889932866,0.06499816072121543,-0.5864598170654554
1687022054.668013,0.18003202974796295,-0.0654667392373085,-0.9814797639846802,0.0006319582462310791,-0.0037470608949661255,-0.0019797086715698242,-0.006811144761741161,0.0010444934014230967,0.0024669007398188114,0.1814125046098206,0.06551359349001562,-0.5864632192079535
1687022054.742832,0.1801132708787918,-0.06487488001585007,-0.9815042018890381,0.0004896670579910278,0.0017035678029060364,-0.007250070571899414,0.013534607365727425,-0.010215617716312408,-3.86012252420187e-05,0.18148815890250358,0.06492046994219293,-0.5864696703768022
1687022054.755816,0.17955191433429718,-0.0654042437672615,-0.9815719127655029,0.007124021649360657,0.006795309484004974,-0.01572728157043457,0.0043925074860453606,-0.011639876291155815,0.005637660622596741,0.18092260208116537,0.06545096597917721,-0.586389123573844
1687022054.832998,0.1796828657388687,-0.06486140191555023,-0.9815839529037476,0.004338055849075317,0.0008355900645256042,-0.008589386940002441,-0.008558932691812515,0.0043279933743178844,0.0012813280336558819,0.1810495034704598,0.06490696692691734,-0.5862413250568813
1687022054.8408651,0.1796748787164688,-0.06528842449188232,-0.9815571308135986,0.0034305155277252197,-0.0092201828956604,0.00014227628707885742,0.010783694684505463,-0.005141763016581535,0.006227617152035236,0.18104648044327326,0.06533489282020247,-0.5861883478216772
1687022054.9215178,0.1793176680803299,-0.06566795706748962,-0.9815971255302429,0.0024144351482391357,-0.0006924495100975037,0.00572127103805542,0.02577800303697586,-0.012017423287034035,-0.001755474484525621,0.18068712498072906,0.06571524458532818,-0.5860655404030483
1687022054.933152,0.1786440759897232,-0.0677754282951355,-0.981576681137085,-0.009134277701377869,-0.00764869898557663,-0.002676248550415039,0.012670811265707016,-0.0036972647067159414,-0.0036284755915403366,0.18002665827942602,0.06782742211458466,-0.5865952418177772
1687022054.979035,0.17882122099399567,-0.06775631010532379,-0.9815457463264465,0.004299432039260864,0.0027386844158172607,-0.004996001720428467,-0.008800836279988289,0.003557629883289337,0.010479886084794998,0.1802068836918841,0.06780826395113132,-0.5865097246060293
1687022055.075505,0.17897434532642365,-0.06662576645612717,-0.9815952181816101,0.004008978605270386,-0.004022352397441864,-0.014132320880889893,-0.029777891933918,0.002032970078289509,0.005508230533450842,0.1803489808661043,0.06667516039513259,-0.5856494469866783
1687022055.087517,0.1790330708026886,-0.06583486497402191,-0.9816378951072693,0.0018597841262817383,-0.005728781223297119,-0.010809004306793213,-0.013587025925517082,-0.006249372381716967,-0.0017546089366078377,0.18039921455067737,0.06588251485077483,-0.5852672932663963
1687022055.126673,0.1786733716726303,-0.06598508358001709,-0.9816933274269104,0.005408570170402527,-0.005517527461051941,-0.0051535964012146,-0.00557978730648756,-0.01144404523074627,0.0026617110706865788,0.18003461352186312,0.06603306262091523,-0.5851083692751374
1687022055.22163,0.1783396601676941,-0.06607669591903687,-0.9817478656768799,0.0009205043315887451,0.0004487261176109314,0.007947206497192383,0.0039286743849515915,-0.007256136275827885,0.008477522060275078,0.17969578576195053,0.06612487351283601,-0.584808259183962
1687022055.234891,0.17817583680152893,-0.06566108763217926,-0.9818055033683777,0.0007181316614151001,0.0007197484374046326,-0.00412595272064209,-0.008498922921717167,-0.004797683097422123,0.004099751356989145,0.17952393131358177,0.06570835828282393,-0.5845013070826007
1687022055.276534,0.17796894907951355,-0.06604836881160736,-0.9818170070648193,0.001214936375617981,-0.00012893229722976685,0.002309560775756836,0.010795102454721928,-6.0540856793522835e-05,-0.0006717677460983396,0.17931785262007865,0.06609648804100107,-0.5845416466672733
1687022055.375835,0.17779862880706787,-0.06649234145879745,-0.981817901134491,0.0009122341871261597,0.0009406507015228271,0.0003725886344909668,0.03528318181633949,-0.007976431399583817,0.004331446252763271,0.17914973315349236,0.06654143515706512,-0.5845531576546553
1687022055.388325,0.1775761991739273,-0.0665259137749672,-0.9818558692932129,0.00533081591129303,-0.001741841435432434,-0.01335287094116211,-0.020796824246644974,-0.00699390284717083,0.012865746393799782,0.17892360183754577,0.06657508244681153,-0.5845254973954301
1687022055.4264522,0.17748142778873444,-0.06634638458490372,-0.9818851947784424,0.004098072648048401,-0.0009905770421028137,-0.013903379440307617,0.0007830370450392365,-0.009518579579889774,-0.0009158463799394667,0.17882490882953683,0.06639515566607485,-0.5843803653525829
1687022055.523186,0.17718645930290222,-0.06603773683309555,-0.9819592833518982,-0.0016647130250930786,-0.0005820617079734802,-0.010365545749664307,-0.006272831000387669,-0.0058393338695168495,-0.004662248305976391,0.17852081016339283,0.0660858313436109,-0.5841984015051468
1687022055.5362592,0.17695170640945435,-0.06618682295084,-0.9819915294647217,-0.003108397126197815,0.008676514029502869,0.00803828239440918,0.01814982108771801,-0.00287923077121377,0.004017193336039782,0.17828353081393494,0.0662352395049128,-0.5842886037076577
1687022055.610425,0.17674045264720917,-0.06578750163316727,-0.9820564389228821,-0.0031870752573013306,0.002188935875892639,0.00483781099319458,0.002711210399866104,-0.0019561792723834515,-0.0036945221945643425,0.17806363868771713,0.06583504695686353,-0.5843122536753202
1687022055.623026,0.17690908908843994,-0.06566555052995682,-0.9820342063903809,-0.0008380115032196045,-0.00170193612575531,-0.006323337554931641,-0.014287658035755157,0.016809429973363876,-0.008665045723319054,0.17823391272219447,0.06571283004414463,-0.5847541135200078
1687022055.70351,0.17698901891708374,-0.06531830877065659,-0.9820429682731628,0.00042484700679779053,0.003611832857131958,-0.014111816883087158,0.008853569626808167,-0.0036740952637046576,-0.007608902640640736,0.17831118411288813,0.06536484110603664,-0.5852431344592851
1687022055.7944899,0.17833207547664642,-0.06297186017036438,-0.9819532632827759,0.016659915447235107,-0.008301869034767151,-0.008265852928161621,-0.1098041981458664,0.02808631956577301,-0.026116274297237396,0.17965152119096509,0.06301355637233509,-0.5858932830608263
1687022055.808508,0.17993669211864471,-0.056830186396837234,-0.982035219669342,0.005884766578674316,-0.004815254360437393,0.014093875885009766,-0.10665354132652283,0.018259787932038307,-0.0031871898099780083,0.18121820390603707,0.05686081996501641,-0.5859660296626513
1687022055.9115582,0.17928558588027954,-0.0564422681927681,-0.982176661491394,0.05467735230922699,-0.01396171748638153,0.016646206378936768,-0.004417095798999071,-0.033789120614528656,0.02294614166021347,0.18055121258630696,0.05647228054093174,-0.5867080614266718
1687022055.925671,0.17847375571727753,-0.054041292518377304,-0.9824594855308533,-0.014060378074645996,0.015955425798892975,0.013938367366790771,-0.019450150430202484,-0.011343555524945259,0.039539169520139694,0.17970053388980609,0.05406763222483708,-0.5843538152217306
1687022056.001826,0.17824992537498474,-0.05284031480550766,-0.9825654625892639,-0.0022551268339157104,0.0001670457422733307,-0.010781705379486084,-0.03685697168111801,-0.006129352375864983,0.00630990881472826,0.1794610435820995,0.05286493348428255,-0.583751577387127
1687022056.009134,0.17823189496994019,-0.04921281337738037,-0.9827570915222168,-0.010568395256996155,-0.0030942484736442566,0.0007166862487792969,-0.0980551689863205,-0.002920420840382576,0.01434133667498827,0.17940902669743877,0.04923269927001949,-0.5828862748669633
1687022056.094307,0.1774127036333084,-0.0465998537838459,-0.9830326437950134,0.01443597674369812,-0.009827084839344025,-0.006240427494049072,-0.045012857764959335,-0.017371797934174538,0.002333209849894047,0.17855287442758355,0.04661673420901195,-0.5819598257838557
1687022056.108519,0.17646387219429016,-0.04344896972179413,-0.9833477139472961,0.005741238594055176,0.0188976489007473,-0.023915469646453857,-0.0928536131978035,-0.0244307741522789,0.011907940730452538,0.17756224272319393,0.04346265351125039,-0.5808861977923326
1687022056.1805391,0.1760035902261734,-0.04095407575368881,-0.9835372567176819,-0.008370637893676758,-0.02244611829519272,0.006898462772369385,-0.05433166027069092,-0.0026823340449482203,0.0012353884521871805,0.1770753183205315,0.04096553439412419,-0.5799904480472656
1687022056.186687,0.17520055174827576,-0.038910284638404846,-0.983763575553894,-0.011672183871269226,0.002685990184545517,0.001189112663269043,-0.02811470255255699,-0.018504707142710686,-0.009348945692181587,0.17624432899005385,0.03892010977842547,-0.5799055196446801
1687022056.2748508,0.1741926670074463,-0.03754783049225807,-0.9839954376220703,-0.004576057195663452,-0.004017036408185959,-0.010114610195159912,-0.05340585112571716,-0.0037511494010686874,-0.011387196369469166,0.1752106775426222,0.037556658185592624,-0.5801840605449897
1687022056.288008,0.17382027208805084,-0.03485339507460594,-0.9841604232788086,0.0021897852420806885,0.015734203159809113,0.0018148422241210938,-0.01225278154015541,-0.015618905425071716,-0.017422519624233246,0.17481498351703123,0.03486045543877464,-0.5804506946741079
1687022056.36033,0.1723976731300354,-0.03298461437225342,-0.9844750165939331,0.01835237443447113,-0.0034990794956684113,-0.0030280351638793945,-0.05541884899139404,-0.027186788618564606,0.011678574606776237,0.17335855961724125,0.032990600201714654,-0.5801815726867655
1687022056.372941,0.17124275863170624,-0.030565282329916954,-0.9847546219825745,-0.018258213996887207,-0.008649738505482674,-0.006608903408050537,-0.04574766755104065,-0.01773354411125183,-0.008037072606384754,0.17217216274724997,0.030570043292769064,-0.5796493908202857
1687022056.4170098,0.17030616104602814,-0.029057074338197708,-0.9849627017974854,0.007901161909103394,-0.02279222384095192,-0.014823675155639648,-0.06528031826019287,-0.017764881253242493,-0.008751665242016315,0.1712133690293676,0.02906116468893739,-0.5800117994166335
1687022056.5122252,0.16929501295089722,-0.0247206948697567,-0.9852553606033325,-0.0015247166156768799,0.02427826263010502,0.0013991594314575195,-0.056703779846429825,-0.011483104899525642,-0.002005878370255232,0.17016682944815215,0.02472321255068342,-0.5789263245373113
1687022056.524679,0.1687290370464325,-0.024957284331321716,-0.9853464365005493,-0.0026219338178634644,-0.012350386008620262,5.5909156799316406e-05,-0.013076141476631165,-0.007570122368633747,-0.003773418255150318,0.16959341248470877,0.024959875294932377,-0.5793876662563356
1687022056.571275,0.1681487262248993,-0.023471659049391747,-0.9854821562767029,0.0011169463396072388,0.0011176001280546188,-0.002753317356109619,0.0008956886595115066,-0.003120069159194827,0.0018220164347440004,0.1689983583211585,0.023473814694003645,-0.5792171660758448
1687022056.660728,0.16772323846817017,-0.02376670576632023,-0.9855476021766663,-0.008650451898574829,0.004662768915295601,-0.00920337438583374,-0.014149174094200134,-0.006327047944068909,-0.007398579735308886,0.16856781297716067,0.023768943511476747,-0.5795555134378799
1687022056.673249,0.16801421344280243,-0.022962501272559166,-0.9855170845985413,0.015487909317016602,0.019193649291992188,-0.00505298376083374,0.019814519211649895,-0.0010728973429650068,-0.010826267302036285,0.1688598492499418,0.022964519360219662,-0.5799189109394567
1687022056.717948,0.1677706241607666,-0.02411353401839733,-0.9855310916900635,-0.00807221233844757,-0.006846480071544647,-0.016925573348999023,0.023842060938477516,0.00694570317864418,0.006846269592642784,0.1686172988053542,0.024115870681969766,-0.5803084736753331
1687022056.812111,0.1680968701839447,-0.02409401908516884,-0.9854759573936462,0.010675013065338135,-0.01084853895008564,-0.010938167572021484,-0.03024882636964321,0.008090951479971409,-0.00646254513412714,0.16894826509985278,0.02409635018527794,-0.5805509594360029
1687022056.82566,0.16827215254306793,-0.023173708468675613,-0.9854681491851807,-0.006742700934410095,0.006556956097483635,0.007196664810180664,-0.034644726663827896,0.007312864065170288,-0.01157754473388195,0.1691224229443685,0.023175782500414608,-0.5808179188949062
1687022056.86991,0.16830727458000183,-0.020259879529476166,-0.9855263829231262,0.0016145110130310059,0.006496518850326538,-0.008721113204956055,-0.03982981666922569,0.008391356095671654,0.011282097548246384,0.1691472539267584,0.02026126585344696,-0.5802015785185818
1687022056.9616241,0.16888518631458282,-0.020856965333223343,-0.9854150414466858,-0.007447287440299988,-0.0011003632098436356,-0.001370847225189209,0.004053798504173756,0.011009598150849342,-0.003915165085345507,0.16973578142924964,0.02085847818432122,-0.5802601873252383
1687022056.974437,0.16905958950519562,-0.018880577757954597,-0.9854249954223633,0.0037766247987747192,0.004003329202532768,-0.005785942077636719,-0.0409875363111496,0.008197921328246593,-0.004124622792005539,0.16990602297367902,0.018881699155178795,-0.5801631417733626
1687022057.017931,0.1689600795507431,-0.020123207941651344,-0.9854174256324768,0.007126256823539734,0.010037217289209366,-0.0023145079612731934,0.07057680934667587,-0.011263660155236721,-0.019499050453305244,0.16980920743105077,0.020124566766104555,-0.5809776784227539
1687022057.112877,0.16851447522640228,-0.01850820891559124,-0.9855254292488098,0.007556602358818054,0.0009759292006492615,-0.013803184032440186,-0.04485151171684265,-0.011602148413658142,-0.006652628071606159,0.16935168352272154,0.018509264940264752,-0.5811570100634622
1687022057.12578,0.16791218519210815,-0.017878834158182144,-0.9856398105621338,-0.0038802921772003174,0.0003770720213651657,-0.002351522445678711,0.009065867401659489,-0.002715002279728651,-0.015910176560282707,0.16873862874141515,0.017879787346193103,-0.5812780610217703
1687022057.205155,0.1674961894750595,-0.017248841002583504,-0.9857218265533447,-0.0024724602699279785,-0.0010921545326709747,0.0050547122955322266,-0.04027784615755081,-0.012387869879603386,-0.0012564646312966943,0.16831470660627654,0.017249696931424217,-0.5815157634859404
1687022057.216533,0.1667671799659729,-0.01577369123697281,-0.9858701229095459,-0.0048562586307525635,0.0005912669003009796,0.0041043758392333984,-0.013160786591470242,-0.015312375500798225,0.009485062211751938,0.16757106626063334,0.01577434601663476,-0.5812342584131677
1687022057.256839,0.16629250347614288,-0.016473760828375816,-0.9859388470649719,-0.004137441515922546,0.005243362858891487,-0.003608882427215576,0.02574187144637108,-0.00889815203845501,6.253237370401621e-05,0.16709151566465294,0.016474505517801545,-0.5812372695451751
1687022057.350521,0.16559343039989471,-0.016903698444366455,-0.986049234867096,0.009058594703674316,0.004956131801009178,0.0021472573280334473,0.00905104260891676,-0.021152153611183167,0.008128448389470577,0.16638370916692832,0.016904503087845565,-0.5810509058111017
1687022057.356699,0.16531600058078766,-0.01706235110759735,-0.9860930442810059,-0.005022495985031128,0.014544721692800522,-0.01026010513305664,0.014326054602861404,0.003707565600052476,0.005477937404066324,0.16610281428913148,0.01706317966608279,-0.5806604592375584
1687022057.43539,0.16509003937244415,-0.017133763059973717,-0.986129641532898,0.002130955457687378,-0.0009173154830932617,-0.0037842988967895508,0.0006342107662931085,-0.013643195852637291,0.015103666111826897,0.16587387486883393,0.01713460107129338,-0.5800864806817824
1687022057.5593472,0.16470788419246674,-0.016716349869966507,-0.986200749874115,-0.005421474575996399,0.004799308255314827,-0.00922161340713501,-0.011219030246138573,0.006070232950150967,-0.005194214638322592,0.16548517811275357,0.01671712805396564,-0.5797104726623283
1687022057.572165,0.16512450575828552,-0.016523463651537895,-0.9861342906951904,-0.0020386427640914917,-0.0037401411682367325,-0.00010228157043457031,0.008586853742599487,0.016993099823594093,0.018580421805381775,0.1659071079798927,0.016524214783702886,-0.5794321491273516
1687022057.653595,0.16574428975582123,-0.016345100477337837,-0.9860333204269409,0.0010341852903366089,-0.0015839077532291412,0.005045771598815918,-0.008540245704352856,0.00899500586092472,0.006376554258167744,0.16653515029517507,0.01634582905317746,-0.5786019919683666
1687022057.66381,0.16615992784500122,-0.01752587966620922,-0.985943078994751,0.006020158529281616,0.00649384967982769,-0.010776281356811523,0.049239519983530045,0.012124664150178432,-0.005617923568934202,0.16696006260753557,0.017526777746042946,-0.5787622236900022
1687022057.6682181,0.16695572435855865,-0.01807708665728569,-0.9857986569404602,0.004446178674697876,0.008876103907823563,-0.011332690715789795,-0.0003386419266462326,0.015177267603576183,0.011829043738543987,0.1677689139345086,0.018078070518648556,-0.5787894223226264
1687022057.709693,0.16816049814224243,-0.018757976591587067,-0.9855811595916748,-0.0006648749113082886,0.0016376897692680359,-0.015914201736450195,0.0236338023096323,0.02529488317668438,0.024687718600034714,0.16899331743291096,0.018759077391711038,-0.5779400113666824
1687022057.834413,0.1692289263010025,-0.017720146104693413,-0.9854174852371216,-0.015389889478683472,0.027958866208791733,-0.020625054836273193,0.012364369817078114,0.042466677725315094,0.011335027404129505,0.17007421600004263,0.017721074039955164,-0.5765580380366271
1687022057.8425121,0.17030006647109985,-0.023417307063937187,-0.9851139783859253,-0.030514389276504517,-0.018040748313069344,-0.011010289192199707,0.13185392320156097,0.024049943313002586,-0.019494790583848953,0.17118158364627345,0.023419448248995865,-0.578090680861803
1687022057.920587,0.17069436609745026,-0.02706420235335827,-0.9849522709846497,0.011876970529556274,0.002146665006875992,0.005032837390899658,0.11632481962442398,0.018715187907218933,0.005357095971703529,0.17159781403780625,0.027067507115921506,-0.5791408139305964
1687022057.927538,0.17012356221675873,-0.035621631890535355,-0.9847787022590637,0.007198750972747803,-0.003181401640176773,-0.0001913905143737793,0.14377258718013763,-9.063468314707279e-05,0.011895157396793365,0.1710646968573559,0.03562916993265886,-0.5807878590461482
1687022058.009265,0.17070092260837555,-0.041118837893009186,-0.9844645261764526,0.004729285836219788,0.03985242545604706,-0.0005818605422973633,0.27289965748786926,-0.013562323525547981,-0.019668562337756157,0.17168763998438813,0.04113043242950722,-0.5818763754378196
1687022058.021322,0.17079570889472961,-0.056737225502729416,-0.9836715459823608,0.0031238943338394165,-0.019785534590482712,-0.01129305362701416,0.2673282325267792,0.008716173470020294,-0.007784205488860607,0.17191687838782546,0.056767710154275446,-0.5856814990561842
1687022058.1034942,0.17186422646045685,-0.06285685300827026,-0.9831132888793945,0.019175708293914795,0.012075677514076233,-0.01755809783935547,0.10990912467241287,0.010176294483244419,0.021405505016446114,0.17306742662390479,0.0628983150906455,-0.5868461985832537
1687022058.109134,0.1715606451034546,-0.07007548213005066,-0.9826781749725342,0.012383952736854553,-0.011269040405750275,0.0005309581756591797,0.10193531215190887,-0.023735687136650085,0.0010980359511449933,0.17284275568002866,0.0701329646069349,-0.5874456235918628
1687022058.1560268,0.17086845636367798,-0.07431761920452118,-0.9824870824813843,0.0020440667867660522,0.010825872421264648,0.005527853965759277,0.11928487569093704,-0.01912548951804638,0.003598810639232397,0.1721919384796892,0.07438620322477293,-0.5878936799849298
1687022058.249069,0.17009207606315613,-0.0789806991815567,-0.9822579622268677,-0.012209460139274597,0.006074264645576477,-0.012172579765319824,0.11980152130126953,-0.01767672970890999,-0.002961087506264448,0.17146402393382462,0.07906304074964476,-0.5888898482789042
1687022058.260745,0.16933932900428772,-0.08516687899827957,-0.9818710684776306,0.002901807427406311,-0.004463180899620056,-0.018632471561431885,0.11362773925065994,-0.019082967191934586,0.028009144589304924,0.17078586603620485,0.08527017500160873,-0.5899739324433294
1687022058.3051472,0.1662324070930481,-0.0867438018321991,-0.9822638630867004,0.002728089690208435,0.010785624384880066,0.04168158769607544,-0.0986221581697464,-0.09383408725261688,-0.03203188627958298,0.16764554406702184,0.08685295327077382,-0.5886311535094094
1687022058.462339,0.16349627077579498,-0.09312164038419724,-0.9821391701698303,0.043367043137550354,0.019955821335315704,-0.018501698970794678,0.100092314183712,-0.04726649075746536,0.05462850630283356,0.16495688201360853,0.09325675453305496,-0.5884364934096946
1687022058.469434,0.1613745093345642,-0.09781647473573685,-0.9820337295532227,-0.018125072121620178,-0.02751915156841278,0.005974709987640381,0.014567513018846512,-0.03656386584043503,0.021246515214443207,0.16287124113891177,0.0979731344037533,-0.5871290917112337
1687022058.518548,0.16075268387794495,-0.09651569277048111,-0.9822643995285034,0.00901651382446289,-0.0008810833096504211,-0.010213017463684082,-0.010452661663293839,-0.013254106976091862,0.0007472976576536894,0.16221718343140834,0.09666617245903976,-0.5864319281450335
1687022058.523565,0.15945202112197876,-0.09869403392076492,-0.9822599291801453,0.011965110898017883,0.0024416744709014893,-0.0016115307807922363,0.021188488230109215,-0.01885979436337948,0.014102717861533165,0.160928034732715,0.09885496341270499,-0.5866864273264202
1687022058.528314,0.15875738859176636,-0.09830795973539352,-0.9824111461639404,-0.006627365946769714,0.00608392059803009,0.00636744499206543,0.003496886696666479,-0.0039028609171509743,0.020510215312242508,0.1602146926583163,0.09846699829832765,-0.5855614134619227
1687022058.580367,0.15848958492279053,-0.0978555753827095,-0.9824995398521423,-0.0027279406785964966,-0.0052022188901901245,0.005341947078704834,-0.03971072658896446,-0.007224000990390778,0.021402841433882713,0.15993486714337074,0.0980124231438501,-0.5845025981789936
1687022058.6400042,0.1580139845609665,-0.0976179763674736,-0.9825997948646545,0.008276224136352539,-0.004493772983551025,-0.011403560638427734,0.027131419628858566,-0.01969292014837265,0.011738229542970657,0.15944704450071495,0.09777368068185924,-0.5836270873380834
1687022058.695636,0.15716113150119781,-0.09961351007223129,-0.982536256313324,0.015675097703933716,-0.004329301416873932,-0.005287230014801025,0.04485045000910759,-0.015135275200009346,0.017302971333265305,0.15861092873170723,0.09977898828774437,-0.5830771764768142
1687022058.792859,0.15665754675865173,-0.10189397633075714,-0.9823828339576721,-0.0003008246421813965,0.0011250004172325134,-0.00925534963607788,0.03356925770640373,-0.011808809824287891,0.0066459993831813335,0.1581354309192019,0.10207112026834674,-0.5828229550079167
1687022058.805562,0.15645797550678253,-0.10236833989620209,-0.9823653101921082,-0.000681072473526001,0.0029116272926330566,-0.0018418431282043457,0.010095445439219475,-0.00943788606673479,0.0064171007834374905,0.15794007915995648,0.10254797948024083,-0.5826819241663485
1687022058.846636,0.15652894973754883,-0.10326818376779556,-0.9822598099708557,0.007533460855484009,0.001797303557395935,0.005987226963043213,0.027412783354520798,0.010117439553141594,0.00692663062363863,0.1580272309072985,0.10345261723068856,-0.5824144781398823
1687022058.940635,0.15663209557533264,-0.10472733527421951,-0.9820888638496399,0.0013725757598876953,0.0008608177304267883,0.0023830533027648926,0.029991742223501205,0.001078848261386156,-0.0031300652772188187,0.15815670759108563,0.10491972373220144,-0.5826761965896204
1687022058.953341,0.156795471906662,-0.10714063793420792,-0.9818024635314941,0.0011176615953445435,-0.01741679012775421,0.005011081695556641,0.01655636355280876,0.005779061000794172,-0.0036227498203516006,0.15836434668742674,0.1073466867976855,-0.5832194591933941
1687022058.997033,0.1570066660642624,-0.10760585218667984,-0.9817178249359131,0.006521701812744141,0.0036935657262802124,-0.022539377212524414,0.01405627653002739,-0.006707790773361921,-0.00417322525754571,0.15858754626156582,0.10781460116753114,-0.5834962703280511
1687022059.093728,0.15744690597057343,-0.10755180567502975,-0.9816532135009766,0.012627467513084412,-0.002219855785369873,-0.017156600952148438,-0.016542645171284676,0.011841658502817154,0.009693721309304237,0.1590350549083661,0.10776024199870639,-0.5834136866607053
1687022059.10707,0.15819151699543,-0.10712604224681854,-0.9815800786018372,-0.002414613962173462,-0.005987286567687988,0.006238281726837158,-0.0178223829716444,0.026257436722517014,0.002340999897569418,0.15978617813480867,0.10733200582204946,-0.5828655331690789
1687022059.146127,0.1590663492679596,-0.10696972161531448,-0.9814557433128357,-0.009148821234703064,-0.004327818751335144,-0.004521429538726807,-0.006477272603660822,0.009758444502949715,-0.0033736778423190117,0.1606747408637796,0.10717478045261461,-0.5828551363728605
1687022059.2442489,0.15980762243270874,-0.1067454069852829,-0.9813597202301025,0.0035071223974227905,0.0015513896942138672,0.010885477066040039,0.0026874192990362644,0.023078955709934235,0.013899518176913261,0.16142611471765828,0.10694917635040432,-0.5826693293191296
1687022059.2590132,0.16039592027664185,-0.1085374504327774,-0.9810671806335449,-0.000987425446510315,1.70096755027771e-05,0.0006594061851501465,0.04592481628060341,0.005018817260861397,0.005485793575644493,0.16205752686722696,0.10875168814542656,-0.5825680051353024
1687022059.295671,0.16052909195423126,-0.11065541952848434,-0.9808087348937988,-0.015448614954948425,-0.005631744861602783,0.028782367706298828,0.04516758769750595,0.006451686844229698,0.004651159048080444,0.16223172286619178,0.11088249824648161,-0.5828935822319398
1687022059.390891,0.16052083671092987,-0.11070194840431213,-0.9808048605918884,0.0035720914602279663,0.001204945147037506,-0.023803353309631348,-0.007394865155220032,-0.014790574088692665,-0.0049729724414646626,0.16222415872784546,0.11092930991526155,-0.5828117522098969
1687022059.404276,0.16051137447357178,-0.10999999940395355,-0.98088538646698,0.006526514887809753,0.0063471123576164246,0.006901562213897705,-0.022752825170755386,0.010611366480588913,0.0004688642220571637,0.16220167777702732,0.11022305098329763,-0.58282186346034
1687022059.446214,0.1606687307357788,-0.10916603356599808,-0.9809527397155762,-0.013116315007209778,-0.0026350393891334534,0.009685039520263672,0.004776092246174812,0.008957987651228905,-0.0014890918973833323,0.16234694841868183,0.1093840305354212,-0.5823371037996434
