Timestamp,gravityX,gravityY,gravityZ,accelerationX,accelerationY,accelerationZ,rotationRateX,rotationRateY,rotationRateZ,attitudeRoll,attitudePitch,attitudeYaw
1687008646.1106749,-0.15917690098285675,0.11326824128627777,-0.9807308912277222,-0.0011929571628570557,0.006208039820194244,-0.005841374397277832,0.01176202017813921,0.0007969974540174007,0.015890950337052345,-0.16090129599856423,-0.11351184977515895,2.328038444046241
1687008646.126268,-0.15891440212726593,0.1134989857673645,-0.9807467460632324,-0.00282876193523407,0.0015827715396881104,-0.0017971992492675781,-0.012454990297555923,0.013139505870640278,0.00532965362071991,-0.1606379448461982,-0.11374409357803827,2.328605631060666
1687008646.153219,-0.15867900848388672,0.11406438052654266,-0.980719268321991,-0.002041831612586975,-0.008580401539802551,-0.016228973865509033,-0.016208138316869736,0.007346154190599918,0.01063566841185093,-0.1604084706863378,-0.11431318182621653,2.329038174632542
1687008646.249696,-0.15865331888198853,0.11400969326496124,-0.9807297587394714,-0.004142671823501587,-0.0024832412600517273,-0.00024247169494628906,0.013124893419444561,-0.005754911340773106,0.023399000987410545,-0.16038126526836194,-0.11425813519859669,2.329951157409698
1687008646.270155,-0.1588553637266159,0.11361650377511978,-0.9807426929473877,0.0006369799375534058,0.004318647086620331,0.005049943923950195,0.0038132837507873774,-0.005046244710683823,0.018228143453598022,-0.1605799324938053,-0.11386237610993807,2.331134635663964
1687008646.304991,-0.1588515192270279,0.1136491447687149,-0.9807395339012146,0.005500689148902893,0.0044233351945877075,-0.0010262131690979004,0.017091983929276466,-0.00907844863831997,0.013384517282247543,-0.16057662217616803,-0.11389522744615709,2.3319065311250995
1687008646.4344969,-0.15879866480827332,0.11325615644454956,-0.9807935953140259,0.0014347732067108154,-5.453824996948242e-06,0.002232193946838379,0.015245834365487099,0.0018907575868070126,0.014906447380781174,-0.1605154171649095,-0.11349968816754315,2.332761371112773
1687008646.450749,-0.1585022211074829,0.11281444132328033,-0.9808924198150635,-0.00591123104095459,-0.010839983820915222,-0.0035130977630615234,-0.019682543352246284,0.017906298860907555,0.010321483016014099,-0.16020499882930117,-0.11305512214897125,2.3336700793144787
1687008646.521103,-0.15787562727928162,0.11424821615219116,-0.9808275103569031,0.003349870443344116,0.00246623158454895,-0.013358891010284424,-0.035078588873147964,0.010271192528307438,0.001283047255128622,-0.159592785330121,-0.11449822661328152,2.333707518799416
1687008646.534553,-0.1576976776123047,0.11446451395750046,-0.9808309078216553,-0.0034351348876953125,-0.006310254335403442,0.0007436871528625488,-0.011086124926805496,0.011970112100243568,0.015799205750226974,-0.15941537609946232,-0.11471595415956783,2.334177506613375
1687008646.6100368,-0.15729224681854248,0.11549243330955505,-0.9807755351066589,-0.0052596330642700195,0.006501555442810059,-0.0014937520027160645,-0.03755408525466919,0.006582004949450493,0.001678127096965909,-0.15902124974632978,-0.11575073444069754,2.3342726604160027
1687008646.623379,-0.15702015161514282,0.11584629118442535,-0.980777382850647,0.0014415532350540161,0.0021651461720466614,-0.000866234302520752,0.0043514203280210495,0.004677578341215849,0.006507569923996925,-0.15875046331950407,-0.1161069874264658,2.334440714616937
1687008646.702475,-0.1564614474773407,0.11697125434875488,-0.9807331562042236,-0.0009482353925704956,0.0022761523723602295,-0.002146482467651367,-0.020315399393439293,0.009539799764752388,0.006781741976737976,-0.158202013633078,-0.1172396464881203,2.3346114735494248
1687008646.7171679,-0.1556130200624466,0.11748341470956802,-0.9808069467544556,0.0033455491065979004,0.0012146756052970886,0.004213929176330566,-0.008871707133948803,0.011870509944856167,0.006062822416424751,-0.15734664003393178,-0.11775536380234551,2.3349428290696275
1687008646.788805,-0.15497784316539764,0.11910510063171387,-0.9807119369506836,-0.002782776951789856,-0.002451695501804352,-0.007523536682128906,-0.035884417593479156,0.023556461557745934,0.012127771973609924,-0.1567298069295673,-0.11938851666990313,2.3349965956582803
1687008646.803025,-0.154082790017128,0.12006404250860214,-0.9807360172271729,-0.002975940704345703,-0.00099974125623703,-0.011131048202514648,-0.013662956655025482,0.014402199536561966,0.008187824860215187,-0.15583549307486919,-0.12035438920765816,2.3353101768931253
1687008646.8480349,-0.15354584157466888,0.12090425193309784,-0.9807170033454895,-0.0005068928003311157,0.006216689944267273,-0.001598060131072998,-0.0241360142827034,0.017621606588363647,0.012667128816246986,-0.155304104583304,-0.12120076861245946,2.335610621179726
1687008646.949185,-0.15288352966308594,0.12144743651151657,-0.9807533621788025,0.0026760101318359375,0.0009890571236610413,-0.00565105676651001,0.0012570044491440058,0.0025529968552291393,0.008660735562443733,-0.15463921366695435,-0.12174798083160472,2.3360585054670695
1687008646.964476,-0.15286166965961456,0.12068352103233337,-0.9808510541915894,0.004698827862739563,0.0013562440872192383,-0.0023947954177856445,0.017695898190140724,-0.006662339437752962,0.007806659676134586,-0.15460229500123016,-0.1209784103368261,2.3366396856006517
1687008646.996916,-0.1525384485721588,0.12033703923225403,-0.9809439182281494,0.0035058557987213135,0.001351766288280487,0.00943213701248169,0.02569860965013504,-0.006736285984516144,0.0067793456837534904,-0.15426618867472291,-0.12062938402926145,2.3372492152898383
1687008647.059459,-0.15418466925621033,0.11617258191108704,-0.9811885952949524,0.002756446599960327,0.030357539653778076,-0.018063724040985107,0.21286486089229584,-0.06962239742279053,-0.011551991105079651,-0.15586611121687632,-0.11643549470987714,2.337789040869644
1687008647.156399,-0.1553773730993271,0.11166054755449295,-0.9815242290496826,-0.006670966744422913,-0.023144349455833435,-0.004651308059692383,-0.040771760046482086,0.004201049450784922,0.006481071934103966,-0.1569993340524495,-0.11189389444674466,2.3388249634929585
1687008647.164308,-0.1555527001619339,0.11112882196903229,-0.98155677318573,-0.002726718783378601,0.006699509918689728,-0.0064803361892700195,0.10389332473278046,-0.010732270777225494,-0.0020369826816022396,-0.15716845785444736,-0.11135883914330938,2.339229126050722
1687008647.241685,-0.15691055357456207,0.10499794036149979,-0.9820155501365662,-0.007106170058250427,-0.029589034616947174,0.013875901699066162,-0.004500572569668293,-0.002939151367172599,0.010721889324486256,-0.1584448353401453,-0.10519183169213053,2.3406158738007776
1687008647.2500172,-0.15675929188728333,0.1054626926779747,-0.9819899201393127,0.004751250147819519,0.013601601123809814,-0.010075509548187256,0.028819655999541283,-0.010821663774549961,0.01664675585925579,-0.1582986954091147,-0.10565917506217345,2.341236000897185
1687008647.3026562,-0.15658177435398102,0.10709147900342941,-0.9818419218063354,-0.001957029104232788,0.0044197216629981995,0.0038756132125854492,-0.06013316288590431,0.007031279616057873,0.00967666506767273,-0.15814584800559353,-0.10729724076246239,2.341365079382028
1687008647.394861,-0.1558247208595276,0.10924480110406876,-0.9817251563072205,0.0029469281435012817,-0.0012736544013023376,-0.001474916934967041,0.0012393833603709936,-0.008111719973385334,-0.0016542862867936492,-0.15741223317062633,-0.10946327519738845,2.341202402426396
1687008647.410079,-0.15623117983341217,0.10730977356433868,-0.9818739295005798,-0.0035436153411865234,-0.0009255260229110718,-0.000990450382232666,0.05593951418995857,0.0005286396481096745,0.005844975356012583,-0.1577925360471877,-0.10751679800468253,2.3416127243731126
1687008647.4455972,-0.15752571821212769,0.10043219476938248,-0.9823945164680481,0.006219580769538879,0.05120961368083954,-0.07410871982574463,0.514054000377655,-0.11977291852235794,-0.06575623899698257,-0.15899527372506084,-0.10060180201859777,2.3420898862070416
1687008647.543486,-0.1655082255601883,0.059409916400909424,-0.9844173192977905,-0.019962355494499207,-0.11557755619287491,0.07503926753997803,0.3157868981361389,-0.07833776623010635,0.005406086333096027,-0.16657028382679595,-0.059444920915906675,2.348225195195123
1687008647.559639,-0.1649027168750763,0.05795539543032646,-0.9846056699752808,0.019898459315299988,0.10021716356277466,-0.01759159564971924,0.347861111164093,-0.02057318389415741,0.02970530092716217,-0.16594087778692043,-0.05798788969275975,2.3481653500695296
1687008647.600466,-0.16505160927772522,0.04984113201498985,-0.9850248098373413,0.00767245888710022,-0.011907815933227539,0.0020383596420288086,0.0370190404355526,0.009750811383128166,-0.03817674145102501,-0.1660185836031072,-0.04986178920743735,2.349025628952572
1687008647.69275,-0.1650533676147461,0.04432474076747894,-0.985288143157959,-0.016022682189941406,0.0021992698311805725,-0.005266666412353516,0.236542746424675,-0.018274253234267235,-0.03063247539103031,-0.16597676626182697,-0.04433926590854816,2.3483515890257074
1687008647.701281,-0.1660519540309906,0.03333252668380737,-0.985553503036499,-0.0454653799533844,-0.019111379981040955,-0.016674280166625977,0.13899710774421692,0.019357187673449516,-0.04127073660492897,-0.1669183020250992,-0.0333387029046029,2.347502519575695
1687008647.748959,-0.16708675026893616,0.024301985278725624,-0.985642671585083,0.024050846695899963,-0.015009419992566109,-0.005812406539916992,0.14813853800296783,-0.018208827823400497,-0.0818183645606041,-0.16792419944252251,-0.024304377718588233,2.3456512016350515
1687008647.841902,-0.16957160830497742,0.018066633492708206,-0.9853522777557373,-0.017226487398147583,-0.0013888180255889893,0.0009009838104248047,0.09842518717050552,-0.03314650058746338,-0.04050494730472565,-0.17042305558858578,-0.018067616757125312,2.343685818835052
1687008647.850651,-0.17065870761871338,0.008320420980453491,-0.9852950572967529,-0.021846190094947815,0.005687102675437927,-0.0034439563751220703,0.18807969987392426,-0.01967889443039894,-0.007828226312994957,-0.17150413646100537,-0.0083205171277201,2.3439861674048488
1687008647.903428,-0.17255713045597076,0.0028874273411929607,-0.9849953055381775,0.013896241784095764,-0.0013310739304870367,0.02640765905380249,0.053249944001436234,-0.0427054725587368,-0.047114044427871704,-0.17342588200099135,-0.002887431241372831,2.343159758745735
1687008647.9923558,-0.1732846200466156,-0.003670482197776437,-0.9848649501800537,0.0190792977809906,-0.012992155738174915,-0.006559610366821289,0.11175280064344406,-0.023403679952025414,-0.006319811567664146,-0.17416496125049585,0.0036704904669893797,2.3440911880683832
1687008648.0001822,-0.17388512194156647,-0.006913556717336178,-0.9847416877746582,-0.030430063605308533,0.04988226667046547,-0.028548717498779297,0.18753845989704132,-0.0006009847857058048,0.02910475805401802,-0.17477775684105404,0.006913611744384575,2.3438246861570984
1687008648.048367,-0.17419345676898956,-0.015183158218860626,-0.9845944046974182,-0.002442285418510437,-0.03189024701714516,0.03836637735366821,0.061456870287656784,-0.022912591695785522,-0.00694325752556324,-0.17510703554575013,0.01518374198927842,2.34586446143816
1687008648.144086,-0.17450006306171417,-0.021317029371857643,-0.9844263792037964,0.0017858296632766724,0.030472256243228912,-0.020685315132141113,0.21048958599567413,0.0007524339016526937,0.008846091106534004,-0.17543830134715055,0.021318644646196285,2.3467756309256624
1687008648.1594648,-0.17417821288108826,-0.023714741691946983,-0.9844285249710083,-0.01558007299900055,-0.006207786500453949,-0.015373051166534424,0.028171664103865623,0.012510201893746853,-0.009028445929288864,-0.175120922680197,0.02371696461929751,2.347012211898342
1687008648.1995769,-0.17435169219970703,-0.023105738684535027,-0.9844123125076294,-0.0019330978393554688,-0.001750873401761055,-0.0007866024971008301,-0.0011455219937488437,-0.013234399259090424,-0.009422793984413147,-0.1752946149550732,0.023107794195668708,2.3461910240387978
1687008648.260576,-0.17533640563488007,-0.025429243221879005,-0.9841800928115845,-0.01283496618270874,-0.006782101467251778,0.010333716869354248,-0.05059562996029854,-0.0011023690458387136,0.008673252537846565,-0.1763050734780512,0.025431984424267886,2.3467535145405862
1687008648.273504,-0.17531262338161469,-0.02479151450097561,-0.9842005968093872,0.010380387306213379,0.052669279277324677,0.0027553439140319824,0.045471515506505966,-0.0011939818505197763,0.02041366510093212,-0.17627805076985725,0.024794055544773066,2.3470464431411435
1687008648.316895,-0.1753242313861847,-0.023612679913640022,-0.9842275381088257,-0.0179436057806015,-0.00151858851313591,-0.014597535133361816,0.009234325960278511,0.01877289079129696,0.02355712652206421,-0.1762847519307642,0.02361487421879138,2.347245070003772
1687008648.3792748,-0.1746445596218109,-0.023837657645344734,-0.9843429327011108,0.002494901418685913,-0.010067412629723549,0.01537930965423584,-0.04008573293685913,0.009844554588198662,-0.00024114653933793306,-0.17559518537778923,0.023839915286816907,2.348162179102978
1687008648.444728,-0.17453378438949585,-0.022853806614875793,-0.9843859076499939,-0.01292043924331665,-0.01044091209769249,-0.013859272003173828,-0.02426486648619175,-0.006329444237053394,0.011014703661203384,-0.17547856558088135,0.022855796547901062,2.34834480597991
1687008648.535307,-0.1740967482328415,-0.020350975915789604,-0.9845182299613953,-0.0007689744234085083,0.01847410388290882,0.003027200698852539,0.020720982924103737,-0.0005144320894032717,0.002303237561136484,-0.17502505191835466,0.02035238150236247,2.3479981021406213
1687008648.550551,-0.17428100109100342,-0.021078169345855713,-0.9844703674316406,-0.007863163948059082,-0.02462194673717022,-0.007289886474609375,-0.05796952173113823,0.002406345447525382,0.013995912857353687,-0.17521487111389306,0.021079731347799086,2.348693399501373
1687008648.586606,-0.17384016513824463,-0.019003834575414658,-0.9845905303955078,-0.012454390525817871,0.030096933245658875,0.0065937042236328125,0.027538897469639778,0.013387179933488369,0.002858306746929884,-0.17475976787895758,0.019004977967708902,2.3481784865906428
1687008648.685077,-0.17317911982536316,-0.017722677439451218,-0.9847308993339539,0.009498074650764465,0.008262183517217636,-0.006571590900421143,-0.00834573246538639,0.016713734716176987,-0.0012261166702955961,-0.1740842649387111,0.017723605177262066,2.3482374963914534
1687008648.701057,-0.17298565804958344,-0.01854470930993557,-0.9847497344017029,-0.009616285562515259,-0.025461683049798012,0.01818174123764038,-0.0789325088262558,0.01821877621114254,0.003213705727830529,-0.17389042944890493,0.018545772318737497,2.3485791042914546
1687008648.7355099,-0.17219248414039612,-0.017534855753183365,-0.9849072694778442,-0.003954976797103882,0.019762592390179634,-0.010225176811218262,0.03931867703795433,0.018240701407194138,0.00582759827375412,-0.1730818446992773,0.017535754303604382,2.3483933212453474
1687008648.836899,-0.17175590991973877,-0.015707707032561302,-0.9850143194198608,0.0067015886306762695,-0.01346714049577713,-0.02200472354888916,-0.07891173660755157,0.01912158727645874,0.011539813131093979,-0.1726333093077291,0.015708353870517108,2.3485307207619806
1687008648.852726,-0.17150071263313293,-0.0157312024384737,-0.9850583672523499,0.0023265182971954346,0.004927933216094971,0.0041928887367248535,0.016144607216119766,-0.004552316851913929,0.006400910206139088,-0.17237429255119763,0.01573185192613415,2.3490260172195527
1687008648.886413,-0.17124338448047638,-0.01592206582427025,-0.9851000905036926,0.01421518623828888,-0.009682221338152885,0.003258049488067627,-0.007961039431393147,-0.00997886247932911,0.004196279216557741,-0.1721135927027161,0.015922739504161742,2.3495574170413986
1687008649.015818,-0.17144545912742615,-0.015368573367595673,-0.9850737452507019,-0.011782079935073853,0.01202685572206974,-0.009448349475860596,0.008164401166141033,0.005621402524411678,0.018304375931620598,-0.17231721995715577,0.01536917888038486,2.349851371333432
1687008649.03132,-0.17119449377059937,-0.015354388393461704,-0.9851176142692566,-0.003930628299713135,0.026401706039905548,-0.006932556629180908,0.08196889609098434,-0.013102395460009575,0.003769307630136609,-0.17206242648758932,0.015354991380122118,2.3499691641095284
1687008649.134784,-0.17138159275054932,-0.013794639147818089,-0.9851081371307373,0.014933228492736816,-0.04627925902605057,0.004273176193237305,-0.14469198882579803,0.005472798366099596,-0.010584531351923943,-0.17224839166173278,0.013795076293483336,2.3498317044791373
1687008649.150361,-0.17179343104362488,-0.014074212871491909,-0.9850324392318726,0.002283543348312378,0.005269844084978104,0.0001386404037475586,0.03837823122739792,-0.0033254867885261774,-0.0038454022724181414,-0.17266715732593962,0.01407467761529916,2.3500539249969172
1687008649.219794,-0.17183025181293488,-0.013685788959264755,-0.9850314855575562,-0.01347246766090393,0.01598982699215412,-0.014068186283111572,-0.011062867008149624,0.0036516396794468164,0.011741479858756065,-0.1727035913830561,0.01368621617804774,2.3503130477628904
1687008649.233748,-0.1718568205833435,-0.012379995547235012,-0.9850441217422485,-0.004809439182281494,0.006551097147166729,0.0007301568984985352,0.004127137362957001,0.006585111375898123,0.008688499219715595,-0.17272759374866317,0.01238031157195475,2.350295431185957
1687008649.314049,-0.17207762598991394,-0.012827188707888126,-0.9849998950958252,0.01804015040397644,-0.02638794481754303,-0.009430646896362305,-0.07082109898328781,-0.0005850945599377155,-0.008296276442706585,-0.17295274819097906,0.012827540662371023,2.3508564182000633
1687008649.327979,-0.1723797470331192,-0.011928956024348736,-0.9849583506584167,-0.011152967810630798,0.022243857383728027,-0.011547386646270752,0.07791458070278168,-0.014186389744281769,0.008499348536133766,-0.17325752755351861,0.01192923917180896,2.3506805564379802
1687008649.402674,-0.1719515174627304,-0.012950285337865353,-0.9850202798843384,0.008911341428756714,-0.003895459696650505,0.0002943277359008789,-0.041877150535583496,-0.0022542751394212246,-0.0012823092984035611,-0.17282498302962723,0.012950647536445295,2.35145763692617
1687008649.417033,-0.1721392720937729,-0.010071225464344025,-0.9850211143493652,0.00012695789337158203,-0.003829576075077057,-0.01513141393661499,-0.026489892974495888,0.0037120934575796127,-0.0037691027391701937,-0.1730098113812542,0.010071396180082499,2.350671356383242
1687008649.491569,-0.1713758111000061,-0.005263571627438068,-0.9851916432380676,0.022175386548042297,-0.02444532886147499,-0.023841500282287598,-0.19991543889045715,0.022764436900615692,0.04999192804098129,-0.17222838068685287,0.0052635958622888205,2.351192102744467
1687008649.498631,-0.17055422067642212,0.004519479814916849,-0.9853379130363464,-0.003518044948577881,-0.000979479867964983,-0.039411842823028564,-0.0825820118188858,0.026463568210601807,0.06238248571753502,-0.17139387162250563,-0.004519495157940442,2.352033589588604
1687008649.583682,-0.1703771948814392,0.005880369804799557,-0.9853613972663879,-0.039904192090034485,-0.012579018250107765,0.01255255937576294,-0.06850405037403107,0.011582799255847931,0.08315680921077728,-0.17121543439166179,-0.0058804037582468995,2.355421873551496
1687008649.599499,-0.16941286623477936,0.009863226674497128,-0.9854958057403564,-0.030370444059371948,-0.030889879912137985,0.007499039173126221,-0.07096317410469055,-0.02654159441590309,0.022683676332235336,-0.170242254601264,-0.009863386231550966,2.357103094314997
1687008649.6361551,-0.16778983175754547,0.01524980179965496,-0.9857048392295837,0.01585806906223297,-0.005667325109243393,0.00552600622177124,-0.19139176607131958,0.06337355822324753,0.004380436614155769,-0.1686070818912653,-0.015250392517194277,2.35743785450933
1687008649.7325978,-0.1654716581106186,0.025969823822379112,-0.9858725666999817,-0.007318869233131409,0.013550397008657455,0.00018531084060668945,-0.14723362028598785,0.04035026580095291,0.0006239147624000907,-0.1662928537969111,-0.025972743375157672,2.355716373516348
1687008649.748558,-0.1630256325006485,0.03717025741934776,-0.9859213829040527,-0.0064995139837265015,0.009002793580293655,-0.02598041296005249,-0.2314455658197403,0.062044642865657806,-0.010717889294028282,-0.16387080080541763,-0.03717882063753838,2.3534870461214146
1687008649.785691,-0.16231779754161835,0.04230494052171707,-0.9858312606811523,-0.004399746656417847,-0.006538376212120056,-0.005654335021972656,-0.0788716971874237,0.008977518416941166,-0.01581577956676483,-0.16318654875835856,-0.04231756815595951,2.3522696016099287
1687008649.884332,-0.16079720854759216,0.04695649445056915,-0.985869824886322,-0.003097444772720337,0.015421397984027863,-0.0068059563636779785,-0.06929301470518112,0.04581959918141365,-0.010193446651101112,-0.1616782269243955,-0.046973767653624564,2.3506638607802324
1687008649.89977,-0.1598779559135437,0.04975002259016037,-0.9858823418617249,0.004985973238945007,0.009743958711624146,-0.0047182440757751465,-0.05096367746591568,0.01097639836370945,-0.009429983794689178,-0.16076781844884028,-0.049770568170607106,2.3494228388795007
1687008649.939543,-0.1596175879240036,0.05165141820907593,-0.9858267307281494,-0.006321743130683899,0.00019790977239608765,0.0006124973297119141,-0.03982460871338844,0.013634764589369297,0.006153835915029049,-0.16051938777660146,-0.051674410742565825,2.348986903089396
1687008650.033414,-0.15854841470718384,0.05386444553732872,-0.9858808517456055,0.006326735019683838,0.0016775131225585938,-0.0033006668090820312,-0.02971458248794079,0.013436892069876194,-0.006574942730367184,-0.15945376552657867,-0.053890524817498044,2.348616654307607
1687008650.0493932,-0.15794353187084198,0.05561889708042145,-0.9858804941177368,-0.00436420738697052,0.008788414299488068,-0.0010885000228881836,-0.01902279071509838,0.01253834180533886,0.018494192510843277,-0.15885567731314812,-0.05564761452538934,2.3485488346778864
1687008650.1209579,-0.15737193822860718,0.05694647505879402,-0.985896110534668,0.005806401371955872,0.005034685134887695,-0.010426461696624756,-0.04182850196957588,0.0043065110221505165,-0.0022695432417094707,-0.15828788788727688,-0.05697729745313241,2.348757787146424
1687008650.134515,-0.1571616232395172,0.05787664279341698,-0.9858754873275757,-0.015628904104232788,-0.00776682049036026,-0.008432924747467041,-0.027760354802012444,0.015825748443603516,0.0029586416203528643,-0.15808310617612675,-0.05790900402873457,2.348563003192659
1687008650.17936,-0.1566692292690277,0.059121448546648026,-0.9858800172805786,0.00795707106590271,0.00879538431763649,-0.0008906126022338867,-0.02298690564930439,-0.0017638981807976961,-0.0023194774985313416,-0.15759529195712546,-0.059155945677966955,2.3484647107817502
1687008650.306487,-0.15701709687709808,0.06001457944512367,-0.9857707023620605,-0.0016132891178131104,0.004667393863201141,-0.004997730255126953,0.02009451761841774,-0.010016768239438534,-0.0003936126595363021,-0.15795665307339302,-0.06005066428131286,2.348341525381907
1687008650.312973,-0.1569792628288269,0.06009769067168236,-0.985771656036377,0.002743437886238098,-0.0011682882905006409,0.0038228631019592285,-0.027560794726014137,-0.008929754607379436,-0.006805306300520897,-0.15791907703374863,-0.06013392401504759,2.348351996915665
1687008650.392992,-0.15771809220314026,0.06045215576887131,-0.985632061958313,0.0017580091953277588,-0.008511275053024292,-0.0013216733932495117,0.013033014722168446,-0.015967601910233498,-0.004659929778426886,-0.15867205050062452,-0.06048903809284505,2.348135595393198
1687008650.401365,-0.1583460122346878,0.06037764996290207,-0.9855359196662903,-0.0035650134086608887,0.0034498274326324463,-0.004454314708709717,0.012337085790932178,-0.006330509670078754,0.0023475789930671453,-0.1593084164882226,-0.06041439544615488,2.3481693689227496
1687008650.483664,-0.15863445401191711,0.06017714738845825,-0.9855018258094788,-0.00045368075370788574,0.004275940358638763,-0.00552600622177124,-0.012384727597236633,-0.004851301200687885,0.003962187096476555,-0.1595991511511628,-0.0602135273471518,2.348187771711869
1687008650.498395,-0.15943565964698792,0.06053439527750015,-0.9853506088256836,-0.010760858654975891,-0.0038785524666309357,-0.0010232329368591309,-0.019407616928219795,-0.0020882715471088886,0.002474212320521474,-0.16041570524983992,-0.06057142646746096,2.348216726453408
1687008650.576855,-0.1595335453748703,0.06056157872080803,-0.9853330850601196,-0.002713143825531006,0.008072413504123688,-0.0014527440071105957,-0.0023637849371880293,-0.0011076952796429396,-0.0013650672044605017,-0.1605153105070635,-0.0605986607237133,2.348294328733976
1687008650.584264,-0.15986040234565735,0.06094048544764519,-0.9852567911148071,-0.0009672343730926514,0.0035126060247421265,-0.008868575096130371,0.013159469701349735,-0.01957041397690773,-0.0009239810751751065,-0.1608507855877836,-0.060978268832993905,2.347975927887135
1687008650.628312,-0.1601438671350479,0.06085047125816345,-0.9852163195610046,0.0006437450647354126,-0.0031417682766914368,0.0018026232719421387,-0.012787441723048687,-0.001829767134040594,-0.002400570549070835,-0.1611376160156367,-0.06088808597155068,2.347894401775447
1687008650.7217941,-0.16014251112937927,0.061558160930871964,-0.9851725697517395,0.0008407533168792725,-0.0006908886134624481,0.002643883228302002,-0.010884302668273449,-0.00040968088433146477,-0.00578737910836935,-0.1611433040047696,-0.06159710720185982,2.347626703806106
1687008650.737297,-0.16036996245384216,0.061976976692676544,-0.985109269618988,-0.002212420105934143,-0.008830655366182327,-0.014875411987304688,-0.052838411182165146,0.006445029284805059,-0.0032645666506141424,-0.1613784114073871,-0.06201672336713264,2.3474534276031056
1687008650.776187,-0.16045890748500824,0.06245076656341553,-0.9850649237632751,-0.004931092262268066,0.007175050675868988,-0.0049863457679748535,0.018292002379894257,0.003904196200892329,0.007324760779738426,-0.16147351382583042,-0.06249143123372004,2.3473991802147776
1687008650.8739228,-0.16006606817245483,0.06271395832300186,-0.9851120710372925,-0.001997530460357666,0.0015407651662826538,0.0042160749435424805,-0.028212470933794975,0.015770265832543373,-0.00435639638453722,-0.16107742357990887,-0.06275513943674414,2.34731102092657
1687008650.8894238,-0.15980617702007294,0.06361034512519836,-0.98509681224823,-0.005507543683052063,0.006198577582836151,-0.01372826099395752,0.0077348328195512295,-0.0001520644873380661,0.0037604528479278088,-0.16082283319629578,-0.06365332075988653,2.3472673650019615
1687008650.9278378,-0.15999020636081696,0.06384586542844772,-0.985051691532135,-0.0015546083450317383,-0.000415116548538208,-0.0023140311241149902,-0.018090151250362396,-0.006944012828171253,-0.0035743587650358677,-0.16101208829273686,-0.06388932168116963,2.3472730510658995
1687008651.023828,-0.160714253783226,0.06256060302257538,-0.9850162863731384,-0.0017766058444976807,0.00012246519327163696,-0.0019527077674865723,0.04608919098973274,-0.007080189883708954,-0.00335637922398746,-0.16173385942479465,-0.06260148703002019,2.347310454201707
1687008651.039425,-0.16131144762039185,0.05890411138534546,-0.9851441383361816,-0.0001417994499206543,-0.008260224014520645,-0.0007414817810058594,0.05400871858000755,-0.0013153329491615295,-0.0033025832381099463,-0.1623036688362701,-0.05893822698182743,2.3475797215443235
1687008651.076702,-0.16322772204875946,0.050097040832042694,-0.9853156805038452,0.0053908079862594604,0.04371395707130432,-0.017507195472717285,0.3038814961910248,-0.060715366154909134,0.009227722883224487,-0.16416937855825134,-0.0501180190059925,2.3485190577223376
1687008651.173001,-0.16435755789279938,0.04448368400335312,-0.9853972792625427,-0.016825303435325623,-0.0002637505531311035,-0.005966246128082275,0.1014452576637268,-0.021229563280940056,-0.0081340242177248,-0.16527178388958247,-0.04449836679461021,2.3495618065756254
1687008651.188652,-0.16573551297187805,0.0386778898537159,-0.9854114651679993,-0.025701254606246948,-0.07499384880065918,0.025496304035186768,-0.13494451344013214,0.023357344791293144,-0.019900735467672348,-0.16662964215779183,-0.03868753898933064,2.3511294959541393
1687008651.227601,-0.1642826944589615,0.040046077221632004,-0.9856000542640686,0.021414652466773987,0.008141137659549713,-0.012767195701599121,-0.016190828755497932,0.025284143164753914,0.008278772234916687,-0.16516448344579482,-0.040056787404384855,2.351802344419446
1687008651.324193,-0.16472238302230835,0.039644017815589905,-0.9855429530143738,-0.0002709031105041504,0.01331920176744461,-0.0034707188606262207,0.06014610826969147,-0.021272797137498856,-0.011217697523534298,-0.1656079311285718,-0.03965441028019168,2.350972963674487
1687008651.339579,-0.16495339572429657,0.03555940464138985,-0.9856601357460022,0.00444619357585907,0.01801416277885437,0.014590799808502197,0.1255951076745987,-0.03343793749809265,-0.03392347693443298,-0.1658166058210781,-0.03556690272926165,2.3509126393338873
1687008651.377353,-0.16497889161109924,0.033061493188142776,-0.9857428073883057,0.010117456316947937,0.011387314647436142,-0.04010552167892456,0.05972666293382645,0.019969183951616287,-0.049463219940662384,-0.16582810199927667,-0.033067520604934425,2.3486720010534805
1687008651.4732919,-0.1662052422761917,0.028923729434609413,-0.9856668710708618,0.0004642903804779053,-0.007683536037802696,-0.008748352527618408,0.07395903766155243,-0.023045307025313377,-0.050331808626651764,-0.167050678479607,-0.028927764258453083,2.3463088541427
1687008651.489118,-0.16665492951869965,0.02569878287613392,-0.985680341720581,-0.017625465989112854,-0.025469940155744553,-0.010855913162231445,0.029088279232382774,-0.0011489742901176214,-0.004320576786994934,-0.1674920212218366,-0.025701612676476058,2.345677722264519
1687008651.564574,-0.16794726252555847,0.02064785361289978,-0.9855797290802002,-0.02994397282600403,-0.013522036373615265,0.029921770095825195,0.09310432523488998,-0.014924352057278156,-0.03683038428425789,-0.16878331574060818,-0.0206493212804169,2.345482155771854
1687008651.578394,-0.16807007789611816,0.01619257777929306,-0.9856420755386353,0.013269662857055664,-0.0036193784326314926,-0.016234755516052246,0.10389065742492676,-0.028559472411870956,-0.017589977011084557,-0.16889392536017192,-0.016193285393217263,2.3454597628611134
1687008651.6510038,-0.16920432448387146,0.01162596046924591,-0.9855124354362488,-0.0016330927610397339,0.026414159685373306,-0.02568751573562622,0.14587876200675964,-0.03040175698697567,-0.008625376969575882,-0.1700338959997775,-0.01162622209310105,2.3455181095040376
1687008651.746649,-0.1707586795091629,0.007064183242619038,-0.9852875471115112,-0.008364245295524597,0.010239241644740105,0.02128303050994873,0.1066354513168335,-0.030545389279723167,9.148218668997288e-05,-0.17160393254900608,-0.007064242100734519,2.3456234251447072
1687008651.762391,-0.17123845219612122,0.0027560165617614985,-0.9852257370948792,0.04979376494884491,-0.03231233358383179,0.020687222480773926,-0.05277489125728607,-0.017053639516234398,-0.026748254895210266,-0.17208721560201526,-0.0027560199527798196,2.3471211060747446
1687008651.831215,-0.1723594218492508,0.0003361617273185402,-0.9850340485572815,-0.0108681321144104,0.0018915757536888123,0.010424673557281494,0.1367119401693344,-0.027394693344831467,0.006810903549194336,-0.17322444287440714,-0.00033616173484254453,2.3475246979265
1687008651.845347,-0.17281100153923035,-0.0028679713141173124,-0.984950840473175,-0.008844882249832153,0.02769397757947445,-0.015552699565887451,0.07374390214681625,0.001362652750685811,0.0033362775575369596,-0.17368362543845822,0.0028679752353466845,2.347478951520049
1687008651.920558,-0.17263606190681458,-0.0066386861726641655,-0.9849632978439331,0.01618771255016327,-0.026076199486851692,0.0016106963157653809,0.027666641399264336,-0.008496991358697414,-0.012588027864694595,-0.17350915540080306,0.006638734721128525,2.3480261749132723
1687008651.934591,-0.17333506047725677,-0.008208274841308594,-0.9848287105560303,-0.006154090166091919,0.021849585697054863,0.0012624263763427734,0.08275088667869568,0.001868742285296321,0.01600906252861023,-0.17422091484963803,0.008208366572778094,2.348139656012298
1687008652.015882,-0.17276763916015625,-0.00956431869417429,-0.9849161505699158,0.036445632576942444,-0.023318413645029068,0.009742259979248047,-0.021537167951464653,-0.008597481064498425,-0.026451444253325462,-0.1736468976324224,0.009564464880952589,2.3486793180233523
1687008652.030136,-0.1734531819820404,-0.010872979648411274,-0.9847820997238159,-0.02556721866130829,-0.00401963759213686,0.002604365348815918,0.049497682601213455,0.004753655754029751,0.028354812413454056,-0.17434533260789872,0.010873194151417458,2.348987185831153
1687008652.071238,-0.17218945920467377,-0.00902251061052084,-0.9850225448608398,0.015054449439048767,0.023380987346172333,-0.017251014709472656,-0.04156778007745743,0.0024138023145496845,-0.01296146959066391,-0.17305901702636034,0.009022632682063427,2.348955055553824
1687008652.130868,-0.17326834797859192,-0.008958215825259686,-0.9848338961601257,-0.029261574149131775,-0.00831477902829647,-0.0034626126289367676,0.008084683679044247,0.011711341328918934,0.00871526449918747,-0.17415430360090972,0.008958335185180768,2.3487437885440268
1687008652.2238011,-0.1718815118074417,-0.007009891793131828,-0.9850926995277405,0.02236063778400421,0.010122645646333694,-0.0007624030113220215,-0.005340000614523888,0.0025421667378395796,0.0048293787986040115,-0.1727435767777969,0.007009949171407539,2.348930001349032
1687008652.239275,-0.17277325689792633,-0.008281620219349861,-0.9849268198013306,-0.007265210151672363,-0.02576078288257122,0.006273865699768066,-0.04588733986020088,0.007995699532330036,-0.0015896380646154284,-0.17365058544366738,0.008281714666211833,2.3496090656811397
1687008652.3127599,-0.1718624234199524,-0.007071756757795811,-0.9850955605506897,-0.011502429842948914,0.012412291020154953,0.015979409217834473,1.3574608601629734e-05,0.006855600047856569,0.009027319960296154,-0.17272427739498927,0.007071815932291399,2.3496570473587384
1687008652.3195791,-0.1717653125524521,-0.006462773308157921,-0.985116720199585,-0.0028715282678604126,0.02089754492044449,-0.01939988136291504,0.0015680174110457301,0.014785872772336006,0.023648008704185486,-0.17262498258066475,0.0064628183467447,2.3500682573279246
1687008652.370799,-0.17202189564704895,-0.004844936076551676,-0.9850811958312988,0.003290221095085144,-0.0019147531129419804,0.0061841607093811035,0.006283587776124477,-0.012701589614152908,-0.008294745348393917,-0.17288384109106175,0.0048449551574349685,2.3498103617792268
1687008652.467327,-0.17133040726184845,-0.005946960300207138,-0.9851956963539124,0.01733870804309845,-0.035572249442338943,-0.0031618475914001465,-0.07617129385471344,0.010659215971827507,0.0001371554099023342,-0.1721829672672319,0.005946995502366045,2.3506934626882243
1687008652.481724,-0.1714397668838501,-0.0045692455023527145,-0.9851840138435364,-0.015922904014587402,0.02162853069603443,0.004196465015411377,0.046429719775915146,-0.003301873803138733,0.007336745038628578,-0.17229270928800575,0.004569261508716151,2.350410095482217
1687008652.516612,-0.1712702363729477,-0.003225563792511821,-0.9852188229560852,0.015157565474510193,-0.012170598842203617,-0.013804614543914795,-0.04608672112226486,-0.0018120126333087683,-0.004846817348152399,-0.1721197174355925,0.003225569444270654,2.350298750602319
1687008652.6150641,-0.1715981811285019,-0.003476346144452691,-0.9851608872413635,-0.022432580590248108,-0.0023983269929885864,0.010078489780426025,-0.0036551961675286293,0.003058464964851737,0.012049208395183086,-0.17245273642166634,0.0034763530308965797,2.3507754444657234
1687008652.6303458,-0.17121323943138123,-0.003669441444799304,-0.9852271676063538,-0.014211565256118774,0.012076989747583866,-0.0013908743858337402,0.015322845429182053,0.0015065523330122232,0.011359716765582561,-0.1720621338716729,0.0036694497321804746,2.351287104715072
1687008652.6705642,-0.17162571847438812,-0.0020593723747879267,-0.9851600527763367,-0.0012258440256118774,0.012252197600901127,-0.01404649019241333,-0.005439824424684048,-0.006522079464048147,0.009898506104946136,-0.17248001078291927,0.002059373893757978,2.351072125865347
1687008652.7922301,-0.17185752093791962,-0.002706158673390746,-0.9851180911064148,-0.007891014218330383,-0.009256774559617043,0.011714160442352295,-0.022782284766435623,0.002612651791423559,-1.4245277270674706e-05,-0.17271557531029733,0.002706161933744634,2.351556267691665
1687008652.809291,-0.17162677645683289,-0.001592762884683907,-0.985160768032074,0.0015828311443328857,0.005971990525722504,-0.024025022983551025,0.0019956764299422503,-0.0024810878094285727,0.007635151967406273,-0.17248093507572737,0.0015927635625193233,2.3516609579073293
1687008652.881023,-0.1720493882894516,-0.001216386561281979,-0.9850875735282898,0.008688792586326599,-0.009419028647243977,0.015879809856414795,-0.026106487959623337,-0.007804390974342823,-0.0014898361405357718,-0.17290983265148774,0.001216386892671084,2.3517607932030753
1687008652.895611,-0.17197880148887634,-0.0010428277309983969,-0.9851000905036926,0.011135905981063843,-0.007395322434604168,-0.011710822582244873,0.003482075873762369,-0.0011200348380953074,0.009400960989296436,-0.17283814977088965,0.0010428278985121866,2.352272011241269
1687008652.972311,-0.17213451862335205,-0.0014717562589794397,-0.9850723743438721,-0.005981341004371643,0.014167028479278088,-0.0021255016326904297,0.047017037868499756,-0.009170237928628922,0.005435647442936897,-0.1729963110880396,0.0014717568209476558,2.3525476541448267
1687008652.986195,-0.1720646470785141,-0.002606475492939353,-0.98508220911026,0.008932918310165405,-0.025332409888505936,0.00740581750869751,-0.07111497223377228,0.005539909936487675,-0.006543983239680529,-0.17292578054469424,0.002606478415982721,2.352964934669274
1687008653.06421,-0.17197422683238983,-0.002204572083428502,-0.9850989580154419,-0.017829835414886475,0.01497613824903965,-0.00566941499710083,0.044246237725019455,0.009761553257703781,0.016507141292095184,-0.17283383043126194,0.0022045738211145904,2.3530141717240443
1687008653.077798,-0.17135392129421234,-0.0008451519533991814,-0.9852091670036316,0.0015846490859985352,-0.009637675248086452,-0.005559206008911133,-0.06772743165493011,0.006732473149895668,0.005182713735848665,-0.17220381294382242,0.0008451520653700599,2.3533996307354776
1687008653.150192,-0.1705361008644104,0.002518421271815896,-0.9853482246398926,-0.0018729567527770996,0.006438448093831539,-0.006839275360107422,-0.05745402351021767,0.04971083253622055,0.05813421308994293,-0.1713742643183074,-0.0025184239100875592,2.3546245016075913
1687008653.1643581,-0.1688619703054428,0.007498504128307104,-0.9856112003326416,0.02877102792263031,0.0028011389076709747,-0.0258939266204834,-0.14630219340324402,-0.008375728502869606,0.019876237958669662,-0.16967976465023032,-0.0074985746324003205,2.35628149615272
1687008653.208055,-0.1701817363500595,0.014250734820961952,-0.9853096604347229,-0.03945876657962799,-0.017134686931967735,0.0042458176612854,-0.1614212542772293,-0.00014079036191105843,0.06691958010196686,-0.17103163574718105,-0.014251217549108295,2.3565911708816145
1687008653.279684,-0.16874390840530396,0.0217757485806942,-0.9854193329811096,0.003979504108428955,0.005690030753612518,-0.014244914054870605,-0.1185087263584137,0.008144747465848923,0.04564325511455536,-0.16959576352821698,-0.021777469124042437,2.3589165658748286
1687008653.28653,-0.16979490220546722,0.02488122507929802,-0.9851652979850769,-0.008107319474220276,-0.005777258425951004,0.014828383922576904,-0.07602881640195847,-0.0006379140540957451,0.033761825412511826,-0.17067490373168775,-0.02488379227560812,2.359957799124126
1687008653.326539,-0.1680731475353241,0.02760733664035797,-0.9853878617286682,0.004834607243537903,0.007701463997364044,-0.003091752529144287,-0.04948149621486664,0.01975923776626587,0.02925875410437584,-0.16893968784398466,-0.02761084396809929,2.3613256842391666
1687008653.3914351,-0.16725291311740875,0.03259868919849396,-0.985374927520752,0.008958235383033752,0.004251245409250259,-0.023765087127685547,-0.12475427985191345,0.0038263429887592793,0.029140444472432137,-0.16813288611470006,-0.03260446480252504,2.3619872330923837
1687008653.456258,-0.16711851954460144,0.03768238425254822,-0.9852164387702942,-0.027812525629997253,-0.028740771114826202,0.03372412919998169,-0.12926353514194489,0.02043381705880165,-0.0060685425996780396,-0.16802682631282218,-0.03769130884545781,2.3617506137867252
1687008653.546574,-0.1649647057056427,0.043148793280124664,-0.9853551983833313,0.00033761560916900635,0.0035735778510570526,0.0005224347114562988,-0.12160331755876541,0.04794196039438248,-0.0065552350133657455,-0.16587814473756318,-0.04316219504000546,2.3608243305181884
1687008653.633131,-0.16404348611831665,0.05002947151660919,-0.9851836562156677,-0.0012702494859695435,0.0059244707226753235,-0.007080137729644775,-0.1246849074959755,0.04148290678858757,-0.02495122142136097,-0.16499678607652588,-0.050050364913756494,2.358730636237712
1687008653.6479359,-0.1623128354549408,0.055034954100847244,-0.9852033853530884,-7.121264934539795e-05,-0.0014156065881252289,-0.007304549217224121,-0.08169260621070862,0.02820270135998726,-0.011254715733230114,-0.1632838007485502,-0.05506277312921523,2.357322375452134
1687008653.719226,-0.16142407059669495,0.05814973637461662,-0.9851704835891724,0.006196409463882446,0.0024428777396678925,-0.0011423826217651367,-0.05825639143586159,0.008913424797356129,-0.009500025771558285,-0.16241073744945075,-0.05818255869199644,2.3562486725841234
1687008653.732609,-0.16070593893527985,0.0611492320895195,-0.9851062893867493,-0.004211053252220154,0.0020221173763275146,-0.012971103191375732,-0.049004748463630676,0.02298787608742714,0.0016349172219634056,-0.16171112444571417,-0.061187405707555334,2.355430640997697
1687008653.817155,-0.16059771180152893,0.061260323971509933,-0.9851170182228088,0.006773844361305237,0.00639711320400238,-0.002279222011566162,0.0020828950218856335,-0.0069344257935881615,0.0006153925787657499,-0.16160237245456466,-0.06129870470533962,2.3553691911862487
1687008653.830837,-0.1608385294675827,0.06198541074991226,-0.9850323796272278,-0.004475191235542297,0.017177149653434753,-0.010389983654022217,0.007724135648459196,-0.002798802684992552,0.014679347164928913,-0.16185415665828715,-0.062025171980397656,2.3552561092747126
1687008653.90093,-0.1612422913312912,0.061740197241306305,-0.9849817752838135,0.0036342591047286987,0.0051542967557907104,-0.0030248165130615234,-0.008548577316105366,-0.0180967990309,-0.0039740996435284615,-0.16226157865122426,-0.061779489712873795,2.3554550928986155
1687008653.914351,-0.1617240160703659,0.061670977622270584,-0.9849071502685547,0.0005912035703659058,-0.0012919902801513672,0.0052318572998046875,0.010454675182700157,-0.011715599335730076,0.0003617932088673115,-0.1627499557500686,-0.06171013845626883,2.3556894925208542
1687008653.958126,-0.16174118220806122,0.06225686892867088,-0.9848674535751343,-0.0012684762477874756,0.01318255066871643,-0.0033985376358032227,0.007534784730523825,-0.011448483914136887,-0.0016676689265295863,-0.16277336944412443,-0.062297154621975236,2.3554661989906034
1687008654.085544,-0.16240400075912476,0.06194698065519333,-0.9847779273986816,0.005040094256401062,-0.0010949671268463135,-0.005013942718505859,0.023280682042241096,-0.0184798501431942,0.0005119288107380271,-0.16344322721499593,-0.061986667812301395,2.3550993005725793
1687008654.1002169,-0.16328570246696472,0.06175132095813751,-0.98464435338974,-0.0027299076318740845,-0.00015162676572799683,-0.008000850677490234,-0.03160303086042404,-0.005684870295226574,-0.0047014085575938225,-0.16433661018786358,-0.06179063286688537,2.3549264883962695
1687008654.175686,-0.16371066868305206,0.061736080795526505,-0.9845747947692871,-0.003128930926322937,0.005890835076570511,-0.003950595855712891,-0.0030730734579265118,-0.00794154405593872,-0.009325921535491943,-0.1647680679892381,-0.06177536441754663,2.3547304540090455
1687008654.189834,-0.16425612568855286,0.062146566808223724,-0.9844580888748169,-0.0038804709911346436,0.002398073673248291,0.0005408525466918945,-0.0011453443439677358,-0.011923236772418022,0.006470951251685619,-0.16532635767410545,-0.06218663884557965,2.3545320577295126
1687008654.26578,-0.1648809313774109,0.061249710619449615,-0.9844098687171936,-0.0015924721956253052,0.0084218829870224,-0.0026659369468688965,0.015922188758850098,-0.013516073115170002,-0.009022854268550873,-0.1659517461082224,-0.06128807242636229,2.3544785126550325
1687008654.272193,-0.1655496209859848,0.06116992607712746,-0.9843025803565979,-0.0009695440530776978,-0.0026372484862804413,0.0046120285987854,-0.0006622025393880904,-0.015173269435763359,0.001966414274647832,-0.16663025312027785,-0.061208137124900926,2.3543399285062447
1687008654.354418,-0.16561134159564972,0.062284402549266815,-0.9842222929000854,0.001381009817123413,0.0008564218878746033,-9.161233901977539e-05,-0.030817175284028053,-0.006207737140357494,-0.0031605702824890614,-0.1667045724813442,-0.06232474530021215,2.354005850825106
1687008654.3684878,-0.1659129410982132,0.0635753870010376,-0.9840889573097229,-0.007960960268974304,0.0034716948866844177,-0.0008506178855895996,-0.020348554477095604,0.000952170928940177,0.0014855805784463882,-0.16702476855407344,-0.06361829463559736,2.35343057175235
1687008654.4099889,-0.16609035432338715,0.0639549195766449,-0.9840344190597534,-0.003221169114112854,-0.006261475384235382,-0.011998295783996582,-0.025307007133960724,0.010525880381464958,-0.005999100394546986,-0.1672091508670428,-0.0639985993364576,2.3531789073704643
1687008654.503006,-0.16606871783733368,0.06473361700773239,-0.9839871525764465,-0.005180671811103821,0.009042590856552124,0.0008481144905090332,-0.010889495722949505,0.006622661836445332,-0.0004608574090525508,-0.16719565065678438,-0.06477891208629473,2.3529954028306177
1687008654.516957,-0.16591237485408783,0.06572301685810089,-0.9839479327201843,3.407895565032959e-05,0.011043913662433624,-0.013549625873565674,0.011088862083852291,-0.013173501938581467,-0.007192396558821201,-0.1670477001065535,-0.06577042529925702,2.352578697963288
1687008654.593576,-0.16666637361049652,0.06487249583005905,-0.9838769435882568,0.0009864568710327148,-0.004218846559524536,0.0017297863960266113,-0.010403868742287159,-0.00894244946539402,-0.013291634619235992,-0.16780459185893531,-0.0649180826896445,2.352344869969535
1687008654.607641,-0.16671065986156464,0.06471036374568939,-0.9838801622390747,0.007241040468215942,0.006838060915470123,0.000741124153137207,0.03159182891249657,-0.017410414293408394,-0.0009482159512117505,-0.16784781689312459,-0.06475560924555458,2.352216849692622
1687008654.64802,-0.16710875928401947,0.06411001086235046,-0.9838519096374512,-0.0003717094659805298,-0.0059435442090034485,-0.0014081001281738281,0.0054843733087182045,-0.005356858018785715,-0.006537857931107283,-0.1682458678722456,-0.06415400966334574,2.3520231571423014
1687008654.744341,-0.16707509756088257,0.06385382264852524,-0.9838742613792419,-0.0032435059547424316,-0.0015216991305351257,-0.008175909519195557,-0.015879016369581223,0.005518604535609484,-0.011624695733189583,-0.16820885427241106,-0.06389729240371918,2.351921789476553
1687008654.7580662,-0.1672607958316803,0.0639088973402977,-0.9838391542434692,-0.002020224928855896,0.00043738633394241333,-0.0020922422409057617,-0.013609914109110832,0.0034274014178663492,-0.0025097602047026157,-0.16839819080756385,-0.06395248017790715,2.3515309519056458
1687008654.799232,-0.1674964725971222,0.06401857733726501,-0.9837919473648071,0.0020454078912734985,-0.0013965442776679993,-0.005862593650817871,-0.01617218554019928,0.0016208908054977655,-0.004599742591381073,-0.16863894503078936,-0.06406238354955304,2.3516144700050776
1687008654.895452,-0.16765208542346954,0.0636502057313919,-0.983789324760437,-0.0022545307874679565,0.006036646664142609,-0.0032712221145629883,0.03738371655344963,-0.01485528890043497,-0.0052214572206139565,-0.16879310935925632,-0.0636932615660379,2.351446658076276
1687008654.90339,-0.16737604141235352,0.06403336673974991,-0.9838114380836487,0.011950001120567322,0.00031290948390960693,0.0010538697242736816,-0.017679980024695396,-0.0019209361635148525,0.0016411091201007366,-0.16851669077925413,-0.06407720854192547,2.351374159449426
1687008654.9495568,-0.16742046177387238,0.06506558507680893,-0.9837361574172974,-0.004057824611663818,0.00011992454528808594,0.006761670112609863,-0.018528684973716736,0.00559725658968091,0.0008819084614515305,-0.16857322944898662,-0.06511158484870849,2.3510890916371476
1687008655.045151,-0.16706374287605286,0.06661850214004517,-0.9836928844451904,0.0040998756885528564,0.0016798004508018494,-0.01102757453918457,-0.033642079681158066,0.002563471905887127,-0.0013553465250879526,-0.16822807099118176,-0.06666787318806944,2.350537485883699
1687008655.062902,-0.16757085919380188,0.06703321635723114,-0.9835784435272217,-0.00593683123588562,0.007917918264865875,-0.00622868537902832,0.009379468858242035,-0.009963149204850197,0.006949787959456444,-0.16874836446597427,-0.0670835217131084,2.3504264156716603
1687008655.099186,-0.16824765503406525,0.06438370048999786,-0.9836398959159851,-0.00483277440071106,-0.007346391677856445,0.005933046340942383,-0.0050026667304337025,0.008493355475366116,-0.0054413676261901855,-0.16940659050135698,-0.06442826468207094,2.35078179870231
1687008655.188014,-0.16827674210071564,0.06501009315252304,-0.983593761920929,-0.002820059657096863,0.010383538901805878,-0.006213366985321045,0.035712894052267075,-0.015551881864666939,-0.005185971036553383,-0.16944310993321915,-0.0650559749085157,2.350566064617252
1687008655.2029638,-0.1685352623462677,0.062190406024456024,-0.9837318062782288,-0.00030325353145599365,0.003376573324203491,-0.0025352835655212402,0.048731934279203415,-0.0011901645921170712,0.0010586092248558998,-0.1696750978511596,-0.06223056500901084,2.350934831339644
1687008655.250238,-0.1679912954568863,0.06316187232732773,-0.9837629199028015,0.0015789419412612915,-0.006383948028087616,0.007093608379364014,-0.048156529664993286,0.005849901586771011,0.0056837210431694984,-0.16913261258661796,-0.06320394104682192,2.350813181062862
1687008655.347659,-0.16782793402671814,0.06456150859594345,-0.9836999773979187,-0.0007664263248443604,-0.0036789774894714355,-0.004749119281768799,-0.019243964925408363,0.0045592449605464935,0.011481888592243195,-0.16898186927066558,-0.06460644226425252,2.3509414016494334
1687008655.355784,-0.16853684186935425,0.06158895790576935,-0.9837693572044373,7.981061935424805e-05,0.04595495015382767,-0.031764090061187744,0.2709226608276367,-0.03428446501493454,-0.013784518465399742,-0.16967030897868135,-0.061627959957395784,2.3514053610369645
1687008655.398891,-0.17164698243141174,0.03353531286120415,-0.984587550163269,0.009537622332572937,0.014773968607187271,0.11346334218978882,0.36309415102005005,-0.0826609656214714,0.007378490641713142,-0.1725992826349536,-0.03354160070692999,2.3548151639321464
1687008655.4927812,-0.16927823424339294,0.03201478347182274,-0.9850481748580933,-0.08568087220191956,0.06042292341589928,-0.06419193744659424,-0.008744452148675919,0.1449752151966095,0.013922675512731075,-0.1701853834207815,-0.03202025345338686,2.354463996417587
1687008655.506692,-0.1671375334262848,0.03251451253890991,-0.9853972792625427,0.04616585373878479,0.0856342539191246,-0.032943785190582275,0.09374485909938812,0.0009164845105260611,-0.0811675563454628,-0.16801532064962532,-0.03252024442760052,2.3515195267384885
1687008655.546989,-0.1681453287601471,0.026331881061196327,-0.9854104518890381,-0.008032649755477905,-0.012934701517224312,0.005338430404663086,0.17167747020721436,-0.03878885135054588,-0.0307411327958107,-0.1690070794536114,-0.026334925229047113,2.3487466061096294
1687008655.614186,-0.16970737278461456,0.01898970641195774,-0.9853115081787109,0.03448396921157837,-0.012169072404503822,0.0029201507568359375,0.08267968893051147,-0.052929170429706573,-0.044971466064453125,-0.17056377902139278,-0.018990848810934234,2.3488572532957988
1687008655.705075,-0.1719103306531906,0.01483006402850151,-0.9850009679794312,0.006932288408279419,-0.01016091275960207,0.0021365880966186523,0.05490478500723839,-0.026705821976065636,-0.058997537940740585,-0.17278773035054945,-0.014830607402045549,2.346946576796296
1687008655.719789,-0.17188796401023865,0.009699529968202114,-0.9850687384605408,-0.014025107026100159,0.026585828512907028,-0.03717851638793945,0.23132553696632385,-0.037014830857515335,-0.006389186717569828,-0.17275404808816208,-0.009699681919823443,2.346432554336732
1687008655.792047,-0.1729806512594223,-0.00015315187920350581,-0.9849252104759216,-0.021141663193702698,7.681368151679635e-05,0.00796598196029663,0.1581009477376938,-0.002369855996221304,0.009444237686693668,-0.1738551367278401,0.00015315187338903443,2.3479769969133604
1687008655.805262,-0.17318680882453918,-0.007054660003632307,-0.9848637580871582,0.006454020738601685,0.007939624600112438,0.006119251251220703,0.15956856310367584,-0.0036250927951186895,0.0024026399478316307,-0.1740688285676685,0.007054718294748981,2.3497622432291165
1687008655.880516,-0.17347770929336548,-0.013490334153175354,-0.9847453832626343,-0.0060572028160095215,0.0045333802700042725,-0.018397867679595947,0.15190497040748596,0.026445811614394188,0.01674402877688408,-0.17437585426050514,0.0134907434939685,2.3509703744279054
1687008655.888174,-0.1729346513748169,-0.022416135296225548,-0.9846782088279724,0.0105658620595932,-0.019103076308965683,0.013959825038909912,0.09917730838060379,-0.003902505384758115,-0.01351787056773901,-0.17385256276551248,0.022418012792263728,2.353160255912325
1687008655.939563,-0.17320530116558075,-0.023418724536895752,-0.9846072793006897,-0.01139552891254425,0.01433970034122467,0.005725443363189697,0.03594965115189552,0.009579836390912533,-0.0018133437260985374,-0.1741314809732787,0.023420865347096437,2.3528560922129818
1687008656.035619,-0.1726422756910324,-0.021022789180278778,-0.9847602248191833,-0.003550976514816284,0.017162268981337547,-0.03153616189956665,0.00668878760188818,0.023828724399209023,-0.029723670333623886,-0.1735503350545189,0.021024337651861142,2.3514354449465618
1687008656.048767,-0.17240190505981445,-0.021824127063155174,-0.9847849011421204,-0.014670848846435547,-0.025310317054390907,0.012021839618682861,0.010484369471669197,0.00718299113214016,-0.007931090891361237,-0.17330926649733608,0.02182586009905254,2.350744405806802
1687008656.090276,-0.17215819656848907,-0.02208136022090912,-0.9848217964172363,0.021782830357551575,-0.01601988449692726,0.0006299018859863281,-0.03096560202538967,-0.0034675223287194967,-0.008577173575758934,-0.17306277873023337,0.022083154411009737,2.350739559852581
1687008656.183615,-0.17252136766910553,-0.02239716611802578,-0.9847511053085327,0.01856018602848053,-0.004946624860167503,0.002008795738220215,-0.007593478541821241,-0.015925612300634384,3.129476681351662e-05,-0.17343279766085062,0.022399038858334972,2.3511438914596545
1687008656.197126,-0.17184565961360931,-0.022489823400974274,-0.9848671555519104,0.0008251368999481201,0.005216831341385841,-0.0063437819480896,0.02655370719730854,-0.0005120350979268551,0.013294569216668606,-0.17274702137969355,0.022491719112854913,2.3515011000745485
1687008656.236815,-0.17165087163448334,-0.02320595644414425,-0.98488450050354,-0.012995734810829163,0.029721414670348167,-0.001153707504272461,0.021842529997229576,-0.00307807931676507,0.017952505499124527,-0.17255209986317155,0.023208039086179084,2.352252830817182
1687008656.334002,-0.1719961166381836,-0.021778898313641548,-0.9848568439483643,-0.00044345855712890625,0.005589282140135765,-0.015097379684448242,0.012588976882398129,0.006634735502302647,0.008524847216904163,-0.17289704872828915,0.02178062029770835,2.352403343885937
1687008656.347097,-0.17218634486198425,-0.0219498910009861,-0.9848198294639587,-0.002557307481765747,-0.024284284561872482,-0.00616222620010376,-0.05233742669224739,-0.0015600775368511677,0.006667758338153362,-0.17309086179796127,0.021951653932096523,2.353170264027176
1687008656.392103,-0.17244240641593933,-0.0206185020506382,-0.9848037958145142,-0.003460913896560669,0.015354173257946968,-0.00407254695892334,-0.017327377572655678,-0.0034844777546823025,0.005247562192380428,-0.1733459059096422,0.02061996287806892,2.353092396093003
1687008656.4839082,-0.17243793606758118,-0.020007826387882233,-0.9848171472549438,-0.021226614713668823,-0.01672012358903885,-0.005127251148223877,-0.027147561311721802,0.004364035092294216,0.004559068009257317,-0.17333919352547797,0.020009161487900193,2.3531914569051167
1687008656.497674,-0.17247627675533295,-0.01806340180337429,-0.9848480224609375,0.009146198630332947,0.007916266098618507,-0.0091094970703125,-0.01871732622385025,-0.013675951398909092,-0.0030236172024160624,-0.17337164433116983,0.018064384872644997,2.3530072362415635
1687008656.540464,-0.17286482453346252,-0.017939578741788864,-0.9847821593284607,-0.003999784588813782,-0.014836341142654419,0.0031995773315429688,-0.012845808640122414,0.0030421309638768435,0.011723702773451805,-0.17376579221398736,0.017940540802308648,2.3532849944759198
1687008656.67064,-0.17236894369125366,-0.016411924734711647,-0.9848957061767578,-0.006860792636871338,0.020806409418582916,-0.009443283081054688,0.0013507477706298232,0.01029933337122202,0.013797573745250702,-0.17325768396082086,0.01641266130786937,2.3531268084695074
1687008656.684063,-0.17224277555942535,-0.016889771446585655,-0.98490971326828,0.012727394700050354,-0.012086713686585426,0.012055158615112305,-0.04211723431944847,-0.0005088392645120621,-0.003254579845815897,-0.17313096021007443,0.016890575186312436,2.3536626787260415
1687008656.753087,-0.17214207351207733,-0.016280846670269966,-0.9849376082420349,-0.01673121750354767,0.014327680692076683,-0.016298353672027588,0.01891070045530796,0.006026025395840406,0.01112622395157814,-0.17302696239271043,0.016281566354797904,2.3535784459386617
1687008656.766726,-0.17158864438533783,-0.013464364223182201,-0.9850766658782959,0.009464025497436523,-0.00940860528498888,0.0016172528266906738,-0.07557035237550735,0.006872466765344143,-0.008747083134949207,-0.17245779749824286,0.0134647714818798,2.353152902557376
1687008656.8443751,-0.17193226516246796,-0.014195665717124939,-0.9850065112113953,-0.0068702250719070435,-0.0016124816611409187,-0.012109577655792236,0.023315569385886192,-0.0026787826791405678,0.010489728301763535,-0.17280839809754378,0.014196142892333853,2.353671639711779
1687008656.8586211,-0.171476811170578,-0.010003958828747272,-0.9851373434066772,0.006498783826828003,0.008188118226826191,-0.012680590152740479,-0.09271516650915146,0.002417708281427622,0.005793243646621704,-0.1723371940103784,0.010004125249251244,2.3529945352905606
1687008656.931349,-0.17254790663719177,-0.008573271334171295,-0.9849638342857361,-0.009489446878433228,0.0017220312729477882,0.008264005184173584,-0.018554074689745903,-0.021352514624595642,0.015002653002738953,-0.17342223218359318,0.008573376152714198,2.352968033224283
1687008656.938743,-0.17216148972511292,-0.00680531095713377,-0.9850452542304993,0.004238501191139221,-0.0027467310428619385,-0.0007335543632507324,-0.041281890124082565,-0.008471336215734482,0.032880254089832306,-0.1730275444843953,0.006805363695671199,2.3537566006035426
1687008656.9911761,-0.17309248447418213,-0.005733524449169636,-0.9848889112472534,-0.002643004059791565,0.00228499760851264,-0.012395024299621582,-0.017750419676303864,0.009322930127382278,0.026619762182235718,-0.17397156938514943,0.005733555661057852,2.354679181479255
1687008657.084158,-0.17236511409282684,-0.005889439024031162,-0.9850155115127563,0.0028704851865768433,0.00953624490648508,-0.021499991416931152,0.014026639983057976,-0.0068710423074662685,0.02417890913784504,-0.17323325578974966,0.00588947313101997,2.3567580025619494
1687008657.0984092,-0.17320331931114197,-0.004614444449543953,-0.9848752617835999,-0.013350620865821838,0.00801711343228817,-0.005481123924255371,-0.013566150330007076,-0.0038558999076485634,0.03180680051445961,-0.17408309218029208,0.004614460673028281,2.357506796648587
1687008657.136784,-0.17305102944374084,-0.003662124276161194,-0.9849060773849487,-0.009642452001571655,0.0071563455276191235,0.0056122541427612305,-0.020701557397842407,-0.002564267022535205,0.0074737644754350185,-0.17392778313058435,0.003662132577389578,2.358238612526858
1687008657.2309499,-0.17352604866027832,-0.00032166915480047464,-0.9848292469978333,0.01112675666809082,0.014619111083447933,-0.009067237377166748,-0.04110701009631157,-0.01642104983329773,0.016441093757748604,-0.1744089227656182,0.00032166916657816626,2.3580484648217475
1687008657.238892,-0.1738298386335373,0.0024080262519419193,-0.9847727417945862,0.012468144297599792,-0.018811266869306564,0.003586888313293457,-0.10600882023572922,-0.002188938669860363,0.044392235577106476,-0.17471789716922442,-0.0024080285215904427,2.3587470486694415
1687008657.2939959,-0.17352062463760376,0.007210077252238989,-0.9848038554191589,0.03616100549697876,0.013724936172366142,-0.021055519580841064,-0.0051193577237427235,-0.0022445989307016134,0.005566475447267294,-0.17440798484639483,-0.007210139752364268,2.3597047098315835
1687008657.382784,-0.17335034906864166,0.006634142249822617,-0.9848378896713257,-0.02505970001220703,-0.0301937535405159,0.011113524436950684,-0.04919436573982239,-0.00016138562932610512,0.02600736729800701,-0.17423438020399096,-0.006634190915321092,2.361391594996603
1687008657.390871,-0.172231063246727,0.012500124983489513,-0.9849772453308105,0.008275389671325684,0.01899397373199463,-0.0007862448692321777,-0.07462670654058456,0.011857283301651478,0.021488182246685028,-0.17310779272198962,-0.01250045074373989,2.361677394628946
1687008657.474225,-0.17226283252239227,0.017135849222540855,-0.9849019646644592,-0.013482421636581421,0.01910373754799366,-0.014914929866790771,-0.12323467433452606,0.03355094790458679,0.004898488521575928,-0.17315206022184368,-0.017136687451213668,2.3606387931768116
1687008657.4875112,-0.17076605558395386,0.022164050489664078,-0.985062301158905,-0.014735043048858643,-0.025566795840859413,0.01306217908859253,-0.1780628263950348,0.04740355908870697,-0.001731518073938787,-0.1716496770887216,-0.022165865062136473,2.3600840828767096
1687008657.5290751,-0.168892964720726,0.03178362548351288,-0.9851217865943909,-0.00015917420387268066,0.010605253279209137,-0.003525674343109131,-0.18961845338344574,0.04820934310555458,-0.007322691380977631,-0.16979300412148848,-0.03178898000484998,2.3581126959058762
1687008657.6227422,-0.16724511981010437,0.03838976472616196,-0.9851676225662231,-0.003531232476234436,0.006776206195354462,0.00613325834274292,-0.11265745013952255,0.03332289308309555,-0.01713244616985321,-0.16815991203880662,-0.038399201171878554,2.3561602880145647
1687008657.637089,-0.16596399247646332,0.043660297989845276,-0.9851648211479187,0.002908572554588318,-0.0021869465708732605,-0.006137669086456299,-0.10064104199409485,0.017976339906454086,-0.016588561236858368,-0.16689612124613903,-0.04367418188600822,2.3544082069520895
1687008657.677701,-0.1657724231481552,0.04579022154211998,-0.9851003885269165,-0.0022726207971572876,-0.0076585449278354645,-0.004523634910583496,-0.039031919091939926,0.014620400965213776,0.0037906130310148,-0.16671773057706443,-0.04580623715629268,2.3537981681869766
1687008657.775451,-0.16535086929798126,0.04695696011185646,-0.9851163029670715,0.0003118067979812622,0.004694003611803055,-0.008932769298553467,-0.04780659079551697,0.015269502997398376,0.004085558466613293,-0.16629891125398066,-0.046974234376272496,2.353774866018618
1687008657.788958,-0.1646914929151535,0.049817297607660294,-0.9850862622261047,-0.008129552006721497,-0.0030491426587104797,-0.0031034350395202637,-0.04385601356625557,0.02400289662182331,0.0032495250925421715,-0.1656528126660551,-0.04983792510163309,2.353465583014132
1687008657.832714,-0.16432930529117584,0.05069504305720329,-0.9851019978523254,0.0030286461114883423,-0.014302872121334076,0.00808173418045044,-0.05613052099943161,0.00699275266379118,-0.0005972778890281916,-0.16529252525043778,-0.05071678424649982,2.353586396411707
1687008657.955332,-0.16464518010616302,0.052329208701848984,-0.9849637746810913,-0.002850547432899475,0.004463963210582733,0.006081938743591309,0.007218889892101288,-0.02419126406311989,0.0022588293068110943,-0.16562729572385493,-0.052353122272681275,2.3533795093193026
1687008657.969547,-0.16447985172271729,0.05349256843328476,-0.9849289059638977,0.01685105264186859,0.013981755822896957,-0.008219897747039795,0.012925111688673496,-0.025027232244610786,0.0012294508051127195,-0.16546974673470255,-0.05351811418565457,2.353349420090055
1687008658.04304,-0.16593948006629944,0.052492205053567886,-0.9847378730773926,-0.0053404271602630615,-0.0016499608755111694,-0.002048015594482422,0.02635325863957405,-0.01858859695494175,-8.062447886914015e-05,-0.16694294056916414,-0.052516342038219206,2.3534525689155723
1687008658.055955,-0.1656813621520996,0.05208670347929001,-0.9848028421401978,0.0007338523864746094,-0.002968698740005493,-0.008529067039489746,-0.021674586459994316,0.006995327305048704,-0.000814924540463835,-0.16667724999985117,-0.05211028342412865,2.3536543510780334
1687008658.1310592,-0.16631586849689484,0.052268460392951965,-0.9846862554550171,-0.00421634316444397,-0.003562450408935547,-0.005425989627838135,-0.015737159177660942,-0.0073140147142112255,-0.007722099311649799,-0.16732319405216778,-0.05229229086572506,2.353761934264902
1687008658.1384091,-0.16616979241371155,0.053145743906497955,-0.9846639633178711,-0.007398933172225952,0.00332699716091156,-0.0030984878540039062,0.003081047907471657,-5.0686998292803764e-05,0.004807208199054003,-0.16718266962234343,-0.05317079524160178,2.353549703591039
1687008658.225498,-0.16680388152599335,0.05184001848101616,-0.9846263527870178,0.014353320002555847,0.010049588978290558,-0.0026782751083374023,0.03359781205654144,-0.024732597172260284,0.0016475673764944077,-0.16781501624663597,-0.051863266602223033,2.3539684171557353
1687008658.238904,-0.1672903299331665,0.052139054983854294,-0.9845280647277832,-0.008445143699645996,-0.0052183158695697784,0.006470203399658203,-0.02640507183969021,0.009021105244755745,0.003877032781019807,-0.16831173785725861,-0.05216270796751172,2.3539830104117665
1687008658.284452,-0.1661500781774521,0.05329476296901703,-0.9846592545509338,0.008267387747764587,0.0005687251687049866,-0.004079759120941162,-0.03549927845597267,0.008631396107375622,-0.0023930473253130913,-0.1671639865879198,-0.05332002410734483,2.3539938313772355
