Timestamp,gravityX,gravityY,gravityZ,accelerationX,accelerationY,accelerationZ,rotationRateX,rotationRateY,rotationRateZ,attitudeRoll,attitudePitch,attitudeYaw
1687022149.5138988,0.9304786324501038,-0.36079445481300354,0.06353668868541718,0.010561347007751465,-0.04684421420097351,0.043717384338378906,0.33946481347084045,0.04240533709526062,0.03023841232061386,1.638974369650139,0.36911956820012376,3.1259408323714397
1687022149.520052,0.9288303852081299,-0.36308255791664124,0.07378936558961868,0.007570803165435791,-0.04554787278175354,0.04617523401975632,0.23460841178894043,0.1418125331401825,0.09002457559108734,1.6500731412605603,0.37157410155973464,3.1096900771388505
1687022149.6007,0.9255474805831909,-0.3687821924686432,0.0857999324798584,-0.002024531364440918,-0.040718019008636475,0.0387728214263916,0.31755197048187256,0.19410094618797302,0.20364707708358765,1.6632339616003857,0.37769853705631157,3.0967465130835383
1687022149.615901,0.9197956919670105,-0.37837904691696167,0.10394829511642456,-0.027217626571655273,-0.05387201905250549,0.032495856285095215,0.3031322658061981,0.2983036935329437,0.28294408321380615,1.6833312293875222,0.3880445205826936,3.0764199450759806
1687022149.6589022,0.9121924638748169,-0.3904794752597809,0.12421934306621552,-0.02017909288406372,-0.026573777198791504,0.026690110564231873,0.2777950167655945,0.34966906905174255,0.3218688666820526,1.7061404918105147,0.4011523641786387,3.059668170378728
1687022149.754926,0.9035818576812744,-0.4028981328010559,0.1456460952758789,-0.01841968297958374,-0.01636764407157898,0.0061483234167099,0.2048792690038681,0.3376701772212982,0.3012959659099579,1.730609216509342,0.4146811638637108,3.042680024790682
1687022149.7752051,0.8961400389671326,-0.41291120648384094,0.16259579360485077,-0.0009679794311523438,0.01461094617843628,-0.0033092498779296875,0.18475553393363953,0.25083309412002563,0.20772896707057953,1.750283875868308,0.4256481831058515,3.0305384832571427
1687022149.8078098,0.8913547396659851,-0.4184103012084961,0.17441213130950928,0.03323626518249512,0.001753687858581543,-0.03416860103607178,0.07081472128629684,0.12311270087957382,0.09717350453138351,1.7640257890357212,0.4316943255776177,3.0214254533064957
1687022149.9019198,0.8896966576576233,-0.42084479331970215,0.1770021617412567,0.017896175384521484,0.01351127028465271,-0.05149863660335541,-0.058455608785152435,-0.0003188673872500658,0.02221357449889183,1.7671788402397917,0.43437638545144575,3.020569157689466
1687022149.91897,0.8906999826431274,-0.4216381907463074,0.16992641985416412,-0.0021196603775024414,0.02924308180809021,-0.05186915397644043,-0.1480366736650467,-0.1378115713596344,-0.028109317645430565,1.7593095645169996,0.43525118280629577,3.027426300820943
1687022149.960956,0.8948646187782288,-0.4183802306652069,0.1554846465587616,0.003069281578063965,0.032836318016052246,-0.039670348167419434,-0.11566230654716492,-0.29141274094581604,-0.14602890610694885,1.742830958507559,0.4316612275171761,3.035871095098653
1687022150.054103,0.9022554159164429,-0.4095366895198822,0.13496355712413788,0.012432754039764404,0.035162150859832764,-0.017364010214805603,-0.09697592258453369,-0.4328558146953583,-0.24509337544441223,1.7192800294688289,0.4219461616457876,3.0444670338508946
1687022150.07078,0.9102473258972168,-0.3980250954627991,0.11413146555423737,0.006424427032470703,0.03327888250350952,-0.009624004364013672,0.007298327516764402,-0.4462847113609314,-0.26377737522125244,1.695530492461248,0.4093630452020382,3.0488146656820905
1687022150.106863,0.9174000024795532,-0.38650140166282654,0.09483795613050461,0.009800374507904053,0.0001639723777770996,0.027720704674720764,-0.010506991297006607,-0.4181177020072937,-0.24761444330215454,1.6738072974355949,0.39683516386878154,3.0490658019667545
1687022150.265171,0.9244109392166138,-0.37397265434265137,0.07489220798015594,0.008160412311553955,0.012751251459121704,0.04864299297332764,-0.008092302829027176,-0.44187337160110474,-0.32348349690437317,1.651635911856862,0.3832887954119757,3.0515226172748666
1687022150.28106,0.9331105947494507,-0.3558790683746338,0.05152447894215584,-0.026982665061950684,-0.034547656774520874,0.04858851432800293,-0.2180195301771164,-0.492764949798584,-0.46073564887046814,1.6259582851835965,0.3638545565650088,3.0584264791944458
1687022150.32219,0.9421260952949524,-0.3343378007411957,0.024833614006638527,-0.000643610954284668,-0.022641658782958984,0.0471726655960083,-0.05649654194712639,-0.4970734417438507,-0.4645500183105469,1.5971493429019359,0.3409025161108523,3.068004831048048
1687022150.325838,0.949059784412384,-0.3150861859321594,0.0025156179908663034,0.008108794689178467,-0.06681087613105774,0.042894601821899414,-0.09772764891386032,-0.3976452052593231,-0.3468245267868042,1.573446962903914,0.3205474792342193,3.071642750054456
1687022150.329533,0.9532356262207031,-0.30186277627944946,-0.014856252819299698,0.0010794997215270996,-0.07449531555175781,0.04558748006820679,-0.27944180369377136,-0.24667486548423767,-0.2039756178855896,1.555212508764331,0.3066459817079218,3.080776182911352
1687022150.4127932,0.9551423788070679,-0.29499155282974243,-0.026132553815841675,0.016033649444580078,-0.020758628845214844,0.01804542727768421,0.06904172152280807,-0.1588449627161026,-0.09090206027030945,1.5434432998787613,0.29944667151192134,3.0872446343897266
1687022150.504436,0.955890953540802,-0.29204800724983215,-0.03130986541509628,-0.014133870601654053,-0.013844996690750122,0.023787323385477066,0.12000174820423126,-0.14146293699741364,-0.03996018320322037,1.5380533910770906,0.2963675172092347,3.0814358907998276
1687022150.5193582,0.9559153318405151,-0.29162564873695374,-0.03435541316866875,-0.021726548671722412,0.02098044753074646,0.019920650869607925,0.1889491230249405,-0.12567731738090515,-0.011565161868929863,1.5348719826188755,0.2959259329540777,3.073321294432478
1687022150.623699,0.9556686878204346,-0.2923632562160492,-0.034942541271448135,-0.004832565784454346,0.02168750762939453,0.041992127895355225,0.20945516228675842,-0.07944546639919281,0.00548326363787055,1.5342491610591997,0.2966971473039832,3.0626554835137005
1687022150.640441,0.9555259346961975,-0.29297003149986267,-0.033744581043720245,-0.0027672648429870605,0.018494844436645508,0.026862923055887222,0.13247732818126678,-0.010651666671037674,0.0066910735331475735,1.535495806237198,0.2973316837637107,3.053190216979556
1687022150.707849,0.95559161901474,-0.29320481419563293,-0.029591869562864304,0.018117427825927734,0.01909583806991577,0.024220824241638184,0.1319957822561264,0.05376211926341057,0.016052551567554474,1.5398391534009472,0.29757726405612794,3.0475304460873147
1687022150.712852,0.9558990597724915,-0.29265227913856506,-0.024736985564231873,-0.006664931774139404,-0.008647918701171875,0.026995297521352768,0.07593819499015808,0.02142379991710186,-0.0148129528388381,1.544923859904182,0.29699937021530065,3.0409505064324645
1687022150.806498,0.9564496278762817,-0.2910749912261963,-0.021905357018113136,-0.0058879852294921875,-0.03370845317840576,0.03701162338256836,-0.026592792943120003,0.039967745542526245,-0.02195129171013832,1.5478975472634766,0.29535028629138516,3.0394156401650068
1687022150.825786,0.9567689299583435,-0.29013559222221375,-0.02036515809595585,0.0019103288650512695,-0.03596013784408569,0.04178851842880249,-0.11011672019958496,0.01797482930123806,-0.029020652174949646,1.5495141942360466,0.29436850917410623,3.0430008569738334
1687022150.8885,0.9567786455154419,-0.2902277410030365,-0.018514355644583702,-0.01222902536392212,-0.03103095293045044,0.050664663314819336,-0.06131429225206375,0.05767457187175751,-0.006041565909981728,1.5514480226412533,0.2944648029891823,3.047137405357676
1687022150.902196,0.9563368558883667,-0.2919059693813324,-0.01452367939054966,-0.0006940960884094238,-0.021601229906082153,0.022534606978297234,-0.07220014184713364,0.10109492391347885,0.038561057299375534,1.5556107127186252,0.29621898459283136,3.051296349544643
1687022150.947653,0.9554864168167114,-0.29492372274398804,-0.008091062307357788,0.008945167064666748,-0.013517498970031738,0.019138455390930176,-0.030429920181632042,0.11304906010627747,0.04349888861179352,1.5623285261157136,0.299375689925548,3.052859659339881
1687022151.042821,0.9546517729759216,-0.297719806432724,-0.0017282264307141304,-0.003281533718109131,-0.002222299575805664,0.0009347796440124512,-0.01100100763142109,0.14388971030712128,0.058312587440013885,1.5689860074343105,0.3023032639251927,3.0532261971802894
1687022151.050263,0.9536021947860718,-0.3010149598121643,0.005718310829252005,-0.005817890167236328,0.0022783279418945312,0.007099151145666838,-0.05731244385242462,0.17188085615634918,0.07431253045797348,1.576792791574824,0.3057568083669088,3.055524409950256
1687022151.103001,0.9525514841079712,-0.3041439950466156,0.011918671429157257,-0.0013186335563659668,0.019552260637283325,-0.02308809757232666,-0.005236328113824129,0.13344797492027283,0.046673376113176346,1.583308038866548,0.3090397310566335,3.057664848363007
1687022151.196531,0.9518396854400635,-0.3060913383960724,0.01758190430700779,-0.006542623043060303,0.013061493635177612,-0.009815100580453873,0.02064613625407219,0.10589998215436935,0.03461205214262009,1.589265723763459,0.3110845648269881,3.056561743946232
1687022151.2132921,0.9517561197280884,-0.306192010641098,0.02017218805849552,0.0056719183921813965,0.02797839045524597,-0.0328369140625,-0.0016335153486579657,0.04697585478425026,-0.012176224030554295,1.5919878555093232,0.31119033854364614,3.056858786734301
1687022151.2475739,0.9524729251861572,-0.30396828055381775,0.01996864192187786,-0.003681361675262451,0.01153343915939331,-0.016962645575404167,-0.03232733532786369,-0.01231427863240242,-0.05901550129055977,1.5917583043297319,0.3088552653573596,3.0582318894154916
1687022151.374897,0.9535946249961853,-0.3005855977535248,0.017489580437541008,-0.006420433521270752,0.0048701465129852295,0.0016449708491563797,-0.024961119517683983,-0.009597232565283775,-0.049818672239780426,1.5891349579713994,0.3053065808336481,3.0605412434311177
1687022151.390819,0.9541019201278687,-0.29899418354034424,0.01708485744893551,0.017608165740966797,-0.002580583095550537,0.020024536177515984,-0.015306095592677593,0.02754906937479973,-0.017448483034968376,1.5887011551282466,0.3036384566960214,3.0621895595514754
1687022151.4597778,0.9538545608520508,-0.29956382513046265,0.02057149074971676,0.008654594421386719,-0.022900253534317017,0.04003643989562988,0.0770619660615921,0.1381118893623352,0.05148298293352127,1.5923596802448952,0.3042354624526466,3.0611566875735465
1687022151.465684,0.9522233009338379,-0.3038159906864166,0.031094660982489586,0.00686800479888916,-0.037507981061935425,0.06795012950897217,0.17546118795871735,0.2388959378004074,0.146647110581398,1.603439526468636,0.3086954445334677,3.054905444691513
1687022151.585664,0.9481832981109619,-0.31380319595336914,0.04975951835513115,0.0028511881828308105,-0.06379088759422302,0.08030641078948975,0.23159293830394745,0.4375859498977661,0.30334025621414185,1.623227024985551,0.31919592504725014,3.044306432085053
1687022151.600874,0.939405620098114,-0.3328242897987366,0.08212953805923462,0.019532978534698486,-0.05232292413711548,0.09970951080322266,0.49796566367149353,0.7291954159736633,0.5566331148147583,1.6580017303806547,0.3392970245059002,3.0252314014511033
1687022151.6729178,0.9236221313476562,-0.3599838614463806,0.13165901601314545,0.0338059663772583,-0.09117287397384644,0.0974670797586441,0.5497506856918335,1.0013729333877563,0.7505441308021545,1.7123888451799008,0.3682505851096179,2.993320056878375
1687022151.686753,0.8977977633476257,-0.3934703767299652,0.1978384405374527,0.05154287815093994,-0.10036510229110718,0.08902677893638611,0.7420352697372437,1.3661656379699707,0.9747908711433411,1.7876896890611318,0.40440342671903334,2.9494782317526016
1687022151.760824,0.8566876649856567,-0.4317921996116638,0.2822078466415405,0.09774935245513916,-0.09663492441177368,0.0603671669960022,0.698624849319458,1.705039143562317,1.1725192070007324,1.8890184427996257,0.44647880091701536,2.8932641439371554
1687022151.7660952,0.8010767698287964,-0.4733861982822418,0.36630749702453613,0.08490931987762451,-0.08095034956932068,0.04690048098564148,0.46925973892211914,1.8067835569381714,1.251749873161316,1.9996786070148893,0.493131046085814,2.8411096520399357
1687022151.846231,0.7329129576683044,-0.5149140954017639,0.4446374177932739,0.09032922983169556,-0.056970179080963135,0.00796884298324585,0.24650390446186066,1.8176499605178833,1.3038462400436401,2.1161069308491878,0.5409074530958883,2.7887047013631445
1687022151.850718,0.6540635228157043,-0.5530329942703247,0.516096293926239,0.1094709038734436,-0.009787440299987793,-0.004575908184051514,0.3292344808578491,1.8697103261947632,1.28892982006073,2.2388317100247694,0.5860001924114976,2.731199951410602
1687022151.945829,0.5670931935310364,-0.5841569900512695,0.5806597471237183,0.10565143823623657,0.008732855319976807,-0.024980485439300537,0.21058131754398346,1.8174488544464111,1.2648011445999146,2.368014048163596,0.6238410509067068,2.6663713105221074
1687022151.952722,0.478300005197525,-0.6105926036834717,0.6311941742897034,0.07921034097671509,0.04055464267730713,-0.02403157949447632,0.2808817923069,1.6904205083847046,1.189941167831421,2.4931372748286322,0.6568086584880348,2.601727189171392
1687022152.064231,0.386181503534317,-0.620173454284668,0.682823896408081,0.12956541776657104,0.011820793151855469,-0.00528794527053833,0.4026164710521698,1.7511204481124878,1.1167432069778442,2.6268777047479155,0.668963771131671,2.525205053414431
1687022152.072818,0.2963629961013794,-0.6350226998329163,0.7133830785751343,0.04447251558303833,0.03681701421737671,-0.0517619252204895,-0.017848258838057518,1.5479636192321777,0.9870732426643372,2.7478530020485126,0.6880378704862169,2.461753665025919
1687022152.149771,0.20738475024700165,-0.6379921436309814,0.7415915727615356,0.14832809567451477,-0.013573646545410156,0.07328897714614868,0.4753800928592682,1.7420790195465088,0.9626777768135071,2.8689102001388918,0.6918879860552826,2.3985801089118306
1687022152.1651468,0.11359196901321411,-0.6349295377731323,0.764173686504364,0.08918198198080063,-0.014469325542449951,-0.05789017677307129,0.05113604664802551,1.608297348022461,0.9419852495193481,2.994026399493663,0.6879172815130029,2.33507087757006
1687022152.244533,0.019327305257320404,-0.6362746953964233,0.7712206244468689,0.10640503466129303,-0.015519857406616211,-0.01967942714691162,-0.050999291241168976,1.7058171033859253,0.9422336220741272,3.116537226684664,0.6896596823175541,2.272974734765953
1687022152.251612,-0.07280759513378143,-0.6483336091041565,0.7578672170639038,0.09401721507310867,-0.025525033473968506,0.01698935031890869,-0.27591055631637573,1.6154792308807373,1.0225696563720703,-3.0458175112148886,0.7053936883451833,2.209502953937454
1687022152.3355532,-0.1678689867258072,-0.6442614197731018,0.7461549639701843,0.08902671933174133,-0.0035963058471679688,-0.0333864688873291,0.11114327609539032,1.613026738166809,1.062379002571106,-2.9202984704468817,0.7000571592115866,2.143078585542226
1687022152.349327,-0.262462317943573,-0.6262104511260986,0.7341482043266296,0.12488904595375061,-0.06809484958648682,0.09525835514068604,0.24888591468334198,1.7142219543457031,1.0875614881515503,-2.798246771965578,0.6766831186152916,2.0790665456051722
1687022152.389213,-0.357361763715744,-0.600825309753418,0.7150532603263855,0.12057584524154663,-0.03146827220916748,-0.012905001640319824,0.11124350130558014,1.7324707508087158,1.0359281301498413,-2.678129536685477,0.6445331287550239,2.024215134373721
1687022152.487136,-0.4458695650100708,-0.582775890827179,0.6793917417526245,0.11525717377662659,-0.020663559436798096,0.0012267231941223145,-0.251215398311615,1.6664923429489136,0.9823643565177917,-2.560817035994663,0.6221404481108296,1.9691364029332843
1687022152.5019999,-0.5263715386390686,-0.5757206678390503,0.6256822943687439,0.0707746148109436,0.013754844665527344,-0.062053382396698,-0.876288890838623,1.5091280937194824,0.9698083400726318,-2.4421851327118613,0.6134852753732379,1.9013723841624361
1687022152.540848,-0.593929648399353,-0.5958635210990906,0.5405502319335938,-0.09482169151306152,-0.1234358549118042,0.0022202134132385254,-2.6318225860595703,1.4439972639083862,0.822760820388794,-2.3091772583119403,0.6383404924380739,1.7952857511115998
1687022152.638122,-0.6506158709526062,-0.6620923280715942,0.3719310760498047,-0.3283270597457886,0.08656132221221924,-0.13056766986846924,-4.753133296966553,1.7143021821975708,0.5872212648391724,-2.090116906024105,0.723607241504628,1.5690250683603444
1687022152.6540198,-0.6966809034347534,-0.704801082611084,0.13375838100910187,-0.5017291903495789,0.18992382287979126,-0.02906787395477295,-4.867152690887451,2.3887665271759033,0.6829208731651306,-1.760481854869873,0.7821427323397961,1.24121934826095
1687022152.6874208,-0.72421795129776,-0.6776015758514404,-0.12792378664016724,-0.4611000418663025,0.2441604733467102,0.09588027000427246,-5.209688663482666,2.5716350078582764,0.8579418063163757,-1.3959626133733296,0.7444964441919802,0.8973481313160546
1687022152.7855601,-0.7177312970161438,-0.5855579972267151,-0.37680742144584656,-0.34960585832595825,0.1750813126564026,0.2297126054763794,-4.759315013885498,2.4443135261535645,0.662371039390564,-1.0873509624714308,0.6255682182374098,0.6070872334778457
1687022152.800724,-0.6667007207870483,-0.47356870770454407,-0.5755369067192078,-0.19217073917388916,0.12067881226539612,0.24614548683166504,-4.039173603057861,2.3845245838165283,-0.11282586306333542,-0.8586535859181472,0.4933382595017946,0.4065621326429834
1687022152.8759751,-0.581991970539093,-0.36097049713134766,-0.7286877036094666,-0.009453952312469482,0.05750378966331482,0.2844585180282593,-3.3082659244537354,2.4221973419189453,-0.6138876080513,-0.6739386175449438,0.36930833318878464,0.2449203510228038
1687022152.9676661,-0.47881579399108887,-0.27369704842567444,-0.8341614603996277,0.025660306215286255,-0.2594906687736511,0.20301216840744019,-3.1640052795410156,2.314366340637207,-0.8714713454246521,-0.5210888576168599,0.2772347669243604,0.13272157521169214
1687022152.975429,-0.37735265493392944,-0.14230678975582123,-0.9150703549385071,0.11065950989723206,0.02798803150653839,-0.03706282377243042,-2.6720705032348633,1.9406591653823853,-1.1829633712768555,-0.39112923248827586,0.14279153233547498,0.006109469343810744
1687022153.0536861,-0.28861308097839355,-0.08451781421899796,-0.9537081122398376,0.12070533633232117,-0.19128470122814178,0.10504484176635742,-1.9679988622665405,1.539137840270996,-1.5514599084854126,-0.29386058466719994,0.08461875979788444,-0.08465152651108598
1687022153.068303,-0.22380222380161285,0.016275951638817787,-0.9744986891746521,0.20004424452781677,0.06372597068548203,-0.0005837082862854004,-2.1372909545898438,1.162177562713623,-2.003262758255005,-0.2257443402834593,-0.01627666976662423,-0.20324120754165773
1687022153.1431909,-0.17591607570648193,0.059935785830020905,-0.9825788736343384,0.28941088914871216,0.00172506645321846,0.10156691074371338,-1.2049577236175537,0.9262506365776062,-2.5361549854278564,-0.17715813010069664,-0.05997172698728666,-0.32633149068028416
1687022153.160231,-0.14684560894966125,0.09216275066137314,-0.9848565459251404,0.428232878446579,0.19441263377666473,0.11599063873291016,-0.23694506287574768,0.8782047033309937,-2.9836525917053223,-0.14801311189272112,-0.0922937246299794,-0.474159075400192
1687022153.235446,-0.1161305382847786,0.06748835742473602,-0.9909384250640869,0.5766102075576782,-0.18400439620018005,0.1666892170906067,-0.2565810978412628,0.5314568877220154,-2.0334484577178955,-0.11666035402511246,-0.06753969445979185,-0.6074022642803081
1687022153.248537,-0.10801718384027481,0.03857967630028725,-0.9934001564979553,0.22496046125888824,0.003549903631210327,0.0758434534072876,1.3588680028915405,-0.05621054023504257,0.20966322720050812,-0.10830929487038173,-0.03858925130459421,-0.6452196290218094
1687022153.290066,-0.11144304275512695,5.5071428505470976e-05,-0.9937708377838135,0.03545419126749039,0.02350456640124321,0.15496468544006348,0.08219622075557709,0.034324951469898224,0.24753843247890472,-0.11167502059087028,-5.507142736711749e-05,-0.6245371794189831
1687022153.385392,-0.1069682165980339,-0.008607877418398857,-0.9942252039909363,0.02035924792289734,0.12202652543783188,-0.02407008409500122,0.4043847620487213,0.0811845138669014,0.0021166950464248657,-0.10717725011753883,0.008607983345890557,-0.6192358074456674
1687022153.402513,-0.10395830124616623,-0.01229841262102127,-0.9945056438446045,0.026413053274154663,-0.013794050551950932,-0.020768404006958008,-0.3331615626811981,0.057485129684209824,0.05215216800570488,-0.1041543739528661,0.012298722938858872,-0.6165265481405497
1687022153.474928,-0.10155142098665237,-0.005472210701555014,-0.9948152303695679,0.030704788863658905,0.017908191308379173,-0.09066444635391235,0.035596590489149094,-0.012968350201845169,-0.009947290644049644,-0.10172830841036072,0.005472238075820565,-0.616954277113177
1687022153.4809198,-0.10566388815641403,-0.009835483506321907,-0.9943532347679138,0.029675044119358063,-0.03345363587141037,-0.0665292739868164,0.03302575275301933,-0.14028440415859222,0.041627220809459686,-0.10586664422435473,0.00983564219476011,-0.6152947279067307
1687022153.532769,-0.11142236739397049,-0.007585645187646151,-0.9937441945075989,0.0036189407110214233,0.016679950058460236,-0.012298285961151123,0.06698966026306152,-0.1037571132183075,0.02085709385573864,-0.11165744000177066,0.007585718110478105,-0.6138734538605087
1687022153.624399,-0.11631716787815094,-0.011044598184525967,-0.9931507110595703,0.021025948226451874,-0.013735608197748661,0.0069141387939453125,0.07040157169103622,-0.1005977988243103,0.018360445275902748,-0.11658821306643537,0.0110448224748952,-0.6131050294935911
1687022153.642617,-0.11964185535907745,-0.009543425403535366,-0.9927712678909302,-0.00023127347230911255,-0.008324549533426762,0.044162869453430176,-0.03597639873623848,-0.04081755876541138,-0.0029018986970186234,-0.11993462902350935,0.009543570513452415,-0.6132903861329174
1687022153.682877,-0.12083865702152252,-0.013375217095017433,-0.9925820231437683,0.03125421702861786,-0.028342247009277344,0.046781301498413086,0.17667753994464874,-0.0370558425784111,0.17153622210025787,-0.12114557510105821,0.013375615581676959,-0.6095643306855612
1687022153.774154,-0.12455461174249649,-0.019521141424775124,-0.9920207262039185,0.061550989747047424,0.002385590225458145,0.027588963508605957,0.35452374815940857,-0.12748552858829498,0.4095456600189209,-0.12490285737866001,0.019522381475100666,-0.5954188887135535
1687022153.789946,-0.13594292104244232,-0.050336141139268875,-0.9894371032714844,0.10821762681007385,0.029538482427597046,0.022869110107421875,1.158211350440979,-0.35055553913116455,0.7222833037376404,-0.13653932874556718,0.05035742361762281,-0.5633392937528838
1687022153.82965,-0.16199731826782227,-0.1340906172990799,-0.9776382446289062,0.1379799246788025,0.11532239615917206,0.08504492044448853,2.5587174892425537,-0.5139756798744202,1.0478273630142212,-0.16421063455826881,0.1344957317923572,-0.5050934024673129
1687022153.925336,-0.20077458024024963,-0.28106656670570374,-0.9384514689445496,0.25274595618247986,0.214431494474411,0.11664360761642456,4.335651397705078,-0.6373465657234192,1.3401093482971191,-0.210765091912746,0.28490528980155405,-0.4147709346184952
1687022153.941055,-0.25724777579307556,-0.4862561821937561,-0.8350918889045715,0.1823575794696808,0.11978593468666077,0.09980136156082153,5.269280910491943,-0.5661866664886475,1.5968403816223145,-0.2988231763787884,0.5078001892846988,-0.266345418703496
1687022153.978883,-0.32272017002105713,-0.6644718050956726,-0.6740393042564392,0.18639808893203735,0.08820843696594238,0.08230340480804443,5.382253646850586,-0.4214761257171631,1.6570086479187012,-0.44653234745548037,0.7267868133442238,-0.05589049951424029
1687022154.1387749,-0.3900510370731354,-0.7773629426956177,-0.4935252070426941,0.0952359139919281,0.03752535581588745,0.047953248023986816,4.30461311340332,-0.4891791045665741,1.4272900819778442,-0.6688207820584495,0.890462754338626,0.22134357837438365
1687022154.194251,-0.4503510892391205,-0.8387733697891235,-0.30601152777671814,-0.11416307091712952,0.002607107162475586,0.055187493562698364,4.286473274230957,-0.3608538806438446,1.0629799365997314,-0.9739647661080622,0.9950264268572204,0.5668105502780639
1687022154.265794,-0.4972447454929352,-0.858355700969696,-0.12638595700263977,0.1150577962398529,-0.035931408405303955,0.07885473966598511,3.772833824157715,-0.5279181599617004,0.9902729392051697,-1.321894441589884,1.032056071662942,0.9521883942359337
1687022154.272338,-0.5359138250350952,-0.8433459401130676,0.039546675980091095,-0.12476128339767456,-0.0843273401260376,0.019047021865844727,3.17844295501709,-0.34735292196273804,0.8187271952629089,-1.6444557990834379,1.0034796710206202,1.3034342131777106
1687022154.277573,-0.5639169812202454,-0.8113841414451599,0.15379689633846283,-0.003221750259399414,0.06989854574203491,0.06954586505889893,2.6286919116973877,-0.3597756624221802,0.5994336605072021,-1.8370506137903189,0.9465162462887354,1.513635623428729
1687022154.289915,-0.584037721157074,-0.768088698387146,0.26256394386291504,-0.0906907320022583,-0.168587327003479,0.06755983829498291,1.8392915725708008,-0.18541549146175385,0.5069023370742798,-1.9932899036685205,0.8758509557279561,1.6948199045708932
1687022154.376295,-0.6014320254325867,-0.7301496863365173,0.32428547739982605,-0.054711222648620605,0.001435697078704834,0.04999732971191406,1.8113690614700317,-0.06287776678800583,0.4889848232269287,-2.0653014095666897,0.8185409840865819,1.7856860160824546
1687022154.465169,-0.6156359910964966,-0.6859331130981445,0.38792848587036133,-0.10752391815185547,-0.01533043384552002,0.0746874213218689,1.7329248189926147,-0.031892240047454834,0.43034785985946655,-2.133073567871412,0.7558852249343024,1.8756351145815033
1687022154.4730492,-0.6287948489189148,-0.6448164582252502,0.43454405665397644,-0.056446850299835205,0.02472984790802002,0.06809550523757935,1.0862748622894287,0.013697615824639797,0.35888880491256714,-2.1755068430912665,0.7007831132402228,1.9366485458870284
1687022154.556439,-0.6375572681427002,-0.6097797751426697,0.47083935141563416,-0.013901591300964355,0.0392078161239624,0.008256018161773682,1.2160892486572266,-0.06779742240905762,0.19613783061504364,-2.2069001056232462,0.6557827132253492,1.9859079565077669
1687022154.572452,-0.6389465928077698,-0.5803168416023254,0.5049554109573364,0.006286442279815674,-0.02596074342727661,-0.010189175605773926,0.7724533677101135,-0.18288858234882355,0.07965043187141418,-2.2395906750346177,0.6191176842104015,2.0316558283540727
1687022154.64393,-0.630379855632782,-0.5698444843292236,0.5271608233451843,0.05190390348434448,0.022237002849578857,-0.0914614200592041,0.1568518728017807,-0.5437769293785095,-0.08246683329343796,-2.2672586950346028,0.6063165909101039,2.050278844201917
1687022154.649292,-0.600771427154541,-0.5767049789428711,0.5536109805107117,0.09736865758895874,0.0810995101928711,-0.13767170906066895,-0.18820388615131378,-1.2316044569015503,-0.406150758266449,-2.3153637716169406,0.6146896152111427,2.059578333570497
1687022154.74106,-0.5350314378738403,-0.6004816293716431,0.5942754745483398,0.03873920440673828,0.20491266250610352,-0.2953253388404846,-0.09729581326246262,-2.1153008937835693,-0.9594916701316833,-2.4086070058134488,0.6441032734882371,2.078701519291834
1687022154.7578921,-0.41941019892692566,-0.6346611380577087,0.649076521396637,-0.06816920638084412,0.09303516149520874,-0.14706242084503174,-0.3014987111091614,-2.678071975708008,-1.641008734703064,-2.567918493014721,0.687569931435456,2.138909943799261
1687022154.827848,-0.25667262077331543,-0.6866205334663391,0.6801995038986206,-0.058360397815704346,0.1978358030319214,-0.22782224416732788,-0.3132420778274536,-3.106865882873535,-2.2080812454223633,-2.7807641563634844,0.7568304044211924,2.2400682945715036
1687022154.843683,-0.07227511703968048,-0.7053550481796265,0.70516037940979,-0.02431311458349228,0.026613354682922363,-0.1457119584083557,-0.20299868285655975,-3.189598560333252,-2.2622523307800293,-3.0394547306164283,0.7829238886585782,2.3907810593574346
1687022154.913488,0.11042574048042297,-0.7145823240280151,0.6907806396484375,-0.08189192414283752,-0.04910469055175781,0.12318402528762817,0.35387375950813293,-2.88283371925354,-1.883257269859314,2.983077372803886,0.7960268780350219,2.536105408414389
1687022154.918604,0.2732084095478058,-0.6829466819763184,0.6774517893791199,-0.07266223430633545,-0.15230417251586914,-0.013862371444702148,-0.050081122666597366,-3.1041769981384277,-1.6246815919876099,2.7582547016850807,0.7517890649354503,2.650154512299395
1687022154.9741101,0.4233250916004181,-0.6491748094558716,0.6319554448127747,0.05302363634109497,0.06859320402145386,0.14352673292160034,0.9661778211593628,-2.756211280822754,-1.6520172357559204,2.551378783092535,0.7064991045827187,2.7341731937724094
1687022155.0941439,0.5476195812225342,-0.6018344759941101,0.5812989473342896,0.10914921760559082,-0.15478801727294922,0.06292724609375,-0.6321449279785156,-2.538294553756714,-1.4623196125030518,2.3860189128489226,0.6457961974007174,2.7982003171356
1687022155.110208,0.6561949849128723,-0.5757999420166016,0.48771196603775024,0.19584053754806519,0.028360188007354736,0.1310930848121643,-0.15221312642097473,-2.3235652446746826,-1.4682023525238037,2.2099585833697333,0.6135821981626741,2.885175319025254
1687022155.185684,0.7455772757530212,-0.5310896039009094,0.4025651812553406,0.17234569787979126,-0.0575336217880249,0.042396485805511475,-0.5671432018280029,-2.3498494625091553,-1.34532630443573,2.06588125620144,0.5598859615429399,2.941309874144616
1687022155.199785,0.8198910355567932,-0.4908071756362915,0.29476574063301086,0.18535786867141724,0.047646135091781616,0.061588019132614136,-0.35156524181365967,-2.226391077041626,-1.3194166421890259,1.9159253009442458,0.5130159590337202,3.007227966189452
1687022155.278153,0.8757098317146301,-0.4362970292568207,0.20682688057422638,0.1682201623916626,0.026308506727218628,0.02095639705657959,0.2681381404399872,-2.035783529281616,-1.2158153057098389,1.8027281069847854,0.4514792202928529,3.0267750102120856
1687022155.2840052,0.9158094525337219,-0.38166508078575134,0.12500017881393433,0.10031908750534058,-0.02017521858215332,0.06623828411102295,0.0908922404050827,-1.9046586751937866,-1.1692419052124023,1.706449547223238,0.3915970719251416,3.0253950522456745
1687022155.362939,0.9440453052520752,-0.3268830180168152,0.04388746991753578,0.08831852674484253,0.018655359745025635,0.09814143180847168,0.4514130651950836,-1.7517635822296143,-1.17558753490448,1.6172516097310878,0.33300350272335255,3.015414473025919
1687022155.37998,0.9603119492530823,-0.27809691429138184,-0.02151886187493801,0.06234729290008545,-0.11954721808433533,0.18103426694869995,0.5727140307426453,-1.2065848112106323,-0.840813398361206,1.5483918778719938,0.28181231220481545,2.9882038585809623
1687022155.4172559,0.9663026928901672,-0.2518869936466217,-0.053028274327516556,0.004995465278625488,-0.14441436529159546,0.12033486366271973,0.3262645900249481,-0.43724408745765686,-0.3018307685852051,1.515973817053812,0.25462961227706876,2.96580932306546
1687022155.516759,0.9673475623130798,-0.24598579108715057,-0.061069268733263016,0.005979955196380615,-0.1730969101190567,0.1478765606880188,0.24567937850952148,-0.10019592940807343,-0.03345707803964615,1.5077493552076613,0.24853660880969816,2.9499176074866473
1687022155.5339298,0.9666885137557983,-0.2490891069173813,-0.058887872844934464,0.01156759262084961,-0.09875030815601349,0.14781612157821655,0.2879886031150818,0.0488462820649147,0.1192314624786377,1.5099543988638306,0.25173959892771974,2.935529264729066
1687022155.570287,0.9649168848991394,-0.25772830843925476,-0.050117410719394684,-0.0031858086585998535,-0.00972786545753479,0.08545678108930588,0.30320313572883606,0.15698233246803284,0.1818455159664154,1.5189033429661265,0.26067034388655735,2.9222726559771233
1687022155.667798,0.9630565047264099,-0.26639267802238464,-0.039458148181438446,0.003618180751800537,0.002293497323989868,0.03871053829789162,0.04477197676897049,0.17881813645362854,0.17073620855808258,1.5298474431144462,0.26964852309216364,2.9135254864384352
1687022155.6832051,0.9613311290740967,-0.27371999621391296,-0.03032495640218258,-0.0018281340599060059,0.04468551278114319,-0.009408887475728989,0.08608292788267136,0.15533198416233063,0.13093219697475433,1.5392620284243133,0.2772586286865716,2.9100981640810533
1687022155.752634,0.9599975943565369,-0.2791162133216858,-0.02233097329735756,0.00832509994506836,0.045122623443603516,0.005805792286992073,0.14981010556221008,0.11124973744153976,0.08096137642860413,1.54753903106203,0.2828736129737683,2.9044100796835868
1687022155.845715,0.9600253105163574,-0.27935370802879333,-0.01769457384943962,-0.0039705634117126465,0.005900859832763672,-0.01669866032898426,-0.06077242270112038,0.0751844123005867,0.029850255697965622,1.552367052092769,0.28312096933696546,2.9020696675504563
1687022155.86356,0.9603765606880188,-0.27832677960395813,-0.01454310491681099,-0.009311378002166748,-0.001275390386581421,0.010301230475306511,0.02271505631506443,0.08326107263565063,0.03476278856396675,1.555654355933593,0.2820516108786974,2.9017509969045925
1687022155.931649,0.9605730772018433,-0.2776710093021393,-0.014088763855397701,0.025648295879364014,0.0015478432178497314,0.002415833994746208,-0.0730539858341217,0.03780534863471985,-0.01746685989201069,1.5561303386951408,0.28136892217338405,2.9055697624069508
1687022155.9372659,0.9606430530548096,-0.2775692045688629,-0.010972579941153526,-0.01194310188293457,-0.002338111400604248,0.02768099308013916,0.0624132864177227,0.06404254585504532,0.0006249254802241921,1.5593747035991565,0.28126297006260514,2.9039077792622794
1687022156.024679,0.9606860280036926,-0.277521550655365,-0.008017562329769135,-0.007530510425567627,-0.012395530939102173,0.04123598337173462,-0.02641458436846733,0.06435280293226242,0.009806705638766289,1.5624508574821843,0.28121334562156236,2.903251597619695
1687022156.0404282,0.9605053067207336,-0.2782275676727295,-0.004359716083854437,0.0037738680839538574,0.004881531000137329,0.013331949710845947,0.015655726194381714,0.07889650017023087,0.00555696664378047,1.566257375969361,0.28194832798136094,2.9056705732572063
1687022156.111589,0.9599607586860657,-0.28013214468955994,0.001235750736668706,0.0014497637748718262,-0.026020288467407227,0.0450136661529541,-0.024269185960292816,0.08346036076545715,0.03931286558508873,1.5720836190991305,0.2839317541488141,2.9039054109813303
1687022156.116722,0.95928955078125,-0.2823432981967926,0.006780367344617844,0.0008850693702697754,-0.007878988981246948,0.0069526443257927895,-0.039091628044843674,0.1447797417640686,0.04416554793715477,1.577864322566732,0.28623591456282116,2.9063403794667284
1687022156.1699328,0.9584600329399109,-0.2848529815673828,0.014605270698666573,0.0022333264350891113,-0.01199159026145935,0.028287291526794434,0.04848060756921768,0.13283368945121765,0.0433669276535511,1.58603341560359,0.2888530549428402,2.9056093670017407
1687022156.271996,0.9569239616394043,-0.28935137391090393,0.023919839411973953,-0.004073739051818848,-0.024415165185928345,0.05412888154387474,-0.04003962501883507,0.31384190917015076,0.16386477649211884,1.5957877155334463,0.2935491565430779,2.905588572511587
1687022156.2872539,0.9518322944641113,-0.30237048864364624,0.050865404307842255,0.012629926204681396,0.00021588802337646484,0.08084845542907715,0.20945967733860016,0.715621292591095,0.3790583312511444,1.6241850027723428,0.30717858273520743,2.8997141088903864
1687022156.319061,0.9412993788719177,-0.3235044479370117,0.09643916040658951,0.02128612995147705,-0.025265812873840332,0.15023447573184967,0.19604112207889557,1.1198551654815674,0.5505455732345581,1.6728933184575736,0.3294307490379208,2.8878423441998033
1687022156.415766,0.922646164894104,-0.349937379360199,0.16207335889339447,0.043830156326293945,-0.0352555513381958,0.1579645723104477,0.4004085958003998,1.5145493745803833,0.6659936904907227,1.744683722839428,0.35750426157289605,2.868079823011986
1687022156.422559,0.8919200897216797,-0.3784904479980469,0.2474338412284851,0.08082765340805054,-0.10203942656517029,0.15819060802459717,0.34980088472366333,1.9196170568466187,0.7960790991783142,1.8414082570556398,0.3881648746194256,2.838257275279225
1687022156.469193,0.843689501285553,-0.412447065114975,0.34362125396728516,0.10075318813323975,-0.12455558776855469,0.13252925872802734,0.23442476987838745,2.2859954833984375,0.9563884735107422,1.9575662039460093,0.42513860641282386,2.8085989347093787
1687022156.5714731,0.774517297744751,-0.45117098093032837,0.4433594048023224,0.1174197793006897,-0.12718293070793152,0.09765619039535522,0.05209043249487877,2.4936540126800537,1.082339882850647,2.090699432031119,0.468077019443372,2.77743127380391
1687022156.578521,0.6861057281494141,-0.4910995066165924,0.5367313623428345,0.12730979919433594,-0.07491016387939453,0.06535011529922485,0.06707830727100372,2.601889133453369,1.1423431634902954,2.2346427319986404,0.5133515102039247,2.740738208347521
1687022156.654197,0.5832328796386719,-0.5231597423553467,0.6214039921760559,0.09836173057556152,-0.062106311321258545,0.009165406227111816,0.190244659781456,2.5688233375549316,1.1124134063720703,2.3878706897165736,0.5505543525989538,2.6922786767472475
1687022156.746592,0.4670970141887665,-0.5415768623352051,0.6989384293556213,0.17163580656051636,-0.05052518844604492,0.03565025329589844,0.24201226234436035,2.698579788208008,1.0400590896606445,2.5524636397985025,0.5723117697010823,2.6308876406896853
1687022156.764223,0.34640049934387207,-0.5618683695793152,0.7512059807777405,0.128208726644516,-0.025884926319122314,-0.00889652967453003,0.02505064755678177,2.5265719890594482,1.0301344394683838,2.70952508159202,0.5966426516661069,2.577457042399777
1687022156.831204,0.22222189605236053,-0.5735601186752319,0.7884451746940613,0.14739163219928741,0.02589172124862671,-0.047737956047058105,0.05059906095266342,2.4329023361206055,0.9817259907722473,2.86687089855433,0.6108453140413519,2.5188096192640352
1687022156.837511,0.10323058068752289,-0.5823355913162231,0.8063673377037048,0.17794302105903625,0.01841658353805542,0.04025113582611084,-0.023780716583132744,2.3169991970062256,0.8960426449775696,3.014265929975081,0.6215987425395154,2.4633814462109154
1687022156.9239988,-0.01690642349421978,-0.5795539617538452,0.8147584795951843,0.23272664844989777,-0.0060631632804870605,0.0957639217376709,0.22277753055095673,2.4637181758880615,0.8817598819732666,-3.120845404582815,0.6181812755006557,2.4110440782347595
1687022156.9390001,-0.14132164418697357,-0.5700365900993347,0.8093741536140442,0.2262824922800064,-0.0025037527084350586,-0.009188055992126465,0.001141542918048799,2.4327080249786377,0.873577892780304,-2.9687292291168657,0.6065503840310836,2.3597115974819505
1687022157.019392,-0.266352117061615,-0.5639036297798157,0.7817094326019287,0.19353705644607544,-0.04115325212478638,0.10363614559173584,-0.14631475508213043,2.6074345111846924,0.9627401232719421,-2.8131996186914683,0.5991050441996978,2.305069647338706
1687022157.033348,-0.39339137077331543,-0.5649171471595764,0.7253358364105225,0.15184462070465088,-0.011498987674713135,-0.08201009035110474,-0.7122244834899902,2.5524396896362305,1.017572283744812,-2.6446359102535033,0.6003328254896669,2.2390585345569636
1687022157.101368,-0.5061735510826111,-0.5704336166381836,0.6468336582183838,0.06990945339202881,-0.02668863534927368,0.0011307001113891602,-1.1973121166229248,2.3926987648010254,1.0305196046829224,-2.4775887815468143,0.607033686916807,2.157783214156651
1687022157.108101,-0.6017800569534302,-0.6097949147224426,0.5157626271247864,0.0173531174659729,-0.08725708723068237,-0.11276280879974365,-4.119762420654297,1.999508023262024,1.096701979637146,-2.27937580285298,0.6558018333105201,2.0076719218575927
1687022157.160574,-0.6738052368164062,-0.6872521638870239,0.27142366766929626,-0.22678375244140625,0.1398431658744812,-0.01059010624885559,-6.598475933074951,2.0133442878723145,1.0035332441329956,-1.9537332357936619,0.7576995499026183,1.6553129192734088
1687022157.253197,-0.7209736704826355,-0.6920422911643982,-0.03569973632693291,-0.3177531361579895,0.32671642303466797,0.053247276693582535,-6.392697811126709,2.475334882736206,0.9695296287536621,-1.5213207335870473,0.764314438050821,1.1988542206465427
1687022157.270671,-0.7285610437393188,-0.6016839146614075,-0.3273763060569763,-0.39198338985443115,0.24883979558944702,0.14382827281951904,-6.125599384307861,2.608233690261841,0.8568487763404846,-1.1484860441323208,0.6456077007163389,0.8252099337580174
1687022157.308285,-0.688952624797821,-0.45083579421043396,-0.5675310492515564,-0.24793708324432373,0.4618527293205261,0.18226182460784912,-5.607524394989014,2.2628977298736572,0.21182258427143097,-0.8817350511688219,0.46770147521258376,0.5497981161910473
1687022157.4007149,-0.6133606433868408,-0.2962441146373749,-0.7321394681930542,-0.19762879610061646,0.37021881341934204,0.0611342191696167,-4.13820743560791,2.189988374710083,-0.6147566437721252,-0.6973478181505359,0.30075783746636087,0.3515870715126323
1687022157.4079242,-0.5108802914619446,-0.22187481820583344,-0.8305256962776184,-0.20352095365524292,0.2271849811077118,0.2968495488166809,-1.770435094833374,2.4677352905273438,-1.4070899486541748,-0.5514694224350106,0.2237367930328633,0.22865268116358414
1687022157.463089,-0.3859832286834717,-0.14825113117694855,-0.910515546798706,-0.019809037446975708,-0.050845444202423096,0.018532514572143555,-3.423478841781616,2.2596280574798584,-2.2216808795928955,-0.4009531653821807,0.14879963350990205,0.08807518954643112
1687022157.521515,-0.26621174812316895,-0.06219412386417389,-0.9619060158729553,0.14342424273490906,0.10862672328948975,0.07881885766983032,-1.7451202869415283,2.4276957511901855,-2.998439073562622,-0.26999654369289205,0.06223428973925496,-0.08323205182323282
1687022157.618408,-0.1517060548067093,-0.0032420861534774303,-0.988420307636261,0.5027344226837158,-0.22289307415485382,-0.011030316352844238,-2.715214490890503,1.9364975690841675,-3.656672477722168,-0.15229488882548253,0.003242091884080557,-0.2630544620080088
1687022157.625243,-0.07181570678949356,0.1027258038520813,-0.9921138882637024,0.7226334810256958,0.021312974393367767,0.06383019685745239,-1.819757342338562,1.6107847690582275,-3.594020366668701,-0.07226052103003182,-0.10290733453248102,-0.45820477876646515
1687022157.73771,-0.03798656165599823,0.15429949760437012,-0.9872936010360718,0.6808697581291199,-0.012270644307136536,0.03474849462509155,-0.40745940804481506,0.4335521459579468,-1.9873191118240356,-0.03845647681934941,-0.1549184193556047,-0.6092712756386477
1687022157.754257,-0.04372328892350197,0.14020417630672455,-0.9891567230224609,0.2378607839345932,-0.16074243187904358,0.2489987015724182,0.3034050762653351,-0.19698195159435272,0.4055591821670532,-0.04417383355024914,-0.14066762035629707,-0.639707624516737
1687022157.821523,-0.04580080509185791,0.12090583890676498,-0.9916068315505981,-0.0006928108632564545,0.1286669820547104,0.19831764698028564,0.4257936179637909,0.11539175361394882,0.012097024358808994,-0.04615566875798026,-0.12120236236622825,-0.6227667676543556
1687022157.8348851,-0.03726481646299362,0.11157382279634476,-0.9930571913719177,0.020831022411584854,0.07220308482646942,-0.019500732421875,0.14333176612854004,0.13317082822322845,0.05490134656429291,-0.037507748769174336,-0.11180662484557417,-0.6226149276943505
1687022157.946947,-0.03291755169630051,0.09869303554296494,-0.9945733547210693,0.03253599628806114,-0.006117895245552063,-0.058634042739868164,0.27823173999786377,0.04917624965310097,0.07071153819561005,-0.03308508021610276,-0.09885396056243173,-0.6184249335826
1687022157.964742,-0.03112725540995598,0.08986198902130127,-0.9954676628112793,0.016570288687944412,0.0350770428776741,-0.10253947973251343,0.226686030626297,-0.0259943138808012,0.02896721661090851,-0.03125879139578503,-0.08998337056477346,-0.6149137489432188
1687022158.0293689,-0.03479327633976936,0.0794045478105545,-0.9962350726127625,0.030505478382110596,-0.04618610441684723,-0.06948447227478027,0.0794435366988182,-0.12382189929485321,0.03410252183675766,-0.03491057566788117,-0.07948822569417689,-0.6134698003513392
1687022158.034154,-0.04069126397371292,0.07829250395298004,-0.9960996508598328,0.010997578501701355,-0.004211008548736572,-0.024072468280792236,0.12690751254558563,-0.13846759498119354,0.07427997142076492,-0.04082789357727352,-0.0783727086276945,-0.6107946553545908
1687022158.1279268,-0.04752504453063011,0.07429121434688568,-0.9961035251617432,0.017785582691431046,-0.03306189179420471,0.018717050552368164,0.03322930634021759,-0.13217118382453918,0.1401441991329193,-0.04767479601554483,-0.07435972128963551,-0.6053024622798343
1687022158.144003,-0.05157661437988281,0.06807579845190048,-0.996346116065979,0.017228998243808746,-0.05791337043046951,0.045342087745666504,0.017212122678756714,-0.0734303668141365,0.16520701348781586,-0.051719595359998996,-0.06812848911423162,-0.5978212478845385
1687022158.244505,-0.053533151745796204,0.07546986639499664,-0.9957100749015808,0.013326160609722137,0.02442949265241623,0.0024239420890808105,0.012666682712733746,-0.09675797075033188,0.23632827401161194,-0.053712083719597604,-0.07554169586987583,-0.5884710149472643
1687022158.264937,-0.05941115319728851,0.06469649076461792,-0.996134877204895,0.046212222427129745,-0.02943335473537445,0.02823936939239502,0.16967423260211945,-0.20933306217193604,0.4349072575569153,-0.05957110854363795,-0.06474170541823543,-0.5711965826667665
1687022158.334433,-0.0685400739312172,0.0569600835442543,-0.9960209727287292,0.040906332433223724,0.07847699522972107,0.013324439525604248,0.545198380947113,-0.2377302646636963,0.4288680851459503,-0.06870557264528412,-0.056990928459652056,-0.5482447895664312
1687022158.3403811,-0.08245367556810379,0.006573913618922234,-0.9965732097625732,0.06116759032011032,0.050066784024238586,0.04982638359069824,1.2912932634353638,-0.3665008544921875,0.4544335603713989,-0.08254917792691809,-0.006573961089040734,-0.5231825921905211
1687022158.344501,-0.1033763661980629,-0.07074886560440063,-0.9921229481697083,0.10932721942663193,0.1402374655008316,0.05105239152908325,2.197925329208374,-0.463975727558136,0.6253421306610107,-0.1038224805986125,0.07080801726298515,-0.48914641135186876
1687022158.387317,-0.12980997562408447,-0.18627110123634338,-0.9738852381706238,0.0891299843788147,0.10556744039058685,0.05341404676437378,2.6936633586883545,-0.43722277879714966,0.6667948365211487,-0.13250978124337992,0.18736544544921147,-0.44180788333126964
1687022158.4529362,-0.1616688221693039,-0.3479180335998535,-0.9234805107116699,0.15507696568965912,0.10386905074119568,0.04387235641479492,4.175909042358398,-0.5348489880561829,0.8151202201843262,-0.17330842340022384,0.3553494884296807,-0.37751353939364796
1687022158.547883,-0.20238983631134033,-0.5092008709907532,-0.8365122675895691,0.19793421030044556,-0.033142149448394775,0.057596802711486816,3.677152633666992,-0.46318140625953674,1.0560357570648193,-0.23738309840120342,0.5342560435318628,-0.2856220405018591
1687022158.56644,-0.2601913511753082,-0.6620396375656128,-0.7028542160987854,0.16064295172691345,-0.013405859470367432,0.10414505004882812,4.39329195022583,-0.5787531137466431,1.3400458097457886,-0.35454920947167645,0.7235369412247892,-0.13327773325950845
1687022158.699003,-0.3234146535396576,-0.7555904388427734,-0.5696367025375366,0.06139066815376282,-0.007425189018249512,0.022395431995391846,3.2583138942718506,-0.3339410424232483,1.3911513090133667,-0.5163732058692528,0.8565550379717543,0.0607324462127799
1687022158.754161,-0.3836885988712311,-0.8252589106559753,-0.4144042730331421,0.0897737443447113,0.09163165092468262,0.061239540576934814,4.246570587158203,-0.43623021245002747,1.1946940422058105,-0.746930792183532,0.9706604464309623,0.32823427439226466
1687022158.770057,-0.436211496591568,-0.8679935336112976,-0.23729054629802704,-0.06801524758338928,0.009045839309692383,-0.004622399806976318,3.6555733680725098,-0.12490279227495193,1.0514477491378784,-1.0725863583737145,1.0511473841264354,0.6949919726209428
1687022158.782325,-0.4821910858154297,-0.8728612661361694,-0.07486488670110703,0.10720634460449219,0.01080089807510376,0.07613129168748856,3.876608371734619,-0.2176303267478943,1.012956142425537,-1.4167663365467886,1.0610355482873797,1.080675546462427
1687022158.7850351,-0.5228949785232544,-0.8458149433135986,0.1057261973619461,-0.0673454999923706,-0.05988574028015137,0.06259346008300781,3.7903084754943848,-0.11314084380865097,0.9013150930404663,-1.7703005455232101,1.0080909011009713,1.4788599787664656
1687022158.838711,-0.560938835144043,-0.7943006753921509,0.23331080377101898,0.1218060851097107,-0.059336960315704346,0.12664389610290527,2.4218194484710693,-0.32132670283317566,0.9715650081634521,-1.9649588709378845,0.9178556497140815,1.7063460013302403
1687022158.901966,-0.5881407260894775,-0.7426151633262634,0.32033365964889526,-0.2090243101119995,-0.06492578983306885,0.09317949414253235,1.8084712028503418,-0.03086044266819954,0.7035257816314697,-2.0695264623961496,0.8369668201945358,1.822490308682238
1687022158.995966,-0.6072211265563965,-0.7003158926963806,0.37528660893440247,-0.05665820837020874,-0.007218837738037109,0.05653700232505798,1.118151307106018,0.0016943933442234993,0.3640472888946533,-2.1243746055451216,0.7758399331399396,1.9027231279682224
1687022159.014316,-0.6172387599945068,-0.6721714735031128,0.4089035987854004,-0.0008491873741149902,-0.003960847854614258,0.03250262141227722,1.1833066940307617,-0.09498518705368042,0.2962666153907776,-2.155889525464504,0.7371377823943174,1.94754721594145
1687022159.050428,-0.6229278445243835,-0.6430115103721619,0.44552987813949585,-0.03043818473815918,-0.05474233627319336,-0.016269773244857788,0.5166212320327759,-0.3039267957210541,0.3337293267250061,-2.1916635539077847,0.6984240027527105,1.9860848508900015
1687022159.14545,-0.622857391834259,-0.6217572689056396,0.47483333945274353,-0.018805265426635742,-0.02858757972717285,0.009114384651184082,0.5594064593315125,-0.4648856520652771,0.2897193133831024,-2.222152687758894,0.6709844051781227,2.001350212966781
1687022159.1645598,-0.6157907843589783,-0.6097727417945862,0.4989781677722931,-0.06556004285812378,-0.0668478012084961,-0.08287101984024048,-0.10243380814790726,-0.6743329167366028,0.19822855293750763,-2.2517890867503363,0.6557738382510683,2.0019404908853544
1687022159.230264,-0.5952950119972229,-0.6061567068099976,0.5274451375007629,-0.14529049396514893,0.05323910713195801,-0.10500550270080566,0.34720006585121155,-0.878903865814209,-0.20418700575828552,-2.2958355377320716,0.6512194135421556,2.0076609629249464
1687022159.235297,-0.5589373707771301,-0.6125278472900391,0.5589262843132019,-0.15581488609313965,0.04718971252441406,-0.20757752656936646,-0.23788364231586456,-1.015194058418274,-0.5891888737678528,-2.356184574111365,0.6592546210962978,2.0316080553528866
1687022159.290961,-0.5010451674461365,-0.6416253447532654,0.5807503461837769,-0.15505236387252808,0.1506432294845581,-0.21406644582748413,-0.13116811215877533,-1.316163182258606,-0.9160537719726562,-2.429740162072643,0.6966154121994859,2.0531590512808484
1687022159.387445,-0.421975702047348,-0.6647443771362305,0.6164828538894653,-0.07948914170265198,0.22165977954864502,-0.2500584125518799,0.20669704675674438,-1.7455480098724365,-1.2150272130966187,-2.541352799098907,0.7271516308464114,2.1110664245885946
1687022159.4064832,-0.3219907879829407,-0.6830448508262634,0.655569851398468,0.01312229037284851,0.029953360557556152,-0.015845119953155518,-0.03527456521987915,-1.8545944690704346,-1.24350905418396,-2.685040657836081,0.7519234547081461,2.188741317195388
1687022159.437757,-0.20632869005203247,-0.7048048973083496,0.6787331700325012,0.09081956744194031,0.17656081914901733,-0.294455885887146,0.021062076091766357,-2.3835291862487793,-1.456167459487915,-2.846478536481383,0.7821480565092691,2.2750617593335956
1687022159.53203,-0.07677428424358368,-0.7090552449226379,0.7009610533714294,0.11179313063621521,-0.01903313398361206,0.11010456085205078,0.3590024411678314,-2.1962273120880127,-1.5103286504745483,-3.032500323067918,0.7881575111369042,2.3755634451712586
1687022159.538378,0.05517227575182915,-0.6993111371994019,0.7126853466033936,0.042453378438949585,-0.01921015977859497,-0.06487327814102173,0.4652063250541687,-2.3089475631713867,-1.3717619180679321,3.0643321120080005,0.7744333762797438,2.479628355938009
1687022159.6605191,0.18394531309604645,-0.6723151803016663,0.7170471549034119,0.04228140413761139,-0.17865228652954102,0.1347748041152954,0.05494729429483414,-2.239889621734619,-1.3779165744781494,2.8904760249680352,0.7373318309052878,2.56933876732142
1687022159.6790361,0.3060411512851715,-0.6559078097343445,0.69001704454422,0.11250734329223633,-0.023459255695343018,0.03295952081680298,0.5715464353561401,-2.2015559673309326,-1.2054152488708496,2.724134772068388,0.7153846255317451,2.6494881113925643
1687022159.740991,0.4118693172931671,-0.6192200779914856,0.6685285568237305,0.0457112193107605,-0.07772523164749146,0.0950365662574768,-0.07390668988227844,-2.045682430267334,-1.0489810705184937,2.589431030182141,0.667749093549527,2.6986762665628112
1687022159.755696,0.5021930932998657,-0.600286602973938,0.6224613785743713,0.06262612342834473,-0.05298799276351929,0.17998313903808594,-0.021846331655979156,-1.680526852607727,-0.9351744055747986,2.4627275757505185,0.6438594085894127,2.7521660548634572
1687022159.830803,0.5757189393043518,-0.5803805589675903,0.5759391784667969,0.030512630939483643,-0.024859309196472168,0.02568429708480835,-0.3165673315525055,-1.5961436033248901,-0.8382437825202942,2.356385717383773,0.61919593401865,2.7984564111371206
1687022159.846323,0.6409721374511719,-0.5564388632774353,0.5287063121795654,0.028583407402038574,0.019939839839935303,0.0706741213798523,0.2608521282672882,-1.4131931066513062,-0.8483701944351196,2.2605075147221934,0.5900936934785866,2.8338845786999065
1687022159.888027,0.6980937719345093,-0.5252284407615662,0.4866211712360382,0.03989744186401367,-0.03196150064468384,0.000271528959274292,-0.1236426904797554,-1.402165174484253,-0.817524790763855,2.1795540659919097,0.5529835470347749,2.85748228006498
1687022159.983504,0.7534475326538086,-0.5011075735092163,0.4256851077079773,0.03134232759475708,0.02202737331390381,-0.005091816186904907,-0.3243219554424286,-1.6338385343551636,-0.8973450064659119,2.0850700223313017,0.5248781582467908,2.8955708893665695
1687022159.9891238,0.8113337755203247,-0.4663039445877075,0.35255977511405945,0.03642934560775757,0.06951424479484558,-0.03854915499687195,-0.0073590450920164585,-1.9032021760940552,-1.0700290203094482,1.9807225179175434,0.4851080348916689,2.929652859628835
1687022160.043998,0.8675222396850586,-0.4180139899253845,0.26957282423973083,0.08331388235092163,0.03105100989341736,-0.001979351043701172,0.011366439051926136,-2.1029739379882812,-1.2327529191970825,1.8720758785278706,0.43125804289127423,2.9497943546765257
1687022160.135493,0.917084813117981,-0.3602917492389679,0.17072007060050964,0.14805489778518677,-0.0002734959125518799,0.08710776269435883,0.052405618131160736,-2.164855718612671,-1.342565655708313,1.7548448008527224,0.36858061994686303,2.9708818681851183
1687022160.143605,0.9480891823768616,-0.30538615584373474,0.08869294822216034,0.0923008918762207,-0.07472565770149231,0.15553927421569824,0.3833599388599396,-1.3673558235168457,-0.8727036714553833,1.6640740156358913,0.31034392283363127,2.967517812646408
1687022160.1928182,0.9596093893051147,-0.2764118015766144,0.052405957132577896,0.012207567691802979,-0.10968142747879028,0.0911792516708374,0.3626185953617096,-0.5390591025352478,-0.34737613797187805,1.6253538904864067,0.28005843306092104,2.9479435227871975
1687022160.28595,0.9635728597640991,-0.26430580019950867,0.04086341708898544,0.0050244927406311035,-0.1536477506160736,0.15219080448150635,0.15721529722213745,-0.19691821932792664,-0.13712555170059204,1.6131791588475035,0.26748406309742095,2.932615317584698
1687022160.294258,0.9648676514625549,-0.26035499572753906,0.03529421612620354,-0.002709507942199707,-0.10442173480987549,0.13032472133636475,-0.05622796341776848,-0.08244640380144119,-0.03359123319387436,1.6073593587037838,0.26338984561075357,2.9304703626821564
1687022160.339767,0.9646580219268799,-0.2611459791660309,0.03517809137701988,-0.024686217308044434,-0.05017915368080139,0.05951797589659691,0.09305499494075775,0.03483175113797188,0.05866213142871857,1.6072470804550893,0.264209174982316,2.9264425221571764
1687022160.434587,0.963252067565918,-0.2657305896282196,0.03915144130587578,-0.003931999206542969,0.02337515354156494,0.03807330131530762,0.13025230169296265,0.04908685386180878,0.09401499480009079,1.6114190299152662,0.26896169050840346,2.9234751548434295
1687022160.4419708,0.96163409948349,-0.2705291211605072,0.045540399849414825,-0.00727313756942749,0.02707505226135254,0.005118846893310547,0.19184814393520355,0.0854126363992691,0.10646919906139374,1.6181182763587076,0.2739425938122005,2.9139089991147187
1687022160.4916182,0.9603971242904663,-0.2735453248023987,0.05301311984658241,-0.006616055965423584,0.02369782328605652,0.019756078720092773,0.08608697354793549,0.0930338054895401,0.05033355951309204,1.6259395302925417,0.2770770199300799,2.9051088890113803
1687022160.587105,0.9600825905799866,-0.2738144099712372,0.05716056376695633,0.010849535465240479,0.03884419798851013,0.02004898339509964,0.039503488689661026,0.039087750017642975,0.0066701010800898075,1.6302632617390682,0.2773567831866856,2.9023648076397053
1687022160.594681,0.960129976272583,-0.27280357480049133,0.06106121465563774,-0.0029157400131225586,-0.024208813905715942,0.04095911607146263,0.03703806921839714,0.0993790477514267,0.021802116185426712,1.6343076147476814,0.2763059432521923,2.8999325270334415
1687022160.64048,0.9590418338775635,-0.2745712101459503,0.06963792443275452,0.001849830150604248,-0.027659714221954346,0.05067765712738037,-0.08356459438800812,0.18925203382968903,0.06515757739543915,1.643281090318619,0.27814375692689025,2.900376109713153
1687022160.737973,0.9572712182998657,-0.2783966660499573,0.07827574759721756,-0.005214393138885498,-0.06024172902107239,0.09416389465332031,0.05244072526693344,0.22968564927577972,0.1035596951842308,1.6523844721215304,0.28212437188193157,2.9017568077459517
1687022160.757484,0.9529047608375549,-0.28748318552970886,0.09657121449708939,0.008765101432800293,-0.0486527681350708,0.10780501365661621,0.1020844504237175,0.5105921626091003,0.28769320249557495,1.671795525560031,0.29159806949838296,2.8983279548017626
1687022160.787919,0.9431766271591187,-0.30503788590431213,0.13179424405097961,0.022872507572174072,-0.01649540662765503,0.09998679161071777,0.15787017345428467,0.8385859131813049,0.4422435462474823,1.7096317921665345,0.30997820047037833,2.88828100040293
1687022160.883107,0.9301385879516602,-0.3231041431427002,0.1744881123304367,-0.00783628225326538,-0.035920023918151855,0.06487657129764557,0.1546180546283722,0.8444994688034058,0.38060036301612854,1.7562347700778853,0.3290077210117553,2.876450611401941
1687022160.900929,0.9165200591087341,-0.33866816759109497,0.2128256857395172,-0.0008249282836914062,-0.026001721620559692,-0.024364352226257324,0.0853164792060852,0.720009982585907,0.34509748220443726,1.7989632383462197,0.34550104364829193,2.8656881870458877
1687022160.939307,0.9019770622253418,-0.35450586676597595,0.24650105834007263,0.03433257341384888,-0.031129568815231323,-0.025202780961990356,0.12327361851930618,0.7438467144966125,0.4235130846500397,1.837571816837038,0.36238556508578645,2.8559093553756387
1687022161.032743,0.8827908039093018,-0.3751508891582489,0.28274089097976685,0.04567605257034302,-0.004442155361175537,-0.04752656817436218,-0.08984006941318512,0.8091158270835876,0.4990842640399933,1.8807539287991242,0.3845595435780058,2.8463260527600887
1687022161.05063,0.8614471554756165,-0.3967084288597107,0.3170667588710785,0.03747856616973877,0.05433163046836853,-0.022678852081298828,0.20192942023277283,0.8045604228973389,0.48729372024536133,1.923471357386789,0.40792824509079073,2.8383242299654676
1687022161.088917,0.8390025496482849,-0.4121038019657135,0.35531026124954224,0.015672743320465088,0.007211744785308838,-0.02236342430114746,0.11759074777364731,0.74334716796875,0.41707175970077515,1.9713884039806018,0.4247618469544725,2.817067354198665
1687022161.18355,0.8186802864074707,-0.4268108308315277,0.38418102264404297,0.009154677391052246,0.036826640367507935,-0.030253440141677856,0.0640074610710144,0.6112270355224609,0.3295902907848358,2.009558040000473,0.44096330409267404,2.806530654965423
1687022161.1895862,0.805674135684967,-0.433877557516098,0.40328624844551086,0.0005087852478027344,0.046716153621673584,-0.0905572772026062,0.17680759727954865,0.24081695079803467,0.14437170326709747,2.034889850859729,0.4487920860214339,2.7965389691931746
1687022161.277691,0.798193097114563,-0.43566974997520447,0.41602835059165955,0.037439167499542236,-0.004058122634887695,-0.08999383449554443,0.007894609123468399,0.19960615038871765,0.11867107450962067,2.0512697074186543,0.45078220536045965,2.7841605515428776
1687022161.2967029,0.7945190072059631,-0.4413926601409912,0.4170278012752533,0.01634824275970459,0.041627585887908936,-0.05684399604797363,-0.11090190708637238,0.04978158324956894,0.037755317986011505,2.054149920675841,0.4571501231756976,2.7891248316267028
1687022161.327342,0.7949830293655396,-0.4436643719673157,0.4137195646762848,0.010452032089233398,0.0446469783782959,-0.08026924729347229,-0.011215168982744217,-0.11809086054563522,-0.013694291934370995,2.050640720157963,0.4596833688849968,2.7929469877210353
1687022161.4233708,0.7993378639221191,-0.442057728767395,0.40699395537376404,0.006722867488861084,0.011729300022125244,-0.001811981201171875,-0.009783720597624779,-0.1456252932548523,-0.026252029463648796,2.0417481131078907,0.457891439575772,2.793641693523312
1687022161.438201,0.8039392232894897,-0.44094616174697876,0.3990592956542969,0.0065618157386779785,0.021466702222824097,0.024539947509765625,0.00126875308342278,-0.12067288905382156,-0.058606769889593124,2.0315436934750912,0.4566525743455394,2.797798202825802
1687022161.477694,0.8070375919342041,-0.43858602643013,0.39538928866386414,-0.008087456226348877,-0.01179245114326477,0.08407247066497803,-0.006811543833464384,-0.043226566165685654,-0.03237064182758331,2.0263528786613385,0.4540247043193745,2.798891681722445
1687022161.576799,0.8065592646598816,-0.4379148483276367,0.3971050977706909,-0.019312739372253418,-0.03991416096687317,0.1031847596168518,0.017589446157217026,0.13160018622875214,0.01471610926091671,2.028300877897112,0.4532779847091888,2.7994739983669668
1687022161.594149,0.7981211543083191,-0.4418585002422333,0.409589558839798,-0.011484920978546143,-0.095998615026474,0.16769620776176453,0.08903851360082626,0.4557701051235199,0.2449548989534378,2.0449419023333233,0.45766932687578943,2.7950539743477356
1687022161.627434,0.7746000289916992,-0.45245715975761414,0.4419017434120178,0.014141857624053955,-0.12403517961502075,0.24482005834579468,0.3428570032119751,0.9693078994750977,0.5598604083061218,2.089234801835568,0.4695187366015223,2.7726283719795877
1687022161.724639,0.7301254272460938,-0.47156643867492676,0.4945119321346283,-0.005409300327301025,-0.15399819612503052,0.2513834238052368,0.22970303893089294,1.510401964187622,0.8190813064575195,2.166122493940956,0.49106628103126165,2.738556017787354
1687022161.741009,0.6587029099464417,-0.4961969256401062,0.5655964016914368,0.09141910076141357,-0.12782657146453857,0.245805025100708,0.46685752272605896,2.121119737625122,1.1237643957138062,2.2802918105598313,0.519212908389145,2.6903692903632654
1687022161.7774758,0.5556461811065674,-0.5185997486114502,0.6498549580574036,0.12045538425445557,-0.1153571605682373,0.22773903608322144,0.48408210277557373,2.6379470825195312,1.3258532285690308,2.434185031037795,0.5452124336087917,2.6191419918700287
1687022161.8757591,0.4227633476257324,-0.5413534641265869,0.7267786860466003,0.17826491594314575,-0.09817284345626831,0.18226361274719238,0.28624704480171204,2.993790626525879,1.4707521200180054,2.6147416358411064,0.5720459935159633,2.542265579226458
1687022161.892405,0.26761773228645325,-0.5570929646492004,0.7861478924751282,0.20276489853858948,-0.05273991823196411,0.0350496768951416,0.10941075533628464,3.0270028114318848,1.4767793416976929,2.813480838154097,0.5908811308793662,2.4563853837382776
1687022161.92798,0.10733874142169952,-0.5648092031478882,0.8182108998298645,0.2109137326478958,0.012196898460388184,-0.019245386123657227,0.17548254132270813,2.961151123046875,1.3832145929336548,3.01115042157426,0.6002020377649481,2.3700598805752997
1687022162.0278249,-0.050909921526908875,-0.5590903759002686,0.8275421857833862,0.2862003445625305,0.019280195236206055,-0.023831307888031006,0.20034976303577423,2.942763566970825,1.3078980445861816,-3.080150660234918,0.5932882874495167,2.2891463983969595
1687022162.04315,-0.2038949877023697,-0.5486552715301514,0.8108046054840088,0.2897714078426361,-0.018574953079223633,0.02830660343170166,-0.031074361875653267,2.845111846923828,1.3253543376922607,-2.895228680448974,0.5807549288486406,2.213251931709343
1687022162.077708,-0.35193559527397156,-0.5269283652305603,0.7736201286315918,0.2564917504787445,0.011013388633728027,-0.022933483123779297,0.1630588173866272,2.8328635692596436,1.2669497728347778,-2.714654462394914,0.5549824568659647,2.1429144447899198
1687022162.2064872,-0.49032947421073914,-0.5016055703163147,0.7127193212509155,0.25914353132247925,-0.07821309566497803,0.1499972939491272,-0.29206663370132446,2.985001802444458,1.3044883012771606,-2.538986235899067,0.5254537535184584,2.077907609794403
1687022162.213925,-0.6178740859031677,-0.4781401455402374,0.6241907477378845,0.24200409650802612,0.019476085901260376,-0.09417665004730225,-0.33035510778427124,2.839299440383911,1.2445441484451294,-2.3612800854012304,0.4985358766557291,2.0112492324436824
1687022162.2935572,-0.7272137403488159,-0.44722118973731995,0.5207242965698242,0.20571386814117432,0.03364682197570801,-0.05746746063232422,-0.2085578441619873,2.776688814163208,1.1257580518722534,-2.192215689920202,0.46365609429502486,1.9531722524951238
1687022162.3106232,-0.8116321563720703,-0.40554067492485046,0.420463889837265,0.1936511993408203,-0.02339911460876465,0.06667277216911316,0.0654672235250473,2.424711227416992,1.0930105447769165,-2.0487773668553535,0.41757023583989544,1.9167682280900955
1687022162.379624,-0.8737180829048157,-0.3635711371898651,0.3231610357761383,0.23069727420806885,-0.008606016635894775,-0.2603101432323456,-0.547886848449707,1.8081812858581543,1.001833200454712,-1.9250608312987614,0.37209852344918626,1.8846614162693018
1687022162.384196,-0.9046751260757446,-0.34659484028816223,0.24786098301410675,-0.049807965755462646,0.13759517669677734,-0.42843353748321533,-2.008695602416992,0.6842609643936157,0.4596678614616394,-1.838212044263462,0.3539384699294089,1.809607271706425
1687022162.476519,-0.9080794453620911,-0.36759305000305176,0.20066723227500916,-0.06903254985809326,0.6755001544952393,-0.4176168143749237,-0.9598935842514038,-0.05763515457510948,-0.4490930736064911,-1.7882810330848304,0.37641954052144655,1.7051462690578978
1687022162.4934502,-0.894335925579071,-0.40102219581604004,0.19835498929023743,-0.14240741729736328,0.030538737773895264,-0.020391792058944702,-0.9044985175132751,-0.11237306147813797,-0.709318995475769,-1.789053602503105,0.4126324146292564,1.6837753397032966
1687022162.5281072,-0.8783058524131775,-0.44833093881607056,0.1660664975643158,-0.2398582100868225,-0.0015591681003570557,-0.07098913192749023,-1.9179877042770386,0.3235558867454529,-0.8836338520050049,-1.7576662438762136,0.4648972131776113,1.6222805383006758
1687022162.62586,-0.8588517308235168,-0.5073942542076111,0.070176862180233,-0.33002156019210815,-0.06677865982055664,-0.03834712505340576,-4.158684253692627,0.808314323425293,-1.007185459136963,-1.652325303043437,0.5321581901867775,1.464522422892233
1687022162.641706,-0.8292827606201172,-0.5482191443443298,-0.10837812721729279,-0.2972888946533203,0.1538405418395996,0.08623754978179932,-5.220531463623047,1.2765663862228394,-1.112561821937561,-1.4408438501935366,0.5802333862509582,1.1598353037593228
1687022162.7115479,-0.7815743088722229,-0.550254225730896,-0.29387402534484863,-0.1488608717918396,0.13845008611679077,0.08296698331832886,-4.076523780822754,1.623557448387146,-1.2516114711761475,-1.2111469085473083,0.5826686370373282,0.8771459011926246
1687022162.7264252,-0.7122398018836975,-0.5271219611167908,-0.46352654695510864,-0.08307880163192749,0.07591968774795532,0.18804433941841125,-4.102255821228027,1.8482249975204468,-1.4416497945785522,-0.9938580516108613,0.5552101953598946,0.6361132946974993
1687022162.801155,-0.6203540563583374,-0.4581220746040344,-0.6366199851036072,-0.0434643030166626,0.12042990326881409,0.1570667028427124,-3.843510389328003,2.1643829345703125,-1.5743061304092407,-0.7724583354091882,0.47588138190945395,0.38792680760945997
1687022162.895381,-0.509300708770752,-0.3925503194332123,-0.76584392786026,0.023476123809814453,-0.15243250131607056,0.148686945438385,-2.9396302700042725,2.2450480461120605,-1.4942009449005127,-0.586861002249985,0.4034028653454876,0.21404363831193007
1687022162.9145389,-0.40233471989631653,-0.28429147601127625,-0.8702328205108643,0.12009286880493164,-0.1395670771598816,0.05777859687805176,-3.499586820602417,1.8402892351150513,-1.2252358198165894,-0.43306011314349174,0.2882673382061425,0.06288600505581055
1687022162.980811,-0.31825822591781616,-0.17659027874469757,-0.931411623954773,0.07539930939674377,-0.013534143567085266,0.07002246379852295,-2.4864864349365234,1.2788652181625366,-1.2723116874694824,-0.3292566344763583,0.17752119808248798,-0.04956398061840034
1687022162.996319,-0.25425079464912415,-0.06331221014261246,-0.965063750743866,0.07865262031555176,0.03297783434391022,2.1696090698242188e-05,-2.562436103820801,1.1375445127487183,-1.490436315536499,-0.25760148404206873,0.0633545842670074,-0.15564538092268837
1687022163.071653,-0.20114760100841522,-0.014698660001158714,-0.9794506430625916,0.15500496327877045,0.04915309697389603,0.07703059911727905,-0.6894808411598206,0.91634202003479,-1.6902847290039062,-0.20255150759505183,0.014699188991665777,-0.24758920311074473
1687022163.0767431,-0.15977181494235992,0.015075620263814926,-0.9870388507843018,0.06979069113731384,0.03468337655067444,-0.014914214611053467,-0.9722034931182861,0.8986483812332153,-2.1970925331115723,-0.16047788872110821,-0.01507619104273684,-0.3501564007548038
1687022163.1622949,-0.11198485642671585,0.025030704215168953,-0.9933946132659912,0.21900993585586548,0.07264088094234467,0.1626451015472412,-0.3285394012928009,1.1433168649673462,-2.919626474380493,-0.11225557043451158,-0.025033319204009207,-0.4800459957503323
1687022163.178839,-0.057081978768110275,0.05264507606625557,-0.9969804883003235,0.5592638850212097,-0.059618283063173294,-0.04464542865753174,-0.9417544603347778,0.8359260559082031,-2.0905039310455322,-0.05719241959732145,-0.05266942509891835,-0.6228183747821067
1687022163.2192159,-0.049677472561597824,0.022418899461627007,-0.9985136389732361,0.18178798258304596,-0.06021485850214958,0.03202199935913086,1.707846760749817,-0.19174306094646454,0.6881129145622253,-0.04971043133490886,-0.022420778113850848,-0.6504364358216548
1687022163.3463001,-0.058631643652915955,-0.030643383041024208,-0.9978092312812805,-0.04596743732690811,0.03100965917110443,0.16477090120315552,0.41859135031700134,-0.002818067092448473,0.33470696210861206,-0.0586928843286248,0.030648180199436017,-0.613074870759323
1687022163.368616,-0.05117996782064438,-0.03683483600616455,-0.9980099201202393,0.0006885528564453125,0.07077045738697052,-0.007757842540740967,0.031208720058202744,0.16499783098697662,-0.019606508314609528,-0.05123713751346693,0.036843170883093156,-0.6095697683989606
1687022163.497179,-0.04650977626442909,-0.0373733751475811,-0.9982184767723083,0.026627492159605026,0.04164590314030647,-0.04859548807144165,0.18362240493297577,0.04339985176920891,0.13123320043087006,-0.046559111887275996,0.03738208146061318,-0.6057184619583834
1687022163.5179272,-0.046602606773376465,-0.04853808134794235,-0.9977335333824158,0.029970452189445496,-0.014648493379354477,-0.05985307693481445,0.0624774731695652,-0.039427123963832855,0.09823204576969147,-0.04667454698121674,0.04855716114980598,-0.5995349676810521
1687022163.57862,-0.05052400380373001,-0.04960182309150696,-0.9974903464317322,0.027727290987968445,0.03818831592798233,-0.06581836938858032,0.17266766726970673,-0.13181263208389282,0.08740822225809097,-0.05060787104769682,0.04962218479474528,-0.5938317995459945
1687022163.5938082,-0.05811769887804985,-0.061408497393131256,-0.9964192509651184,0.045010317116975784,-0.013176396489143372,-0.025553405284881592,0.23006509244441986,-0.18657538294792175,0.17466416954994202,-0.05826054552535919,0.06144715765718944,-0.5878448450936402
1687022163.596873,-0.07212471961975098,-0.08690646290779114,-0.9936021566390991,0.07798401266336441,0.01927957683801651,0.010371565818786621,0.8992111682891846,-0.3333818018436432,0.49456295371055603,-0.07246203626360716,0.0870162326599223,-0.5695358584187948
1687022163.668491,-0.09705793857574463,-0.14104324579238892,-0.985234260559082,0.12687352299690247,0.09583151340484619,0.07989978790283203,1.5032273530960083,-0.5187557935714722,0.8885470628738403,-0.09819571249893505,0.1415151089955397,-0.5310247883498211
1687022163.6830401,-0.1291222721338272,-0.22188320755958557,-0.9664860367774963,0.16244739294052124,0.04420994222164154,0.05558210611343384,2.0753672122955322,-0.48709508776664734,1.1626381874084473,-0.1328132709248239,0.22374540411984029,-0.46919906149820134
1687022163.728641,-0.17583799362182617,-0.3233000636100769,-0.9298161864280701,0.2526964545249939,0.06097102165222168,0.06169784069061279,2.896156072616577,-0.6985417008399963,1.5865827798843384,-0.18690329067903075,0.32921475047981685,-0.3808315125148535
1687022163.731687,-0.24302811920642853,-0.4584221839904785,-0.8548604846000671,0.24559155106544495,0.11747992038726807,0.07248133420944214,4.161931991577148,-0.888486385345459,1.7527611255645752,-0.27698218512754963,0.47621904344066196,-0.2505879267568943
1687022163.7888908,-0.32154709100723267,-0.6043328642845154,-0.7289645075798035,0.10696268081665039,0.02399545907974243,0.03346884250640869,4.25027322769165,-0.7668567895889282,1.6552150249481201,-0.415429049462597,0.648928287088319,-0.06856100462468859
1687022163.849349,-0.402010977268219,-0.7203165292739868,-0.5652710199356079,0.02449321746826172,0.08455920219421387,0.09851992130279541,4.446535587310791,-0.8733493685722351,1.4028102159500122,-0.6181917614391459,0.8042585670459613,0.17073353211248046
1687022163.911222,-0.46684154868125916,-0.7991358637809753,-0.37873589992523193,0.006789028644561768,0.12852740287780762,0.06509143114089966,4.821427822113037,-0.5400789976119995,1.1873130798339844,-0.8892193685665623,0.9258563904096904,0.4783897371780549
1687022164.03814,-0.5222887992858887,-0.8374262452125549,-0.16103319823741913,0.10563230514526367,0.05909073352813721,0.14157815277576447,5.154033184051514,-0.41978228092193604,1.1710071563720703,-1.2717221348965058,0.9925569564902292,0.9128109802919496
1687022164.061188,-0.5693252086639404,-0.8220521807670593,0.009950250387191772,-0.049968063831329346,-0.2145688533782959,0.12318265438079834,2.447859287261963,-0.003817284945398569,1.069108009338379,-1.588271818146331,0.9650057709057913,1.2829206673239242
1687022164.1558042,-0.6103419065475464,-0.7861243486404419,0.09742441028356552,0.034063100814819336,0.06684017181396484,0.0009641796350479126,2.4474782943725586,-0.12694568932056427,0.9689745306968689,-1.7290836625527166,0.9045131178893909,1.4556774727819266
1687022164.162894,-0.6449682712554932,-0.742712676525116,0.1799827516078949,-0.09782958030700684,-0.16188931465148926,0.12929761409759521,1.3878947496414185,0.03926600515842438,0.9177354574203491,-1.842930131394025,0.8371124292980909,1.5992753589920146
1687022164.247153,-0.6786984801292419,-0.7008206248283386,0.2195873111486435,-0.07462787628173828,-0.0445406436920166,0.09378227591514587,1.0852090120315552,0.01193540170788765,0.9725785851478577,-1.8837087416358995,0.7765472556198733,1.6545201684982125
1687022164.269222,-0.7095784544944763,-0.65729159116745,0.25390195846557617,-0.15355020761489868,-0.012401401996612549,0.01263841986656189,0.7766871452331543,0.03613119572401047,0.7948030829429626,-1.9144214267585868,0.7172192936292996,1.7010568128243466
1687022164.3305302,-0.7316144108772278,-0.6226100921630859,0.27766335010528564,-0.08738583326339722,0.05013090372085571,0.003006666898727417,1.0762416124343872,0.07647284865379333,0.5759587287902832,-1.9335250801192854,0.6720737380512668,1.7346892300627215
1687022164.345165,-0.7489384412765503,-0.5891426205635071,0.30331897735595703,-0.07010763883590698,-0.056487321853637695,0.0729626715183258,0.6236176490783691,0.09352675825357437,0.5126233696937561,-1.9556043252261333,0.6299973216722136,1.7767213702922335
1687022164.4258552,-0.7664183378219604,-0.5586912631988525,0.31696513295173645,-0.035156309604644775,0.034689247608184814,0.0164850652217865,0.9419998526573181,0.1765490174293518,0.5426125526428223,-1.9629431727530267,0.5928069562267217,1.8032412991754994
1687022164.440446,-0.7825249433517456,-0.5228422284126282,0.33806896209716797,-0.1444770097732544,-0.028152644634246826,-0.06290733814239502,0.6442899703979492,-0.07278969883918762,0.6292573809623718,-1.9786006462396424,0.550181852412942,1.8370162446744647
1687022164.512007,-0.7935103178024292,-0.48999375104904175,0.36089810729026794,-0.2221299409866333,0.07225391268730164,-0.20420566201210022,0.7189542651176453,-0.16119368374347687,0.4453924000263214,-1.9976448008783645,0.5120825973580296,1.8551431882630796
1687022164.526097,-0.7961778044700623,-0.47266021370887756,0.377747505903244,-0.18056780099868774,0.08061614632606506,-0.31237903237342834,0.48266997933387756,0.01859099604189396,-0.17693647742271423,-2.0137967956896943,0.4923070274568202,1.8863168278973643
1687022164.601584,-0.7842235565185547,-0.4805000424385071,0.39257243275642395,0.012128829956054688,0.13229447603225708,-0.230997234582901,-0.08625289052724838,-0.5385724902153015,-0.4520975351333618,-2.0349137635950303,0.5012248058080592,1.9071505461091545
1687022164.6060982,-0.7476640939712524,-0.5103608965873718,0.42488834261894226,0.12126028537750244,0.3674013614654541,-0.32155588269233704,-0.04068925976753235,-1.368760108947754,-1.1045923233032227,-2.087571519879323,0.5356044275936825,1.9192142258716072
1687022164.6943169,-0.6647336483001709,-0.5691214799880981,0.4839732348918915,0.22662323713302612,0.22790443897247314,-0.26874804496765137,-0.4647267758846283,-2.141362428665161,-2.079408884048462,-2.200114484575921,0.605437064909178,1.964518621892376
1687022164.787884,-0.5254356265068054,-0.6759136319160461,0.5167769193649292,0.22497469186782837,0.17759203910827637,-0.2293013334274292,-1.9330339431762695,-2.701765537261963,-2.8334872722625732,-2.347886681213869,0.7422036793663611,2.004729729210786
1687022164.795852,-0.34594371914863586,-0.7744559049606323,0.529661238193512,0.2369348406791687,0.21160495281219482,-0.07133305072784424,-0.44355419278144836,-2.769888401031494,-3.1248464584350586,-2.563012207063354,0.8858546181961786,2.1158766141658445
1687022164.87973,-0.15521997213363647,-0.8007157444953918,0.5785856246948242,0.169151172041893,0.10520470142364502,0.060070931911468506,1.2629265785217285,-2.513688087463379,-2.9264566898345947,-2.879489454660923,0.9284890499796858,2.349940808803307
1687022164.897098,0.0381014421582222,-0.7793439626693726,0.625436544418335,0.19435086846351624,-0.1254105567932129,0.002309858798980713,0.08036192506551743,-3.1619410514831543,-2.6417126655578613,3.080748088520254,0.8936181423655291,2.5798739819842447
1687022164.9622722,0.22686529159545898,-0.7659993767738342,0.6014791131019592,0.25102463364601135,0.010994434356689453,0.054389357566833496,0.33988770842552185,-2.811460494995117,-2.5989277362823486,2.7809129810316695,0.8725944997089398,2.778382999429869
1687022164.9772701,0.4073525369167328,-0.7185940742492676,0.5636369585990906,0.20000824332237244,-0.19594156742095947,0.04120612144470215,-0.3106652498245239,-3.1850106716156006,-2.2815744876861572,2.515779605359411,0.8017785085368534,2.9346496258466757
1687022165.052346,0.5570587515830994,-0.660560667514801,0.5033341646194458,0.29363393783569336,-0.11756139993667603,0.1482924222946167,0.5897939205169678,-2.659404754638672,-1.9884729385375977,2.3055729777226603,0.7215652743073068,3.0301806980851715
1687022165.056933,0.6759124994277954,-0.6039904356002808,0.42230093479156494,0.1690887212753296,-0.01898026466369629,0.044038236141204834,-0.23129068315029144,-2.5286223888397217,-1.837380290031433,2.1292420433002075,0.6484985328721932,3.1051552069600206
1687022165.111486,0.7713367938995361,-0.5425465703010559,0.33268970251083374,0.15040069818496704,-0.057032227516174316,0.12171703577041626,-0.03410978987812996,-2.209414005279541,-1.723593831062317,1.9780042685496408,0.5734657065743552,-3.1209143482774255
1687022165.179975,0.8445421457290649,-0.47554415464401245,0.24618306756019592,0.13479727506637573,-0.042674869298934937,0.07962259650230408,0.11137887835502625,-2.171781539916992,-1.5775238275527954,1.8544357744886466,0.4955825116901684,-3.0924137174527786
1687022165.267715,0.8992525935173035,-0.406882643699646,0.1605970859527588,0.12131619453430176,-0.041405439376831055,0.1893784999847412,0.5912604928016663,-1.8911871910095215,-1.4186185598373413,1.7475227193630816,0.419038835556056,-3.0849101259050262
1687022165.284651,0.9342349767684937,-0.34318527579307556,0.09710351377725601,0.08947718143463135,-0.1039736270904541,0.18622171878814697,0.9335438013076782,-1.5465198755264282,-1.1006840467453003,1.6743635095350147,0.3503060322829605,-3.1218938544295174
1687022165.34974,0.9518774747848511,-0.30124422907829285,0.056402213871479034,-0.00531381368637085,-0.24415072798728943,0.20067787170410156,0.45828303694725037,-0.7156081795692444,-0.529374361038208,1.629980777053393,0.3059972348665931,3.121294183906741
1687022165.3687382,0.9570361375808716,-0.28723618388175964,0.03971119225025177,-0.015218079090118408,-0.17757710814476013,0.1399306058883667,0.14077267050743103,-0.22744843363761902,-0.1196870356798172,1.6122664697379268,0.2913401804817918,3.108464237677786
1687022165.4388928,0.9575340747833252,-0.28627780079841614,0.034257300198078156,-0.01296931505203247,-0.1451188027858734,0.14610159397125244,-0.022605687379837036,-0.03081250563263893,0.10196812450885773,1.6065576601827838,0.290339769964772,3.1078436800579587
1687022165.442775,0.9552657604217529,-0.2933136820793152,0.037873268127441406,0.0007430911064147949,-0.05821835994720459,0.0953817367553711,0.06664536148309708,0.08491195738315582,0.17242911458015442,1.610422412138936,0.29769113053966867,3.101782374656984
1687022165.5002708,0.9519827961921692,-0.3029480278491974,0.04417584091424942,-0.009340524673461914,0.023315340280532837,0.04521012678742409,0.025534633547067642,0.14876249432563782,0.21115167438983917,1.6171670952056805,0.30778453355951474,3.1009748084995423
1687022165.5621018,0.9485873579978943,-0.31194984912872314,0.05356573686003685,-0.020669937133789062,0.05354216694831848,0.00022149085998535156,0.16163237392902374,0.12820465862751007,0.16461439430713654,1.6272053737900758,0.3172446072806499,3.0936258030341595
1687022165.654663,0.9463585019111633,-0.31712090969085693,0.06196971610188484,-0.004997909069061279,0.04224896430969238,0.013149388134479523,0.09066592156887054,0.1097492203116417,0.1029144823551178,1.6361852583716479,0.32269216287274294,3.085066677243081
1687022165.661467,0.9454584717750549,-0.31885772943496704,0.06662037968635559,0.0008763670921325684,0.04690024256706238,-0.012314319610595703,0.020120427012443542,0.05639687553048134,0.04253362864255905,1.641143628016223,0.3245240616687158,3.0821862442808072
1687022165.744584,0.9453358054161072,-0.31856051087379456,0.06971198320388794,0.006217598915100098,0.022814542055130005,0.010503537952899933,-0.01557392068207264,0.07114120572805405,0.0030260314233601093,1.644406178176933,0.3242105038133149,3.081918602034484
1687022165.751173,0.9459941387176514,-0.3161574900150299,0.07169025391340256,0.0027973055839538574,0.006144583225250244,0.013347029685974121,0.017248030751943588,0.0630757287144661,-0.012868513353168964,1.6464347259837284,0.32167649323617314,3.0825133588549436
1687022165.799633,0.9460699558258057,-0.3151533305644989,0.07503346353769302,0.0006462931632995605,-0.013246387243270874,0.015634290874004364,-0.010388835333287716,0.07590488344430923,0.0018041732255369425,1.6499413502208282,0.3206182265103373,3.082886973406376
1687022165.894443,0.9455698132514954,-0.3156813085079193,0.07901306450366974,0.009904980659484863,-0.016380518674850464,0.010769717395305634,-0.0623580701649189,0.10453564673662186,0.030870379880070686,1.654163974776443,0.3211745950447315,3.0854669147683484
1687022165.913028,0.9445450901985168,-0.3175148665904999,0.08377839624881744,0.003574967384338379,-0.017232537269592285,0.01868438720703125,-0.06311645358800888,0.07801446318626404,0.0080215223133564,1.6592619055526536,0.3231075848534507,3.086949839721141
1687022165.980671,0.9441288709640503,-0.3181634545326233,0.08598075807094574,-0.0011815428733825684,0.011309117078781128,0.011004090309143066,0.06585298478603363,0.03417670354247093,-0.002976533956825733,1.6616146900071147,0.32379164797656373,3.08840703686201
1687022166.079324,0.9440647959709167,-0.31771406531333923,0.0883140116930008,-0.006213963031768799,0.00405430793762207,0.0015755817294120789,0.045401327311992645,0.01781761460006237,-0.014545837417244911,1.6640714338455573,0.3233176482250651,3.086176352372747
1687022166.098551,0.9443007707595825,-0.31659430265426636,0.08980079740285873,0.001042187213897705,0.0038653314113616943,0.002087712287902832,3.149290569126606e-05,0.004464613739401102,-0.022758295759558678,1.665608859160267,0.3221369396463414,3.08451058283733
1687022166.15962,0.944537341594696,-0.31577932834625244,0.09018207341432571,-0.0027649402618408203,0.007399082183837891,0.014416933059692383,-0.031425632536411285,0.02087234891951084,-0.0284360870718956,1.6659852878721082,0.32127788332172136,3.0862451099656267
1687022166.164109,0.9449345469474792,-0.31445491313934326,0.09064720571041107,0.006191551685333252,0.0006425678730010986,0.016713619232177734,-0.03386140614748001,0.005360944662243128,-0.036153730005025864,1.6664332891354665,0.3198823870357483,3.088404471812557
1687022166.253469,0.9454247951507568,-0.31245729327201843,0.09242607653141022,-0.00037169456481933594,-0.0010346174240112305,0.03139901161193848,0.018843086436390877,0.0338762067258358,-0.03590991720557213,1.6682480862629858,0.317778750097308,3.08750064343185
1687022166.259511,0.945763111114502,-0.31076714396476746,0.09463649988174438,-0.0025258660316467285,-0.009820103645324707,0.02151346206665039,-0.02697717770934105,0.053199753165245056,-0.03181350976228714,1.6705279874725234,0.3160000282242886,3.0887316358699004
1687022166.3435001,0.9459220170974731,-0.30937719345092773,0.09755731374025345,0.008789896965026855,-0.01795443892478943,0.0076062679290771484,-0.018193982541561127,0.048694390803575516,-0.017257070168852806,1.6735676004086777,0.3145380261732927,3.0891441464781195
1687022166.360667,0.9456099271774292,-0.3094349205493927,0.10035863518714905,0.0035782456398010254,-0.010160475969314575,0.002699248492717743,0.011701642535626888,0.04814373701810837,-0.0005368785932660103,1.6765316307706448,0.3145987237006777,3.0901957377820795
1687022166.398659,0.9451723694801331,-0.31002843379974365,0.10262282192707062,0.0003231167793273926,-0.01777622103691101,-0.0011975914239883423,-0.01863265037536621,0.04852546006441116,0.013386393897235394,1.6789484395273029,0.3152229282342083,3.0899508032909346
1687022166.495789,0.9443860054016113,-0.31152424216270447,0.10529840737581253,-0.0018811821937561035,-0.0027763843536376953,0.005846619606018066,0.05487929284572601,0.0405869334936142,0.039338499307632446,1.6818370188987586,0.31679667850915816,3.088157994979135
1687022166.512385,0.9433918595314026,-0.31376418471336365,0.10753563046455383,0.004300951957702637,0.0024390220642089844,0.006371259689331055,0.020143285393714905,0.036841195076704025,0.04090237617492676,1.684294743471582,0.31915482655959515,3.086819022083979
1687022166.580838,0.9426486492156982,-0.31550824642181396,0.10894229263067245,0.0022367238998413086,0.013689279556274414,0.01177002489566803,0.010818937793374062,0.026772670447826385,0.02155304327607155,1.6858562868790494,0.3209922241578015,3.086453248511316
1687022166.678228,0.9423196315765381,-0.316023051738739,0.11028686910867691,0.005983531475067139,0.00976380705833435,0.007770419120788574,0.046061478555202484,0.003586658276617527,0.007907206192612648,1.6873039344294147,0.3215347792341551,3.084999499187092
1687022166.695997,0.9422768354415894,-0.3158383071422577,0.11117783933877945,0.002760946750640869,0.0022395551204681396,0.005414605140686035,0.015147551894187927,-0.004293547011911869,0.0071542635560035706,1.6882418449161238,0.3213400491133511,3.083130911835181
1687022166.7605572,0.942347526550293,-0.3153974115848541,0.11182722449302673,0.001179516315460205,0.0029126107692718506,0.007542356848716736,0.04811299964785576,0.000799837289378047,-0.006570137105882168,1.6889127150531302,0.3208754169009709,3.0807993914777243
1687022166.765712,0.9422823190689087,-0.3154087960720062,0.11234536021947861,-0.008017182350158691,-0.009115219116210938,0.013387084007263184,-0.08010195940732956,0.026787763461470604,0.007296011317521334,1.6894630174237677,0.3208873991405235,3.0816904237468354
1687022166.8537679,0.9416881203651428,-0.3169819116592407,0.11289937049150467,0.0005116462707519531,-0.013401508331298828,0.025452151894569397,-0.2394094467163086,0.0849810242652893,0.027378441765904427,1.6901172134293168,0.32254559335546057,3.0890159323419404
1687022166.859982,0.93982994556427,-0.322096049785614,0.11390271782875061,0.016087353229522705,0.0016919076442718506,0.00032460689544677734,-0.29249757528305054,0.13751479983329773,0.09767889976501465,1.691403149143467,0.327942697494069,3.105537724000958
1687022166.9453568,0.9374644160270691,-0.32727235555648804,0.11854685842990875,-0.0002085566520690918,-0.018354594707489014,0.01641714572906494,-0.1874324083328247,0.14493303000926971,0.07885980606079102,1.6965834658814358,0.3334155029858194,3.1136723417111574
1687022166.952015,0.9355005621910095,-0.33209556341171265,0.12062904983758926,-0.002715587615966797,0.0038788914680480957,0.0025093555450439453,-0.24835270643234253,0.12097187340259552,0.05620503053069115,1.6990346996378536,0.3385243479139769,3.1262564529039345
1687022167.0007582,0.9341071248054504,-0.3357189893722534,0.12139393389225006,-0.00518268346786499,0.0012920498847961426,0.003300897777080536,-0.24248313903808594,0.09319102019071579,0.04363097995519638,1.7000292275401099,0.34236840723728706,3.138685079054114
