Timestamp,gravityX,gravityY,gravityZ,accelerationX,accelerationY,accelerationZ,rotationRateX,rotationRateY,rotationRateZ,attitudeRoll,attitudePitch,attitudeYaw
1687005542.5127258,-0.8871404528617859,0.3431333303451538,-0.30861198902130127,0.05463612079620361,0.03943502902984619,0.005801469087600708,-0.06701605021953583,-0.0839172750711441,-0.09803174436092377,-1.23601786455647,-0.35025074231482706,-2.2121213718572497
1687005564.9464002,-0.9523413777351379,0.23024475574493408,-0.20008382201194763,-0.03430730104446411,0.0766095519065857,-0.0818679928779602,0.8501989841461182,-0.9443496465682983,0.022234411910176277,-1.3637114811738742,-0.23232919587913348,-1.375275379540152
1687005564.968044,-0.9596134424209595,0.2248668670654297,-0.16904769837856293,-0.0894588828086853,-0.045072510838508606,-0.39267396926879883,-0.2275891751050949,-0.3683805763721466,-0.040204863995313644,-1.3964231316562774,-0.2268064022006155,-1.3374109931473297
1687005565.007008,-0.9597580432891846,0.2289678156375885,-0.16259966790676117,0.007395803928375244,-0.10428817570209503,-0.4112527370452881,-1.5105717182159424,0.4060930907726288,-0.23204752802848816,-1.4029725128813695,-0.23101719261023754,-1.4250198671464858
1687005565.102401,-0.9598569273948669,0.22448162734508514,-0.1681748330593109,0.03618133068084717,-0.057306304574012756,-0.21628551185131073,-0.7639937996864319,0.3672879934310913,-0.145049586892128,-1.3973486303679725,-0.22641104722011746,-1.464321252585513
1687005565.119845,-0.9581325054168701,0.22069750726222992,-0.18241453170776367,-0.13192498683929443,-0.027963712811470032,-0.10167348384857178,-1.099752426147461,0.6740195751190186,-0.35050493478775024,-1.3826623445429571,-0.22252955988661194,-1.51633627939037
1687005565.1567678,-0.9542989134788513,0.21302929520606995,-0.20960035920143127,-0.09477341175079346,-0.09669625759124756,-0.04686927795410156,-1.9692320823669434,1.0847556591033936,-0.5612921118736267,-1.3545912829978286,-0.2146743874025238,-1.592409410168529
1687005565.2543712,-0.9460071325302124,0.21823479235172272,-0.2396751493215561,-0.05861634016036987,-0.03703664243221283,-0.06868958473205566,-3.440153121948242,1.4166139364242554,-0.4302341938018799,-1.3226630003502224,-0.22000529560196422,-1.730941280992255
1687005565.2715778,-0.9289011359214783,0.2634512782096863,-0.26026156544685364,-0.08063560724258423,-0.06072300672531128,0.07790389657020569,-5.059544563293457,1.652765154838562,-0.014387516304850578,-1.297618684170096,-0.2665981179284059,-1.954030761923067
1687005565.308704,-0.9035434722900391,0.3350222110748291,-0.2671509385108948,-0.04193699359893799,-0.008728265762329102,0.08857744932174683,-4.471423625946045,1.6540521383285522,0.46006354689598083,-1.2833164894023008,-0.34162881466875533,-2.18594432995318
1687005565.436213,-0.8728644847869873,0.41467511653900146,-0.25720104575157166,-0.050307631492614746,0.03536766767501831,0.12696737051010132,-3.450737953186035,1.2863960266113281,0.6666526198387146,-1.2842428393970904,-0.42758573211859735,-2.3842317472159014
1687005565.4553351,-0.8418272137641907,0.4870254695415497,-0.23266540467739105,-0.008331477642059326,-0.14205476641654968,0.1305995136499405,-3.330965757369995,0.9945160150527954,0.7754966020584106,-1.3011462733826669,-0.5086807738081389,-2.550384210067979
1687005565.519397,-0.8148824572563171,0.5454936027526855,-0.1959674209356308,-0.021283864974975586,-0.11337995529174805,0.06333819031715393,-2.4794154167175293,0.7806647419929504,0.6587325930595398,-1.3347923367421857,-0.5769779339698305,-2.698223932378478
1687005565.534466,-0.7912073135375977,0.59523606300354,-0.14030389487743378,-0.03223329782485962,-0.18546128273010254,0.13021792471408844,-3.0803351402282715,0.6279115676879883,0.5146570801734924,-1.395291890484318,-0.637559379118428,-2.866556459298954
1687005565.677343,-0.77556312084198,0.6254523396492004,-0.0855076014995575,-0.02498936653137207,-0.14884406328201294,0.07151538133621216,-2.3075718879699707,0.4933386743068695,0.3796476721763611,-1.4609875469430316,-0.6757111287220924,-3.019297375672365
1687005565.6967869,-0.7657455801963806,0.6423945426940918,-0.031033936887979507,-0.042710959911346436,-0.1352229118347168,0.02444225549697876,-1.8858342170715332,0.36527517437934875,0.08975386619567871,-1.5302907549969063,-0.6976187075215147,3.121542133366287
1687005565.760282,-0.7656040191650391,0.6432311534881592,0.01021460723131895,-0.0025540590286254883,-0.11834406852722168,0.01641213893890381,-1.5290744304656982,0.3373883068561554,-0.08649219572544098,-1.5841374285380172,-0.698710865312218,3.012296907238257
1687005565.775557,-0.7722778916358948,0.633966863155365,0.04090752452611923,-0.005386531352996826,-0.07367926836013794,0.007310394197702408,-1.3333361148834229,0.3958298861980438,-0.2453363686800003,-1.623716824508046,-0.6866718562607657,2.922005281789728
1687005565.7787561,-0.7821611166000366,0.6195945143699646,0.06577996909618378,-0.00734400749206543,-0.0128440260887146,0.019089579582214355,-1.1737605333328247,0.3613009452819824,-0.32088321447372437,-1.6546991683061691,-0.6682259978016337,2.842059452406379
1687005565.916018,-0.7939507365226746,0.6026775240898132,0.08014005422592163,-0.00010150671005249023,0.025557339191436768,-0.025086164474487305,-0.8292495012283325,0.4330626428127289,-0.3771340250968933,-1.671393919606949,-0.6468522663064282,2.783544811539915
1687005565.9240441,-0.806881308555603,0.5851581692695618,0.08082548528909683,0.03718209266662598,0.09903067350387573,0.0325932502746582,-0.3674386143684387,0.38802817463874817,-0.3361784815788269,-1.6706335253224045,-0.6250750966790688,2.749018128040736
1687005566.016011,-0.8158257603645325,0.5735307335853577,0.07410180568695068,0.01766890287399292,0.11439651250839233,0.03916430473327637,-0.1615520566701889,0.2437816709280014,-0.19627229869365692,-1.6613782001731907,-0.6108094286974829,2.737276693224966
1687005566.021068,-0.8189587593078613,0.5689103007316589,0.07515115290880203,0.05638545751571655,0.12463212013244629,0.04897915571928024,-0.1544821560382843,-0.0005391107406467199,0.0010162743274122477,-1.6623043240095507,-0.6051802532151096,2.7252501733246213
1687005566.025607,-0.8163619041442871,0.5721539258956909,0.07869785279035568,0.030488431453704834,0.11406433582305908,0.0276101753115654,0.1092153936624527,-0.16219884157180786,0.15635466575622559,-1.6669000537767027,-0.6091296953296201,2.7249782874575277
1687005566.0587358,-0.809345006942749,0.5813629627227783,0.08353675156831741,0.013705730438232422,0.08948981761932373,0.02663183957338333,0.17230910062789917,-0.23101580142974854,0.25988298654556274,-1.6736473813284427,-0.6204027912288158,2.730500692803304
1687005566.120724,-0.800534725189209,0.5936431884765625,0.08204768598079681,0.01228100061416626,0.052062928676605225,-0.013627186417579651,0.5037642121315002,-0.22743502259254456,0.26829665899276733,-1.6729308017339721,-0.6355785179542437,2.7518050665505536
1687005566.214889,-0.7913970351219177,0.606371283531189,0.07749107480049133,-0.003585994243621826,0.010755181312561035,-0.0015021562576293945,0.5366304516792297,-0.23669669032096863,0.27272793650627136,-1.668401995007449,-0.6514892292632782,2.7788462917214303
1687005566.2229428,-0.7823995351791382,0.6192938089370728,0.06577793508768082,0.004735112190246582,0.02137702703475952,-0.032467834651470184,0.9822251796722412,-0.24859072268009186,0.24773503839969635,-1.654671135929827,-0.6678429876682384,2.821164762766542
1687005566.305058,-0.7747702598571777,0.6314584016799927,0.03148644417524338,5.1021575927734375e-05,0.0002554655075073242,-0.024360541254281998,1.7417646646499634,-0.22531914710998535,0.19601158797740936,-1.6114136918222777,-0.6834325595085997,2.9084272979479855
1687005566.322375,-0.7703474164009094,0.6365758180618286,-0.03655628114938736,0.023444831371307373,0.07100480794906616,-0.0181768536567688,3.091620922088623,-0.21838942170143127,0.11443383991718292,-1.5233776196031223,-0.6900500871838845,3.065036129602359
1687005566.3923879,-0.7677674293518066,0.6313548684120178,-0.10919829457998276,-0.004098415374755859,-0.06233936548233032,0.005957439541816711,2.220747947692871,-0.250099241733551,0.06745435297489166,-1.4295155483641808,-0.6832990546139839,-3.0524226930543397
1687005566.407351,-0.76822429895401,0.6088916659355164,-0.19769327342510223,0.012746274471282959,0.17495238780975342,-0.0053858160972595215,4.705434799194336,-0.34652847051620483,0.04489997401833534,-1.3189233494079362,-0.6546626176728658,-2.8512058006127288
1687005566.445386,-0.772600531578064,0.5332176089286804,-0.34462666511535645,-0.0040108561515808105,0.038758158683776855,0.13716822862625122,5.9196577072143555,-0.5643720030784607,0.053633544594049454,-1.151223235644234,-0.562399427654777,-2.523738101236765
1687005566.539809,-0.7864570021629333,0.41048088669776917,-0.4615093767642975,-0.007503628730773926,0.16741523146629333,0.10663583874702454,7.022511005401611,-0.8833082318305969,0.2023707628250122,-1.0401237288086316,-0.4229813706868664,-2.20678473416543
1687005566.556175,-0.8058874011039734,0.24544721841812134,-0.5387961268424988,0.007318615913391113,0.040105774998664856,0.25479966402053833,6.97507381439209,-1.1455656290054321,0.32660549879074097,-0.9814737531922058,-0.24798099609256302,-1.8838494601139957
1687005566.599194,-0.835682213306427,0.06633344292640686,-0.5451927185058594,-0.012004613876342773,0.029827460646629333,0.2332422137260437,7.129514217376709,-1.213966965675354,0.3585839867591858,-0.9927411014554438,-0.06638218394448879,-1.5765695043324177
1687005566.7575378,-0.8701099157333374,-0.10003595799207687,-0.48259884119033813,-0.026389777660369873,0.04005368798971176,0.1011902391910553,6.987127780914307,-1.2620612382888794,0.41045132279396057,-1.0643967662769425,0.10020355872972284,-1.270931804960721
1687005566.776025,-0.900898277759552,-0.21576224267482758,-0.3766019642353058,0.03276461362838745,-0.08858954906463623,0.22869861125946045,5.557967662811279,-1.265559196472168,0.5942663550376892,-1.1748446245797488,0.2174723956947019,-0.9696233607022215
1687005566.847886,-0.9296062588691711,-0.2583915889263153,-0.26280465722084045,-0.11053973436355591,0.006011217832565308,0.10284686088562012,4.436440467834473,-1.0792946815490723,1.153546929359436,-1.2952807161594517,0.26135688413772623,-0.7115314172106734
1687005566.853775,-0.9572070837020874,-0.23700883984565735,-0.16607718169689178,-0.11072516441345215,0.11658649146556854,-0.018584609031677246,4.166110038757324,-0.8681967258453369,1.610510230064392,-1.3990046792889619,0.23928580308202713,-0.4986817341337167
1687005566.857462,-0.9820010662078857,-0.1660234034061432,-0.0900559276342392,-0.07296109199523926,-0.045982152223587036,0.14640671014785767,2.571118116378784,-0.7467634677886963,2.231060743331909,-1.479345574829553,0.16679572810723767,-0.3009728506156574
1687005566.897402,-0.99701327085495,-0.05951729416847229,-0.049220010638237,-0.1182517409324646,0.06504102051258087,-0.04996204376220703,1.9365429878234863,-0.4454631507396698,2.3987414836883545,-1.5214689163214985,0.05955248903331878,-0.19052727653589913
1687005566.992091,-0.9979409575462341,0.058368977159261703,-0.026587629690766335,-0.09515291452407837,0.03893636539578438,-0.07309794425964355,1.7072631120681763,-0.359722763299942,2.476459264755249,-1.5441601401824339,-0.05840216958056314,-0.09768290417825534
1687005567.009707,-0.9835084080696106,0.17839708924293518,-0.02976500429213047,-0.08477473258972168,-0.006186351180076599,-0.022053778171539307,1.7357550859451294,-0.0015126732178032398,2.462938070297241,-1.5405414546777279,-0.1793571708095104,-0.014592626964477728
1687005567.0464668,-0.9557410478591919,0.2892066538333893,-0.05402844399213791,-0.10640817880630493,-0.17841249704360962,-0.032290466129779816,0.9728878140449524,0.2794248163700104,2.2675390243530273,-1.5143260069737754,-0.2933979763408059,0.07739252938515917
1687005567.144489,-0.9167380928993225,0.38966527581214905,-0.08804916590452194,-0.14673858880996704,0.06457376480102539,-0.12355966120958328,1.3301879167556763,0.47889432311058044,2.18875789642334,-1.4750438930590475,-0.4002681153497232,0.1314666656506765
1687005567.160939,-0.8678212761878967,0.4786445200443268,-0.13336285948753357,-0.1014779806137085,-0.150305837392807,-0.035017773509025574,0.1710539013147354,0.7541097402572632,2.122614860534668,-1.4183137180213978,-0.4991102472247107,0.19911573516398073
1687005567.229495,-0.8083006143569946,0.5628495812416077,-0.1727730631828308,-0.10290849208831787,-0.16883713006973267,0.03996063768863678,0.26158031821250916,0.7384271025657654,1.9565083980560303,-1.3602166430679223,-0.5978293119769661,0.23997952021242747
1687005567.2443209,-0.7439281940460205,0.6385701298713684,-0.1969747394323349,-0.11805605888366699,-0.06999707221984863,-0.11316004395484924,-0.49612995982170105,0.8118993639945984,1.8197535276412964,-1.3119593871888302,-0.6926387962374406,0.25761507157153785
1687005567.285252,-0.6805040836334229,0.6995596885681152,-0.2180148959159851,-0.08606696128845215,-0.17404693365097046,-0.013231977820396423,-0.06084142252802849,0.8649706244468689,1.4898338317871094,-1.260755368277174,-0.7747811141815891,0.2714688165266496
1687005567.416475,-0.6165885925292969,0.7498250603675842,-0.2399602234363556,-0.046237945556640625,-0.10958147048950195,-0.12177985906600952,-0.43718603253364563,0.9736156463623047,1.3484022617340088,-1.199657461664436,-0.8477976167885197,0.2904263561398646
1687005567.424179,-0.5549108982086182,0.7908419966697693,-0.2581527829170227,-0.07309502363204956,-0.03283113241195679,-0.19286641478538513,0.0694008618593216,1.219089388847351,1.2839395999908447,-1.1353620282609336,-0.9121835623135165,0.3014062730605978
1687005567.505227,-0.4913264811038971,0.8227071762084961,-0.28592148423194885,0.03217434883117676,-0.24484163522720337,0.020494908094406128,-0.25192081928253174,1.1362301111221313,1.0911272764205933,-1.0437636933755727,-0.9661570319060556,0.3433829131220294
1687005567.523188,-0.4361984431743622,0.8425121903419495,-0.3160766363143921,-0.0009048581123352051,-0.16688328981399536,0.04533997178077698,0.42075711488723755,0.9610331654548645,0.6658523678779602,-0.9437394779000475,-1.0019299282338616,0.39860531812393096
1687005567.591991,-0.4007698893547058,0.8513203263282776,-0.3385815918445587,-0.02433997392654419,-0.05146974325180054,-0.017039716243743896,0.2816043198108673,0.7187697887420654,0.4943496882915497,-0.8693125730287867,-1.018496760584088,0.43747528325846124
1687005567.608057,-0.37354975938796997,0.8504334092140198,-0.3704371750354767,-0.05850282311439514,-0.1710205078125,0.11572226881980896,0.2609719932079315,0.37011051177978516,0.21250341832637787,-0.7895818097709388,-1.016808617655228,0.49685106417974095
1687005567.680948,-0.3695613145828247,0.8471120595932007,-0.38187140226364136,-0.055456966161727905,-0.009755432605743408,0.34509778022766113,0.23404859006404877,-0.6131821870803833,0.1391887366771698,-0.7690175016112459,-1.010527066741304,0.5335203082862622
1687005567.750227,-0.37585580348968506,0.8473817110061646,-0.3750688433647156,0.028047025203704834,0.13452136516571045,-0.019340217113494873,0.03722517564892769,-0.11055145412683487,-0.005344352684915066,-0.7864461588398767,-1.0110346715349554,0.5333819171610612
1687005567.756901,-0.3748384118080139,0.8477514386177063,-0.375251442193985,0.06410849094390869,-0.002948582172393799,0.10564398765563965,-0.04488655924797058,0.12742124497890472,-0.05010556802153587,-0.7848475297540038,-1.0117313761130104,0.5338802672038282
1687005567.866133,-0.37327757477760315,0.8480527997016907,-0.37612542510032654,0.008684098720550537,-0.0077054500579833984,-0.048084110021591187,-0.0984613224864006,0.24988387525081635,-0.03277018666267395,-0.7815980005010891,-1.0122997938150564,0.5259900176885618
1687005567.874332,-0.3728017508983612,0.8472258448600769,-0.3784540891647339,-0.01616007089614868,-0.020092487335205078,0.06938731670379639,-0.030390528962016106,0.0025808715727180243,-0.0553639754652977,-0.7778744473966362,-1.010741278858431,0.5221008506664048
1687005567.955894,-0.37440043687820435,0.850556492805481,-0.36929407715797424,0.005671799182891846,-0.0009469985961914062,-0.10186678171157837,-0.11400827765464783,-0.024055711925029755,0.030962254852056503,-0.7922642719572122,-1.0170426152527146,0.5089449257406649
1687005567.974395,-0.37177830934524536,0.8490959405899048,-0.3752560317516327,0.004636585712432861,0.00855487585067749,0.018276751041412354,0.19851908087730408,0.010843595489859581,0.07526793330907822,-0.7807428099503233,-1.0142714958834753,0.5212951044039839
1687005568.041798,-0.36943691968917847,0.8481510877609253,-0.3796793222427368,-0.02604040503501892,-0.0018832087516784668,-0.0004934072494506836,0.056523729115724564,0.03723019361495972,0.011485027149319649,-0.7717263641572341,-1.0124853765677648,0.5305182574147206
1687005568.056328,-0.36965489387512207,0.8476232886314392,-0.3806442618370056,-0.013523787260055542,0.007341980934143066,0.012159854173660278,-0.004443839192390442,0.02255653217434883,-0.05558881536126137,-0.7707525591489841,-1.011489828118906,0.5301127730565632
1687005568.1313,-0.37097784876823425,0.8473829030990601,-0.37989193201065063,0.006948947906494141,0.007246732711791992,-0.00736081600189209,-0.08779177069664001,0.027246803045272827,-0.022058751434087753,-0.7735270662537929,-1.0110369978813014,0.5254386367077908
1687005568.136977,-0.3723745346069336,0.8481897115707397,-0.37671157717704773,-0.002961188554763794,0.004486739635467529,-0.004452943801879883,-0.04287733882665634,0.012179880402982235,-0.03987616300582886,-0.7796084326395752,-1.0125582834370757,0.5171668484830432
1687005568.189911,-0.37335366010665894,0.8479666113853455,-0.3762442171573639,0.010759085416793823,-0.019292235374450684,-0.001837998628616333,-0.0012412549695000052,-0.021460460498929024,-0.038732536137104034,-0.7815420324591342,-1.0121371771756307,0.5148728841856614
1687005568.285698,-0.37597864866256714,0.847338855266571,-0.3750426471233368,-0.020475178956985474,0.022137463092803955,-0.03158876299858093,-0.04713311046361923,-0.032057181000709534,-0.051847539842128754,-0.7866444585147222,-1.0109539955097007,0.5101718848472153
1687005568.303814,-0.37900084257125854,0.8464373350143433,-0.374035120010376,-0.014385998249053955,-0.034974873065948486,-0.003497779369354248,-0.11360499262809753,-0.023433417081832886,-0.07461849600076675,-0.7919923183567077,-1.009258735740489,0.5056486042602623
1687005568.339099,-0.38192933797836304,0.846930980682373,-0.3699161112308502,0.010286271572113037,0.014916002750396729,-0.005495846271514893,-0.005488330963999033,-0.04342115297913551,-0.044433631002902985,-0.8013751404471171,-1.010186459422855,0.4960403125076816
1687005568.435447,-0.3848932981491089,0.8474004864692688,-0.3657456636428833,0.002523273229598999,-0.0026889443397521973,0.0010301172733306885,-0.12001171708106995,-0.030177786946296692,-0.03597996011376381,-0.8109010997229468,-1.01107007678462,0.48668934222625576
1687005568.452929,-0.3861461877822876,0.8482472896575928,-0.36244693398475647,-0.0013049840927124023,-0.015758216381072998,0.005910128355026245,-0.06616512686014175,-0.026651227846741676,-0.030067142099142075,-0.8170459839549914,-1.0126669225028806,0.4813908633633416
1687005568.4876962,-0.3881981074810028,0.8499382138252258,-0.3562406599521637,0.0021507441997528076,-0.003914594650268555,0.037209928035736084,-0.21861286461353302,-0.028620101511478424,-0.04553431645035744,-0.8283000743554946,-1.0158680019632886,0.4690711032225792
1687005568.6150532,-0.3910582363605499,0.8538167476654053,-0.3436140716075897,-0.008844107389450073,0.006016135215759277,-0.02021646499633789,-0.3924185633659363,0.0011346859391778708,-0.08485296368598938,-0.8498872900896859,-1.023273591321957,0.444689573315398
1687005568.623173,-0.39714500308036804,0.8598385453224182,-0.32086408138275146,-0.025706619024276733,-0.04974925518035889,0.03755417466163635,-0.6775045394897461,0.03596581518650055,-0.23856742680072784,-0.8912406301235337,-1.0349533928784522,0.3953520984192551
1687005568.737146,-0.4165210425853729,0.861683189868927,-0.2898487150669098,-0.0073833465576171875,-0.240467369556427,0.07418110966682434,-0.9013307094573975,-0.012519696727395058,-0.786139726638794,-0.9628407234758661,-1.0385773731627412,0.31109361063400753
1687005568.7554579,-0.4721220135688782,0.8511965274810791,-0.2292719930410385,0.0187070369720459,-0.461669921875,0.1397944986820221,-1.7328869104385376,-0.32663705945014954,-1.67954683303833,-1.1187185820590189,-1.018260850845717,0.13971960206213563
1687005568.825632,-0.5639600157737732,0.8113429546356201,-0.15385667979717255,0.023310601711273193,-0.39578497409820557,0.17857599258422852,-1.974108338356018,-0.8427294492721558,-2.481477975845337,-1.3044627680044378,-0.9464458285463551,-0.04714928472084917
1687005568.841325,-0.6781089901924133,0.7343482375144958,-0.03001253865659237,-0.0654364824295044,-0.21609872579574585,0.01663065515458584,-2.3406732082366943,-0.5864377617835999,-3.158290147781372,-1.5265660256827671,-0.8247059783756564,-0.2841179564643404
1687005568.844895,-0.7912591695785522,0.6090766191482544,0.054170556366443634,-0.15860038995742798,-0.1422339677810669,-0.21936215460300446,-2.6995651721954346,0.06921298801898956,-3.5393056869506836,-1.6391508743232632,-0.6548958179926678,-0.4244348177413343
1687005568.875677,-0.88960200548172,0.44263309240341187,0.11262534558773041,-0.1634986400604248,0.016778558492660522,0.004913203418254852,-3.2336513996124268,0.7685061097145081,-3.915761709213257,-1.6967283157552364,-0.4585329792189432,-0.5811233664509013
1687005568.974464,-0.9607677459716797,0.25099071860313416,0.11802282929420471,-0.30737513303756714,0.1657574474811554,-0.14710591733455658,-3.4786031246185303,1.7616891860961914,-3.5320816040039062,-1.6930261647851312,-0.2537036017470125,-0.7370897183444896
1687005568.989421,-0.9964646697044373,0.06898632645606995,0.04795278236269951,-0.3341781497001648,0.17967097461223602,0.08777427673339844,-4.442637920379639,2.3325161933898926,-2.9834353923797607,-1.6188821458974825,-0.06904116428980363,-0.9119756461415661
1687005569.058053,-0.9942494034767151,-0.03925519064068794,-0.09963607788085938,-0.3739604949951172,0.41575056314468384,0.018734097480773926,-4.438987731933594,3.624631881713867,-1.7060807943344116,-1.4709174225336015,0.03926527930792724,-1.1355617799685416
1687005569.157583,-0.9591251015663147,-0.03831129148602486,-0.28037768602371216,-0.1528441309928894,0.07384902238845825,0.3957494795322418,-6.840399265289307,3.1788086891174316,-0.34309956431388855,-1.2863942189380868,0.038320668085144,-1.419201875871087
1687005569.175229,-0.9075832366943359,0.10527458786964417,-0.4064602255821228,-0.04558753967285156,-0.007755666971206665,0.32590925693511963,-8.02688217163086,2.6622283458709717,0.6823022961616516,-1.149732622655151,-0.10547001910354989,-1.7626085222440442
1687005569.2759042,-0.8531099557876587,0.29887476563453674,-0.4276415705680847,0.031591951847076416,0.003203481435775757,0.28129467368125916,-7.060794830322266,1.7552956342697144,0.7335180044174194,-1.1061302853565458,-0.3035133179740146,-2.0958980581579305
1687005569.29741,-0.8113282322883606,0.4572314918041229,-0.3642611801624298,0.009661734104156494,-0.08500850200653076,0.10036048293113708,-6.007466793060303,1.2382419109344482,0.5178906917572021,-1.1488001517728337,-0.47487972912265203,-2.3970388921622634
1687005569.35891,-0.7903571128845215,0.5500567555427551,-0.2697649598121643,-0.07972949743270874,0.031013190746307373,0.024068087339401245,-4.3750152587890625,0.6916903853416443,0.11777424812316895,-1.2418747726797696,-0.5824321632424043,-2.6689948880027323
1687005569.373829,-0.7810612320899963,0.5985729694366455,-0.17791590094566345,-0.019277632236480713,0.029417812824249268,0.015455663204193115,-3.495579719543457,0.4293881952762604,-0.034005891531705856,-1.3468303839033358,-0.6417184989326815,-2.903942639308304
1687005569.450811,-0.7809415459632874,0.6148545145988464,-0.10992813110351562,-0.07838767766952515,0.014677345752716064,-0.06321322172880173,-2.0324552059173584,0.28540652990341187,-0.17004814743995667,-1.4309515648038722,-0.6622014577876115,-3.072256820652571
1687005569.4565458,-0.7873223423957825,0.61226487159729,-0.07249609380960464,0.003661215305328369,0.047708332538604736,-0.07635331898927689,-0.913209080696106,0.06796209514141083,-0.24802464246749878,-1.4789759426689901,-0.6589219975103482,3.118416913007559
1687005569.544102,-0.7915741205215454,0.6088390946388245,-0.052209172397851944,0.006875395774841309,0.025758802890777588,-0.09192527085542679,-0.6411356925964355,0.006648140028119087,-0.08854616433382034,-1.5049355808480818,-0.6545963451488935,3.0719814328814468
1687005569.5616179,-0.7938075065612793,0.6065470576286316,-0.04439069703221321,0.011336743831634521,0.03471881151199341,-0.11347663402557373,-0.13426534831523895,0.0555293932557106,-0.03853785991668701,-1.5149332734998533,-0.6517103121058776,3.0548269128578753
1687005569.6288738,-0.7934640645980835,0.6077825427055359,-0.031865525990724564,-0.005867719650268555,-0.011270642280578613,-0.06516498327255249,-0.6660913228988647,0.12537948787212372,0.015350938774645329,-1.530657885914043,-0.6532651834508514,3.0210478641648093
1687005569.645561,-0.7941058278083801,0.6069909334182739,-0.03095216117799282,-0.0006177425384521484,0.016513705253601074,-0.07296007871627808,0.12112211436033249,0.20787321031093597,-0.05542762950062752,-1.5318386738090688,-0.6522687261190268,3.0057613423211436
1687005569.718771,-0.7959617376327515,0.6038872003555298,-0.04201638326048851,-0.01678246259689331,-0.035237908363342285,0.006722927093505859,0.03187195584177971,0.18709248304367065,-0.09798294305801392,-1.5180583389657782,-0.648369048599257,3.01209170052694
1687005569.7239761,-0.7981690168380737,0.6005568504333496,-0.04751689359545708,0.0029723644256591797,-0.00959920883178711,-0.013548672199249268,-0.03787112608551979,0.16942861676216125,-0.07753605395555496,-1.5113341370207118,-0.6441973725947221,3.009237666091345
1687005569.780847,-0.8007665872573853,0.5965162515640259,-0.054235685616731644,0.0050054192543029785,-0.008061051368713379,0.02638852596282959,0.033316854387521744,0.12412523478269577,-0.07594681531190872,-1.5031699052844438,-0.6391535238441313,3.0112327996517005
1687005569.8770308,-0.8025500774383545,0.5938013195991516,-0.0575668141245842,-0.01251363754272461,-0.01593559980392456,0.02137308567762375,-0.14531955122947693,0.12840396165847778,-0.09219516068696976,-1.4991890966952028,-0.63577505453388,3.0074439874802366
1687005569.896747,-0.8048225045204163,0.5905390381813049,-0.059366557747125626,0.00864940881729126,0.027365565299987793,0.04329914599657059,0.07973428815603256,0.07167001068592072,-0.07992098480463028,-1.4971661344676397,-0.6317266556895533,3.0033235289918174
1687005569.9290729,-0.8072671294212341,0.5866331458091736,-0.06466368585824966,-0.0013113617897033691,0.00014352798461914062,0.012036271393299103,0.09644339978694916,0.0630718246102333,-0.0790509358048439,-1.4908650254281994,-0.6268952097800405,3.010184432550484
1687005570.021724,-0.8088589906692505,0.5843352675437927,-0.06557238101959229,0.0020809173583984375,0.027465879917144775,0.029348134994506836,0.026789845898747444,0.004162877798080444,-0.04487205669283867,-1.4899054728195176,-0.6240607229007785,3.011470574676391
1687005570.038024,-0.8098790049552917,0.5832510590553284,-0.0625673159956932,0.0056032538414001465,0.011445105075836182,0.00357692688703537,-0.1483558565378189,-0.0005692930426448584,-0.03221618011593819,-1.4936943357025467,-0.6227252813202447,3.0059058468581537
1687005570.077234,-0.810182511806488,0.5831897854804993,-0.05911286547780037,0.006151020526885986,0.022919893264770508,0.010971486568450928,-0.0339738130569458,-0.019274894148111343,-0.0038186279125511646,-1.4979629833414674,-0.6226498374440691,3.0006163267077497
1687005570.20746,-0.8097347617149353,0.5841106176376343,-0.056076809763908386,0.00014907121658325195,0.020640969276428223,-0.011733174324035645,-0.04174163192510605,-0.038274504244327545,0.02763969451189041,-1.501653416412615,-0.6237839078756363,2.9964573346781274
1687005570.225368,-0.8082612156867981,0.5861943960189819,-0.0555863194167614,0.003939926624298096,0.021502017974853516,-0.0027326829731464386,0.10793152451515198,-0.053455498069524765,0.04757058992981911,-1.5021317269239187,-0.6263535571728812,2.999880638559997
1687005570.3593678,-0.8063071966171265,0.5889884829521179,-0.05442032590508461,-0.008573353290557861,-0.02346712350845337,-0.007606573402881622,-0.17306290566921234,-0.004591642878949642,0.06857674568891525,-1.5034052421231816,-0.6298065770424436,2.9997987137936617
1687005570.377661,-0.8047965168952942,0.5914164781570435,-0.0502912700176239,-0.003003835678100586,0.005568325519561768,-0.014146503061056137,-0.057816118001937866,0.01135794073343277,0.034541547298431396,-1.5083880489056134,-0.6328143658337342,2.9906208011191846
1687005570.411119,-0.8040922284126282,0.5924072265625,-0.04989708214998245,-0.003799736499786377,-0.018508851528167725,-0.005751609802246094,-0.09801728278398514,0.004021552857011557,0.04510996490716934,-1.5088218627739631,-0.6340435293791671,2.988330364329023
1687005570.4235492,-0.8031063675880432,0.5939071178436279,-0.04790324717760086,-0.003656446933746338,-0.00781702995300293,-0.011255025863647461,0.00758512644097209,-0.00940699316561222,0.03086005710065365,-1.5112194652471256,-0.6359065959725237,2.9842388035344745
1687005570.426296,-0.8029811978340149,0.5940486192703247,-0.04824548214673996,-0.007718384265899658,-0.025399327278137207,-0.0032833218574523926,-0.05508318170905113,0.013041323982179165,0.006905256304889917,-1.5107855136310047,-0.6360824489570253,2.984362924133712
1687005570.5304499,-0.8032599091529846,0.5937430262565613,-0.04735776036977768,-0.0005273222923278809,-0.007347762584686279,-0.006902389228343964,-0.005787226837128401,0.00444792490452528,-0.005492092110216618,-1.511907535993188,-0.635702585118097,2.9816664025439366
1687005570.594767,-0.803767204284668,0.5929691195487976,-0.04843868687748909,-0.0037128329277038574,-0.003354191780090332,-0.0024797990918159485,0.0625978633761406,-0.002785131800919771,0.0017989773768931627,-1.5106045535128743,-0.6347411855837132,2.9841207793683773
1687005570.6106892,-0.8037911653518677,0.5929405689239502,-0.04838856682181358,-0.0047110915184021,0.005875349044799805,0.0027954578399658203,-0.015129772946238518,-0.012059502303600311,0.0028474638238549232,-1.5106684746051282,-0.6347057504729119,2.984546876589679
1687005570.614362,-0.8039248585700989,0.5927073955535889,-0.04901966080069542,0.0072176456451416016,0.008473634719848633,8.586794137954712e-06,0.014084172435104847,0.015252812765538692,-0.0010992742609232664,-1.5098963033440704,-0.6344161602654139,2.985216044854977
1687005570.648922,-0.8036478161811829,0.5929939150810242,-0.050087712705135345,-0.01254504919052124,0.023568034172058105,-0.0005102828145027161,0.055978137999773026,0.0015275024343281984,0.027188222855329514,-1.508551385582525,-0.6347719967008751,2.986705931522123
1687005570.8072062,-0.8026434183120728,0.5941830277442932,-0.05206134542822838,0.007889211177825928,0.011651992797851562,0.00024258345365524292,0.07673849910497665,-0.021154195070266724,0.04707704484462738,-1.5060246994185353,-0.6362495753209289,2.9917196347511545
1687005570.864297,-0.8006506562232971,0.5968900918960571,-0.0517786368727684,0.005347192287445068,0.02046525478363037,0.0009364485740661621,0.07298295199871063,-0.0460706427693367,0.0821932852268219,-1.50621556090655,-0.6396193692967854,2.994198582073025
1687005570.880381,-0.7980031371116638,0.6002036333084106,-0.054286058992147446,0.006041288375854492,0.025681495666503906,0.005046062171459198,0.2830982506275177,-0.11585505306720734,0.1027485579252243,-1.5028735986101724,-0.6437556470122634,3.0059424206551624
1687005570.884073,-0.7937842011451721,0.6053659915924072,-0.058642011135816574,0.016364097595214844,0.021846532821655273,0.00487012043595314,0.29888471961021423,-0.15614059567451477,0.19574660062789917,-1.497053767669161,-0.6502255977791839,3.0271697173399446
1687005570.917357,-0.7879597544670105,0.6128554940223694,-0.0593939907848835,-0.015430808067321777,-0.009675562381744385,0.0029823780059814453,0.15112417936325073,-0.1125943660736084,0.181244358420372,-1.495561663475971,-0.6596692252760977,3.0413339658308884
1687005571.013581,-0.7842516303062439,0.6171503067016602,-0.06383664160966873,-0.013477921485900879,0.016776084899902344,-0.022207550704479218,0.5291409492492676,-0.11113690584897995,0.09598252922296524,-1.4895772225556652,-0.6651158317605499,3.0601361010725623
1687005571.03017,-0.7816488146781921,0.6183311343193054,-0.08180428296327591,0.012025952339172363,0.00337296724319458,0.00276387482881546,0.9325265884399414,-0.16049708425998688,0.07648313045501709,-1.4665198718890708,-0.6666174434332085,3.1069400414776815
1687005571.066711,-0.7814874649047852,0.6112764477729797,-0.12497428059577942,0.022377848625183105,0.12242716550827026,-0.04365050792694092,2.7598729133605957,-0.2998366951942444,0.05603698268532753,-1.412220554243294,-0.6576724791016915,-3.068666361365608
1687005571.195887,-0.7828699946403503,0.5794849991798401,-0.22652149200439453,0.00012451410293579102,0.1881237030029297,-0.018183648586273193,5.186228275299072,-0.5475039482116699,0.11981968581676483,-1.2891408714843509,-0.6180966023063121,-2.8286177116858724
1687005571.2146258,-0.7909132838249207,0.48586660623550415,-0.3720077872276306,0.027912795543670654,0.25468817353248596,0.07337811589241028,7.911924362182617,-1.0242847204208374,0.1765817105770111,-1.1311470291563854,-0.5073543896094685,-2.4637965168420917
1687005571.284752,-0.8079637289047241,0.3180752098560333,-0.49600687623023987,-0.040730178356170654,0.11689186096191406,0.25000476837158203,8.668542861938477,-1.3284660577774048,0.5417295694351196,-1.0202207558786613,-0.32369856407013636,-2.052778225863299
1687005571.291038,-0.8395176529884338,0.10824444144964218,-0.5324410200119019,-0.09029203653335571,0.1350722312927246,0.2594308853149414,9.47630786895752,-1.435971975326538,0.7969754338264465,-1.0055925191778263,-0.10845694175626269,-1.6447679008208806
1687005571.37321,-0.8785984516143799,-0.08484500646591187,-0.469963937997818,-0.03789025545120239,-0.05678702890872955,0.41265204548835754,8.818327903747559,-1.712683081626892,1.0754992961883545,-1.079618623298402,0.08494713295544849,-1.2255914894608848
1687005571.389389,-0.921924352645874,-0.19227206707000732,-0.33628416061401367,-0.13030654191970825,0.11547461152076721,0.3301655054092407,7.800925254821777,-1.4954824447631836,1.8322741985321045,-1.2210303622063015,0.19347688562838739,-0.8046941713578069
1687005571.4587321,-0.9614824056625366,-0.17991043627262115,-0.20780758559703827,-0.06058192253112793,0.12575700879096985,0.20609867572784424,5.393104076385498,-1.4237635135650635,2.4040749073028564,-1.3579379695367144,0.18089540219674569,-0.46704891364262496
1687005571.47368,-0.989920973777771,-0.090514175593853,-0.10892241448163986,-0.04714280366897583,0.08615019917488098,0.13849399983882904,3.98466157913208,-1.1335808038711548,2.796091318130493,-1.4612057521011361,0.09063823070859821,-0.21024537973626337
1687005571.51703,-0.9974144101142883,0.041661523282527924,-0.058560438454151154,-0.09757179021835327,0.12154653668403625,0.02772253006696701,3.1050729751586914,-0.6795632839202881,3.1287050247192383,-1.5121514053233787,-0.04167358384737571,-0.023610652447341902
1687005571.5766702,-0.9815101027488708,0.18398478627204895,-0.05279981344938278,-0.10882198810577393,-0.07192417979240417,-0.030131638050079346,1.692318081855774,0.019520172849297523,2.9387264251708984,-1.5170536620204533,-0.18503891492180582,0.11206220236561573
1687005571.674974,-0.9439854025840759,0.3179596960544586,-0.08827917277812958,-0.15054279565811157,0.05543816089630127,-0.06342368572950363,1.8065115213394165,0.4914056956768036,2.7834877967834473,-1.4775499998981085,-0.32357671667694526,0.20099326884125926
1687005571.693291,-0.8898608684539795,0.43516361713409424,-0.13704219460487366,-0.16485726833343506,-0.14687925577163696,-0.08335566520690918,-0.03845653310418129,0.9805469512939453,2.6431517601013184,-1.417992731875687,-0.45021999897587095,0.2648284514455718
1687005571.7588282,-0.8204654455184937,0.5426026582717896,-0.18005190789699554,-0.16403156518936157,-0.20336925983428955,-0.08120903372764587,-0.37127694487571716,1.2687078714370728,2.256883144378662,-1.354769806262632,-0.5735324574666615,0.2813938908257888
1687005571.773744,-0.7438206076622009,0.6340746283531189,-0.21137773990631104,-0.12539637088775635,-0.12333232164382935,-0.14157328009605408,-0.5815526843070984,1.4400126934051514,2.082958459854126,-1.2939172292753287,-0.6868112645141927,0.2679490189422742
1687005571.852262,-0.6649879217147827,0.7015293836593628,-0.2562183439731598,-0.10576409101486206,-0.354025661945343,-0.014487802982330322,-0.5327382683753967,1.454310655593872,1.6609760522842407,-1.2030281968183225,-0.7775413463960474,0.29710939149151444
1687005571.858128,-0.5872803926467896,0.7564897537231445,-0.28779318928718567,-0.09077441692352295,-0.1133623719215393,-0.037661463022232056,0.11129207909107208,1.286975383758545,1.4428260326385498,-1.1151452580487216,-0.8579290391037896,0.3206380494053919
1687005571.907123,-0.5228834748268127,0.7909611463546753,-0.31776300072669983,-0.08058631420135498,-0.1395024061203003,-0.0853741466999054,0.020733019337058067,1.228253960609436,1.063369631767273,-1.024724910891435,-0.9123782760390963,0.3553313642373151
1687005572.038134,-0.47337186336517334,0.8069271445274353,-0.35325315594673157,-0.04187166690826416,-0.348232626914978,0.15704044699668884,-0.012035579420626163,0.9801061749458313,0.4780135154724121,-0.9297003411246335,-0.9389309874191321,0.4075630833208291
1687005572.05672,-0.44421619176864624,0.8156865239143372,-0.37057748436927795,-0.04888686537742615,-0.016507327556610107,-0.030057251453399658,0.2910943031311035,0.8448386192321777,0.29785439372062683,-0.8755304189268763,-0.9539149382684956,0.41800376836546654
1687005572.125437,-0.4233461022377014,0.8109567761421204,-0.4038904011249542,-0.04320669174194336,-0.18378984928131104,0.010686635971069336,-0.013179229572415352,0.6580103039741516,0.020620401948690414,-0.808912737853875,-0.945785504529449,0.4553760737347476
1687005572.141376,-0.4112897515296936,0.8094784021377563,-0.41902926564216614,-0.0058245062828063965,0.13853496313095093,0.331245481967926,0.5025407671928406,-0.16221944987773895,0.3322553336620331,-0.7760773212137423,-0.9432632464624189,0.4769045859190364
1687005572.209053,-0.41199788451194763,0.8064441680908203,-0.42415285110473633,-0.03172767162322998,-0.07870668172836304,0.0014997422695159912,-0.15261977910995483,-0.23592810332775116,0.05955808237195015,-0.7708623656982626,-0.938113703234199,0.5070249985739059
1687005572.223856,-0.41248300671577454,0.8096076250076294,-0.41760411858558655,-0.004356563091278076,0.0759819746017456,0.024202078580856323,-0.11499018967151642,0.11797332763671875,-0.03870164602994919,-0.7792288625198511,-0.9434833416303485,0.49763280768330337
1687005572.270073,-0.4136873185634613,0.8090653419494629,-0.41746386885643005,0.03031027317047119,-0.02613687515258789,0.07171505689620972,-0.18576374650001526,0.11877725273370743,-0.11685576289892197,-0.7808544139217236,-0.9425600353130782,0.487388234571223
1687005572.401592,-0.4138984978199005,0.8109039068222046,-0.4136701226234436,-0.0023459792137145996,0.020883262157440186,-0.04728257656097412,-0.07139641791582108,0.1596706211566925,-0.08414602279663086,-0.7856741283386282,-0.9456951330473169,0.47128048593394534
1687005572.409893,-0.4141868054866791,0.8107136487960815,-0.4137546122074127,-0.004621177911758423,-0.021849393844604492,-0.020403683185577393,-0.0838274359703064,0.08875268697738647,-0.06429494917392731,-0.7859201789552274,-0.9453700433084324,0.4629947848294468
1687005572.482857,-0.414849191904068,0.8110160827636719,-0.4124962389469147,0.009041696786880493,-0.0112723708152771,-0.0036414265632629395,-0.027399355545639992,-0.042284514755010605,-0.007943332195281982,-0.7882421328130153,-0.9458868737774373,0.45850299651536053
1687005572.500619,-0.41568049788475037,0.8098856210708618,-0.41387805342674255,0.001114487648010254,-0.014643311500549316,-0.03363165259361267,0.021877113729715347,-0.007149963639676571,-0.0070612928830087185,-0.787570947356798,-0.9439571201723795,0.4605000324406622
1687005572.605959,-0.41592109203338623,0.8098540306091309,-0.41369831562042236,0.015332043170928955,-0.005715668201446533,0.020845532417297363,-0.004013383761048317,-0.07258418947458267,0.011780771426856518,-0.7880774374358507,-0.9439032160547474,0.4620249891042947
1687005572.6230268,-0.41627755761146545,0.8101776838302612,-0.4127049744129181,-0.011090666055679321,0.01810014247894287,-0.008925855159759521,-0.009009430184960365,-0.014501621015369892,0.0028053191490471363,-0.7897077058164221,-0.9444551643381516,0.4614186438898923
1687005572.660866,-0.4178769290447235,0.810340404510498,-0.4107646048069,-0.007309317588806152,-0.02599269151687622,0.029874742031097412,-0.10071933269500732,-0.07967866957187653,-0.06644225865602493,-0.7939810484868117,-0.9447328196661251,0.45833706203012414
1687005572.6735911,-0.42131251096725464,0.812044620513916,-0.40383103489875793,0.01649683713912964,0.0015693306922912598,0.014716684818267822,-0.1711897999048233,-0.044684819877147675,-0.061567410826683044,-0.8065809708606752,-0.9476471075710671,0.44547845627630744
1687005572.782634,-0.42503875494003296,0.8135569095611572,-0.39682143926620483,-0.011240541934967041,0.02746182680130005,-0.006407260894775391,-0.09754630923271179,0.019020209088921547,-0.08527194708585739,-0.8197181453769471,-0.9502431718777223,0.4305596278998784
1687005572.799008,-0.42663317918777466,0.8157608509063721,-0.3905360996723175,-0.021975219249725342,0.005131542682647705,-0.0017062723636627197,-0.2182769477367401,0.006817162036895752,-0.047621436417102814,-0.829542782145626,-0.9540433950962781,0.4172592722210254
1687005572.8687,-0.4286019504070282,0.8169103860855103,-0.3859504759311676,-0.006822824478149414,0.07286012172698975,-0.03554299473762512,0.17097312211990356,-0.006096151191741228,0.04113473370671272,-0.8377122628336776,-0.9560337434193699,0.40774494596362365
1687005572.874402,-0.42587602138519287,0.8178113102912903,-0.38705870509147644,0.019809097051620483,-0.04306149482727051,-0.03562498092651367,-0.10187065601348877,0.08430325239896774,0.07121752947568893,-0.8331115401421082,-0.9575975083161418,0.4122112976439255
1687005572.964971,-0.42134544253349304,0.8177803754806519,-0.39205023646354675,0.014652937650680542,-0.04693681001663208,0.02446606755256653,0.15279410779476166,0.06672772020101547,0.04124751687049866,-0.8213985347624038,-0.9575437356692209,0.419873297827837
1687005572.982033,-0.42089277505874634,0.817441999912262,-0.3932401239871979,-0.007512956857681274,-0.012647688388824463,0.04538556933403015,-0.011136318556964397,-0.11131595820188522,0.03859833627939224,-0.8193508769960461,-0.9569560685517267,0.4238575569205595
1687005573.082869,-0.4233826696872711,0.8193989396095276,-0.38643571734428406,-0.015719473361968994,-0.0014972686767578125,0.016104966402053833,-0.20633909106254578,-0.0692734345793724,-0.03458186611533165,-0.8309902949772752,-0.9603616597913056,0.41549441002053905
1687005573.1002378,-0.4253309667110443,0.8171112537384033,-0.3891308307647705,-0.01702132821083069,0.038250744342803955,0.014298737049102783,0.32421931624412537,-0.005512563977390528,-0.14102934300899506,-0.8298156302674933,-0.9563820540536119,0.4172155960619584
1687005573.16958,-0.44003817439079285,0.808740496635437,-0.390263170003891,-0.030130892992019653,-0.17009902000427246,0.09717237949371338,-0.21863877773284912,-0.20358890295028687,-0.5591272711753845,-0.8452746475263918,-0.942007552405967,0.40328121132077777
1687005573.1760669,-0.4875253140926361,0.793632447719574,-0.3639599084854126,0.0002969205379486084,-0.3590315580368042,0.19513672590255737,-0.6803146004676819,-0.613441526889801,-1.4735780954360962,-0.929509643571103,-0.9167564866975814,0.3221524494113659
1687005573.2961168,-0.579497754573822,0.7575185298919678,-0.3005799949169159,0.053817152976989746,-0.514522135257721,0.3032808005809784,-1.3389389514923096,-1.3589645624160767,-2.524460792541504,-1.0923083371397602,-0.8595035249895169,0.1751913406655174
1687005573.314513,-0.7069528698921204,0.6866658329963684,-0.16943404078483582,-0.061418771743774414,-0.40550726652145386,0.08154350519180298,-3.2986350059509277,-1.4104784727096558,-3.532137155532837,-1.3355651999011064,-0.7568926947875134,-0.059242885880894006
1687005573.4169579,-0.8333682417869568,0.5506607294082642,-0.04764833673834801,-0.1721097230911255,0.025572240352630615,-0.019139286130666733,-1.1495908498764038,-1.0120720863342285,-4.157257556915283,-1.5136828981022348,-0.583155557185378,-0.248879379960772
1687005573.434298,-0.9328936338424683,0.3600213825702667,0.009721456095576286,-0.35050803422927856,-0.06831899285316467,-0.26286470890045166,-2.2957732677459717,-0.18915757536888123,-4.457437515258789,-1.5812167047116883,-0.36829081275281456,-0.3232638282182484
1687005573.532144,-0.9888832569122314,0.1430635303258896,0.04053311422467232,-0.43470078706741333,0.1422911435365677,0.017130013555288315,-5.039158821105957,0.7655548453330994,-4.172156810760498,-1.6117621708234497,-0.14355609749141626,-0.5086537332732997
1687005573.551347,-0.9987516403198242,-0.04096658527851105,-0.0285844374448061,-0.39004236459732056,0.46264326572418213,-0.012019095942378044,-5.4648518562316895,2.4009463787078857,-3.1373889446258545,-1.5421839702297764,0.04097805180603255,-0.7757083120021562
1687005573.555532,-0.9744240641593933,-0.12635564804077148,-0.18582835793495178,-0.31689679622650146,0.2512640953063965,0.25769734382629395,-6.848084926605225,2.801640748977661,-1.326908826828003,-1.3823532321516925,0.12669431720537178,-1.0869303735519316
1687005573.618778,-0.9314647912979126,-0.0528385229408741,-0.35997459292411804,-0.07163286209106445,0.12205241620540619,0.3730056881904602,-7.747435092926025,2.8093583583831787,-0.032070305198431015,-1.2020158976669493,0.052863141724198925,-1.4491172841910216
1687005573.624529,-0.8806980848312378,0.12049537152051926,-0.45809584856033325,0.017233669757843018,0.07753320038318634,0.3393673002719879,-7.606997966766357,2.111314058303833,0.645000696182251,-1.0911583087914047,-0.12078887494121894,-1.7872951505489605
1687005573.712632,-0.832081139087677,0.3187018632888794,-0.4539496600627899,0.01796358823776245,-0.002432912588119507,0.2648475766181946,-6.301962375640869,1.329240083694458,0.6062794327735901,-1.0713688067472409,-0.324359615424528,-2.095847506452952
1687005573.728156,-0.7990301251411438,0.460664838552475,-0.3864439129829407,-0.03889113664627075,-0.1696797013282776,0.11509698629379272,-5.897167682647705,0.9947916269302368,0.40994545817375183,-1.1203211649878382,-0.4787441030021379,-2.3612557347575995
1687005573.811738,-0.7824695110321045,0.5578957200050354,-0.2765750586986542,-0.04524350166320801,0.017116427421569824,0.04795277118682861,-4.5462565422058105,0.47454431653022766,0.00905848853290081,-1.231038574363236,-0.5918480563808348,-2.645002826531729
1687005573.8282151,-0.7805002927780151,0.5978702902793884,-0.18267621099948883,-0.006548106670379639,-0.06192058324813843,-0.03187750279903412,-3.19441294670105,0.34085842967033386,-0.2525902986526489,-1.3408846952418774,-0.6408416210500795,-2.8723186739481976
1687005573.8899689,-0.7881418466567993,0.6054282188415527,-0.11085673421621323,-0.046681761741638184,-0.038243770599365234,-0.04897896945476532,-2.6770174503326416,0.3366655707359314,-0.4070131778717041,-1.431057233628834,-0.6503037527936705,-3.050448402993506
1687005573.905387,-0.8011354804039001,0.5962372422218323,-0.05179890990257263,-0.01685774326324463,0.08256518840789795,-0.0718582272529602,-1.8519867658615112,0.13960352540016174,-0.43246710300445557,-1.5062293333540184,-0.6388059461659334,3.086954991919901
1687005573.9466171,-0.8108407855033875,0.5847949981689453,-0.023495925590395927,0.032718777656555176,0.1458720564842224,-0.15603888034820557,-0.40120095014572144,0.03152596950531006,-0.24343660473823547,-1.5418271960134293,-0.6246273209501568,3.0202952662355647
1687005574.045599,-0.8144227266311646,0.5799837708473206,-0.01828591339290142,-0.00833117961883545,0.07272613048553467,-0.09090590476989746,-0.06633903086185455,0.022089680656790733,-0.07390143722295761,-1.5483474931017158,-0.6187087749847947,3.0073461653972537
1687005574.063884,-0.8160774111747742,0.5774365663528442,-0.024184666574001312,0.0009680986404418945,0.05514705181121826,-0.05284160375595093,0.17396487295627594,0.13154497742652893,-0.05429172143340111,-1.5411697384678538,-0.6155853784458029,3.0122307659536434
1687005574.095986,-0.8168671131134033,0.5754841566085815,-0.03932248428463936,-0.011425793170928955,0.04190170764923096,-0.02780085802078247,0.16293831169605255,0.2437700629234314,-0.025856085121631622,-1.5226952939943257,-0.6131960434731878,3.0277064188793013
1687005574.194535,-0.8156344890594482,0.576871931552887,-0.04426313936710358,0.0009067058563232422,0.0005053877830505371,0.020306948572397232,-0.4850631654262543,0.23285624384880066,0.08742586523294449,-1.5165811567632188,-0.6148939536328868,3.018473211597288
1687005574.210716,-0.8126525282859802,0.5816540718078613,-0.03569921851158142,-0.01155102252960205,0.014750897884368896,0.010659698396921158,-0.5750747323036194,0.23487909138202667,0.06893793493509293,-1.5268952989469295,-0.6207606752506979,2.980060202707718
1687005574.248845,-0.8098812103271484,0.5855579376220703,-0.03484812378883362,-0.0003758072853088379,-0.007967054843902588,0.02294636145234108,-0.28780025243759155,0.1829010248184204,0.08366002142429352,-1.5277941646783417,-0.6255681844371543,2.960281530359825
1687005574.40593,-0.8067718148231506,0.5900803208351135,-0.030408820137381554,-0.009146273136138916,-0.01494598388671875,0.025648176670074463,-0.31552374362945557,0.09887358546257019,0.11368483304977417,-1.5331221900952177,-0.6311582934723104,2.939552360455802
1687005574.41384,-0.8040798306465149,0.5939834713935852,-0.02529158815741539,-0.001660764217376709,-0.01678919792175293,0.02260619029402733,-0.25415220856666565,0.04666905850172043,0.0716189369559288,-1.539352616594537,-0.6360014563650878,2.9234220049882804
1687005574.528868,-0.8018665909767151,0.5973082780838013,-0.015261960215866566,-0.0037822723388671875,-0.04062187671661377,0.02339494228363037,-0.5036991834640503,0.039665210992097855,0.044682130217552185,-1.551765582939283,-0.6401406674685542,2.897977447593008
1687005574.5481029,-0.8011828064918518,0.5983729958534241,-0.0074791270308196545,0.0015916824340820312,0.0018467307090759277,-0.000882565975189209,-0.09751590341329575,0.003993944730609655,0.018895139917731285,-1.5614614917302516,-0.6414689048585799,2.879589367432939
1687005574.5519009,-0.8010417819023132,0.5985947251319885,-0.004090788774192333,0.014451086521148682,-0.02544403076171875,0.00906527042388916,-0.1352711319923401,-0.054368965327739716,0.005418945569545031,-1.5656895358038705,-0.6417456364400942,2.8737843967322254
1687005574.6120129,-0.8005599975585938,0.5992516279220581,0.0011510730255395174,0.00066375732421875,-0.009316325187683105,-0.024527430534362793,-0.043967679142951965,-0.06756643950939178,0.02615724690258503,-1.5722341604946513,-0.6425659352541746,2.8689860710303825
1687005574.6260638,-0.8005269765853882,0.5992757081985474,0.005051662679761648,-0.005289793014526367,-0.002336561679840088,-0.018799662590026855,-0.0926792100071907,-0.01202310435473919,0.008594232611358166,-1.5771066647248138,-0.6425960275296745,2.8637777362279717
1687005574.70338,-0.8006882071495056,0.5990583300590515,0.005287176929414272,-0.0016191601753234863,-0.0014477968215942383,-0.0254744291305542,-0.05364884436130524,0.04436986520886421,-0.01004756148904562,-1.5773995212528793,-0.6423245555389728,2.8608310614652064
1687005574.708909,-0.8010224103927612,0.5986136794090271,0.004967293236404657,-0.0024443864822387695,0.004184722900390625,-0.00565385865047574,-0.08942925930023193,0.04738527163863182,0.006907519418746233,-1.5769974386416548,-0.6417693585264097,2.855944249310111
1687005574.828889,-0.8007420301437378,0.5989928245544434,0.0045008729211986065,0.0008150339126586914,0.002493441104888916,-0.005263685714453459,-0.06203132122755051,0.03461514785885811,0.019726179540157318,-1.5764171453334581,-0.6422427558025317,2.8527701039407285
1687005574.8466048,-0.7998560070991516,0.6001810431480408,0.0036426919978111982,0.0030419230461120605,0.013420641422271729,0.011051654815673828,0.07926405966281891,0.0026463852263987064,0.031446151435375214,-1.5753504799286697,-0.6437274627322154,2.85257752595003
1687005574.9095368,-0.7987572550773621,0.6016496419906616,0.0021571042016148567,0.0010429620742797852,-0.0039476752281188965,0.010477304458618164,-0.012813976965844631,-0.007575182244181633,0.04732678085565567,-1.5734968956581048,-0.6455647712672463,2.8563582572413626
1687005574.924741,-0.7971675992012024,0.6037298440933228,0.005857846699655056,-0.007733583450317383,0.0014948248863220215,0.011750936508178711,-0.10395205765962601,-0.005383488722145557,0.0402211993932724,-1.5781445193950143,-0.6481715755548021,2.849397365401932
1687005575.0030298,-0.7964387536048889,0.60468989610672,0.005970550701022148,0.006887912750244141,-0.005294084548950195,0.008723735809326172,0.02909356914460659,-0.01296293456107378,0.028101487085223198,-1.5782927457654596,-0.6493764221793902,2.8502666942379573
1687005575.017939,-0.7949321269989014,0.6066351532936096,0.008765405975282192,-0.010518372058868408,-0.0007239580154418945,0.01505362894386053,-0.08226766437292099,-0.05772871896624565,0.05878962576389313,-1.581822488522904,-0.6518211142994376,2.84717191849013
1687005575.0894089,-0.7935746312141418,0.6084135174751282,0.008518272079527378,0.011012256145477295,0.012680232524871826,-0.004505157470703125,0.22399088740348816,-0.061104901134967804,0.03652559965848923,-1.5815299678052483,-0.6540600305068827,2.8527331593084058
1687005575.094715,-0.7913942337036133,0.6112717986106873,0.006484220270067453,0.008603096008300781,0.012553274631500244,0.021988749504089355,0.08873328566551208,-0.13490331172943115,0.12710022926330566,-1.578989557313049,-0.6576665585979768,2.8642680473420605
1687005575.149451,-0.7858344912528992,0.6182965636253357,0.013172532431781292,0.01145094633102417,0.02870655059814453,0.011028049513697624,0.013028405606746674,-0.21917051076889038,0.1995411515235901,-1.5875572341591349,-0.6665734812381111,2.8648165482275663
1687005575.246599,-0.7794165015220642,0.6263326406478882,0.014742243103682995,-0.006014406681060791,0.06983429193496704,-0.022142650559544563,0.6903355717658997,-0.26766541600227356,0.18452678620815277,-1.5897085332240737,-0.6768398639077698,2.881521309626103
1687005575.2639608,-0.7745389342308044,0.6323267817497253,-0.01589393801987171,0.025576412677764893,0.11292779445648193,-0.010412096977233887,2.128740072250366,-0.36723217368125916,0.12247585505247116,-1.5502786910277886,-0.6845529739057218,2.9684605271980233
1687005575.365783,-0.7716130614280701,0.6289784908294678,-0.09486541152000427,0.007071375846862793,0.15594887733459473,-0.0023024678230285645,3.9630560874938965,-0.5684862732887268,0.21595515310764313,-1.4484659436253409,-0.6802385601803738,-3.117488639535902
1687005575.386097,-0.7657254338264465,0.6084457039833069,-0.20846733450889587,0.015069246292114258,0.13038486242294312,0.07715030014514923,5.1431708335876465,-0.8623731136322021,0.44383704662323,-1.3049902711670607,-0.6541005561893249,-2.83118575544204
1687005575.449497,-0.7675321698188782,0.5401971340179443,-0.3450821340084076,-0.06431609392166138,0.20162421464920044,0.034871041774749756,7.649962902069092,-1.2640401124954224,0.5612487196922302,-1.1482754404713145,-0.5706713562430785,-2.464320926954912
1687005575.464243,-0.7792847156524658,0.38039630651474,-0.49801018834114075,-0.035336315631866455,0.1620689332485199,0.3228698968887329,9.576263427734375,-1.4928146600723267,0.660192608833313,-1.0021498191509546,-0.39022478982075015,-2.013090070132857
1687005575.5423641,-0.8172784447669983,0.1393633782863617,-0.5591367483139038,-0.00852733850479126,0.05352300405502319,0.4010710120201111,9.940601348876953,-1.807271122932434,0.6858869194984436,-0.9707909262984042,-0.13981848596355756,-1.5778301565795028
1687005575.556707,-0.8647724390029907,-0.09086131304502487,-0.4938754141330719,-0.09090083837509155,0.05221082270145416,0.47034648060798645,9.662047386169434,-1.757903814315796,1.124847650527954,-1.0518945516150513,0.09098680071935987,-1.135248081704241
1687005575.635642,-0.9136313199996948,-0.20558889210224152,-0.35072922706604004,-0.14873135089874268,0.1382366567850113,0.3967346251010895,7.71568489074707,-1.541069507598877,2.170775890350342,-1.2042590180786605,0.2070654188027682,-0.6977647542079896
1687005575.651351,-0.9604692459106445,-0.17549185454845428,-0.21610505878925323,-0.14176464080810547,0.12280328571796417,0.2510172724723816,5.127758979797363,-1.5071604251861572,2.9769341945648193,-1.349482407058285,0.1764053474529893,-0.3529793974363336
1687005575.686399,-0.9903870224952698,-0.05825820565223694,-0.1254577338695526,-0.114898681640625,0.11799640208482742,0.11343389749526978,3.7242867946624756,-1.1428468227386475,3.2307064533233643,-1.4447919909716673,0.05829121220516371,-0.11613935650666855
1687005575.782251,-0.9924940466880798,0.08498121798038483,-0.0879439190030098,-0.08817934989929199,-0.01846809685230255,0.04152672737836838,2.4510960578918457,-0.568166196346283,3.1905133724212646,-1.482418132510778,-0.08508384030290345,0.05785587853056018
1687005575.797721,-0.9696366190910339,0.2280942052602768,-0.08819243311882019,-0.12179404497146606,-0.020315244793891907,-0.08420132845640182,1.3636807203292847,0.07923499494791031,2.9730286598205566,-1.4800917921088894,-0.23011983977161515,0.15934606183643776
1687005575.8366442,-0.927600085735321,0.3522019386291504,-0.1245468333363533,-0.14487916231155396,-0.08767551183700562,-0.11803732812404633,1.174359679222107,0.5845513343811035,2.6562063694000244,-1.4373267497351951,-0.35992274236479466,0.24732831263950955
1687005575.932252,-0.8698456883430481,0.4658862054347992,-0.1622311919927597,-0.15787971019744873,-0.18382740020751953,-0.11499042809009552,-0.3717734217643738,0.9567997455596924,2.460667610168457,-1.3864090618167881,-0.48463589061614487,0.2820272315853183
1687005575.9482841,-0.7980585694313049,0.5673835277557373,-0.2029256969690323,-0.22334963083267212,-0.13145512342453003,-0.18188565969467163,-0.5630432963371277,1.318163275718689,2.2918756008148193,-1.3217989450412322,-0.6033249519698766,0.29465277919415656
1687005575.985855,-0.71514892578125,0.6572352647781372,-0.23791588842868805,-0.1568603515625,-0.20139414072036743,-0.18177706003189087,-0.5430619716644287,1.6262180805206299,2.1181252002716064,-1.2496337084535205,-0.7171446033810541,0.29249321483219426
1687005576.115361,-0.6322227120399475,0.7272800803184509,-0.2671299874782562,-0.09960407018661499,-0.3965304493904114,0.029932141304016113,-1.1411912441253662,1.493196725845337,1.6026231050491333,-1.171023788009074,-0.8143506299461638,0.2925332448520217
1687005576.136164,-0.5592178106307983,0.7780082821846008,-0.2863192856311798,-0.10807955265045166,-0.06552958488464355,-0.12550008296966553,0.15727218985557556,1.3461544513702393,1.1216880083084106,-1.0975952025131275,-0.8914893436292795,0.2940835603044082
1687005576.197242,-0.5087419152259827,0.8005696535110474,-0.3166542649269104,-0.053208768367767334,-0.32769978046417236,0.16545501351356506,-0.11266583204269409,0.9697040319442749,0.5989440083503723,-1.014050000410125,-0.9282452374817718,0.3256165346296155
1687005576.211781,-0.47723230719566345,0.8151643872261047,-0.32826265692710876,-0.05378878116607666,-0.014596760272979736,-0.02661094069480896,0.0978270024061203,0.7416510581970215,0.40808382630348206,-0.9682735780062325,-0.953012948394062,0.3280036236949997
1687005576.29265,-0.4592128098011017,0.8129534721374512,-0.3580928444862366,-0.06633040308952332,-0.17161118984222412,0.06693994998931885,0.35310325026512146,0.4532884955406189,0.06656645238399506,-0.9084961631758373,-0.9492061187541433,0.36720168014091714
1687005576.3078341,-0.4478749930858612,0.8048093318939209,-0.3894740641117096,0.0845021903514862,0.16564971208572388,0.16652792692184448,1.1001795530319214,-0.17818064987659454,0.3077804744243622,-0.8550304273150026,-0.9353542057458389,0.42010631068135285
1687005576.380434,-0.44221827387809753,0.7976722717285156,-0.41007548570632935,-0.02538725733757019,-0.024250030517578125,0.0908922553062439,0.32852035760879517,-0.2545883357524872,0.2139422595500946,-0.8230935560033035,-0.9234256428069251,0.4778888873471095
1687005576.395392,-0.4386267066001892,0.7975382208824158,-0.41417333483695984,0.03718319535255432,0.04035252332687378,0.015201807022094727,0.23813511431217194,-0.0910043865442276,0.12686042487621307,-0.81406453882573,-0.9232033649349953,0.49974027242401947
1687005576.508686,-0.43722808361053467,0.7928329110145569,-0.4245559275150299,-0.007168889045715332,0.02035379409790039,0.035350024700164795,0.16223427653312683,0.06113783270120621,-0.010378725826740265,-0.8001016707906323,-0.9154434768507749,0.5171523817217439
1687005576.5259829,-0.43562042713165283,0.7919787764549255,-0.4277903735637665,-0.04979214072227478,4.398822784423828e-05,0.006220608949661255,0.01336835790425539,0.06574803590774536,-0.010644109919667244,-0.7944666412455613,-0.9140432179483876,0.5198401287367277
1687005576.5937,-0.4352509379386902,0.7914937734603882,-0.42906227707862854,-0.005972176790237427,0.009226500988006592,-0.010451853275299072,0.010687042959034443,0.05478237569332123,0.02026260644197464,-0.7925582472730364,-0.913249200504886,0.5197504243292341
1687005576.6086001,-0.43463748693466187,0.7914089560508728,-0.42983993887901306,0.005804479122161865,-0.011288046836853027,0.04072558879852295,-0.0035176360979676247,0.08353697508573532,-0.010015804320573807,-0.7909477503767649,-0.9131104566077867,0.5177326639274971
1687005576.681061,-0.43353721499443054,0.7913374304771423,-0.43108075857162476,0.0004317760467529297,0.0015550851821899414,-0.03341194987297058,-0.042727090418338776,0.1272122859954834,-0.022725606337189674,-0.7882392545556304,-0.9129934533125412,0.5154763503974216
1687005576.696286,-0.4323905408382416,0.7918529510498047,-0.43128567934036255,-0.0074134767055511475,-0.0018749237060546875,0.019374728202819824,-0.036605458706617355,0.09972117841243744,-0.04259185865521431,-0.7866774262412969,-0.9138371122517801,0.5100764969094289
1687005576.806294,-0.4323936104774475,0.7916986346244812,-0.4315659999847412,-0.01253741979598999,-5.728006362915039e-05,-0.014600932598114014,-0.0775761529803276,0.0803435742855072,-0.04107039421796799,-0.7863560859249769,-0.9135844961836812,0.5048736356822395
1687005576.8138871,-0.4332156479358673,0.7918027639389038,-0.4305495023727417,0.011203259229660034,-0.014412999153137207,0.004356265068054199,-0.06430646777153015,0.04017183184623718,-0.06337003409862518,-0.7884848123512243,-0.9137549304246848,0.4990986841822829
1687005576.927696,-0.43489810824394226,0.7920575141906738,-0.4283791780471802,-0.0018847286701202393,0.006709694862365723,0.003040492534637451,-0.0934152603149414,-0.019234590232372284,-0.029935382306575775,-0.7929493845026956,-0.9141721392137502,0.4919469140757614
1687005576.945782,-0.4367472529411316,0.7932120561599731,-0.42434239387512207,-0.00925186276435852,-0.015181660652160645,0.0031083524227142334,-0.14663608372211456,0.007172871381044388,-0.07971285283565521,-0.7998031781485941,-0.9160658537646782,0.48382883876320104
1687005577.049522,-0.43957245349884033,0.7944880127906799,-0.4190046489238739,0.004788517951965332,0.026907920837402344,-0.004655599594116211,-0.1350286602973938,0.0015664733946323395,-0.09373313933610916,-0.8093492414981722,-0.9181640477387106,0.47030071587224276
1687005577.068883,-0.4436107277870178,0.7963868379592896,-0.41106879711151123,-0.01946297287940979,-0.0009766221046447754,0.0060243308544158936,-0.23950238525867462,0.03270592913031578,-0.13290856778621674,-0.8234547748138433,-0.9212972042371895,0.45142313701100634
1687005577.12918,-0.44712111353874207,0.8008934855461121,-0.39831215143203735,0.026436269283294678,0.013208866119384766,0.009701311588287354,-0.2925602197647095,-0.05782841145992279,-0.07055072486400604,-0.8430666650971086,-0.9287858096444723,0.42715617679012857
1687005577.1443172,-0.4515749216079712,0.803170919418335,-0.38858309388160706,0.009451508522033691,-0.03708803653717041,-0.04229456186294556,-0.28884759545326233,0.042019445449113846,-0.11848002672195435,-0.8602342957051063,-0.9325988340863371,0.40636142119320584
1687005577.147654,-0.4548538029193878,0.8069643974304199,-0.3767181932926178,0.007633954286575317,0.0074124932289123535,0.009545981884002686,-0.2814013957977295,-0.009738823398947716,-0.08535683155059814,-0.8790844105871973,-0.9389940917880242,0.3810972626986596
1687005577.217445,-0.4600412845611572,0.8116083741188049,-0.3600749373435974,-0.0013234317302703857,-0.048958778381347656,0.009901076555252075,-0.5267153978347778,-0.11206599324941635,-0.1428288370370865,-0.906692702707997,-0.9469000078147927,0.34976926965823296
1687005577.231995,-0.4725084900856018,0.8162299394607544,-0.3324224650859833,-0.0023908615112304688,-0.09322255849838257,0.03353336453437805,-0.5847034454345703,-0.2651776969432831,-0.4121938645839691,-0.9577071682007162,-0.9548549237621798,0.298518532185511
1687005577.2763171,-0.5059579610824585,0.8116544485092163,-0.2919309437274933,-0.008293747901916504,-0.27372103929519653,0.10818469524383545,-0.9937523007392883,-0.5031358599662781,-0.9928237199783325,-1.0474703779652579,-0.9469788937198336,0.2115855498465431
1687005577.374207,-0.5654610395431519,0.7938520908355713,-0.22372481226921082,-0.040373921394348145,-0.274946391582489,0.0448460578918457,-1.7418326139450073,-0.604945182800293,-1.5909243822097778,-1.1940453240940867,-0.9171176220072965,0.06448204664835888
1687005577.3818688,-0.6448473930358887,0.7516574859619141,-0.13850367069244385,-0.013355791568756104,-0.224847674369812,-0.004898369312286377,-1.5179935693740845,-0.6055961847305298,-2.233286142349243,-1.3592254861391138,-0.8505714964329842,-0.10752911642431695
1687005577.431436,-0.7395832538604736,0.6701705455780029,-0.06235676258802414,-0.05282092094421387,-0.2831617593765259,-0.01878941059112549,-1.9175812005996704,-0.4534773826599121,-2.934640645980835,-1.486681888756289,-0.7344385126653565,-0.24702858467738703
1687005577.522273,-0.8371449708938599,0.5469813346862793,-0.00012007624900434166,-0.10711479187011719,-0.07316535711288452,-0.05966377258300781,-1.4750205278396606,-0.025155240669846535,-3.4800848960876465,-1.5706528913659794,-0.5787540810044939,-0.36713396373291696
1687005577.5308452,-0.9229801297187805,0.38304150104522705,0.03724079951643944,-0.18332785367965698,-0.17868050932884216,-0.14006972312927246,-3.0135903358459473,0.6902215480804443,-3.794684886932373,-1.611122881360178,-0.39308666906147355,-0.48027513646674747
1687005577.5806398,-0.9800654649734497,0.19552573561668396,0.0352356843650341,-0.29715627431869507,0.04968307912349701,0.00820612907409668,-4.166881084442139,1.5190578699111938,-3.6547930240631104,-1.6067332269148322,-0.19679349710422264,-0.6614082651711546
1687005577.677102,-0.9982747435569763,0.036759890615940094,-0.04578845202922821,-0.39746206998825073,0.398985356092453,-0.11990660429000854,-3.82269024848938,2.704272508621216,-2.823712110519409,-1.5249608656103468,-0.036768175675702855,-0.864814434541384
1687005577.695162,-0.9817219376564026,-0.06274157017469406,-0.17968250811100006,-0.27125364542007446,0.28313955664634705,0.14016234874725342,-4.160329818725586,2.626884698867798,-1.7932322025299072,-1.389772068058569,0.06278280455334112,-1.0754022078148848
1687005577.733211,-0.9416083097457886,-0.05978910252451897,-0.33135947585105896,-0.2087060809135437,0.07959502935409546,0.220657080411911,-5.343944549560547,3.007286310195923,-0.6917470097541809,-1.2324227679336066,0.05982478273220186,-1.301220882314893
1687005577.854086,-0.8877357244491577,0.049395181238651276,-0.457695871591568,-0.02583855390548706,0.09766903519630432,0.37027838826179504,-6.33209753036499,2.430478096008301,0.2667301297187805,-1.0947651453236689,-0.04941528949641471,-1.5791025876066216
1687005577.8730102,-0.8296002149581909,0.23420977592468262,-0.506862223148346,0.0036876797676086426,-0.09245561063289642,0.3236348032951355,-6.696202754974365,1.9295029640197754,0.5863469839096069,-1.0223484818210156,-0.23640565126328045,-1.8579421421744464
1687005577.941998,-0.7809324860572815,0.4074341058731079,-0.47343626618385315,0.008440971374511719,-0.12101134657859802,0.2046985924243927,-6.077725410461426,1.397555947303772,0.4252062439918518,-1.0257976904705999,-0.4196426057770846,-2.121130347977235
1687005577.94837,-0.7506820559501648,0.5416568517684937,-0.378264844417572,-0.06108558177947998,-0.03659093379974365,0.03985556960105896,-5.124041557312012,0.9594655632972717,0.11343955248594284,-1.104037659281391,-0.5724068964603876,-2.399465565071734
1687005578.03757,-0.7384828925132751,0.6162586808204651,-0.27362069487571716,-0.02457869052886963,-0.028810560703277588,0.054840296506881714,-4.167433738708496,0.5948566794395447,-0.18661433458328247,-1.2159614599276334,-0.6639831745514473,-2.6622377108378448
1687005578.0550508,-0.7387757897377014,0.6485641598701477,-0.18323467671871185,-0.04984426498413086,-0.044590771198272705,-0.07160227000713348,-3.088224411010742,0.5312606692314148,-0.24054162204265594,-1.3276775811538517,-0.7056965410212961,-2.8820055537570997
1687005578.120957,-0.7477340698242188,0.6533503532409668,-0.11843765527009964,0.0186537504196167,0.07943779230117798,-0.0713358074426651,-1.6704050302505493,0.3298904001712799,-0.41705381870269775,-1.4137059825654295,-0.7120015610198813,-3.0442590947860815
1687005578.136261,-0.7575517296791077,0.6473544836044312,-0.08395140618085861,-0.029878199100494385,0.017654061317443848,-0.06242603063583374,-1.294704556465149,0.3150588870048523,-0.37348368763923645,-1.4604272929056619,-0.7041083614288933,3.140635129509182
1687005578.2487478,-0.7661194205284119,0.6393815875053406,-0.06521028280258179,0.01125180721282959,0.09595471620559692,-0.06583207100629807,-0.3989540934562683,0.17425478994846344,-0.20066764950752258,-1.4858833492243786,-0.6936936763722483,3.083370335499504
1687005578.266364,-0.7703012228012085,0.6347924470901489,-0.060620613396167755,-0.016411542892456055,0.01762765645980835,-0.02380615472793579,-0.3621360957622528,0.12748205661773682,-0.1303846389055252,-1.4922609064237045,-0.6877398692785922,3.0617531408215592
1687005578.330145,-0.7736603617668152,0.6307988166809082,-0.059521034359931946,0.0008025765419006348,0.0431208610534668,-0.015079081058502197,0.050392910838127136,0.10194429755210876,-0.08543053269386292,-1.4940132595324573,-0.6825822611858151,3.050509342107182
1687005578.3455958,-0.7756577134132385,0.6279590129852295,-0.06342635303735733,-0.011528074741363525,-0.025435149669647217,0.014064252376556396,-0.37502866983413696,0.1684781312942505,-0.0886041596531868,-1.4892067927975714,-0.6789278696855886,3.047410436451745
1687005578.419661,-0.7763349413871765,0.6281230449676514,-0.05258996784687042,-0.004655778408050537,0.05579113960266113,0.0031058192253112793,-0.35808882117271423,0.11879181116819382,0.017835866659879684,-1.5031583225384078,-0.6791386687454051,3.0133147655363364
1687005578.4361901,-0.7750690579414368,0.6295504570007324,-0.05417119339108467,0.007490754127502441,0.038387835025787354,-0.007840462028980255,0.08637909591197968,0.048238903284072876,0.06361161172389984,-1.5010177168590788,-0.6809745152789582,3.0100552471818283
1687005578.509626,-0.7711381912231445,0.6345945000648499,-0.05134016275405884,-0.005580008029937744,0.016589581966400146,0.04058283939957619,-0.1404346078634262,-0.044321656227111816,0.16890129446983337,-1.5043173101982938,-0.6874837151606198,3.0047582404134427
1687005578.5151238,-0.7664563059806824,0.6402071714401245,-0.05176505073904991,-0.015175223350524902,0.011938154697418213,-0.0049975477159023285,0.19490757584571838,-0.029335517436265945,0.14525926113128662,-1.503360573978995,-0.6947679392437532,3.009888710544595
1687005578.57145,-0.7623586654663086,0.645085871219635,-0.051708173006772995,-0.018006443977355957,-0.02211529016494751,0.03303152322769165,-0.049683623015880585,-0.053954750299453735,0.1374034732580185,-1.5030734812664668,-0.7011356737028132,3.0141324648441175
1687005578.665582,-0.7585019469261169,0.6496118307113647,-0.05176228657364845,-0.017361700534820557,0.002075791358947754,-0.0006363317370414734,0.22024443745613098,-0.028937727212905884,0.10348452627658844,-1.5026591789513075,-0.7070737453330662,3.0182383581591705
1687005578.6838999,-0.7557347416877747,0.6525171399116516,-0.055558495223522186,-0.008257806301116943,-0.014760732650756836,0.028184346854686737,0.16044528782367706,-0.09288688004016876,0.16022397577762604,-1.497412472268625,-0.7109014899714599,3.031970206552134
1687005578.720389,-0.7513258457183838,0.6577246189117432,-0.05392778664827347,-0.027147233486175537,-0.020670056343078613,0.002749912440776825,0.061125271022319794,-0.12554992735385895,0.14842817187309265,-1.4991423839023148,-0.7177940331274997,3.0382793406755075
1687005578.813895,-0.7473955750465393,0.6624330282211304,-0.050817620009183884,-0.02224254608154297,-0.01626908779144287,0.002081155776977539,0.04915937781333923,-0.09763716161251068,0.1515590399503708,-1.502907877378456,-0.7240619882470994,3.0417917557298044
1687005578.829457,-0.7438284754753113,0.6664046049118042,-0.05122918635606766,-0.02539771795272827,-0.023063480854034424,-0.01713007688522339,0.12733259797096252,-0.06609921157360077,0.13091574609279633,-1.502032599481351,-0.7293761159736375,3.049168568690707
1687005578.866432,-0.7405656576156616,0.669752836227417,-0.05471746250987053,-0.02518153190612793,-0.017988860607147217,-1.5676021575927734e-05,0.21499477326869965,-0.07261338829994202,0.12439746409654617,-1.4970442990768542,-0.7338758730154604,3.061475047409618
1687005578.970434,-0.7365993857383728,0.6738433241844177,-0.05793461203575134,-0.013446390628814697,-0.033645570278167725,-0.009310774505138397,0.07119140028953552,-0.049756016582250595,0.1495395004749298,-1.492306456619202,-0.7393981223876154,3.073071450397397
1687005578.988348,-0.7326410412788391,0.6780548095703125,-0.05898257717490196,-0.025583505630493164,-0.012390196323394775,-0.012535270303487778,0.18788783252239227,-0.050613995641469955,0.14708885550498962,-1.490462795025534,-0.7451129345228237,3.079398644803569
1687005579.01787,-0.7290802001953125,0.6813278198242188,-0.06507357209920883,-0.020752012729644775,-0.022041261196136475,-0.004521667957305908,0.18799461424350739,-0.046220045536756516,0.13940471410751343,-1.4817778718648358,-0.7495750812319647,3.095187381182157
1687005579.1128669,-0.7252880930900574,0.6849988698959351,-0.06880419701337814,-0.012855947017669678,-0.03248721361160278,-0.015653133392333984,0.07458236068487167,-0.02844548597931862,0.12274377048015594,-1.4762147256132012,-0.7546021303905703,3.1062038412286244
1687005579.128171,-0.7224671244621277,0.6878731846809387,-0.06979971379041672,0.014794886112213135,-0.013221025466918945,-0.00930178165435791,0.1454133838415146,-0.026733873412013054,0.08254562318325043,-1.4744822575577985,-0.7585547778889825,3.1105390317510557
1687005579.1666799,-0.720588743686676,0.6889064311981201,-0.07848498970270157,0.03876495361328125,0.014127016067504883,0.0014892295002937317,0.274650514125824,-0.10155103355646133,0.12145700305700302,-1.4623061183169337,-0.7599792818444275,3.1319283158202764
1687005579.264297,-0.714708149433136,0.6951616406440735,-0.07708815485239029,0.052812397480010986,0.02154362201690674,0.004074998199939728,0.023117080330848694,-0.20814459025859833,0.21799644827842712,-1.4633520742466362,-0.7686447708196955,-3.141282260493016
1687005579.282154,-0.7082058787345886,0.7021170854568481,-0.07399957627058029,0.026839911937713623,0.047150492668151855,-0.020543746650218964,0.2978840470314026,-0.21700972318649292,0.19388599693775177,-1.466685332322617,-0.7783663245143376,-3.1306124379568248
1687005579.350919,-0.7038137316703796,0.7054723501205444,-0.08339892327785492,0.03444105386734009,0.04304760694503784,-0.02281743288040161,0.5756482481956482,-0.1763056218624115,0.10731928050518036,-1.4528505747884992,-0.78308937023403,-3.097128036222811
1687005579.448042,-0.7006410360336304,0.7068010568618774,-0.09764540940523148,0.01932072639465332,0.023683011531829834,-0.01441502571105957,0.5014498233795166,-0.0920601487159729,0.11978446692228317,-1.4323224287723615,-0.7849658628041623,-3.058064359179681
1687005579.464968,-0.6972090601921082,0.7083085775375366,-0.11044632643461227,0.032902419567108154,0.011478960514068604,-0.0038266554474830627,0.23549725115299225,0.020834799855947495,0.08908814936876297,-1.413689742132818,-0.787099214740683,-3.029640308876334
1687005579.5309381,-0.694248378276825,0.7107807397842407,-0.1131819561123848,0.015186429023742676,-0.00019413232803344727,0.00724029541015625,-0.024484658613801003,0.06886650621891022,0.04508879408240318,-1.4091900127141321,-0.7906075227108347,-3.025824649511119
1687005579.545679,-0.6936127543449402,0.7110869288444519,-0.11513972282409668,0.02875661849975586,-0.0019193291664123535,0.018063411116600037,0.002812520135194063,0.08163272589445114,-0.0300357174128294,-1.4062963524083596,-0.7910428672198309,-3.0271927555018388
1687005579.623908,-0.6954648494720459,0.7086604237556458,-0.11886655539274216,0.020812630653381348,-0.002117455005645752,0.016113996505737305,0.10995175689458847,0.052702274173498154,-0.10419449955224991,-1.4015153491467145,-0.7875977876436425,-3.0250813419188587
1687005579.630443,-0.6994253396987915,0.703675389289856,-0.12508200109004974,0.03752946853637695,0.0017842650413513184,0.007177472114562988,0.2205808460712433,0.004258130211383104,-0.13157306611537933,-1.3938316809317923,-0.7805571002219897,-3.015800938090139
1687005579.714445,-0.704281210899353,0.6973690986633301,-0.1329083889722824,0.03275704383850098,0.014255166053771973,-0.0076096802949905396,0.2720548212528229,-0.026003103703260422,-0.1432616114616394,-1.384274952533086,-0.7717200906695647,-3.000647869087847
1687005579.7306151,-0.7098135352134705,0.6887889504432678,-0.14742626249790192,0.06001800298690796,0.05851024389266968,-0.019535288214683533,0.8262338042259216,-0.038947220891714096,-0.1943725198507309,-1.3660107132272012,-0.7598172098432622,-2.9717023449733206
1687005579.834247,-0.7180570363998413,0.6696311831474304,-0.189705953001976,0.018105804920196533,0.02974015474319458,-0.004324674606323242,1.5274229049682617,-0.07663183659315109,-0.259389728307724,-1.3125043888830608,-0.733712110439538,-2.8884159034726338
