Timestamp,gravityX,gravityY,gravityZ,accelerationX,accelerationY,accelerationZ,rotationRateX,rotationRateY,rotationRateZ,attitudeRoll,attitudePitch,attitudeYaw
1687022082.03705,-0.5416755676269531,-0.7915941476821899,-0.282783180475235,0.13515084981918335,-0.05174386501312256,-0.022957146167755127,0.5561888813972473,0.6488502621650696,-2.383448600769043,-1.0896626104438687,0.9134134674570595,-0.8705088969152174
1687022082.049195,-0.4337751269340515,-0.855856716632843,-0.2816886305809021,0.08820927143096924,-0.05698508024215698,-0.040836334228515625,0.23711071908473969,0.5744406580924988,-2.4453625679016113,-0.994851013617397,1.0272049479723995,-0.9473609494969966
1687022082.161068,-0.317447304725647,-0.904337465763092,-0.2853085696697235,0.09019806981086731,-0.07051604986190796,-0.041549861431121826,0.11686570197343826,0.45696762204170227,-2.531667709350586,-0.8386673894744654,1.1298248453849797,-1.0962722924971595
1687022082.252588,-0.1950720101594925,-0.9373639225959778,-0.2886102497577667,0.10429739952087402,-0.10658138990402222,-0.08179676532745361,-0.04622676968574524,0.434360146522522,-2.466477870941162,-0.5943685008817707,1.2149842824878447,-1.3351131831199958
1687022082.3436952,-0.0805622860789299,-0.9548923373222351,-0.2858152687549591,0.12115059047937393,-0.08163720369338989,-0.039303719997406006,0.3164808452129364,0.32026368379592896,-2.1734280586242676,-0.27474039816485707,1.2692971076808033,-1.6528394913163642
1687022082.3502479,0.02035784162580967,-0.9609206318855286,-0.27607449889183044,0.16000095009803772,-0.10942238569259644,-0.0009640157222747803,0.035106390714645386,0.3106207847595215,-1.8764288425445557,0.0736071663477709,1.2903088826766866,-1.9997950932634307
1687022082.355799,0.10922287404537201,-0.9558576941490173,-0.27277565002441406,0.14115852117538452,-0.044523775577545166,0.04239851236343384,0.10244020074605942,0.38673433661460876,-1.699655294418335,0.3808622126130216,1.2725650882174275,-2.3029301266600366
1687022082.3607302,0.19376592338085175,-0.9444561004638672,-0.265438050031662,0.1076560914516449,-0.04249763488769531,-0.007526308298110962,0.11542941629886627,0.40985408425331116,-1.6526973247528076,0.6305682834985943,1.235935657349152,-2.5435793432784233
1687022082.431271,0.27565333247184753,-0.9252164363861084,-0.2607485055923462,0.1172603964805603,-0.06401091814041138,-0.0007413029670715332,-0.19934970140457153,0.4970124363899231,-1.6113826036453247,0.8131776757140718,1.1816055350748733,-2.7143062337308828
1687022082.437501,0.35320255160331726,-0.8954172134399414,-0.2710646092891693,0.060447871685028076,-0.06388765573501587,-0.0428696870803833,-0.4653915762901306,0.47637462615966797,-1.5698237419128418,0.9162216648108306,1.1093674132460736,-2.8023132504829182
1687022082.48651,0.4280073344707489,-0.8586264848709106,-0.2820817828178406,0.04347386956214905,-0.06860429048538208,-0.06815317273139954,-0.49800926446914673,0.425468385219574,-1.5610445737838745,0.9880795823588306,1.0325841578985835,-2.857004454278687
1687022082.554517,0.49885687232017517,-0.8173722624778748,-0.28817427158355713,0.013609468936920166,-0.05086815357208252,-0.018954575061798096,-0.13285261392593384,0.36737552285194397,-1.603795051574707,1.0469583709585166,0.9568349974959838,-2.9054374854745526
1687022082.645972,0.5671688318252563,-0.7746253609657288,-0.2797766923904419,-0.0065000057220458984,-0.07963794469833374,-0.04677656292915344,-0.0009999494068324566,0.3071959912776947,-1.573671817779541,1.112533985015893,0.8861225150440157,-2.9663895420620014
1687022082.653672,0.6291628479957581,-0.7288106083869934,-0.27016544342041016,-0.07551300525665283,-0.05864977836608887,0.012551367282867432,0.05730108544230461,0.3928039073944092,-1.49976646900177,1.165200823100396,0.8165833179420433,-3.014384606931357
1687022082.699665,0.6866717338562012,-0.6816034317016602,-0.25278156995773315,-0.05315744876861572,-0.07686519622802734,-0.022608965635299683,0.1643480360507965,0.39084064960479736,-1.4991987943649292,1.218065936914953,0.7499517510564575,-3.060771353588098
1687022082.825531,0.7417848110198975,-0.6303224563598633,-0.22901666164398193,-0.05430018901824951,-0.09785747528076172,0.016538113355636597,0.3760721981525421,0.4311569929122925,-1.5719213485717773,1.2713430467719045,0.68196853101233,-3.1108456054409883
1687022082.83916,0.7941887378692627,-0.5752032995223999,-0.1959727555513382,0.07725584506988525,-0.11302918195724487,0.02772940695285797,0.45559999346733093,0.5721966028213501,-1.544020175933838,1.3288708811795515,0.6128526492003459,3.1180971760480833
1687022082.9142752,0.8387775421142578,-0.5190099477767944,-0.16456332802772522,0.03526109457015991,-0.12211871147155762,0.03446692228317261,-0.1754840910434723,0.7202603220939636,-1.2683719396591187,1.3770627990479187,0.5456922507065084,3.090120732161242
1687022082.920661,0.8723980784416199,-0.46719908714294434,-0.14368899166584015,-0.004478275775909424,-0.10949164628982544,-0.021868810057640076,-0.6854269504547119,0.7926923036575317,-1.0362842082977295,1.4075561503496568,0.4861202158593044,3.1069040057447452
1687022083.003659,0.9005646109580994,-0.41763049364089966,-0.12069901823997498,0.03568410873413086,-0.1059902012348175,-0.021924853324890137,-0.7694719433784485,0.9137115478515625,-1.0154045820236206,1.4375643509168194,0.43083593039004703,3.1363926776507176
1687022083.016844,0.9239245057106018,-0.3693945109844208,-0.099554643034935,0.05950438976287842,-0.08902537822723389,-0.11811196804046631,-0.9681349992752075,0.8057526350021362,-0.8890631198883057,1.4634585403367972,0.3783573531399249,-3.1022738811699093
1687022083.0933518,0.9416216611862183,-0.3271450102329254,-0.07952848821878433,0.017973005771636963,-0.16994065046310425,-0.13467437028884888,-1.0947964191436768,0.7746856808662415,-0.7115066051483154,1.486537232819922,0.3332807659797122,-3.0555528537912946
1687022083.106052,0.9531391263008118,-0.2952067255973816,-0.06617362797260284,0.009476840496063232,-0.20494598150253296,-0.11058413982391357,-1.9724339246749878,0.7877436280250549,-0.413669615983963,1.501480511705423,0.299671865944714,-2.979584988230585
1687022083.1527019,0.9584074020385742,-0.2782438397407532,-0.06352714449167252,0.1070374846458435,-0.12539702653884888,-0.1403455138206482,-2.1985082626342773,0.5651422142982483,0.014943476766347885,1.5046090771946334,0.2819652552131213,-2.861510068204391
1687022083.16272,0.9583789110183716,-0.2790733277797699,-0.06023375689983368,0.0835217833518982,-0.07064297795295715,-0.044456787407398224,-0.5085691213607788,0.34128186106681824,0.1476806253194809,1.50802925972203,0.28282897169812343,-2.794387141129818
1687022083.208678,0.9548335075378418,-0.29208865761756897,-0.05456353351473808,-0.009826242923736572,0.05466181039810181,0.00031853094696998596,0.6092279553413391,-0.02514849603176117,0.3399134576320648,1.5137138540891544,0.2964100032581152,-2.7962998822422525
1687022083.2724152,0.9491732716560364,-0.31090670824050903,-0.04906461015343666,0.0532529354095459,0.05870932340621948,0.05605315417051315,0.4778260290622711,-0.1451837420463562,0.4113309681415558,1.5191503512801463,0.31614687237728534,-2.827378496390478
1687022083.331543,0.9419736862182617,-0.33222249150276184,-0.048104170709848404,0.03808313608169556,0.1330799162387848,0.11116873472929001,0.40696007013320923,-0.09401251375675201,0.4380238950252533,1.5197732266126012,0.338658930678919,-2.8491979296600847
1687022083.3906279,0.9348520636558533,-0.3523859679698944,-0.04331075772643089,0.03685808181762695,0.15891969203948975,0.1457124948501587,0.33877894282341003,0.026457529515028,0.35327431559562683,1.5245004338197075,0.36011939577037827,-2.8687451772476753
1687022083.4873781,0.9303160905838013,-0.3649844229221344,-0.03603503480553627,-0.018450796604156494,0.16126421093940735,0.09719228744506836,0.3733980655670166,-0.0010469756089150906,0.13761833310127258,1.5320814967638807,0.3736160811580051,-2.8859274109215334
1687022083.501359,0.9310609102249146,-0.36378535628318787,-0.028033031150698662,-0.022934138774871826,0.10302779078483582,0.09831500053405762,0.43512579798698425,-0.00037603662349283695,-0.21202050149440765,1.5406967230938067,0.372328470987341,-2.9101744278037898
1687022083.536467,0.9366244077682495,-0.3497142195701599,-0.020853064954280853,0.047323405742645264,0.057798177003860474,0.06400495767593384,0.3356880247592926,0.03826190531253815,-0.39392003417015076,1.5485359425446656,0.3572660400739546,-2.9313014706803786
1687022083.634184,0.9439900517463684,-0.32963961362838745,-0.014852109365165234,0.015574097633361816,-0.0528830885887146,-0.00707477331161499,-0.07089301198720932,0.10085906088352203,-0.4427928626537323,1.555064292351105,0.33592182562613193,-2.938224299284713
1687022083.6482592,0.9507426619529724,-0.3097808063030243,-0.011152710765600204,-0.018735826015472412,-0.10835587978363037,-0.05531454086303711,-0.16635926067829132,0.12780483067035675,-0.36966004967689514,1.5590663393875548,0.3149624914078313,-2.9332347134716774
1687022083.686064,0.9550491571426392,-0.29632627964019775,-0.008476579561829567,0.009199440479278564,-0.1148371696472168,-0.1151348352432251,0.008552765473723412,0.07270935922861099,-0.187974214553833,1.5619210177438168,0.30084386971953747,-2.9253651016997626
1687022083.78567,0.9568539261817932,-0.290545791387558,-0.003718065796419978,-0.0008755326271057129,-0.14074397087097168,-0.1266987919807434,0.10241672396659851,0.01363973505795002,-0.030112480744719505,1.566910626835959,0.29479719803130183,-2.9314332212414524
1687022083.799312,0.9568023085594177,-0.29073598980903625,-0.001392936334013939,-0.0078125,-0.05844622850418091,-0.09620225429534912,0.6288914680480957,-0.08022976666688919,0.016299892216920853,1.5693405032050483,0.29499595274829066,-2.949620333436997
1687022083.836213,0.9556854367256165,-0.2943713665008545,0.003313096472993493,-0.03603816032409668,-0.019120603799819946,-0.08418464660644531,0.4986818730831146,-0.08962788432836533,0.11883239448070526,1.5742630356127318,0.29879765798846974,-2.9801558746650842
1687022083.934331,0.9541647434234619,-0.2991935908794403,0.007265266962349415,-0.01271277666091919,0.036284565925598145,-0.03245747089385986,0.659086287021637,-0.07966739684343338,0.09039628505706787,1.578410448572917,0.3038474113842908,-3.008931616104333
1687022083.9418,0.9532731771469116,-0.3018028438091278,0.01361786387860775,0.02116835117340088,0.052962422370910645,-0.0760873556137085,0.9764015078544617,-0.1506146341562271,0.040766019374132156,1.5850807289867483,0.30658311083896295,-3.050081661662759
1687022083.987314,0.9528625011444092,-0.30257710814476013,0.022360416129231453,0.02566826343536377,-0.018650978803634644,-0.04288351535797119,1.1455868482589722,-0.18047142028808594,0.03194423392415047,1.5942585917077736,0.307395354314112,-3.1078518998304125
1687022084.0850182,0.9529432058334351,-0.3015654385089874,0.030945802107453346,0.008436799049377441,-0.044992268085479736,-0.005448341369628906,1.4069201946258545,-0.2727219760417938,-0.0015263095265254378,1.6032588401711687,0.306334110984355,3.1054875011106624
1687022084.099292,0.9532947540283203,-0.300117164850235,0.034043654799461365,-0.03178590536117554,-0.10665175318717957,-0.0008100233972072601,0.6394413709640503,-0.2605160176753998,0.030352462083101273,1.6064927279175538,0.3048154798481553,3.0511681778408484
1687022084.135526,0.9521137475967407,-0.30449044704437256,0.02765895612537861,-0.08468210697174072,-0.1401507556438446,-0.038660526275634766,-0.12135814130306244,-0.16486680507659912,0.20551961660385132,1.5998382135557767,0.3094034217037266,3.038349650424763
1687022084.233296,0.9477108716964722,-0.31866559386253357,0.017217952758073807,-0.028735101222991943,-0.06082060933113098,-0.02947068214416504,0.05859658122062683,-0.19073328375816345,0.35119566321372986,1.5889622672900834,0.3243213419312695,3.043497514634645
1687022084.2412791,0.9418146014213562,-0.3360302150249481,0.008314543403685093,-0.0279352068901062,-0.06634414196014404,-0.00819242000579834,-0.12861524522304535,-0.21779152750968933,0.3767889738082886,1.5796243138317299,0.342698841379583,3.042013115389419
1687022084.287782,0.9357794523239136,-0.35254204273223877,-0.005548887886106968,-0.011295318603515625,-0.055233895778656006,0.056879520416259766,-0.37193456292152405,-0.17779511213302612,0.3440932631492615,1.564866700356141,0.36028616264956875,3.0564845419660385
1687022084.383925,0.9295464754104614,-0.3682183623313904,-0.0189411211758852,0.057346224784851074,-0.03482738137245178,0.09769177436828613,-0.3480691611766815,-0.093503937125206,0.3620055615901947,1.5504224121041996,0.37709201040178225,3.0759377331580073
1687022084.390984,0.921273946762085,-0.38827162981033325,-0.022346915677189827,0.10202616453170776,0.04958745837211609,0.05698442459106445,0.18768274784088135,0.024340583011507988,0.4921124279499054,1.5465445465549916,0.39875533792296636,3.0826888184307175
1687022084.437993,0.9118620753288269,-0.4102451205253601,-0.014382325112819672,0.014193952083587646,0.06104758381843567,0.032967567443847656,0.130571648478508,0.07948745787143707,0.4232635200023651,1.5550251548984912,0.4227228309021696,3.069258715625386
1687022084.534029,0.9049099087715149,-0.4254579246044159,-0.011119779199361801,-0.004229366779327393,0.08125007152557373,-0.001361846923828125,-0.08508793264627457,0.0704827755689621,0.25213852524757385,1.5585086728969801,0.4394678413297116,3.0705330601214462
1687022084.548862,0.9003215432167053,-0.43501555919647217,-0.013523554429411888,-0.028602123260498047,-0.06760910153388977,-0.08649778366088867,-0.2455260157585144,-0.034847818315029144,0.22169199585914612,1.5557766514253815,0.45005556116785084,3.0793489890886416
1687022084.5867639,0.8939177989959717,-0.4475201368331909,-0.025232549756765366,-0.014920055866241455,-0.24858587980270386,-0.15701836347579956,-0.2881605923175812,-0.1833171844482422,0.37536025047302246,1.5425768940658515,0.4639903745461878,3.0962941530063706
1687022084.684175,0.879716157913208,-0.47387173771858215,-0.03930967301130295,0.06222420930862427,-0.3942161798477173,-0.15981745719909668,-0.4322544038295746,-0.17457784712314606,0.908784031867981,1.5261415341833424,0.49368235015863077,3.112964789610647
1687022084.691428,0.8483349084854126,-0.5249300599098206,-0.06911127269268036,0.08443480730056763,-0.3823118209838867,-0.14272648096084595,-1.1257613897323608,-0.22825607657432556,1.5684325695037842,1.4895088752207977,0.5526329696999117,-3.1177720086794283
1687022084.773679,0.796258807182312,-0.5934053659439087,-0.11765133589506149,0.14853477478027344,-0.3638395071029663,-0.07816468924283981,-1.7436305284500122,-0.3077102303504944,2.0563647747039795,1.4241025612515807,0.6352830856828573,-3.02483293203481
1687022084.787534,0.7235493063926697,-0.659825325012207,-0.2027478963136673,0.21318763494491577,-0.27318859100341797,-0.05549177527427673,-2.4806911945343018,-0.5851413607597351,2.3540773391723633,1.2975901680886743,0.720586296833582,-2.8585097019355685
1687022084.827649,0.62965327501297,-0.7141147255897522,-0.3059036433696747,0.29858458042144775,-0.16720253229141235,-0.04820707440376282,-1.968686819076538,-0.8983949422836304,2.5524075031280518,1.1185498959942783,0.7953586463919881,-2.6513868530719154
1687022084.9252539,0.5162034034729004,-0.7568857669830322,-0.40082162618637085,0.27983230352401733,-0.10447293519973755,-0.0035668015480041504,-1.6301087141036987,-1.1607964038848877,2.603686809539795,0.9105622781346274,0.8585347706970302,-2.439535450137777
1687022084.938953,0.38917312026023865,-0.784842848777771,-0.4822508692741394,0.2844260036945343,-0.020134568214416504,0.03654167056083679,-1.1537740230560303,-1.3392584323883057,2.55533766746521,0.6789904922168589,0.9024425051829619,-2.219929574937082
1687022084.977037,0.2577715516090393,-0.7964540719985962,-0.547005295753479,0.24834713339805603,0.015844881534576416,0.116737961769104,-1.023412823677063,-1.3803774118423462,2.3239922523498535,0.4403771845887046,0.9214083632443559,-2.0057071399215936
1687022085.074026,0.13019394874572754,-0.7954592108726501,-0.5918565988540649,0.2277161180973053,0.05278337001800537,0.09884512424468994,-0.5658078193664551,-1.4216264486312866,2.107754707336426,0.2165269311093039,0.9197649317556328,-1.8114460366637652
1687022085.087771,0.010856781154870987,-0.7882750034332275,-0.6152273416519165,0.17400334775447845,0.050451457500457764,0.1474233865737915,-0.34545496106147766,-1.3789045810699463,1.8271963596343994,0.01764494706162298,0.9080005432725473,-1.6484534706295293
1687022085.129305,-0.09837447851896286,-0.7800470590591431,-0.6179394125938416,0.1870737373828888,0.048662781715393066,0.11932802200317383,-0.009558416903018951,-1.2913360595703125,1.6637179851531982,-0.15787280295443912,0.8947410109499383,-1.509393923644382
1687022085.22612,-0.19675226509571075,-0.7669080495834351,-0.6108523011207581,0.1472679227590561,0.06001412868499756,0.11050146818161011,-0.03875620663166046,-1.1967836618423462,1.4797484874725342,-0.3116018792853485,0.8740092006073904,-1.3903966819555946
1687022085.344065,-0.283410906791687,-0.7506611347198486,-0.5968133211135864,0.14438802003860474,0.05032855272293091,0.0886346697807312,0.025435475632548332,-1.0453554391860962,1.3238041400909424,-0.4433452502853581,0.849062226575444,-1.2903413191455746
1687022085.359108,-0.35929474234580994,-0.728863000869751,-0.5828086733818054,0.13807272911071777,0.024303734302520752,0.05712825059890747,-0.10597572475671768,-0.9195840358734131,1.2423900365829468,-0.552455107193603,0.8166598219457241,-1.2089580645632554
1687022085.4361382,-0.4262949228286743,-0.7009463906288147,-0.5717926025390625,0.11660242080688477,0.004077494144439697,0.047210752964019775,-0.2340148687362671,-0.7979104518890381,1.152051329612732,-0.6406413420899044,0.7767235520204185,-1.145117947825909
1687022085.44261,-0.48621225357055664,-0.6673529744148254,-0.5641255378723145,0.08009949326515198,-0.033177971839904785,0.018974900245666504,-0.32992660999298096,-0.7122568488121033,1.1233421564102173,-0.7113544760387043,0.7306488522160545,-1.0970148612230544
1687022085.4481602,-0.5417189598083496,-0.623772382736206,-0.5634258985519409,0.10115182399749756,-0.06970906257629395,-0.0010729432106018066,-0.7628484964370728,-0.6802901029586792,1.1536633968353271,-0.765758960127308,0.6735598852318297,-1.0654715316989154
1687022085.486045,-0.5966581702232361,-0.5653814673423767,-0.5695109963417053,0.08481734991073608,-0.06912469863891602,-0.001335442066192627,-0.8533108234405518,-0.7241101861000061,1.2220134735107422,-0.8086728813998849,0.6008956481200379,-1.0522414966416325
1687022085.5870981,-0.6515806317329407,-0.5009199380874634,-0.569668173789978,0.1266171932220459,-0.11980748176574707,-0.021151959896087646,-1.0167796611785889,-0.7872377634048462,1.351730465888977,-0.8523705356170168,0.5246613705361935,-1.0394289972082618
1687022085.601132,-0.7087813019752502,-0.42076098918914795,-0.5662060379981995,0.14486217498779297,-0.14822396636009216,-0.02504146099090576,-1.0562660694122314,-0.8804915547370911,1.6078187227249146,-0.8967603635560306,0.4342840136947232,-1.0334041200343924
1687022085.6713948,-0.7680448889732361,-0.3281170427799225,-0.5499511361122131,0.1618741750717163,-0.15723448991775513,-0.02561032772064209,-1.1148546934127808,-1.0409162044525146,1.8737989664077759,-0.9493859640022806,0.3343095843233455,-1.020225751209572
1687022085.685308,-0.8254011273384094,-0.21519073843955994,-0.521925151348114,0.18854504823684692,-0.11680996417999268,-0.034166038036346436,-1.289740800857544,-1.258249282836914,2.0865163803100586,-1.006944028002683,0.21688713773220106,-1.0172302721054027
1687022085.7282639,-0.8749150037765503,-0.09201415628194809,-0.47545453906059265,0.1764897108078003,-0.07656490802764893,0.0068724751472473145,-1.3780051469802856,-1.4270416498184204,2.1426849365234375,-1.0730117371222976,0.09214449410827107,-1.0218780535228522
1687022085.858912,-0.9122346043586731,0.02845468558371067,-0.40867865085601807,0.1600831151008606,-0.007397539913654327,-0.018429964780807495,-1.1179982423782349,-1.6256574392318726,2.042980909347534,-1.1496090900234188,-0.0284585265180788,-1.0302534499759988
1687022085.873532,-0.9346377849578857,0.13756759464740753,-0.3279136121273041,0.19014620780944824,0.037023499608039856,0.03224414587020874,-0.9246830344200134,-1.6779097318649292,1.8796461820602417,-1.233368351150068,-0.13800524329697725,-1.0422702993897124
1687022085.940443,-0.9415799975395203,0.2309473156929016,-0.2451333999633789,0.18634623289108276,0.05596369504928589,0.07644762098789215,-0.6964958906173706,-1.5578423738479614,1.657738208770752,-1.3161073622831667,-0.23305120329784795,-1.0546327023699604
1687022085.9533858,-0.9358381032943726,0.30850374698638916,-0.17038902640342712,0.18351876735687256,0.04662930965423584,0.07944673299789429,-0.2614040672779083,-1.381925106048584,1.4776697158813477,-1.3906980588128974,-0.3136196652725349,-1.0627895131941403
1687022086.0300798,-0.921485424041748,0.3737400770187378,-0.10574910044670105,0.14908558130264282,0.03588211536407471,0.08257109671831131,-0.17978030443191528,-1.2800654172897339,1.299504280090332,-1.4565367770024753,-0.3830380562364826,-1.0628964038739346
1687022086.036512,-0.9013833999633789,0.43036916851997375,-0.04785739630460739,0.1824502944946289,-0.005457639694213867,0.010229349136352539,0.3666212856769562,-1.3191314935684204,1.2307238578796387,-1.5177528531343691,-0.44490172072838186,-1.0545515799902772
1687022086.125313,-0.8757797479629517,0.48267707228660583,0.005712469108402729,0.1470048427581787,-0.03171879053115845,-0.019201159477233887,0.04739483445882797,-1.3771445751190186,1.1858667135238647,-1.577318957525564,-0.5037088535025724,-1.039697888992641
1687022086.140213,-0.841644287109375,0.5366393327713013,0.06044387072324753,0.12080371379852295,-0.04478740692138672,-0.023868434131145477,0.46569934487342834,-1.3349971771240234,1.333314061164856,-1.6424896503036168,-0.5664492950656089,-1.0338571392683884
1687022086.211652,-0.7968505024909973,0.5956317186355591,0.10125317424535751,0.08887320756912231,-0.06947815418243408,-0.008098125457763672,0.34758248925209045,-1.357514500617981,1.4843014478683472,-1.6971857170788731,-0.6380518804226293,-1.0109120887304823
1687022086.224783,-0.7383266687393188,0.658560037612915,0.1455066055059433,0.0962674617767334,-0.10198050737380981,-0.04464593529701233,0.2778392732143402,-1.3238860368728638,1.7677794694900513,-1.7653789527953234,-0.7189036229521024,-1.0132578879973675
1687022086.2683501,-0.6658169031143188,0.7244917750358582,0.1783239096403122,0.0461728572845459,-0.04933619499206543,0.04788766801357269,0.17393670976161957,-1.1413410902023315,1.914420485496521,-1.8324819452208658,-0.8102968239536891,-1.0224937946179453
1687022086.393985,-0.5836881399154663,0.7850720882415771,0.2072916477918625,0.02709341049194336,0.09276604652404785,0.0644826889038086,0.1123964712023735,-0.8705383539199829,1.8480716943740845,-1.9120438246490679,-0.9028125022249153,-1.059695903949692
1687022086.409056,-0.5069652795791626,0.8338501453399658,0.21835839748382568,0.021415412425994873,0.13096314668655396,0.17913317680358887,0.20183154940605164,-0.4110676944255829,1.6025713682174683,-1.9774990682430456,-0.9860463523406034,-1.1020447015454362
1687022086.479943,-0.44545239210128784,0.8668929934501648,0.22376157343387604,0.029268860816955566,0.1125231385231018,0.11226767301559448,-0.2158726155757904,-0.008518385700881481,1.247667908668518,-2.0363016881836895,-1.048935289750359,-1.1593100368082077
1687022086.485872,-0.39870357513427734,0.886951208114624,0.23313693702220917,-0.011162638664245605,0.0988885760307312,0.10678312182426453,-0.34254369139671326,0.2799249589443207,0.9472753405570984,-2.0999177917576324,-1.0907016533778526,-1.2401754839437313
1687022086.541868,-0.3678011894226074,0.8982073068618774,0.24071936309337616,0.0337253212928772,0.19691592454910278,0.024783611297607422,-0.1144375205039978,0.3270544707775116,0.5778871178627014,-2.150316095144695,-1.1156741494914795,-1.3124353712089687
1687022086.665281,-0.35570859909057617,0.9102282524108887,0.2120278775691986,0.021541208028793335,0.09286922216415405,-0.11028219759464264,0.6274960041046143,0.19096800684928894,0.1292254477739334,-2.1083224537281913,-1.1438349019703036,-1.2828062619618057
1687022086.6804008,-0.3547871708869934,0.9100205898284912,0.21444909274578094,-0.004160463809967041,0.04951298236846924,-0.06418053805828094,-0.31398943066596985,-0.0006904674228280783,-0.018440578132867813,-2.11447731043267,-1.1433336910906033,-1.294205042977637
1687022086.749743,-0.35592958331108093,0.9072892665863037,0.22392037510871887,-0.0025451183319091797,-0.016404926776885986,0.006594300270080566,0.0611882358789444,0.006992574781179428,-0.005533235147595406,-2.132348736593919,-1.1367922713224294,-1.3129041364201728
1687022086.755395,-0.3558887243270874,0.907559335231781,0.22288867831230164,0.00043529272079467773,0.015795767307281494,0.014644980430603027,-0.03838478401303291,0.0825987458229065,0.023474982008337975,-2.1303209876590077,-1.137434966440728,-1.3141156941375964
1687022086.84673,-0.35784903168678284,0.9063122868537903,0.2248162031173706,0.006896913051605225,-0.0014354586601257324,-0.024315565824508667,-0.0548916757106781,0.014495942741632462,-0.05330009385943413,-2.13172438404641,-1.1344746816005689,-1.3185176149773823
1687022086.864656,-0.3597947359085083,0.9055789113044739,0.22466544806957245,-0.023841679096221924,-0.016922295093536377,0.021367311477661133,0.06398984044790268,0.0303201787173748,-0.025574786588549614,-2.1289832767935373,-1.132742514110061,-1.3160085752159172
1687022086.929429,-0.36103564500808716,0.9051729440689087,0.22430947422981262,-0.016878634691238403,0.013558506965637207,-0.00507122278213501,-0.09875788539648056,0.028798537328839302,-0.033868804574012756,-2.126726602710831,-1.131786494159325,-1.3157932195566457
1687022086.935425,-0.36411142349243164,0.9032605290412903,0.22703169286251068,-0.018807798624038696,-0.003037691116333008,-0.010234713554382324,-0.00827073398977518,-0.0009598906617611647,-0.03153647482395172,-2.1283324968402453,-1.1273083654099665,-1.317878158848988
1687022087.027267,-0.36503538489341736,0.9031665325164795,0.22591915726661682,-0.019211411476135254,0.003724336624145508,-0.008313417434692383,0.02162688784301281,0.020184632390737534,-0.010519871488213539,-2.1249946429395736,-1.1270894883418192,-1.3150278646660167
1687022087.042365,-0.3664178252220154,0.902742326259613,0.225375697016716,0.003914833068847656,-0.006425797939300537,-0.008349895477294922,0.0017404879909008741,-0.01113769318908453,-0.042948585003614426,-2.1222291824755253,-1.1261022798142994,-1.3126590103780449
1687022087.110783,-0.3682553470134735,0.9020600914955139,0.22511306405067444,-0.011810600757598877,0.00800478458404541,-0.025695741176605225,0.008396925404667854,0.0009615803137421608,-0.02521705813705921,-2.1194804134562193,-1.124519050724382,-1.3098964575085867
1687022087.12414,-0.3693700432777405,0.9022321105003357,0.2225831300020218,-0.011916548013687134,0.0038349032402038574,-0.023913592100143433,0.0416901670396328,-0.02458958514034748,-0.048678841441869736,-2.1131268822912417,-1.1249177007740927,-1.301990326782223
1687022087.166072,-0.3730606138706207,0.9002718329429626,0.22435790300369263,0.00936746597290039,0.015835344791412354,-0.043419137597084045,-0.048027154058218,-0.10029571503400803,-0.14814357459545135,-2.112243124316757,-1.1203934976863057,-1.297546871807238
1687022087.265596,-0.3805654048919678,0.8975578546524048,0.2226196527481079,0.048854708671569824,0.04232233762741089,-0.03389887511730194,0.21280524134635925,-0.08808352053165436,-0.2598988711833954,-2.100091628883309,-1.1141988849709277,-1.2793125453532233
1687022087.2795072,-0.3964520990848541,0.8947677612304688,0.20546700060367584,0.10023322701454163,0.0223466157913208,0.01830330491065979,0.3894597291946411,-0.0417318195104599,-0.5229133367538452,-2.0489484475323225,-1.107910796690674,-1.2194837092820925
1687022087.318344,-0.42813387513160706,0.8842014670372009,0.18678653240203857,0.12224099040031433,0.07981830835342407,0.010448694229125977,0.4951106905937195,0.049552109092473984,-0.9261330366134644,-1.9821828879257193,-1.084781683798064,-1.1446110255288955
1687022087.413275,-0.47894933819770813,0.8648601174354553,0.15041501820087433,0.12413674592971802,0.16126292943954468,-0.00950002670288086,1.144178032875061,0.11111853271722794,-1.406322956085205,-1.8750945380623003,-1.0448717195597383,-1.0267362043509634
1687022087.429719,-0.5504995584487915,0.8294649124145508,0.09454265981912613,0.12386387586593628,0.175265371799469,0.027298808097839355,1.259549856185913,0.15724137425422668,-1.9580787420272827,-1.740876894364084,-0.9781490529370893,-0.8764036160067084
1687022087.5019479,-0.6395522356033325,0.7671763896942139,0.04912548139691353,0.1327468752861023,0.16255688667297363,0.05976128578186035,0.5568414926528931,0.2368081957101822,-2.4774584770202637,-1.6474580931509426,-0.8744274886652199,-0.7731387587453329
1687022087.5948138,-0.7349108457565308,0.677716851234436,0.024616099894046783,0.11374086141586304,0.09208905696868896,0.06078743934631348,0.3637963831424713,0.40360134840011597,-2.7440645694732666,-1.6042791643129917,-0.7446532100086934,-0.7358587576263802
1687022087.611006,-0.8232367038726807,0.567694365978241,-0.002078263321891427,0.10405957698822021,0.06174594163894653,0.022723495960235596,0.2154911756515503,0.3982429802417755,-2.9181368350982666,-1.5682718294687188,-0.6037024537546439,-0.7116955106849563
1687022087.678265,-0.8956517577171326,0.4439452588558197,-0.026844870299100876,0.16438955068588257,-0.032278358936309814,-0.0023603439331054688,0.412096232175827,0.39248254895210266,-2.8663947582244873,-1.540832855025975,-0.45999682248937346,-0.6981205763272298
1687022087.692002,-0.9476277828216553,0.3149200677871704,-0.05316831171512604,0.20717984437942505,-0.05965578556060791,-0.009453650563955307,0.3542340099811554,0.30601903796195984,-2.741133213043213,-1.5147483445911831,-0.320372445789732,-0.6793125504493948
1687022087.808234,-0.9798378944396973,0.18704505264759064,-0.07022601366043091,0.22655737400054932,-0.056261926889419556,0.038472600281238556,-0.03120414726436138,0.3437333106994629,-2.616302251815796,-1.4992476205201577,-0.18815324862057864,-0.6785872185549522
1687022087.82512,-0.9942563772201538,0.061561211943626404,-0.08754685521125793,0.19411605596542358,-0.045188479125499725,-0.005104422569274902,-0.1625100076198578,0.37164366245269775,-2.5103039741516113,-1.4829702448021334,-0.06160016396577837,-0.696848768175979
1687022087.8292499,-0.9923397898674011,-0.05945445969700813,-0.1082899421453476,0.22285443544387817,-0.02680341526865959,0.01698143035173416,0.23569363355636597,0.47193053364753723,-2.419215679168701,-1.4621005652361607,0.05948954423399262,-0.7032197971566754
1687022087.886473,-0.975163459777832,-0.1772049218416214,-0.13287103176116943,0.17493152618408203,-0.027644246816635132,0.05593635141849518,-0.19806809723377228,0.5437718629837036,-2.3750481605529785,-1.4353751289388836,0.17814570087257606,-0.7179039373819984
1687022087.982851,-0.9432368874549866,-0.28876933455467224,-0.16406206786632538,0.13912922143936157,0.005398422479629517,0.07151758670806885,-0.02465183660387993,0.7270194292068481,-2.3732128143310547,-1.3985840393300293,0.29294115319283265,-0.7428248899390996
1687022087.989994,-0.896054744720459,-0.3971082866191864,-0.1984715759754181,0.06483215093612671,-0.018800467252731323,0.033112168312072754,-0.28016602993011475,0.7006571292877197,-2.4050142765045166,-1.352820564373995,0.4083638989616035,-0.775563719445812
1687022088.076436,-0.834039032459259,-0.5006101131439209,-0.23188045620918274,0.12786221504211426,0.011947393417358398,0.027656912803649902,0.27707260847091675,0.7954139709472656,-2.4081151485443115,-1.2996235879285714,0.5243033991726508,-0.8081725994687753
1687022088.090642,-0.7586038112640381,-0.6005503535270691,-0.2527046799659729,0.09740984439849854,-0.05461621284484863,0.05862826108932495,0.2019752711057663,0.7985081672668457,-2.4001729488372803,-1.2492394624905174,0.6441892540721899,-0.8327726685875269
1687022088.1621652,-0.6739632487297058,-0.6831668019294739,-0.2811698615550995,0.1511055827140808,-0.07537806034088135,-0.010105043649673462,-0.05178398638963699,0.817715048789978,-2.249338388442993,-1.1755604796602832,0.7520903922389339,-0.8819221464983884
1687022088.177263,-0.5845407247543335,-0.7519235014915466,-0.30483314394950867,0.09593898057937622,-0.08624178171157837,0.03580552339553833,0.13570019602775574,0.8148080110549927,-2.135990858078003,-1.0901035244748738,0.8509749501914389,-0.9471371716725565
1687022088.248169,-0.4887380301952362,-0.8131303787231445,-0.3161552846431732,0.11802566051483154,-0.04345226287841797,0.00035947561264038086,0.2848326861858368,0.850803017616272,-2.106656312942505,-0.9966169214655627,0.9495099901661709,-1.012114042191164
1687022088.264639,-0.3896888792514801,-0.8599646091461182,-0.32955029606819153,0.09374457597732544,-0.032079458236694336,0.04175436496734619,-0.03853316232562065,0.7768333554267883,-2.0462005138397217,-0.8688182847217573,1.0352003028390007,-1.1167867576870478
1687022088.405647,-0.28856709599494934,-0.8953482508659363,-0.3392355442047119,0.10898628830909729,-0.01566261053085327,0.019014686346054077,0.156373530626297,0.7980023622512817,-1.9745662212371826,-0.704865110160544,1.1092125376452648,-1.2588923955374007
1687022088.495559,-0.18680602312088013,-0.9178829193115234,-0.350134938955307,0.14112111926078796,-0.021387100219726562,0.05731886625289917,-0.1995590180158615,0.7837949395179749,-1.9389408826828003,-0.4901071309025568,1.1627124019396256,-1.452356995889314
1687022088.554044,-0.08191391080617905,-0.9309021234512329,-0.35596540570259094,0.16464699804782867,-0.03958737850189209,0.06044849753379822,0.16754578053951263,0.9865832924842834,-1.97127366065979,-0.22618009851510118,1.196874828588857,-1.6900528947587234
1687022088.570143,0.030660973861813545,-0.9352869391441345,-0.3525593876838684,0.15271906554698944,-0.0648503303527832,0.02573147416114807,-0.036597494035959244,1.0841764211654663,-2.047607183456421,0.08674857576854282,1.2090689852308236,-1.9679736265840164
1687022088.573765,0.14201602339744568,-0.9274623990058899,-0.34589728713035583,0.05488330125808716,-0.06689184904098511,-0.008777916431427002,0.2108616977930069,0.9760484099388123,-2.0291588306427,0.38958750646339424,1.187568160594525,-2.2391140533289944
1687022088.5846539,0.25239288806915283,-0.9145142436027527,-0.3161669671535492,0.1200588047504425,-0.05023801326751709,0.004246830940246582,0.5819674134254456,0.8434009552001953,-2.115959405899048,0.6736972622668195,1.1543055104587858,-2.497782993005316
1687022088.6720119,0.3601129949092865,-0.8931794762611389,-0.26934918761253357,0.01201823353767395,-0.057259976863861084,0.0007030069828033447,1.0280002355575562,0.7337675094604492,-2.2181403636932373,0.9286037207027131,1.1043665000189677,-2.739125666774063
1687022088.684897,0.467134028673172,-0.8581259846687317,-0.21308571100234985,0.17556607723236084,-0.07523888349533081,0.015286102890968323,0.7916267514228821,0.6247114539146423,-2.3013455867767334,1.1428353655179126,1.0316085218874933,-2.9430526276031497
1687022088.770714,0.5674865245819092,-0.8066562414169312,-0.16512058675289154,0.16543883085250854,-0.03936737775802612,0.00627666711807251,0.8137166500091553,0.6510707139968872,-2.2604727745056152,1.2876459503368736,0.9384725041955304,-3.0798957793908954
1687022088.77557,0.6576845049858093,-0.7431842684745789,-0.12299565970897675,0.10336267948150635,-0.05478930473327637,-0.051045991480350494,0.33514204621315,0.5193930268287659,-2.212275505065918,1.385918719296066,0.8378170167318224,3.115294932144894
1687022088.8535352,0.739406168460846,-0.6666209101676941,-0.094313845038414,0.13132131099700928,-0.055058836936950684,-0.0801246166229248,0.0536576583981514,0.6369077563285828,-2.2461633682250977,1.4439279147709416,0.7296662680184219,3.0751866693779824
1687022088.8607569,0.8099173903465271,-0.5810357928276062,-0.0801951065659523,0.11781692504882812,-0.0612371563911438,-0.04381304234266281,-0.25527045130729675,0.5489399433135986,-2.1583914756774902,1.4721016206367252,0.620000774862022,3.0724056589693602
1687022088.909858,0.8661776781082153,-0.4954227805137634,-0.06551694869995117,0.1508968472480774,-0.16525235772132874,-0.09930843114852905,-0.4469875991344452,0.47562697529792786,-1.8264473676681519,1.4953009300564648,0.5183214628789161,3.0823478056097966
1687022089.00755,0.9057328104972839,-0.42117488384246826,-0.04753996431827545,0.12580716609954834,-0.19607380032539368,-0.004721350967884064,-0.2759152352809906,0.6994788646697998,-1.488889455795288,1.5183566025000397,0.4347403246419529,3.0942321995175024
1687022089.0220242,0.9316638112068176,-0.3624538779258728,-0.025092754513025284,0.029777169227600098,-0.21417585015296936,-0.11258727312088013,-0.27168169617652893,0.5343518257141113,-1.1729792356491089,1.5438695642370948,0.37089946258547907,3.11086779366753
1687022089.0569038,0.950567901134491,-0.31050342321395874,-0.0028939114417880774,0.03489047288894653,-0.4283119738101959,-0.19083166122436523,-0.554193913936615,0.4948210120201111,-0.9655550122261047,1.5677519334736565,0.31572257733582215,3.124250580924794
1687022089.1817942,0.9614706635475159,-0.274892121553421,0.0029270071536302567,0.01567167043685913,-0.28835564851760864,-0.17963898181915283,-0.8423004746437073,0.28096768260002136,-0.5337026119232178,1.5738406196351424,0.27847750184718406,-3.11575907524521
1687022089.199739,0.9647226333618164,-0.26323145627975464,0.004402515944093466,-0.0032969117164611816,-0.20962324738502502,-0.1162341833114624,-0.31257450580596924,0.10917682200670242,-0.026152757927775383,1.575359799184626,0.2663702672507484,-3.084948532181527
1687022089.275532,0.9635961055755615,-0.2673132121562958,0.005129278637468815,-0.11339157819747925,-0.08563795685768127,-0.11606061458587646,0.133623868227005,-0.003281013108789921,0.23708520829677582,1.576119335280604,0.27060370688336854,-3.081889619339333
1687022089.2882261,0.9587298631668091,-0.2842126488685608,0.0077442568726837635,-0.03307086229324341,0.017580509185791016,-0.0330280065536499,0.16664862632751465,-0.02789776399731636,0.3746396601200104,1.5788737724630157,0.28818510933552693,-3.0910753201386263
1687022089.3601398,0.9546969532966614,-0.29750633239746094,0.006618808023631573,0.04325836896896362,0.051977068185806274,-0.009151697158813477,0.321885883808136,-0.09522727131843567,0.20337112247943878,1.577729104834809,0.30207966396535346,-3.102928231720055
1687022089.3748112,0.9516487121582031,-0.3071141242980957,0.00676159979775548,0.0373343825340271,0.07160988450050354,-0.0045185089111328125,0.34575724601745605,-0.09924358129501343,0.20277103781700134,1.5779013497417909,0.31215913194287903,-3.1200923885621092
1687022089.449304,0.9496602416038513,-0.313225656747818,0.005928155034780502,-0.06329244375228882,0.013863354921340942,0.0297163724899292,0.22582228481769562,-0.11412568390369415,0.08868607878684998,1.5770386413327409,0.31858771029219723,-3.135008412611489
1687022089.4549499,0.948579728603363,-0.31649476289749146,0.0052363877184689045,-0.013521254062652588,0.01762080192565918,0.04792523384094238,0.12939715385437012,-0.03964408114552498,0.04873473197221756,1.5763165106164334,0.3220320092090058,3.1374883314131528
1687022089.543442,0.9479681849479675,-0.31833359599113464,0.00449682492762804,0.00895625352859497,-0.01330101490020752,0.02875208854675293,-0.12659253180027008,0.028961079195141792,0.030357984825968742,1.5755399365507878,0.32397111827757136,3.13794594535516
1687022089.560732,0.947395384311676,-0.3200250566005707,0.005072182044386864,0.036765873432159424,0.011171847581863403,-0.01140451431274414,-0.10839453339576721,0.029006265103816986,0.03182152658700943,1.5761500930987753,0.3257559413994029,-3.1374878773374593
1687022089.597025,0.9469969868659973,-0.32116928696632385,0.006858688313513994,-0.00978696346282959,-0.01626366376876831,-0.0402754545211792,0.06787893921136856,0.003294065361842513,0.033028338104486465,1.5780387661904478,0.32696393941066554,-3.138510996222943
1687022089.69514,0.9464526772499084,-0.32279467582702637,0.005539723206311464,-0.011409521102905273,-0.023869842290878296,-0.023651838302612305,-0.09960557520389557,-0.014377960935235023,0.05152292922139168,1.5766494033588558,0.32868073183811036,-3.137138673851145
1687022089.713479,0.9455411434173584,-0.3254947066307068,0.002332072937861085,0.0007480382919311523,0.0011079907417297363,-0.013287901878356934,-0.011388097889721394,-0.03560921549797058,0.0477626770734787,1.573262711440471,0.3315348896040541,-3.1330231197079867
1687022089.745918,0.9446704387664795,-0.32802054286003113,0.00023213528038468212,0.012925207614898682,-0.0014167726039886475,0.001232743263244629,-0.013745749369263649,-0.017468737438321114,0.045976828783750534,1.571042058278267,0.3342074101797762,-3.133201517988751
1687022089.835822,0.944187581539154,-0.32940515875816345,-0.001349552650935948,-0.01613295078277588,0.007704049348831177,0.0015631915302947164,-0.022050639614462852,-0.0049928040243685246,0.03016497567296028,1.5693670009646308,0.33567350101581733,-3.131475373256138
1687022089.842624,0.9438298344612122,-0.330425500869751,-0.002091561444103718,-0.005902647972106934,0.0064660608768463135,0.0008708834648132324,-0.002543472917750478,-0.017981484532356262,0.024107281118631363,1.5685802937207327,0.3367543704137198,-3.1312341222419686
1687022089.899207,0.94356369972229,-0.3311767578125,-0.003082411363720894,-0.00015860795974731445,-0.01120007038116455,-0.010421574115753174,0.0008553419029340148,-0.01602228544652462,0.016695303842425346,1.5675295624857537,0.33755042744785396,-3.1307724235819636
1687022089.9953508,0.9432646036148071,-0.33202359080314636,-0.0035365400835871696,0.013965070247650146,-0.010780513286590576,-0.00668680714443326,-0.07397869229316711,-0.007315612863749266,0.03957531973719597,1.5670470888446288,0.33844804961050867,-3.1294259709721706
1687022090.011689,0.9426558017730713,-0.33372294902801514,-0.005369678605347872,0.008180201053619385,0.009046405553817749,-0.006120144389569759,0.06003020331263542,-0.02046612650156021,0.012919008731842041,1.565100058238563,0.34025019822172947,-3.1275139378336356
1687022090.046515,0.9425031542778015,-0.3341595232486725,-0.0050316136330366135,0.004228353500366211,0.0023112893104553223,0.00721365213394165,0.03602433577179909,-0.005062135402113199,0.013707903213799,1.565457813304818,0.34071334483200516,-3.1311787866900125
1687022090.14237,0.9425126314163208,-0.3341284990310669,-0.005333467852324247,-0.00859832763671875,0.006186485290527344,0.0004354114644229412,-0.010220922529697418,0.010180201381444931,-0.0026148767210543156,1.5651376110022093,0.3406804354685099,-3.1310012298189953
1687022090.158112,0.942705512046814,-0.3335953950881958,-0.004527891054749489,-0.00514453649520874,-0.006248444318771362,0.007213473320007324,-0.03643698990345001,0.01717410609126091,-0.008960656821727753,1.5659932827923668,0.3401148902125772,-3.130165592322744
1687022090.196436,0.9427236914634705,-0.333549827337265,-0.004078759346157312,-0.001347959041595459,-0.011344701051712036,-0.009394705295562744,0.051713377237319946,-0.002197461435571313,0.007292481604963541,1.5664697846731863,0.3400665339378196,-3.1313576039635254
1687022090.294579,0.9426028728485107,-0.33389684557914734,-0.0035782998893409967,-0.0005710124969482422,-0.014522433280944824,-0.006111025810241699,0.010888269171118736,0.003931448794901371,0.01984875462949276,1.5670001547967334,0.34043467870768324,-3.1326851012786245
1687022090.31075,0.9418668746948242,-0.3359682857990265,-0.0035071936435997486,-0.022753655910491943,-0.05233749747276306,-0.04640430212020874,0.03254012390971184,0.0011654009576886892,0.0697525292634964,1.5670726823260774,0.34263307906386975,-3.134645710072478
1687022090.347563,0.9395736455917358,-0.3422735333442688,-0.007096834480762482,-0.027265965938568115,-0.12751418352127075,-0.12809598445892334,-0.21719145774841309,-0.11603694409132004,0.205694317817688,1.5632432208410971,0.3493355002467495,-3.12927507951376
1687022090.476029,0.9345853924751282,-0.3552215099334717,-0.019173597916960716,0.011032164096832275,-0.2020447850227356,-0.15791988372802734,-0.08487597852945328,-0.2867177724838257,0.3588004410266876,1.550283585334889,0.36315102514434217,-3.1220886240508015
1687022090.4916701,0.9249643683433533,-0.378011554479599,-0.039345208555459976,0.04575389623641968,-0.2931158244609833,-0.16208600997924805,-0.28968891501426697,-0.4373411238193512,0.6730705499649048,1.5282849567557224,0.3876475512224161,-3.111523158476922
1687022090.5604038,0.9065052270889282,-0.4167464077472687,-0.06760793924331665,0.0612528920173645,-0.353959858417511,-0.13005435466766357,-0.4467753767967224,-0.4970165193080902,1.0853087902069092,1.496353283771033,0.42986315187030577,-3.091180819931084
1687022090.574337,0.8742212057113647,-0.4734661281108856,-0.10755065083503723,0.10537779331207275,-0.34886062145233154,-0.09572690725326538,-0.9135432243347168,-0.5742347240447998,1.627465844154358,1.4483868818713455,0.49322178223115815,-3.0414998402258435
1687022090.649231,0.8236405253410339,-0.5460466742515564,-0.15313148498535156,0.1767560839653015,-0.3300672769546509,-0.044271454215049744,-0.7774479985237122,-0.637006402015686,2.027470350265503,1.3869748690493717,0.5776379531829658,-2.9798359354083543
1687022090.665759,0.7534241080284119,-0.6240087747573853,-0.20728060603141785,0.22040700912475586,-0.2691798210144043,-0.007944583892822266,-1.0016448497772217,-0.7618469595909119,2.3663532733917236,1.302320328058065,0.673862366795562,-2.8941570686589824
1687022090.739675,0.6613344550132751,-0.7021430730819702,-0.2638782858848572,0.2706722617149353,-0.21666491031646729,0.00829365849494934,-0.7996483445167542,-0.8359673023223877,2.6367790699005127,1.191144690365834,0.778402865466718,-2.7868106046409853
1687022090.753963,0.548491358757019,-0.7711944580078125,-0.3231353163719177,0.3003244996070862,-0.16874712705612183,0.03417959809303284,-0.950857937335968,-0.9033952951431274,2.823057174682617,1.0384043131299319,0.8807153688989925,-2.6387966625650345
1687022090.865706,0.41796547174453735,-0.8274227380752563,-0.3750687837600708,0.296252578496933,-0.07435649633407593,0.040214717388153076,-0.5229262113571167,-0.945137083530426,2.9242615699768066,0.8394373458803308,0.9745026916775056,-2.4480517716323895
1687022090.882798,0.2768773138523102,-0.8679661154747009,-0.41227877140045166,0.28626346588134766,-0.06544458866119385,0.08255165815353394,-0.6351186633110046,-0.8359338641166687,2.9030702114105225,0.5913949870688348,1.0510921050135904,-2.208549220589537
1687022090.9470701,0.135173499584198,-0.8823798298835754,-0.450703889131546,0.31824129819869995,0.0006201267242431641,0.06909686326980591,-0.6094756722450256,-0.8731164932250977,2.751030206680298,0.2913801027721007,1.0808961187664337,-1.9155198119516135
1687022090.951839,-0.0030926221515983343,-0.8783643841743469,-0.4779815673828125,0.30460619926452637,-0.0038834810256958008,0.09159854054450989,-0.52467280626297,-0.8975369930267334,2.631091594696045,-0.006470080019642973,1.0724295584195873,-1.6273611600776066
1687022091.0437632,-0.13621209561824799,-0.8574684858322144,-0.49617958068847656,0.29720747470855713,0.00030601024627685547,0.08034712076187134,-0.4883868992328644,-0.9075530171394348,2.5052895545959473,-0.26792156015886787,1.0303293237081532,-1.3789375208885986
1687022091.059832,-0.2603360414505005,-0.8172038793563843,-0.514201283454895,0.2560940086841583,-0.03991276025772095,0.0873062014579773,-0.8237504959106445,-0.8606140613555908,2.395252227783203,-0.46866861003347327,0.9565427227231718,-1.1918945000679657
1687022091.1293979,-0.37469783425331116,-0.7591990232467651,-0.532182514667511,0.23540028929710388,-0.03956800699234009,0.07739442586898804,-0.8109498620033264,-0.8482216000556946,2.2909319400787354,-0.6134574140159701,0.8620816033016595,-1.0630950219583373
1687022091.144294,-0.4780605733394623,-0.6854438185691833,-0.5492039918899536,0.22543597221374512,-0.05262380838394165,0.05936634540557861,-1.1530166864395142,-0.8677963018417358,2.1942965984344482,-0.7162533984001116,0.7552130279017337,-0.9795978271389717
1687022091.1862822,-0.5716619491577148,-0.5974228978157043,-0.5623952150344849,0.23795223236083984,-0.03896009922027588,0.007036387920379639,-1.0174885988235474,-0.914645254611969,2.1449427604675293,-0.7935693351059664,0.6402835895383683,-0.9278664456427133
1687022091.281664,-0.6565189361572266,-0.5031195878982544,-0.5620085597038269,0.211999773979187,-0.06173020601272583,0.02637934684753418,-1.194165587425232,-0.9868711829185486,2.088501453399658,-0.8628043442173505,0.5272047312829136,-0.8887039386900579
1687022091.297851,-0.7312760353088379,-0.3958675265312195,-0.5554496645927429,0.21134799718856812,-0.030310392379760742,0.021437883377075195,-1.3075218200683594,-1.0659111738204956,2.0138731002807617,-0.9212034333828348,0.4070123694024856,-0.8741145635335261
1687022091.3359609,-0.7944465279579163,-0.2850489020347595,-0.5362851619720459,0.22384411096572876,-0.03912404179573059,0.04302966594696045,-1.4768457412719727,-1.1255040168762207,1.919853687286377,-0.9770174737569433,0.2890574456277865,-0.8694664767294199
1687022091.4680939,-0.8461183309555054,-0.1693437248468399,-0.505377471446991,0.22163712978363037,-0.010114848613739014,0.026419460773468018,-1.3865448236465454,-1.231510877609253,1.8276673555374146,-1.032372335612505,0.17016373165294565,-0.8842824664981238
1687022091.485255,-0.8870489597320557,-0.06478947401046753,-0.45710670948028564,0.22468018531799316,-0.008193284273147583,0.05348128080368042,-0.9335371851921082,-1.3045074939727783,1.791352391242981,-1.0949745187717712,0.06483488697940445,-0.888923748301876
1687022091.550517,-0.9170057773590088,0.03350406885147095,-0.39746418595314026,0.1954786777496338,-0.018992915749549866,0.07019379734992981,-0.9763362407684326,-1.351790189743042,1.7413944005966187,-1.1618012772156032,-0.03351034015190822,-0.8944613888940344
1687022091.555779,-0.9343608021736145,0.1305273473262787,-0.33156049251556396,0.18355214595794678,-0.027667835354804993,0.0744805634021759,-0.9625696539878845,-1.354042887687683,1.7084591388702393,-1.2298049064610563,-0.13090085945247348,-0.907885538913302
1687022091.642817,-0.9398766756057739,0.22094741463661194,-0.26041141152381897,0.16250234842300415,-0.03558358550071716,0.08791089057922363,-0.8150601387023926,-1.3652524948120117,1.6420209407806396,-1.300506881693137,-0.22278579155044853,-0.9233187942469349
1687022091.658982,-0.9332424402236938,0.305330365896225,-0.18929335474967957,0.17581140995025635,0.0090160071849823,0.04938560724258423,-0.4739460349082947,-1.3176437616348267,1.6303366422653198,-1.3706772006216716,-0.3102853358090294,-0.9398092919151122
1687022091.762399,-0.9156059622764587,0.38255059719085693,-0.12377649545669556,0.18141412734985352,-0.041669249534606934,0.045376963913440704,-0.34536948800086975,-1.293959379196167,1.6069270372390747,-1.4364255880080248,-0.3925553188868419,-0.9448730821286968
1687022091.780937,-0.8890567421913147,0.45385414361953735,-0.059954263269901276,0.13521158695220947,0.034228742122650146,0.03451795130968094,-0.08137223869562149,-1.265080451965332,1.539254069328308,-1.503462460341626,-0.47108586589727125,-0.9494827824606318
1687022091.8483338,-0.855094313621521,0.5184326767921448,-0.006434570997953415,0.10710853338241577,0.041748046875,0.03748631477355957,-0.054198943078517914,-1.1976507902145386,1.4244413375854492,-1.563271485167772,-0.545017056161016,-0.9478521465533777
1687022091.853242,-0.8166784644126892,0.5756030082702637,0.04144316166639328,0.09037542343139648,0.03622865676879883,0.0465543232858181,0.11153151839971542,-1.0896270275115967,1.3129477500915527,-1.621498827482884,-0.6133413396732235,-0.9478918353227219
1687022091.9449182,-0.7750816941261292,0.6265243887901306,0.08194796741008759,0.11692440509796143,-0.004866123199462891,0.0563272163271904,-0.14701969921588898,-1.0069864988327026,1.2515051364898682,-1.676133162271227,-0.6770858478444385,-0.9524918578887749
1687022091.960551,-0.729972243309021,0.6717984080314636,0.12580664455890656,0.11499732732772827,0.0040285587310791016,0.0012533515691757202,-0.12512318789958954,-0.925794243812561,1.2564818859100342,-1.741464168108081,-0.736634034478916,-0.9800563802405245
1687022092.028142,-0.6793793439865112,0.7180454730987549,0.1511760652065277,0.08410358428955078,-0.011258423328399658,0.06226395070552826,0.31689828634262085,-0.7127602696418762,1.3041563034057617,-1.7897498179882283,-0.8009900340186945,-0.9898887120542664
1687022092.041891,-0.6256241798400879,0.7602273225784302,0.17506858706474304,0.07231003046035767,-0.0159798264503479,0.06124436855316162,-0.3542654812335968,-0.5922517776489258,1.3391549587249756,-1.8436476322759128,-0.8636629620399711,-1.0194521958811398
1687022092.08608,-0.5714963674545288,0.7924624681472778,0.2130613774061203,0.0022062063217163086,0.025164484977722168,0.07905292510986328,-0.9093257188796997,-0.40154120326042175,1.2085208892822266,-1.9276484285197975,-0.9148358151274413,-1.095021278120763
1687022092.1787539,-0.522895097732544,0.8109334707260132,0.26261740922927856,-0.054497480392456055,0.13256335258483887,0.0826433002948761,-0.9896523356437683,-0.20008426904678345,1.0226362943649292,-2.036232180516782,-0.9457457017991713,-1.2128013081557434
1687022092.194467,-0.48715832829475403,0.8168351054191589,0.3089611530303955,-0.06081521511077881,0.11849802732467651,0.08277782797813416,-1.3597718477249146,-0.07211059331893921,0.6806946396827698,-2.135991879650732,-0.9559032085496763,-1.3271978388512247
1687022092.277209,-0.46473559737205505,0.8101467490196228,0.3573278486728668,-0.04405340552330017,0.11377286911010742,-0.015652894973754883,-0.9427781701087952,-0.11354529112577438,0.33969274163246155,-2.2262741623780573,-0.9444024488545459,-1.4316170891269553
1687022092.292243,-0.4539663791656494,0.8046898245811462,0.382607638835907,-0.010495781898498535,0.1455969214439392,-0.023797214031219482,0.010610190220177174,-0.1849735677242279,0.04195878282189369,-2.2711016676966014,-0.9351528156657649,-1.4776571892722687
1687022092.358022,-0.4532357156276703,0.8059805631637573,0.3807530701160431,-0.0012777745723724365,0.038593411445617676,0.04162561893463135,0.049507297575473785,-0.035132065415382385,-0.042741257697343826,-2.269501520651835,-0.937330121172376,-1.4687856785089954
1687022092.482194,-0.4553968906402588,0.8053387999534607,0.37953048944473267,-0.007554799318313599,-0.05320245027542114,0.007707178592681885,-0.028919819742441177,0.06909802556037903,-0.00341535615734756,-2.2655774922580605,-0.9362467582695393,-1.465708959178336
1687022092.5005221,-0.45432522892951965,0.8073815107345581,0.3764621913433075,0.01816806197166443,-0.028298258781433105,-0.021313786506652832,0.15067146718502045,0.0005660117603838444,0.03401663899421692,-2.262745470767603,-0.9397006275439301,-1.4641774974128194
1687022092.570179,-0.45399802923202515,0.8091420531272888,0.3730614483356476,0.021777689456939697,0.0013895034790039062,-0.011611133813858032,0.0013815379934385419,-0.03441176936030388,-0.009308531880378723,-2.2586444440824027,-0.9426905537427372,-1.458014257626047
1687022092.576438,-0.45425647497177124,0.8107597231864929,0.3692150413990021,-0.033215999603271484,0.008332014083862305,-0.0012034475803375244,0.25437629222869873,0.009524086490273476,-0.004435679875314236,-2.253287428679179,-0.9454487560286646,-1.4501901791679244
1687022092.662414,-0.4545431435108185,0.8122832775115967,0.36549487709999084,-0.025605112314224243,0.02118229866027832,-0.007340431213378906,-0.07485748082399368,0.033872127532958984,0.012289305217564106,-2.2480279095333686,-0.9480562118442187,-1.4455127329068862
1687022092.678399,-0.4550040066242218,0.8123213648796082,0.3648357391357422,-0.01511913537979126,0.026103198528289795,-0.04131883382797241,0.1219865158200264,-0.0068901292979717255,-0.010818944312632084,-2.246651931819608,-0.9481215013417025,-1.4449425578310213
1687022092.7473888,-0.4566033184528351,0.8119090795516968,0.36375463008880615,0.035598039627075195,-0.0025522708892822266,-0.006347864866256714,-0.027086634188890457,-0.026104658842086792,-0.05976325273513794,-2.2434933923684817,-0.9474149442174281,-1.440489901021482
1687022092.761073,-0.45980000495910645,0.812160074710846,0.3591381311416626,0.006095170974731445,-0.010432660579681396,-0.00807902216911316,0.20465952157974243,0.01401346642524004,-0.08069130033254623,-2.2338904142919738,-0.9478449591089083,-1.4289966553148534
1687022092.837627,-0.46229973435401917,0.8123722076416016,0.3554302752017975,-0.005809396505355835,0.0038052797317504883,-0.01967582106590271,0.007762960158288479,-0.005129601806402206,-0.08051060140132904,-2.22624062372482,-0.9482086467789047,-1.4202090665626392
1687022092.844485,-0.46447014808654785,0.812951922416687,0.35125085711479187,-0.01631912589073181,-0.010949790477752686,-0.008370429277420044,0.14826565980911255,-0.009763413108885288,-0.03455576300621033,-2.2182790478816647,-0.9492034523155642,-1.41021091266581
1687022092.92996,-0.4647027850151062,0.8139198422431946,0.3486917018890381,-0.027683019638061523,0.00225752592086792,0.004091620445251465,-0.013374327681958675,0.002606259658932686,0.02864058129489422,-2.2145241230678048,-0.9508675736261882,-1.405800813991898
1687022092.9455218,-0.46479567885398865,0.8146345019340515,0.3468942642211914,-0.006471961736679077,0.011750936508178711,-0.022339701652526855,0.10550288110971451,-0.013907557353377342,0.000594299053773284,-2.211949060651045,-0.9520987408050212,-1.4028183258610756
1687022093.053842,-0.46562427282333374,0.8143303990364075,0.3464975357055664,0.010713905096054077,0.0005501508712768555,-0.0012824833393096924,-0.07594937831163406,0.017577309161424637,0.004474790766835213,-2.210547386512804,-0.9515745596714499,-1.401139311093083
1687022093.071288,-0.46614503860473633,0.8144859075546265,0.345429390668869,0.004063248634338379,0.00011974573135375977,-0.019104868173599243,0.11207054555416107,0.017226481810212135,-0.013055533170700073,-2.2085345407891803,-0.9518425257883162,-1.4005858702325278
1687022093.137233,-0.4672214686870575,0.8144566416740417,0.3440413475036621,0.0065739452838897705,-0.0035130977630615234,-0.009507536888122559,-0.0787753015756607,0.003644892480224371,-0.016033612191677094,-2.205507944646695,-0.951792114811074,-1.3975575161666334
1687022093.143847,-0.46812260150909424,0.8137010335922241,0.3446044325828552,-0.014314532279968262,0.0038802623748779297,-0.013488620519638062,0.07483595609664917,0.01694818027317524,-0.02754306234419346,-2.205368760419621,-0.9504910529675815,-1.3979582339810521
1687022093.2315068,-0.4693160057067871,0.8149661421775818,0.3399598002433777,-0.0037826895713806152,0.003652632236480713,-0.0017791986465454102,0.06381295621395111,0.0012756555806845427,-0.02725570648908615,-2.197693371361851,-0.9526707804455704,-1.3894346865349723
1687022093.246911,-0.47075480222702026,0.8150837421417236,0.33768126368522644,-0.007211506366729736,0.0026653409004211426,-0.00760301947593689,0.06919191777706146,0.012830134481191635,-0.054155897349119186,-2.1930513033545154,-0.9528737521012629,-1.3839290823843278
1687022093.352581,-0.47346949577331543,0.8152952194213867,0.3333472013473511,-0.004679858684539795,0.024945199489593506,-0.04069876670837402,0.06859418004751205,-0.028690677136182785,-0.10457825660705566,-2.184236637233297,-0.953238882823249,-1.3721148196260307
1687022093.37167,-0.4787411391735077,0.8116821646690369,0.3346324861049652,0.018612414598464966,0.05410146713256836,-0.025199413299560547,-0.02307134121656418,-0.07176154106855392,-0.2159486562013626,-2.1808402184216336,-0.9470263526634772,-1.3652595163239845
1687022093.4368482,-0.4891689717769623,0.8091996908187866,0.3254374861717224,0.024447351694107056,0.06074965000152588,0.014101147651672363,0.49261167645454407,-0.009036459028720856,-0.3793812096118927,-2.157842792512981,-0.9427886488266932,-1.3342463092551318
1687022093.4420428,-0.5108060240745544,0.8047598004341125,0.30238842964172363,0.07419109344482422,0.0895729660987854,0.06865963339805603,0.4627160131931305,0.16378042101860046,-0.6640346646308899,-2.1053000555601233,-0.9352707536578616,-1.2736272975334277
1687022093.498802,-0.5491124987602234,0.787257194519043,0.2805385887622833,0.1276952624320984,0.10045349597930908,0.0858098566532135,0.3611624240875244,0.4045282304286957,-1.0487556457519531,-2.0431215497057007,-0.9063481524918942,-1.2127707271681485
1687022093.560267,-0.6045302152633667,0.7584256529808044,0.2435855120420456,0.1624983549118042,0.11300390958786011,0.08424964547157288,0.7279443740844727,0.6200106739997864,-1.490700602531433,-1.953829068406855,-0.8608941411481847,-1.1307974721242455
1687022093.653633,-0.6744942665100098,0.7117754220962524,0.19604361057281494,0.17382299900054932,0.10943728685379028,0.07385395467281342,0.6613553166389465,0.7201735377311707,-1.899652123451233,-1.8536557498220676,-0.7920226112000823,-1.04076211684696
1687022093.6711879,-0.7494714260101318,0.6454722285270691,0.14716695249080658,0.1548212766647339,0.04655963182449341,0.06923328340053558,0.5696079730987549,0.8897744417190552,-2.1142261028289795,-1.764690401207939,-0.7016413787329362,-0.9692010406713167
1687022093.735807,-0.8202062845230103,0.5645776987075806,0.09227034449577332,0.11140501499176025,0.03042358160018921,0.029677987098693848,0.661575436592102,1.0042572021484375,-2.195272445678711,-1.68282184818514,-0.5999214902698995,-0.9117965182831241
1687022093.7408419,-0.8799601793289185,0.47403472661972046,0.031004086136817932,0.11950790882110596,0.0016733407974243164,0.024644851684570312,0.7692676782608032,1.0085457563400269,-2.1770570278167725,-1.6060152677928488,-0.4938674400134249,-0.8620128556856512
1687022093.831512,-0.9261354804039001,0.3759884834289551,-0.030094552785158157,0.11970853805541992,-0.014721393585205078,0.0420880950987339,0.7456100583076477,0.9675405621528625,-2.2072794437408447,-1.5383129925440446,-0.38546329565858634,-0.818421959287106
1687022093.849457,-0.9583719968795776,0.27234554290771484,-0.08573789894580841,0.07858079671859741,-0.046591728925704956,0.034483738243579865,0.7034263610839844,0.9537484645843506,-2.1520700454711914,-1.4815718303537848,-0.2758298674735064,-0.7886437117746045
1687022093.983685,-0.976527988910675,0.1660565286874771,-0.13717979192733765,0.09701144695281982,-0.04001888632774353,0.024020671844482422,0.46691828966140747,0.8974234461784363,-2.114483594894409,-1.4312325144517495,-0.16682931576244492,-0.7704731877743911
1687022094.000952,-0.9814434051513672,0.06092459708452225,-0.18181653320789337,0.05373942852020264,-0.012096423655748367,0.048607394099235535,0.13471482694149017,0.9286122918128967,-2.114006757736206,-1.387618760375844,-0.06096235089687362,-0.7760467660858403
1687022094.040617,-0.9724223017692566,-0.04345579445362091,-0.22914300858974457,0.08472698926925659,-0.028199434280395508,-0.03130918741226196,0.5571867227554321,0.9396581649780273,-2.0421175956726074,-1.3393765580744483,0.0434694830853598,-0.77866863267059
1687022094.0451899,-0.9525709748268127,-0.1480216681957245,-0.26589128375053406,0.11374956369400024,-0.0027961432933807373,-0.02701634168624878,0.7723516225814819,0.7379308938980103,-2.010585308074951,-1.2985944246043473,0.14856760254532222,-0.7727305084792252
1687022094.0486069,-0.9237107634544373,-0.25307539105415344,-0.28759559988975525,0.07146161794662476,-0.020438313484191895,-0.0243854820728302,0.9037978053092957,0.6014622449874878,-1.9702415466308594,-1.2689612238425017,0.2558578197742337,-0.759121938618844
1687022094.129458,-0.8855308294296265,-0.35422205924987793,-0.30060234665870667,0.11981427669525146,0.006169170141220093,-0.006663769483566284,0.7833633422851562,0.5203792452812195,-1.9734147787094116,-1.2435418848066346,0.3620820589566508,-0.7487994459501057
1687022094.224831,-0.83937668800354,-0.4494984447956085,-0.3056108057498932,0.10983866453170776,-0.003367096185684204,0.014595270156860352,0.6735069155693054,0.4157854914665222,-1.9703421592712402,-1.2216224752358216,0.46620378526592404,-0.747305070729007
1687022094.231775,-0.7838086485862732,-0.5388212203979492,-0.30873242020606995,0.06783568859100342,-0.00025647878646850586,0.03006124496459961,0.43677958846092224,0.4421483874320984,-2.0061216354370117,-1.1955704557930351,0.5690372120242518,-0.7546450120084431
1687022094.315223,-0.7194429636001587,-0.6196905970573425,-0.3136643171310425,0.12068802118301392,0.01379472017288208,0.010258704423904419,0.49262097477912903,0.3829498589038849,-2.007495641708374,-1.1596605609591193,0.6683484458693123,-0.781747942339349
1687022094.403275,-0.6486923098564148,-0.6968244314193726,-0.3059970736503601,0.10698992013931274,-0.02824270725250244,0.032910555601119995,0.5502980947494507,0.3408660590648651,-1.9573864936828613,-1.1300327023418144,0.7709604768184332,-0.7982496937489861
1687022094.421999,-0.5757677555084229,-0.7603651881217957,-0.3005598187446594,0.10509508848190308,-0.028590381145477295,0.009483247995376587,0.36377766728401184,0.2413230538368225,-1.822394847869873,-1.0896916528699716,0.8638752236201487,-0.8335948824010987
1687022094.487961,-0.5019014477729797,-0.8147808909416199,-0.29021909832954407,0.07409065961837769,-0.03267693519592285,0.03962409496307373,0.4236626923084259,0.2675461173057556,-1.7626068592071533,-1.0465310803438233,0.9523511978269177,-0.8727061500973674
1687022094.501982,-0.4254593253135681,-0.8590068221092224,-0.28476589918136597,0.08433377742767334,-0.021196424961090088,0.03470492362976074,0.17490379512310028,0.33842015266418457,-1.7253106832504272,-0.9809631614668429,1.033326563150553,-0.9327094252893717
1687022094.543757,-0.3449484705924988,-0.8949289321899414,-0.2830420136451721,0.043770402669906616,-0.033598899841308594,0.033743977546691895,0.14546720683574677,0.31811487674713135,-1.7458839416503906,-0.8836593422594848,1.108271946347666,-1.0239182217278495
1687022094.64438,-0.2624419927597046,-0.9233556389808655,-0.28024744987487793,0.055532753467559814,-0.011458814144134521,0.005268871784210205,0.25021591782569885,0.3039213716983795,-1.7107064723968506,-0.7526002410397983,1.1767305122444427,-1.151420312670875
1687022094.734908,-0.1798921823501587,-0.9473356008529663,-0.2649417221546173,0.07579663395881653,-0.011297821998596191,0.008166909217834473,0.5031648278236389,0.2864055931568146,-1.6827845573425293,-0.5964841387275478,1.2448109171208606,-1.302208610836689
1687022094.740118,-0.09475932270288467,-0.9647272825241089,-0.24560539424419403,0.023973725736141205,-0.04096424579620361,-0.007354736328125,0.35883763432502747,0.24577559530735016,-1.7465046644210815,-0.3682222651062423,1.3044055070479337,-1.5261185541066253
1687022094.823238,-0.008874060586094856,-0.9746641516685486,-0.2234976440668106,0.06377510726451874,-0.059698641300201416,-0.0049721598625183105,0.5780395865440369,0.1836354285478592,-1.72170889377594,-0.039684541264197744,1.34521453814355,-1.8544163692408266
1687022094.831026,0.07547826319932938,-0.9766272902488708,-0.20125162601470947,0.05495377629995346,-0.09476858377456665,0.028903663158416748,0.1904425472021103,0.19636258482933044,-1.6271778345108032,0.35880944196003356,1.3541660950274375,-2.2521443982591927
1687022094.845151,0.15203435719013214,-0.9693094491958618,-0.1931963562965393,0.01825365424156189,-0.05481475591659546,0.012745976448059082,0.20968738198280334,0.21237333118915558,-1.4824680089950562,0.6667279716131154,1.3224061027884504,-2.558892934292263
1687022094.912798,0.2228999137878418,-0.958442747592926,-0.1780541092157364,0.00550881028175354,-0.05989837646484375,0.03514033555984497,0.19470182061195374,0.3211323916912079,-1.3731786012649536,0.896783000444625,1.2814925576425684,-2.7831616396838714
1687022094.9263458,0.28856343030929565,-0.94154953956604,-0.17382684350013733,0.03936311602592468,-0.07061177492141724,-0.011964142322540283,-0.08045913279056549,0.30973201990127563,-1.2833913564682007,1.0286235962094956,1.227200868240758,-2.905849089262694
1687022094.966533,0.3474283516407013,-0.9224576354026794,-0.168419748544693,0.04519540071487427,-0.057888925075531006,-0.03264525532722473,0.10392952710390091,0.2863633930683136,-1.1460970640182495,1.1194139812267696,1.1743981633850755,-2.9867665502944636
1687022095.06629,0.3992372751235962,-0.9037240743637085,-0.1545713096857071,0.04743313789367676,-0.03096824884414673,-0.04089371860027313,0.3636894226074219,0.17947708070278168,-1.0583670139312744,1.2014020053202252,1.1283899164983189,-3.0640949140825646
1687022095.085141,0.446196585893631,-0.8855739235877991,-0.12910206615924835,0.06292805075645447,-0.0018009543418884277,-0.03595219552516937,0.49348151683807373,0.1384742558002472,-1.0358809232711792,1.2891487398826529,1.0877281456506578,3.1296051757467978
1687022095.1185532,0.4940623641014099,-0.8619815111160278,-0.11353424936532974,0.05117979645729065,0.011121034622192383,-0.012854255735874176,0.11025963723659515,0.15245257318019867,-1.1115788221359253,1.3449203682837516,1.0391655840196163,3.073926840178389
1687022095.214322,0.5408604145050049,-0.8341642618179321,-0.10788953304290771,0.03795117139816284,0.061337053775787354,0.02834552526473999,0.07313122600317001,0.08622170239686966,-1.1136525869369507,1.3739031273823272,0.9866157300188758,3.0463492930695484
1687022095.229549,0.589259684085846,-0.8015033006668091,-0.10181088000535965,0.0410502552986145,0.027821660041809082,0.023426540195941925,0.018252307549118996,0.16403137147426605,-1.2291979789733887,1.3997078205535605,0.9298049591630584,3.022443472267277
1687022095.302102,0.6384609937667847,-0.7634539604187012,-0.09749726206064224,0.08941364288330078,0.029918134212493896,0.04634988307952881,0.05634594336152077,0.164125457406044,-1.2778569459915161,1.4192603138642208,0.8686442145996872,3.0061382591545533
1687022095.316165,0.6862977147102356,-0.7218420505523682,-0.08910447359085083,0.06841719150543213,0.010278880596160889,0.009285807609558105,0.07952342927455902,0.11756382882595062,-1.2872081995010376,1.44168500846634,0.806460345957085,2.9867602295690627
1687022095.360322,0.7331767082214355,-0.675384521484375,-0.07942222058773041,0.05158281326293945,-0.011947810649871826,0.03025846928358078,0.04905864596366882,0.22531753778457642,-1.3365404605865479,1.4628909258665113,0.7414859639078244,2.968790627668622
1687022095.420042,0.7757567167282104,-0.627281129360199,-0.06870125979185104,0.07911688089370728,0.0324934720993042,0.017828524112701416,0.1183781549334526,0.2630073130130768,-1.260623574256897,1.4824664568004622,0.6780571722762858,2.95604525274252
1687022095.514999,0.8139856457710266,-0.5784003138542175,-0.05366969481110573,0.06023609638214111,-0.013472914695739746,-0.002787768840789795,-0.0019866060465574265,0.3330630660057068,-1.2469019889831543,1.5049571743334302,0.6167663402251518,2.94420902889988
1687022095.533352,0.850658118724823,-0.5239097476005554,-0.04358277469873428,0.013157188892364502,-0.08526694774627686,-0.048610806465148926,-0.04641101881861687,0.2184111773967743,-1.3933137655258179,1.519606899162355,0.5514346439282088,2.9420358615732347
1687022095.601593,0.8860642910003662,-0.4619802236557007,-0.038268256932497025,0.055814921855926514,-0.18276473879814148,-0.055542707443237305,-0.3902268409729004,0.22187459468841553,-1.4077399969100952,1.5276341204756803,0.48022667509947853,2.9474790504214265
1687022095.606697,0.9146431684494019,-0.40190431475639343,-0.04360108822584152,0.05590742826461792,-0.199124276638031,-0.055992964655160904,-1.1989197731018066,0.2816532552242279,-1.1444053649902344,1.5231623327553738,0.4135955751859204,2.99026833671316
1687022095.664764,0.9338920712471008,-0.35431164503097534,-0.04805021733045578,-0.011147379875183105,-0.14491024613380432,-0.007964730262756348,-0.6762366890907288,0.31739625334739685,-0.8907173871994019,1.5193900819195825,0.36217786225036597,3.0389354987929824
1687022095.720854,0.9484283924102783,-0.31397631764411926,-0.043618448078632355,0.10844111442565918,-0.1444588303565979,-0.04288357496261597,-0.8888798952102661,0.37063664197921753,-0.6971724033355713,1.5248384712905372,0.3193782621359127,3.0794999887384504
1687022095.815325,0.9585765600204468,-0.28289899230003357,-0.033154696226119995,0.014751076698303223,-0.1246633529663086,-0.011080503463745117,-0.3485281765460968,0.4097118079662323,-0.5658438205718994,1.5362226826762382,0.2868152396828073,3.1069042545063095
1687022095.832666,0.9655849933624268,-0.25925445556640625,-0.020802048966288567,-0.04767733812332153,-0.14929968118667603,-0.0814623236656189,-0.4418541491031647,0.3043101727962494,-0.40242964029312134,1.5492561917294563,0.2622501878027758,3.125230881781275
1687022095.9335132,0.9688975811004639,-0.24711565673351288,-0.013100292533636093,-0.022013366222381592,-0.14439447224140167,-0.09784632921218872,-0.36606118083000183,0.2524612843990326,-0.11130493879318237,1.5572763277988142,0.24970246369091506,-3.13535860195176
1687022095.949586,0.9697678089141846,-0.24386204779148102,-0.009033308364450932,-0.02350938320159912,-0.11667267978191376,-0.10575854778289795,-0.3239773213863373,0.07355234026908875,-0.020664319396018982,1.5614816775235851,0.24634614727152757,-3.118527962685379
1687022096.020951,0.9694135189056396,-0.24521544575691223,-0.010332116857171059,0.040001094341278076,-0.06040292978286743,-0.06912034749984741,-0.16714760661125183,0.0022963567171245813,0.09455735236406326,1.5601386187087334,0.24774192131362333,-3.107277721030757
1687022096.026178,0.9677979350090027,-0.25135117769241333,-0.013777471147477627,0.008566200733184814,-0.020514756441116333,-0.03657650947570801,0.003075708169490099,-0.06553080677986145,0.1273479163646698,1.5565613918221157,0.2540760023056484,-3.101005745971562
1687022096.11306,0.9661070704460144,-0.25761204957962036,-0.016527041792869568,-0.01923823356628418,0.02575463056564331,-0.005521893501281738,0.11569936573505402,-0.07632184773683548,0.14027437567710876,1.5536911533624456,0.260550019641418,-3.1052588096517
1687022096.128823,0.9643230438232422,-0.2640667259693146,-0.01869862526655197,-0.02526676654815674,0.0301799476146698,0.017523707821965218,0.10341895371675491,-0.049354229122400284,0.12136878818273544,1.5514083400759107,0.2672361673812588,-3.11113475933644
1687022096.235137,0.9633409380912781,-0.26754212379455566,-0.019887775182724,0.010993778705596924,0.033090740442276,0.03815257549285889,0.24787338078022003,-0.056077029556035995,0.0537438690662384,1.5501546717807124,0.2708412650838727,-3.1186443696745316
1687022096.252116,0.9627050161361694,-0.2699701189994812,-0.017760170623660088,-0.020398378372192383,-0.00957101583480835,0.012572227045893669,0.10799795389175415,-0.009774420410394669,0.08379670977592468,1.5523502233096806,0.27336200053901566,-3.130650260682355
1687022096.3209162,0.9618757367134094,-0.2729884386062622,-0.016508009284734726,-0.003471195697784424,-0.021521568298339844,-0.018281996250152588,-0.007421984802931547,0.006822931580245495,0.0538034588098526,1.5536357011381066,0.2764980920367729,-3.131777153278149
1687022096.335431,0.9609395265579224,-0.2762139141559601,-0.017354009672999382,0.012769579887390137,0.00428694486618042,-0.03126049041748047,0.22409453988075256,-0.08796411752700806,0.08531311899423599,1.5527388708720573,0.2798525303906708,-3.1355794395087346
1687022096.4090428,0.9594403505325317,-0.28128430247306824,-0.01880730502307415,0.026491165161132812,-0.025936275720596313,-0.02585512585937977,0.2290010154247284,-0.08353821188211441,0.09877492487430573,1.551196466909529,0.2851321956943444,3.134783613833221
1687022096.415203,0.9581543803215027,-0.28552818298339844,-0.020346349105238914,-0.00390017032623291,0.004613757133483887,-0.001244785264134407,0.3044787347316742,-0.0959879532456398,0.07069136202335358,1.5495645796720119,0.2895575206237258,3.1225748077011777
1687022096.504111,0.957330048084259,-0.28826838731765747,-0.02050159126520157,-0.005181729793548584,-0.026703625917434692,0.03281545639038086,0.08487190306186676,-0.053405966609716415,0.030267905443906784,1.5493842141764969,0.2924179581949341,3.108750026763354
1687022096.523264,0.9568244814872742,-0.2898150384426117,-0.022233281284570694,-0.009574055671691895,0.002705514430999756,0.022279081866145134,0.023467976599931717,-0.019965361803770065,0.04195112735033035,1.5475639775124574,0.2940335620209908,3.109548445138894
1687022096.55725,0.956065833568573,-0.292460560798645,-0.020131783559918404,-0.0023761987686157227,-0.0015764236450195312,0.006551502272486687,0.08050396293401718,-0.00913242157548666,0.04159992188215256,1.5497425375736176,0.2967988969992979,3.1050878192887894
1687022096.650841,0.9551903009414673,-0.2954033613204956,-0.018660839647054672,0.002039194107055664,-0.02126234769821167,-0.0017400961369276047,-0.020617326721549034,0.018075495958328247,0.09359721094369888,1.5512625596165515,0.2998776858184118,3.103486444032992
1687022096.668746,0.9537811279296875,-0.29997518658638,-0.017790915444493294,0.013244569301605225,-0.0008672177791595459,-0.01265031099319458,0.027302661910653114,0.014586223289370537,0.085751473903656,1.552145451883784,0.3046666351362754,3.104056884613396
1687022096.7065191,0.952778697013855,-0.3032391369342804,-0.016090404242277145,0.009928882122039795,-0.0038288533687591553,0.003990231081843376,0.07888493686914444,0.011852843686938286,0.04195958003401756,1.5539100608652112,0.30809001076139364,3.0998924510895414
1687022096.866863,0.9522923827171326,-0.30474644899368286,-0.016397183761000633,0.00042057037353515625,0.015378683805465698,-0.01183152012526989,0.05212181434035301,-0.015075886622071266,0.03951353579759598,1.5535793831321185,0.30967219032534576,3.0992713934820126
1687022096.882927,0.9518407583236694,-0.3061819076538086,-0.015868760645389557,0.005922913551330566,-0.01467999815940857,0.010299324989318848,-0.0036793556064367294,-0.0015120524913072586,0.016062738373875618,1.554126216503855,0.3111797310429183,3.095683542703151
1687022096.923343,0.9517500996589661,-0.30645570158958435,-0.016028141602873802,-0.005659341812133789,0.0119609534740448,-0.001107456162571907,0.09670499712228775,-0.012422580271959305,0.01651727221906185,1.5539572154258698,0.31146734002057386,3.0947954963415576
1687022096.927212,0.951560378074646,-0.3070865273475647,-0.015194847248494625,0.004189193248748779,-0.016995012760162354,-0.002490045502781868,-0.06680075079202652,0.004235137719660997,0.01578516885638237,1.5548293361012682,0.3121301250306478,3.0925654443639314
1687022096.9308882,0.9513640403747559,-0.30768290162086487,-0.015430347062647343,-0.0025724172592163086,-0.01508641242980957,0.00014108233153820038,0.0016523373778909445,0.00854120310395956,0.011172042228281498,1.5545785662737748,0.31275682351738293,3.094454763474036
1687022096.975043,0.9509603381156921,-0.30894649028778076,-0.0150504345074296,0.003858327865600586,-0.013502299785614014,-0.006571232341229916,0.03902110457420349,-0.001792216906324029,0.03155773878097534,1.5549710844112214,0.31408513883332906,3.0936282328513163
1687022097.0405688,0.9503690600395203,-0.31081053614616394,-0.013980125077068806,-0.009802103042602539,-0.007091134786605835,-0.011654614470899105,0.11203014850616455,0.004617922939360142,0.040310487151145935,1.5560871808627608,0.3160456878671274,3.08970871439778
1687022097.102201,0.9496995806694031,-0.31293120980262756,-0.012032663449645042,-0.0077440738677978516,-0.0038565993309020996,0.004952609539031982,0.046453140676021576,0.013085976243019104,0.03499661386013031,1.5581270369789286,0.3182776896583937,3.08393314973732
1687022097.193727,0.9493043422698975,-0.3141551911830902,-0.011315506882965565,0.0059722065925598145,0.02475687861442566,0.0016261925920844078,0.05448337271809578,0.00996102299541235,-0.00021383713465183973,1.5588771027648032,0.31956666805610967,3.08291337553692
1687022097.20171,0.9495899677276611,-0.31332218647003174,-0.010394656099379063,0.002344787120819092,0.002088576555252075,0.004092812538146973,-0.0019200269598513842,0.0027080813888460398,-0.035791072994470596,1.5598502963910552,0.3186893567302662,3.0811603266716205
1687022097.247489,0.950232207775116,-0.3113865554332733,-0.009859070181846619,0.003228425979614258,-0.0030361413955688477,0.0073719024658203125,0.03558478504419327,0.0030692946165800095,-0.030346039682626724,1.5604212668900719,0.31665179478011957,3.0799666605329534
1687022097.341467,0.9506832957267761,-0.3100314438343048,-0.009058093652129173,-0.0026546716690063477,-0.012676805257797241,0.010477184318006039,0.0529857873916626,0.012110281735658646,-0.024253524839878082,1.5612686329285617,0.31522610447226834,3.0784308590232894
1687022097.3498821,0.9508265852928162,-0.3096282482147217,-0.0077123153023421764,0.005304515361785889,-0.01738297939300537,-0.001976967789232731,-0.032015033066272736,0.024533040821552277,0.003860000055283308,1.5626853354159183,0.3148020554617467,3.0782221296185472
1687022097.398895,0.9507065415382385,-0.3100214898586273,-0.006614966783672571,0.0086592435836792,-0.021719902753829956,-0.0022656316868960857,0.0028787669725716114,0.016804547980427742,-0.004508983343839645,1.5638384907279999,0.3152156435348865,3.0779380488137287
1687022097.490149,0.9505444169044495,-0.3105161488056183,-0.006727691274136305,-0.0009441375732421875,-0.017090201377868652,-0.015428007580339909,-0.0061081587336957455,-0.007042639423161745,0.008947037160396576,1.5637187208131296,0.3157359593978946,3.078248817668241
1687022097.5078459,0.9501059651374817,-0.31183555722236633,-0.007580969016999006,0.01128929853439331,-0.04476246237754822,-0.03125262260437012,-0.04317500814795494,-0.02562573365867138,0.04695247486233711,1.5628174185850436,0.31712429761629995,3.079462617514382
1687022097.546904,0.9488229155540466,-0.31563496589660645,-0.010477657429873943,-0.01052945852279663,-0.09862598776817322,-0.06245929002761841,-0.018955959007143974,-0.07623352110385895,0.11772438138723373,1.5597539798787405,0.3211257653257165,3.0806941663702254
1687022097.6442509,0.9453967809677124,-0.3255114257335663,-0.016346074640750885,-0.012367665767669678,-0.13629594445228577,-0.09951388835906982,-0.008199317380785942,-0.1473124772310257,0.30434277653694153,1.5535078756031266,0.33155254765193437,3.082458772924414
1687022097.651301,0.9385188221931458,-0.3442232608795166,-0.0263194777071476,0.016849160194396973,-0.22981247305870056,-0.10280036926269531,-0.07825767248868942,-0.22435596585273743,0.5057893991470337,1.542760041165717,0.35141135006450736,3.0846137305896835
1687022097.700733,0.9265966415405273,-0.37353384494781494,-0.04348922148346901,0.03083139657974243,-0.354676753282547,-0.12113779783248901,-0.45462194085121155,-0.3290439546108246,0.8060850501060486,1.523896381618627,0.38281569415443917,3.100096064771381
1687022097.7937899,0.9051346778869629,-0.41928917169570923,-0.07019802182912827,0.07908767461776733,-0.39874985814094543,-0.11359405517578125,-0.32950109243392944,-0.4303775727748871,1.2875983715057373,1.4933959300904436,0.43266220719066906,3.1275253393136055
1687022097.8010259,0.8677963614463806,-0.48714911937713623,-0.09805725514888763,0.11636495590209961,-0.37362977862358093,-0.08637571334838867,-0.33428454399108887,-0.5166684985160828,1.8254560232162476,1.4582778897477613,0.5088223558360456,-3.129350404946635
1687022097.8487,0.8120017647743225,-0.5690677165985107,-0.12967239320278168,0.17420417070388794,-0.29723477363586426,-0.031292542815208435,-0.45520448684692383,-0.5585100650787354,2.1618947982788086,1.4124387443460364,0.6053716742278429,-3.0931477156398204
1687022097.9476,0.739276647567749,-0.6522369980812073,-0.16750212013721466,0.2391321063041687,-0.1714630126953125,-0.011224031448364258,-0.21454857289791107,-0.6910976767539978,2.2925713062286377,1.3479826305111466,0.7105318648473792,-3.0382600472612302
1687022097.962627,0.652433454990387,-0.7354164123535156,-0.1830112636089325,0.281572163105011,-0.09438705444335938,0.017133012413978577,0.4803618788719177,-0.6963315606117249,2.384645938873291,1.2973187898472796,0.8262810452141437,-3.015117711423372
1687022097.998282,0.5544289946556091,-0.8105210065841675,-0.18885022401809692,0.26266390085220337,-0.052165329456329346,0.03418716788291931,0.2710341215133667,-0.6315604448318481,2.3932676315307617,1.2425011677298803,0.9450410837870027,-2.9867775118154936
1687022098.0928822,0.4482434093952179,-0.872823178768158,-0.1930222064256668,0.30288565158843994,-0.040827393531799316,0.03376626968383789,0.19685432314872742,-0.5385767817497253,2.436519145965576,1.1641758445142694,1.0609574518655773,-2.9280992504071492
1687022098.100625,0.3330164849758148,-0.9220561385154724,-0.19726261496543884,0.2546146512031555,-0.019899427890777588,0.06052863597869873,-0.0804629996418953,-0.4131409525871277,2.508809804916382,1.0360201261990043,1.1733595957523555,-2.813130316974778
1687022098.216405,0.21093636751174927,-0.9517051577568054,-0.22307634353637695,0.30181989073753357,-0.00692826509475708,0.02964073419570923,-0.7124603390693665,-0.3610136806964874,2.5551488399505615,0.7574339905003966,1.2587429562797945,-2.536314962317042
1687022098.233066,0.08495880663394928,-0.963235080242157,-0.2548728287220001,0.28241169452667236,0.026635348796844482,0.024968773126602173,-0.5216151475906372,-0.37672293186187744,2.5504231452941895,0.32175477795670643,1.2987946724790214,-2.100893938628321
1687022098.2987761,-0.041039496660232544,-0.9577779769897461,-0.28456491231918335,0.24823850393295288,0.01649373769760132,0.059162139892578125,-0.7300043106079102,-0.4174397587776184,2.4802792072296143,-0.14323083138120596,1.2791713765591444,-1.6385109627927144
1687022098.312124,-0.16130486130714417,-0.9345141053199768,-0.31727609038352966,0.2555277943611145,0.023518681526184082,0.06312575936317444,-0.664678692817688,-0.469867467880249,2.363943099975586,-0.47034925389843546,1.20689146865034,-1.3165045080443492
1687022098.3612208,-0.2762032449245453,-0.9000480771064758,-0.3370836675167084,0.2608833312988281,0.03202134370803833,0.09816163778305054,-0.432633638381958,-0.468465119600296,2.361724376678467,-0.6864532428428368,1.1198798070128408,-1.1068662192819172
1687022098.3660588,-0.38666579127311707,-0.855118453502655,-0.3453434109687805,0.21067076921463013,-0.0003045797348022461,0.1025608479976654,-0.3915163576602936,-0.4275987148284912,2.3109970092773438,-0.8417889623961748,1.0257793376342776,-0.9558563452068208
1687022098.4173741,-0.4870675504207611,-0.7983116507530212,-0.35420891642570496,0.20712962746620178,0.00045996904373168945,0.07794860005378723,-0.43198901414871216,-0.32897379994392395,2.2670390605926514,-0.9420295961449352,0.924486540510345,-0.8578492628630294
1687022098.517466,-0.5799084901809692,-0.7286033034324646,-0.3644768297672272,0.23002445697784424,-0.001178741455078125,0.04646846652030945,-0.5900208950042725,-0.31806719303131104,2.3008713722229004,-1.0096787622718815,0.8162805427271893,-0.7914741034182267
1687022098.605731,-0.6634339094161987,-0.6416540741920471,-0.3848838210105896,0.19767457246780396,-0.03409665822982788,0.02288442850112915,-1.1551192998886108,-0.3014393746852875,2.2721498012542725,-1.0451086031966574,0.6966528639986432,-0.7619621424681347
1687022098.623779,-0.7371990084648132,-0.5358622074127197,-0.4115693271160126,0.20863449573516846,-0.024669349193572998,0.02053236961364746,-1.433045744895935,-0.40649425983428955,2.28467059135437,-1.0616122906948304,0.5655286104872369,-0.7639376741663186
1687022098.688295,-0.8013448715209961,-0.4195699393749237,-0.42638885974884033,0.21923726797103882,-0.007218301296234131,0.036145418882369995,-1.3359066247940063,-0.5406662821769714,2.2803711891174316,-1.0818062513432196,0.43297149104307364,-0.770412345150767
1687022098.693718,-0.8544867038726807,-0.29665690660476685,-0.42643529176712036,0.20099854469299316,-0.006214737892150879,0.053815752267837524,-1.4763987064361572,-0.6493043899536133,2.240304470062256,-1.1079055490760437,0.30119004948888867,-0.7816712585725805
1687022098.786885,-0.8950199484825134,-0.1672733724117279,-0.4134717881679535,0.24008214473724365,0.0011052191257476807,0.027867019176483154,-1.4109944105148315,-0.7588881254196167,2.2616195678710938,-1.1380333729030598,0.16806341617497436,-0.8000645126032956
1687022098.803515,-0.9225526452064514,-0.041727010160684586,-0.383608341217041,0.20371109247207642,-0.012060161679983139,0.058016419410705566,-1.1073427200317383,-0.8573517203330994,2.218353509902954,-1.176733773418831,0.041739127059299164,-0.8117232784676661
1687022098.9041162,-0.9373630285263062,0.08077118545770645,-0.3388608694076538,0.22784459590911865,-3.6872923374176025e-05,0.055291593074798584,-1.1455270051956177,-1.033402681350708,2.1861064434051514,-1.2239095957168873,-0.08085926601040529,-0.8244860089036085
1687022098.9199219,-0.9389203190803528,0.2006940096616745,-0.279554158449173,0.24899417161941528,-0.038843974471092224,0.06413066387176514,-1.319664716720581,-1.2232147455215454,2.1496453285217285,-1.2814141937306431,-0.2020662874806886,-0.8461514256408451
1687022099.03177,-0.9296378493309021,0.3110080063343048,-0.19760452210903168,0.1853446364402771,0.08170750737190247,0.010699689388275146,-0.9816791415214539,-1.527729868888855,1.978145956993103,-1.3613528119699307,-0.31625344048174125,-0.8831448548431987
1687022099.0449781,-0.9083114862442017,0.4018644392490387,-0.11608435958623886,0.08830404281616211,0.11255523562431335,-0.03769363462924957,-0.23906897008419037,-1.5902290344238281,1.786285400390625,-1.4436830333171053,-0.41355200744645904,-0.8961804367370256
1687022099.174525,-0.8777114748954773,0.47788044810295105,-0.03539418801665306,0.08489537239074707,0.07917219400405884,-0.04567563161253929,-0.5595164895057678,-1.5494775772094727,1.5655786991119385,-1.5304926249392372,-0.4982402255765637,-0.9177182610865549
1687022099.1913981,-0.8389713764190674,0.5432307124137878,0.03204985335469246,0.05297607183456421,0.03294110298156738,0.011971823871135712,-0.06675929576158524,-1.3383278846740723,1.4779826402664185,-1.6089791276587702,-0.5742803104237593,-0.930410107410842
1687022099.197885,-0.7931036949157715,0.6029455661773682,0.08627404272556305,0.08497381210327148,-0.025461435317993164,0.036544084548950195,-0.005730167496949434,-1.2086690664291382,1.4986696243286133,-1.6791505586153774,-0.6471881719831669,-0.9420353218999407
1687022099.208661,-0.740222692489624,0.6606901288032532,0.12473556399345398,0.0869939923286438,-0.0181119441986084,0.061971068382263184,0.2430967390537262,-1.0206156969070435,1.4873226881027222,-1.7377388102689846,-0.7217377690372624,-0.9468896282032001
1687022099.211522,-0.6829577088356018,0.7157903909683228,0.14564618468284607,0.10091131925582886,-0.03303593397140503,0.0732717365026474,0.45166683197021484,-0.8720073699951172,1.484942078590393,-1.7809068390160405,-0.797755322245833,-0.9413217270686032
1687022099.25756,-0.6250337958335876,0.7633531093597412,0.16317076981067657,0.07313871383666992,-0.0005815625190734863,0.0779639333486557,0.0578920841217041,-0.6688444018363953,1.3981101512908936,-1.8261561897367566,-0.8684880328836893,-0.9503526340285872
1687022099.3504782,-0.5665321350097656,0.8043491244316101,0.17906421422958374,0.0535469651222229,0.007769465446472168,0.07468950748443604,0.04592219367623329,-0.42887553572654724,1.314333438873291,-1.87693091771594,-0.9345791621199802,-0.9798104115150884
1687022099.4423962,-0.510013997554779,0.8395143151283264,0.18735454976558685,0.024570822715759277,0.046334803104400635,0.0701528936624527,-0.1287027895450592,-0.22007502615451813,1.2529385089874268,-1.9228449151964166,-0.9963887488423254,-1.0166264857839402
1687022099.4495258,-0.4582613408565521,0.8636205196380615,0.210134357213974,0.004922747611999512,0.031200766563415527,0.07921817898750305,-0.5737490653991699,-0.1318034827709198,1.1382213830947876,-2.000735148634184,-1.0424076464315877,-1.098607349633502
1687022099.537982,-0.41464167833328247,0.8799819946289062,0.23174133896827698,-0.03263917565345764,0.14723974466323853,0.04802858829498291,-0.3531913757324219,-0.0491415336728096,0.829166054725647,-2.08044339395537,-1.0758242430217477,-1.185291199685142
1687022099.553461,-0.3849920332431793,0.890983521938324,0.24068567156791687,-0.029619723558425903,0.18198400735855103,0.04445540904998779,0.012968774884939194,-0.05521274358034134,0.4605421721935272,-2.1295182573502838,-1.09950680372353,-1.2380168106895924
1687022099.588153,-0.3737379014492035,0.8938601016998291,0.24765761196613312,-0.02546250820159912,0.11611920595169067,0.02124813199043274,-0.32307732105255127,0.029987284913659096,0.10639996081590652,-2.156013345122298,-1.1058823047063027,-1.2674329409897473
1687022099.685399,-0.37299785017967224,0.8909451365470886,0.2590169608592987,0.0032773613929748535,0.0010533928871154785,-0.005247890949249268,-0.32773497700691223,0.04286517575383186,-0.011240189895033836,-2.177767095725026,-1.0994222467879897,-1.2952450046611008
1687022099.700588,-0.3740203082561493,0.8873128890991211,0.26978638768196106,0.011105328798294067,-0.02003389596939087,-0.014506816864013672,-0.1622418910264969,0.01050324272364378,-0.022797375917434692,-2.1956847904684142,-1.0914854100142655,-1.3169386225161503
1687022099.736093,-0.37448427081108093,0.8864421844482422,0.2719959616661072,-0.0009582042694091797,0.0052814483642578125,-0.005089163780212402,0.040807731449604034,0.027064019814133644,-0.008419102989137173,-2.1989701405307343,-1.0896006996435799,-1.3215703881847705
1687022099.835928,-0.37576091289520264,0.8862589597702026,0.27082982659339905,-0.0058765709400177,-0.004514575004577637,0.009748786687850952,-0.01543885376304388,0.0017710034735500813,-0.0460590235888958,-2.195313431729683,-1.0892049474546257,-1.3179918458643585
1687022099.851987,-0.3770579397678375,0.8856399059295654,0.2710522413253784,-0.0095997154712677,-0.01698756217956543,0.003941774368286133,0.025586698204278946,0.0017701160395517945,-0.01803777553141117,-2.1940688324185857,-1.0878701660906003,-1.3165028873978744
1687022099.9194221,-0.37738141417503357,0.8859237432479858,0.2696714699268341,-0.002394556999206543,0.006105244159698486,-0.01379665732383728,-0.003961517475545406,-0.006889774464070797,-0.0018565414939075708,-2.1912445902002853,-1.0884817468879067,-1.313085662456256
1687022099.932335,-0.37797579169273376,0.8851673603057861,0.27131789922714233,-0.001891791820526123,0.023310601711273193,-0.02314886450767517,0.01362422201782465,-0.031150992959737778,-0.023120418190956116,-2.1933809814332434,-1.086853543956218,-1.3145792789578836
1687022099.978509,-0.3792825937271118,0.8843219876289368,0.27224862575531006,0.01409408450126648,-0.0026538968086242676,-0.004517793655395508,-0.046087976545095444,-0.015084940940141678,-0.032395873218774796,-2.1933682400370755,-1.0850398147798657,-1.3133193723995935
1687022100.0722861,-0.38095128536224365,0.8833864331245422,0.2729552686214447,0.018661946058273315,0.0024015307426452637,-0.01770615577697754,0.009228808805346489,0.0027577048167586327,-0.04904383048415184,-2.1925168764137735,-1.0830397235480986,-1.3128714284541425
1687022100.088752,-0.38461875915527344,0.8825356960296631,0.27055370807647705,0.023748427629470825,0.003465890884399414,-0.031280517578125,0.04399389028549194,-0.006770198233425617,-0.10621137171983719,-2.1838229298391054,-1.0812275105714155,-1.3034324290395216
1687022100.1263719,-0.3911307454109192,0.8800706267356873,0.26924392580986023,0.03906482458114624,0.03951549530029297,-0.027437835931777954,0.05073270946741104,-0.02226801961660385,-0.24171574413776398,-2.173676366740126,-1.0760109556057416,-1.2910320185289674
1687022100.1907802,-0.40570899844169617,0.8771988153457642,0.25675344467163086,0.06011277437210083,0.12266379594802856,0.004599183797836304,0.5403668880462646,0.07128757983446121,-0.5010465383529663,-2.1350215743962653,-1.069996451615414,-1.2478451581068881
1687022100.251563,-0.44018498063087463,0.868465006351471,0.22804805636405945,0.10375919938087463,0.1456647515296936,0.0548194944858551,0.5081053972244263,0.13200348615646362,-1.0614255666732788,-2.048797761080777,-1.0520976241134015,-1.1546666344958418
1687022100.3425899,-0.4976520240306854,0.8422534465789795,0.2072470784187317,0.09822282195091248,0.11341965198516846,0.0586068332195282,0.33178508281707764,0.3492065668106079,-1.487561821937561,-1.9654026277763181,-1.0014498399061043,-1.0707599541593686
1687022100.3590422,-0.5690038800239563,0.8013647794723511,0.18452438712120056,0.0776708722114563,0.05001473426818848,0.0941622406244278,0.07304578274488449,0.6421912908554077,-1.7176792621612549,-1.8843892831455131,-0.9295733491507138,-1.001797595025557
1687022100.466831,-0.6427490711212158,0.7482895255088806,0.1641228199005127,0.08681046962738037,0.0005050301551818848,0.006653651595115662,0.05952686816453934,0.7710690498352051,-1.7450965642929077,-1.8207992942602749,-0.845479830578585,-0.9660259908501101
1687022100.484309,-0.7109071016311646,0.6918102502822876,0.12652915716171265,0.036941707134246826,-0.024757027626037598,0.013729691505432129,0.22238227725028992,0.7868166565895081,-1.7360221147537231,-1.7469345842621962,-0.7639930820305749,-0.9178389792888041
1687022100.547333,-0.7710767984390259,0.6277899742126465,0.10639549046754837,0.009220898151397705,0.004274845123291016,0.0019878000020980835,-0.3984437584877014,0.7074537873268127,-1.6487377882003784,-1.707913498640362,-0.6787107065744914,-0.9145134583187671
1687022100.5526671,-0.8216705918312073,0.5642571449279785,0.08044356852769852,-0.016738712787628174,0.014905452728271484,-0.0027152374386787415,0.14053277671337128,0.778771698474884,-1.5807565450668335,-1.6683877743223987,-0.5995331679655824,-0.9091769016510322
1687022100.640192,-0.8659952282905579,0.49766969680786133,0.04875640943646431,0.02808934450149536,0.015483379364013672,0.04133164882659912,-0.2949822247028351,0.7864959239959717,-1.5668320655822754,-1.6270379639933357,-0.5209100586095475,-0.9045281638576226
1687022100.6582189,-0.9038263559341431,0.4275209903717041,0.01799454540014267,0.06265509128570557,0.021774083375930786,0.03739500045776367,-0.1968012899160385,0.8795463442802429,-1.6010228395462036,-1.590702992191316,-0.44174875532927704,-0.9166747856379986
1687022100.75716,-0.9355111122131348,0.35265493392944336,-0.021295472979545593,0.07834869623184204,0.015478640794754028,0.03644752502441406,-0.07061906158924103,0.9201018214225769,-1.6415599584579468,-1.5480367952268397,-0.36040680923798885,-0.9228140103362112
1687022100.776782,-0.959820032119751,0.27358007431030273,-0.062446221709251404,0.05218148231506348,0.05076077580451965,0.03705567121505737,-0.13176390528678894,0.8969656229019165,-1.744706153869629,-1.5058275435889499,-0.2771131419217001,-0.931415147066079
1687022100.849227,-0.9764785170555115,0.18889066576957703,-0.10397136956453323,0.053596436977386475,0.03793124854564667,0.021955490112304688,-0.0014071911573410034,0.9088311195373535,-1.7909027338027954,-1.4647201515782409,-0.1900323493235644,-0.9460856669350686
1687022100.8630052,-0.9837704300880432,0.09895651042461395,-0.14967778325080872,0.09055143594741821,0.021053895354270935,0.010487258434295654,0.27160969376564026,0.8946239948272705,-1.8630918264389038,-1.4198072182662662,-0.09911873272042745,-0.946996821252996
1687022100.942168,-0.9813590049743652,0.007279560901224613,-0.19204556941986084,0.11647558212280273,0.010725844651460648,0.009123340249061584,0.08203790336847305,0.8423426747322083,-1.8305820226669312,-1.3775450478779594,-0.007279625047580259,-0.956746405456681
1687022100.948357,-0.9693834781646729,-0.08249492943286896,-0.23127906024456024,0.1385425329208374,0.005773782730102539,0.008699208498001099,0.3597337305545807,0.803328275680542,-1.7824345827102661,-1.336590972410893,0.08258878420968044,-0.9657404840252458
1687022101.033488,-0.9485238790512085,-0.1724616140127182,-0.2656305432319641,0.11920863389968872,0.03336253762245178,0.002370774745941162,0.5602385401725769,0.7532364130020142,-1.7494841814041138,-1.2977447555050916,0.17332818226851648,-0.9651019302530227
1687022101.049765,-0.9193552732467651,-0.26137450337409973,-0.29405677318573,0.09419041872024536,0.06615358591079712,0.014729499816894531,0.30156201124191284,0.6730143427848816,-1.8471742868423462,-1.2612284758930175,0.26444592419858887,-0.9697641907786843
1687022101.122544,-0.8808412551879883,-0.3512449860572815,-0.31740453839302063,0.11797809600830078,0.08177480101585388,-0.005761265754699707,0.6705918908119202,0.6583676934242249,-1.9256635904312134,-1.2249375892129004,0.3589004720631042,-0.9817219992996031
1687022101.137279,-0.8311625719070435,-0.4480707347393036,-0.32924360036849976,0.14067184925079346,0.047024041414260864,-0.011836022138595581,0.706983208656311,0.5995464324951172,-1.9920204877853394,-1.1936356014154108,0.46460616306501035,-0.9815457768789901
1687022101.1771479,-0.7750260829925537,-0.5325039029121399,-0.3402559161186218,0.1624314785003662,-0.030453801155090332,0.02880886197090149,0.5045669674873352,0.5687870979309082,-1.7787261009216309,-1.1571064764722458,0.5615559957669685,-0.9954526990217468
1687022101.281266,-0.7195455431938171,-0.6037923693656921,-0.34305810928344727,0.12843531370162964,-0.06638884544372559,0.02649936079978943,0.39484867453575134,0.4181479811668396,-1.5748896598815918,-1.1259043993886515,0.6482500286874473,-1.007429982102094
1687022101.2966862,-0.6647687554359436,-0.6615533828735352,-0.34702953696250916,0.052998125553131104,-0.004904627799987793,0.01682940125465393,0.35641032457351685,0.4778273105621338,-1.47796630859375,-1.0896801151842392,0.7228883518133206,-1.0310794193123822
1687022101.3292398,-0.60515296459198,-0.7129938006401062,-0.3541606366634369,0.055592358112335205,-0.002506077289581299,-0.006831705570220947,0.2253744751214981,0.5034542083740234,-1.496862530708313,-1.041299359490332,0.7937587291790094,-1.063879934854473
1687022101.4222999,-0.5410316586494446,-0.7605521082878113,-0.3589501976966858,0.08657914400100708,0.02138584852218628,0.030245423316955566,0.28846070170402527,0.5107948780059814,-1.5392181873321533,-0.9850204544938393,0.864163022768228,-1.1072417092165963
1687022101.438225,-0.4708614647388458,-0.8029229044914246,-0.36551958322525024,0.05103099346160889,-0.0007423758506774902,0.0019942820072174072,0.008685656823217869,0.5384408235549927,-1.57378089427948,-0.9106880588593818,0.9321826511113818,-1.1680033691489082
1687022101.512861,-0.39603179693222046,-0.8371573090553284,-0.37726154923439026,0.07497158646583557,0.03254622220993042,0.00021696090698242188,0.07775327563285828,0.5814852714538574,-1.5981181859970093,-0.8096665092885905,0.9920651773983263,-1.2570194820503529
1687022101.51993,-0.3180828094482422,-0.8652645349502563,-0.38747984170913696,0.07908430695533752,0.0038753747940063477,0.004942059516906738,-0.09887080639600754,0.5603098273277283,-1.5638052225112915,-0.6873564827115353,1.0456778186157405,-1.367033398623874
1687022101.5706549,-0.24071575701236725,-0.8858358263969421,-0.3966746926307678,0.06084507703781128,-0.001630544662475586,-0.003685295581817627,0.11566812545061111,0.5165144205093384,-1.5105878114700317,-0.5454294536567365,1.0882922453949764,-1.4984331696573343
1687022101.665403,-0.16223210096359253,-0.9053702354431152,-0.3924098610877991,0.08586177229881287,-0.029352664947509766,0.003982186317443848,0.13743263483047485,0.5389479994773865,-1.5103745460510254,-0.39202594942114116,1.132250875444886,-1.6392858015813867
1687022101.672292,-0.08656688779592514,-0.917032778263092,-0.38930338621139526,0.07846438139677048,-0.02872222661972046,-0.013833761215209961,0.2815389335155487,0.4483911991119385,-1.3904350996017456,-0.21880363514887433,1.1605755376379452,-1.8026584587721801
1687022101.719472,-0.016837384551763535,-0.9259151220321655,-0.3773563504219055,0.04405898228287697,-0.05281418561935425,-0.013161778450012207,0.1543005257844925,0.4503866136074066,-1.3022230863571167,-0.04458974798292042,1.1834510732754422,-1.9674965498409307
1687022101.8441339,0.050785332918167114,-0.9266809821128845,-0.3724021315574646,0.041072506457567215,-0.03602665662765503,0.008846253156661987,0.10225040465593338,0.46144306659698486,-1.277528166770935,0.13553621741239943,1.1854837781258878,-2.1377682312747166
1687022101.913101,0.11603761464357376,-0.9240539073944092,-0.36422494053840637,0.04202810674905777,-0.049884140491485596,0.019757866859436035,0.05083479732275009,0.4764498174190521,-1.201216220855713,0.30842136725248837,1.178553098765453,-2.299481030851402
1687022101.9192739,0.178658589720726,-0.9153019189834595,-0.36097586154937744,0.01624186336994171,-0.0492824912071228,-0.003526031970977783,-0.055187422782182693,0.4881654977798462,-1.1418589353561401,0.4595851850807711,1.1562568712834331,-2.437638652118996
1687022101.924251,0.2357434779405594,-0.9039395451545715,-0.3568172752857208,0.04793262481689453,-0.028509974479675293,-0.004541307687759399,0.15195110440254211,0.4207254648208618,-1.018053412437439,0.5838493140433979,1.1288934871864096,-2.54937819334376
1687022101.994039,0.28735560178756714,-0.8939736485481262,-0.3438575565814972,0.0515877902507782,-0.039910078048706055,-0.012404561042785645,0.039727818220853806,0.4674861431121826,-0.9610082507133484,0.696122830407825,1.1061355901950827,-2.6492405327836988
1687022102.0872989,0.33820605278015137,-0.8786434531211853,-0.3370496332645416,0.05386847257614136,-0.019366860389709473,-0.007325887680053711,0.07392951101064682,0.4325130581855774,-0.9951039552688599,0.7871107036705534,1.073013659042588,-2.726677297087363
1687022102.1041179,0.39002957940101624,-0.8631435632705688,-0.3207184076309204,0.04298430681228638,-0.02342277765274048,-0.003561347723007202,0.24687394499778748,0.4085392355918884,-1.0917866230010986,0.8826094304556552,1.041462295156813,-2.812252620546529
1687022102.172262,0.4443141520023346,-0.8439395427703857,-0.3005846440792084,0.06084325909614563,-0.011514008045196533,0.01573359966278076,0.35039469599723816,0.40892207622528076,-1.1545968055725098,0.9760074336374928,1.00458528900099,-2.8981163169190864
1687022102.185827,0.49916183948516846,-0.8185701966285706,-0.28421854972839355,0.01428106427192688,-0.06869786977767944,-0.011084705591201782,-0.13390038907527924,0.41765186190605164,-1.2066445350646973,1.0531871506385952,0.9589173754210341,-2.965470753333615
1687022102.26546,0.552748441696167,-0.7874171733856201,-0.2728433609008789,0.05157583951950073,-0.028531372547149658,0.04516702890396118,0.2804830074310303,0.4330575168132782,-1.1711583137512207,1.1122720163518458,0.9066076572940023,-3.0131804016807506
1687022102.279964,0.6014192700386047,-0.7606502175331116,-0.24434852600097656,0.08627903461456299,-0.0404057502746582,0.04104048013687134,0.34092122316360474,0.43769896030426025,-1.0706787109375,1.1848823178105754,0.8643141265396158,-3.07907122622028
1687022102.314723,0.6466577649116516,-0.7287933230400085,-0.22515356540679932,0.019998669624328613,-0.04124152660369873,0.03783673048019409,-0.035306837409734726,0.5023795366287231,-1.1003355979919434,1.2357434394539968,0.816558050400477,-3.115941260176346
1687022102.415679,0.6918874979019165,-0.6906978487968445,-0.2103051096200943,0.07257777452468872,0.010369420051574707,0.03133481740951538,0.10150326043367386,0.48058590292930603,-1.1482152938842773,1.2757118298910415,0.7624536594639338,-3.13696305440428
1687022102.422957,0.7356557846069336,-0.6528462767601013,-0.18056157231330872,0.0792856216430664,-0.0004741549491882324,0.03320746123790741,0.42114707827568054,0.5614991784095764,-1.1507883071899414,1.3301111692586087,0.7113358864802569,3.103473409950852
1687022102.469143,0.7759801149368286,-0.6122066974639893,-0.15184777975082397,0.038213491439819336,-0.0015170574188232422,0.021232619881629944,0.07083947956562042,0.5785697102546692,-1.137539267539978,1.3775530794983533,0.6588484061445743,3.0729342152953834
1687022102.564149,0.8136071562767029,-0.5668911933898926,-0.12914276123046875,0.06803035736083984,-0.04358255863189697,-0.027671754360198975,-0.2265128344297409,0.648220419883728,-1.1073575019836426,1.4133809260807209,0.6027271488936206,3.0649738989597246
1687022102.5728269,0.8463035225868225,-0.5215505361557007,-0.10842183232307434,0.04891425371170044,-0.054209351539611816,-0.026740483939647675,-0.027478117495775223,0.6633062362670898,-1.0577505826950073,1.443378166200435,0.548667238541081,3.0677211904461346
1687022102.652349,0.8749951720237732,-0.47728872299194336,-0.08111023157835007,0.08078473806381226,-0.10596325993537903,-0.048162154853343964,-0.2899748682975769,0.6562294363975525,-0.9565880298614502,1.478362559701779,0.4975667222520533,3.066647981529642
1687022102.667692,0.8985466957092285,-0.43478450179100037,-0.05980069190263748,-0.010134339332580566,-0.14883369207382202,-0.04200588911771774,-0.5894787907600403,0.6864742636680603,-0.9030415415763855,1.5043416429934648,0.44979895619404486,3.084349966641521
1687022102.7084188,0.9169501066207886,-0.39625275135040283,-0.04675859957933426,0.024089932441711426,-0.13875100016593933,-0.12989234924316406,-0.7430884838104248,0.5198876261711121,-0.7507429122924805,1.519846844144675,0.4074318910359703,3.122194225597663
1687022102.772881,0.9305872321128845,-0.3641597330570221,-0.0373537540435791,-0.02589362859725952,-0.21025747060775757,-0.1657865047454834,-0.593315601348877,0.3983354866504669,-0.5351377725601196,1.5306778835178476,0.37273043266914707,-3.1282155746613887
1687022102.867848,0.9380333423614502,-0.34508925676345825,-0.03172915056347847,0.029526352882385254,-0.18878531455993652,-0.13878780603408813,-0.6467174887657166,0.2928425073623657,-0.26310837268829346,1.536984032725489,0.3523338788149233,-3.09701351699441
1687022102.884584,0.9412156939506531,-0.3365143835544586,-0.029514402151107788,0.03704047203063965,-0.08282774686813354,-0.09025180339813232,-0.24980780482292175,0.1627551019191742,-0.1084645465016365,1.5394488547259255,0.3432129519736522,-3.0698748107531757
1687022102.9169722,0.9431103467941284,-0.3317553997039795,-0.021940462291240692,-0.002436518669128418,-0.04071176052093506,-0.03270125389099121,0.19913753867149353,0.1354050636291504,-0.09858934581279755,1.5475365822422633,0.3381637386111523,-3.072591013685206
1687022103.0132651,0.9440993070602417,-0.3293379247188568,-0.014593236148357391,-0.037193238735198975,-0.05149102210998535,-0.02645289897918701,-0.19788168370723724,0.1560710072517395,0.0072908177971839905,1.5553402473562268,0.33560230502184396,-3.0738756365676427
1687022103.021463,0.9435514211654663,-0.3310067355632782,-0.012052896432578564,-0.027841031551361084,-0.011492133140563965,-0.04779207706451416,-0.24191948771476746,0.11499112844467163,0.06912096589803696,1.5580230529747476,0.3373702493659653,-3.0621549642496095
1687022103.101063,0.9415491223335266,-0.33660784363746643,-0.01343564409762621,-0.009221911430358887,0.027647793292999268,-0.06395691633224487,-0.14329467713832855,0.024325581267476082,0.11506015807390213,1.5565275741371505,0.34331220188477807,-3.0504228753145495
