Timestamp,gravityX,gravityY,gravityZ,accelerationX,accelerationY,accelerationZ,rotationRateX,rotationRateY,rotationRateZ,attitudeRoll,attitudePitch,attitudeYaw
1687015362.5182629,0.9609339237213135,-0.269455224275589,-0.06324627250432968,0.0392645001411438,0.0362398624420166,0.03517019748687744,0.1430829018354416,0.08927293121814728,-0.046688493341207504,1.505073617079659,0.2728272889502439,-1.0508300113042435
1687015362.52465,0.962243914604187,-0.26593688130378723,-0.05800166353583336,0.12192350625991821,-0.029580026865005493,0.042071592062711716,-0.00010412582196295261,0.0592704638838768,-0.08017514646053314,1.5105916623388516,0.2691756717272835,-1.0558739201612088
1687015362.6312299,0.9631795883178711,-0.26310524344444275,-0.05532415956258774,0.004990577697753906,-0.006578534841537476,-0.014057513326406479,0.06428156793117523,0.06610928475856781,-0.0467032715678215,1.5134202812610498,0.26623944455120485,-1.0557538163668896
1687015362.6467981,0.9636576771736145,-0.2621724009513855,-0.05127831548452377,-0.08101308345794678,-0.0665934681892395,-0.02307765930891037,-0.10662701725959778,0.07009399682283401,0.016165902838110924,1.5176342977907415,0.2652726588356963,-1.0570513679420996
1687015362.7226338,0.963316023349762,-0.26354578137397766,-0.05065665394067764,0.030138015747070312,-0.014545649290084839,0.008832395076751709,0.01450322289019823,0.01417284831404686,0.01912401057779789,1.5182590125235438,0.2666960834924037,-1.0528397690403681
1687015362.737269,0.9629077911376953,-0.26493093371391296,-0.051190149039030075,0.04269224405288696,-0.039680302143096924,-0.01848137378692627,-0.12999385595321655,-0.004845494404435158,0.03379896283149719,1.5176842795136396,0.2681322842793947,-1.0501508989441226
1687015362.8163772,0.962489664554596,-0.2662135362625122,-0.052382051944732666,-0.009669899940490723,-0.01549425721168518,-0.02090584486722946,0.02819240465760231,-0.013595664873719215,0.02975495159626007,1.5164264701820895,0.26946265690062604,-1.0475186581455376
1687015362.822474,0.9616721868515015,-0.26918119192123413,-0.05223464220762253,-0.029268503189086914,-0.006346791982650757,-0.0178336501121521,0.0320785790681839,0.0061680967919528484,0.08248434215784073,1.516533172382169,0.27254274264238243,-1.0473734064151539
1687015362.869977,0.9606826901435852,-0.2728874385356903,-0.05119762569665909,0.019602954387664795,-0.0028693675994873047,0.0016371645033359528,0.1690976321697235,-0.029250169172883034,0.03732931241393089,1.5175537353810598,0.27639311074149586,-1.054183811145851
1687015362.968853,0.9600270390510559,-0.2749537527561188,-0.0524260476231575,0.005076050758361816,-0.0007572770118713379,-0.012744121253490448,0.05823410302400589,-0.032091762870550156,0.04109003022313118,1.5162415853988418,0.27854161088772483,-1.0581328134243095
1687015362.983138,0.9595072269439697,-0.2768722474575043,-0.05184333398938179,-0.013599574565887451,-0.008161962032318115,0.001489400863647461,0.09882867336273193,-0.0190633125603199,0.032570842653512955,1.5168176082014677,0.2805375762973808,-1.0638999177125403
1687015363.054266,0.9590532183647156,-0.2783374786376953,-0.05239670351147652,0.0011366605758666992,-0.0022106170654296875,-0.0064105987548828125,0.05950319021940231,-0.02109699137508869,0.033471789211034775,1.516216805972707,0.2820627644040114,-1.0668767247647777
1687015363.067081,0.9586339592933655,-0.279790997505188,-0.052326541393995285,0.010833203792572021,-0.0006960630416870117,0.003605309873819351,0.08220357447862625,-0.020633602514863014,0.014477526769042015,1.5162659549718507,0.2835764095678664,-1.0714715879500647
1687015363.111281,0.9583926796913147,-0.2804431915283203,-0.05324774980545044,-0.004245281219482422,0.0008869171142578125,-0.002996087074279785,-0.01170973852276802,-0.013902993872761726,0.024250861257314682,1.5152939621874104,0.2842557936825562,-1.0718037579181872
1687015363.208273,0.9580570459365845,-0.2815902531147003,-0.053233616054058075,-0.011157572269439697,0.002293407917022705,0.0034900307655334473,0.0838329866528511,-0.020562050864100456,0.01695147156715393,1.5152892657812411,0.28545103699697977,-1.0750227496580005
1687015363.223042,0.9576699137687683,-0.28289079666137695,-0.053305450826883316,0.00783008337020874,0.011330127716064453,-0.003029942512512207,0.11211620271205902,-0.019672200083732605,0.02335384115576744,1.5151920891688568,0.28680668884251015,-1.0782757523855335
1687015363.25991,0.9572895169258118,-0.28422510623931885,-0.05303783714771271,0.017136812210083008,-0.018356680870056152,0.0035384297370910645,0.0031302389688789845,-0.025817887857556343,0.03434803709387779,1.5154487362640376,0.2881981173426646,-1.0824093194594024
1687015363.35939,0.9567044377326965,-0.2860369384288788,-0.05384857952594757,0.004721403121948242,0.006679028272628784,-0.006362494081258774,0.02839737944304943,-0.012467728927731514,0.04160681739449501,1.5145701603861024,0.2900884169109999,-1.0825650071848978
1687015363.3741012,0.9560964107513428,-0.2880411148071289,-0.05396468937397003,-0.009349524974822998,0.0036172568798065186,-0.011663258075714111,0.023055389523506165,0.004707619082182646,0.05401787906885147,1.5144134232971953,0.29218061236920573,-1.0827626645034518
1687015363.410964,0.9554046988487244,-0.29057174921035767,-0.05263104289770126,0.01299440860748291,0.001326143741607666,0.00011038780212402344,0.09689445793628693,-0.0037252798210829496,0.04051605239510536,1.515764256894688,0.29482432230476624,-1.087918885367582
1687015363.5076919,0.9548694491386414,-0.29230135679244995,-0.052767738699913025,0.000681757926940918,0.026081234216690063,-0.014691293239593506,0.0531749427318573,-0.00010870746336877346,0.039060503244400024,1.5155907485912772,0.2966324012323261,-1.0884049552883186
1687015363.521891,0.9547383189201355,-0.29304027557373047,-0.05101074278354645,0.0013010501861572266,-0.0062303245067596436,0.007630117237567902,0.08352822810411453,0.004129802342504263,-0.006703525315970182,1.517418049404379,0.2974051772926386,-1.0953269563267087
1687015363.5615911,0.9549123048782349,-0.29235613346099854,-0.051678624004125595,0.012678146362304688,0.021924585103988647,-0.009463250637054443,0.005841115489602089,-0.006100820377469063,-0.005621682852506638,1.5167303558929681,0.29668970140666595,-1.0943926928546222
1687015363.65841,0.9551079273223877,-0.2918774485588074,-0.050758883357048035,0.004151105880737305,-0.010978937149047852,-0.0005716048181056976,-0.015198567882180214,-0.0031748937908560038,-0.008923336863517761,1.5177016168613122,0.29618918075910994,-1.0965849150729765
1687015363.673991,0.9552105665206909,-0.29158517718315125,-0.05050874501466751,0.016881227493286133,0.00548282265663147,-0.0049263834953308105,0.11504003405570984,-0.013486298732459545,0.0020932285115122795,1.5179684451784659,0.2958835980991583,-1.0979522120601148
1687015363.712111,0.9551217555999756,-0.291962206363678,-0.0500061996281147,0.0040915608406066895,-0.03059333562850952,-0.010830521583557129,-0.027657588943839073,-0.016324162483215332,0.020552197471261024,1.5184882453628992,0.2962777793917397,-1.1018957587570737
1687015363.80767,0.9548155069351196,-0.2927127182483673,-0.05144909769296646,0.006717205047607422,0.0002474784851074219,-0.006259560585021973,0.06140881031751633,-0.03414062038064003,0.012827698141336441,1.5169645722307257,0.29706257722252255,-1.1014117591455823
1687015363.822246,0.954135000705719,-0.29462864995002747,-0.053108807653188705,0.0029421448707580566,-0.008441418409347534,-0.0018380284309387207,0.017161991447210312,-0.04496583715081215,0.038585394620895386,1.5151919694696556,0.299066902982739,-1.1033847970886421
1687015363.8593302,0.9534780383110046,-0.2964543402194977,-0.05472543090581894,0.005124986171722412,0.000510096549987793,-0.0033799409866333008,0.02070607990026474,-0.03467627242207527,0.046665091067552567,1.5134636403217459,0.30097794418594237,-1.1043114961755076
1687015364.0168638,0.9527550339698792,-0.298511803150177,-0.05611295998096466,-0.008510589599609375,0.0036204159259796143,0.009115934371948242,0.00756351463496685,-0.040360789746046066,0.028206653892993927,1.5119688078083404,0.30313298161221963,-1.1059276542838847
1687015364.024796,0.9522219300270081,-0.29993054270744324,-0.057576749473810196,0.008562982082366943,0.035800933837890625,0.010869685560464859,0.04633723199367523,-0.031483761966228485,0.01982375606894493,1.5104041719649863,0.3046198587583281,-1.106143573797184
1687015364.071883,0.9519698619842529,-0.3007277548313141,-0.05758890509605408,-0.013722121715545654,0.0317763090133667,0.01776355504989624,0.044001638889312744,0.009874062612652779,0.010829329490661621,1.510375498958859,0.30545563483874577,-1.1082903688495138
1687015364.0836148,0.9524360299110413,-0.29969552159309387,-0.05521262437105179,0.023378849029541016,0.04485848546028137,0.018393218517303467,0.1372808963060379,-0.013284163549542427,-0.06363864243030548,1.5128912311151186,0.304373477176141,-1.1140206725557358
1687015364.086907,0.9544628858566284,-0.2930299639701843,-0.05598237365484238,-0.014109492301940918,-0.009521275758743286,0.04141027480363846,-0.10229405760765076,-0.04952295124530792,-0.1778413951396942,1.5122101721577996,0.29739438170337534,-1.1168660249157476
1687015364.131583,0.9573130011558533,-0.2827315330505371,-0.06012292206287384,-0.0036539435386657715,-0.005018681287765503,0.008975569158792496,-0.24385185539722443,-0.023539287969470024,-0.18726131319999695,1.5080748754700393,0.2866406288766781,-1.106706038107106
1687015364.193932,0.9596614837646484,-0.2742718756198883,-0.06184626370668411,-0.0005092024803161621,-0.029759526252746582,0.02621704339981079,-0.12002857774496078,0.03040224127471447,-0.14803142845630646,1.506439407919432,0.27783245504747106,-1.0985118446483444
1687015364.2908049,0.9611574411392212,-0.2692951261997223,-0.06046907976269722,0.011971831321716309,-0.016547739505767822,-0.02305745705962181,-0.10818971693515778,0.07264378666877747,-0.06725887954235077,1.5079663596022868,0.2726610378616085,-1.0922529673569763
1687015364.376035,0.9620949029922485,-0.26683539152145386,-0.05632275342941284,-0.004041314125061035,-0.014124661684036255,-0.00040936097502708435,-0.024853147566318512,0.10013720393180847,-0.05221288651227951,1.5123212823547307,0.27010787593991303,-1.0900373674458388
1687015364.3904161,0.9625616073608398,-0.26571187376976013,-0.053596049547195435,-0.0018834471702575684,-0.002507120370864868,-0.014580130577087402,-0.14601269364356995,0.08684545755386353,-0.007385893724858761,1.5151731192947233,0.268942268486071,-1.0837808247321743
1687015364.465738,0.9628999829292297,-0.2651464343070984,-0.05020811781287193,0.006994307041168213,0.008081644773483276,-0.01979910582304001,0.07007309794425964,0.0658106580376625,-0.019335497170686722,1.5187008956656431,0.26835579801683235,-1.0842863853675169
1687015364.472385,0.9632047414779663,-0.2644316256046295,-0.04809243977069855,0.009039700031280518,0.02199995517730713,-0.021579094231128693,0.011990132741630077,0.037799347192049026,-0.02614779770374298,1.5209081442514831,0.26761452086642745,-1.0842213003403958
1687015364.557467,0.963958740234375,-0.2619231939315796,-0.04668790102005005,-0.0012970566749572754,0.0005554258823394775,-0.013553734868764877,0.04962152987718582,-0.014730704948306084,-0.07962360233068466,1.5224006428016041,0.265014423066541,-1.08905009483791
1687015364.571413,0.9651248455047607,-0.2576825022697449,-0.04619542136788368,0.012673676013946533,0.004279762506484985,2.2411346435546875e-05,0.11919364333152771,-0.02757442183792591,-0.11202848702669144,1.522968117015943,0.26062292964716305,-1.0953313048600974
1687015364.64416,0.9664733409881592,-0.25258156657218933,-0.04617294296622276,0.01059269905090332,0.01768776774406433,-0.016555842012166977,0.19937030971050262,-0.007708925288170576,-0.11389455944299698,1.5230579553093462,0.2553474190496994,-1.098793571119775
1687015364.656424,0.9684696197509766,-0.24531735479831696,-0.04342949762940407,-0.011362016201019287,0.006715625524520874,0.00621342658996582,0.2764202058315277,-0.02460508421063423,-0.19424952566623688,1.5259829220597687,0.24784703015474338,-1.1146413657202687
1687015364.700715,0.9702391028404236,-0.2382999211549759,-0.04300503805279732,0.015005707740783691,0.0342288613319397,-0.062127888202667236,0.5898464322090149,-0.12722572684288025,-0.14428003132343292,1.5265011535898492,0.24061497351495037,-1.1316652418513289
1687015364.766799,0.971365749835968,-0.23356272280216217,-0.04355667904019356,0.018624544143676758,-0.08995409309864044,-0.1899789571762085,1.209214687347412,-0.4422460198402405,-0.08721587806940079,1.5259856876468023,0.23574014929078108,-1.1805643394859187
1687015364.857617,0.9701245427131653,-0.23640649020671844,-0.054500333964824677,0.02638113498687744,-0.26302891969680786,-0.19383639097213745,1.5499932765960693,-0.6356939077377319,0.18584682047367096,1.5146766209556857,0.2386658355309648,-1.2529367621938146
1687015364.872116,0.9630128145217896,-0.2592250108718872,-0.07354497164487839,0.08367913961410522,-0.2888248860836029,-0.15475696325302124,0.9346312880516052,-0.7557544708251953,0.6050981283187866,1.4945746055877944,0.26221970937873934,-1.3121873850141381
1687015364.943396,0.9485381841659546,-0.3025476932525635,-0.09348901361227036,0.09375917911529541,-0.21332144737243652,-0.16972500085830688,1.3421812057495117,-0.8102409243583679,0.9512486457824707,1.472552480013809,0.30736447695673264,-1.3651444070922212
1687015364.955532,0.9267712831497192,-0.3576045632362366,-0.11495252698659897,0.11039918661117554,-0.2971805930137634,-0.02146095037460327,0.8980320692062378,-0.8400084376335144,1.1977428197860718,1.4473911152790553,0.3657015792244782,-1.4186499302377324
1687015365.0006108,0.8955932855606079,-0.4237823784351349,-0.13535743951797485,0.11797201633453369,-0.1945190727710724,-0.025226011872291565,1.0328401327133179,-0.7916901707649231,1.408835768699646,1.4207944144410825,0.4376171727213114,-1.4604355523475363
1687015365.1272311,0.8539156913757324,-0.498778373003006,-0.14848706126213074,0.1692320704460144,-0.18466287851333618,-0.0075339823961257935,0.6572511196136475,-0.6648440957069397,1.763709306716919,1.3986282609290848,0.5221887259723491,-1.4898856851499955
1687015365.1412668,0.7998986840248108,-0.5799462199211121,-0.15435253083705902,0.19962835311889648,-0.12012708187103271,0.03821796178817749,0.6727418899536133,-0.5964280366897583,1.8776085376739502,1.380174151567843,0.618662696113713,-1.5159090002010522
1687015365.217566,0.7358407974243164,-0.6579733490943909,-0.1600298434495926,0.22314363718032837,-0.049866676330566406,0.06003904342651367,0.3916693329811096,-0.49243220686912537,1.9888964891433716,1.3566520003262628,0.718124280169089,-1.5219444723570466
1687015365.224741,0.6636106967926025,-0.7305240631103516,-0.1611078530550003,0.23929768800735474,0.010568499565124512,0.10909073054790497,0.342723548412323,-0.3105960190296173,2.0293729305267334,1.3326294704569526,0.8190890620319395,-1.5154547551063269
1687015365.30547,0.5846214294433594,-0.7954320311546326,-0.15970611572265625,0.17961513996124268,0.07211953401565552,0.09911350905895233,0.3005610704421997,-0.21558977663516998,2.0244269371032715,1.3041241651629485,0.919720154117235,-1.4952547359880726
1687015365.318881,0.5025730133056641,-0.8519551157951355,-0.14694583415985107,0.1594143509864807,0.019984841346740723,0.06868356466293335,0.3379595875740051,-0.0017355438321828842,2.0068957805633545,1.286338446233579,1.0197079331241206,-1.4804770816490622
1687015365.394527,0.4112945795059204,-0.9022460579872131,-0.12957297265529633,0.17171332240104675,0.0027402639389038086,0.0804549902677536,0.24226853251457214,0.1906033754348755,2.141525983810425,1.2656019295969922,1.1249501021842445,-1.4517947528268256
1687015365.408121,0.3098011314868927,-0.9422813653945923,-0.1270008385181427,0.2142009735107422,0.04437786340713501,0.012666821479797363,-0.03449294716119766,0.26923230290412903,2.3679680824279785,1.1817477954134696,1.2293799476790188,-1.3462562418072495
1687015365.485928,0.20014213025569916,-0.9731465578079224,-0.11370616406202316,0.19412973523139954,-0.018857896327972412,0.024762757122516632,0.08495155721902847,0.36071348190307617,2.375145435333252,1.0541425489203688,1.3385270345079086,-1.1958317595359291
1687015365.546393,0.08559632301330566,-0.990086555480957,-0.11136529594659805,0.22289064526557922,0.046009838581085205,-0.044655755162239075,0.19100981950759888,0.1899806261062622,2.345242977142334,0.6553046232375128,1.429871786651152,-0.774263807316229
1687015365.6059399,-0.02938397042453289,-0.995629608631134,-0.08864710479974747,0.23916181921958923,-0.0014712214469909668,-0.02944057434797287,0.4653230905532837,0.38791224360466003,2.45322585105896,-0.32007380186652157,1.4772701302584326,0.22324411393994256
1687015365.671064,-0.14937596023082733,-0.9862394332885742,-0.07084330171346664,0.20902258157730103,0.03866857290267944,0.0026976540684700012,0.38719844818115234,0.41211533546447754,2.449331760406494,-1.127950527496461,1.404710374815322,1.0557207071523342
1687015365.756802,-0.2658776640892029,-0.9618672728538513,-0.06419312953948975,0.235711008310318,0.04258608818054199,-0.0063482001423835754,0.10390545427799225,0.46997857093811035,2.420161247253418,-1.3338915337599897,1.2937492352656115,1.2900992950928272
1687015365.7726789,-0.3773738145828247,-0.9241365194320679,-0.05967361479997635,0.18319043517112732,0.0769684910774231,-0.009601235389709473,0.4160243570804596,0.40933144092559814,2.350079298019409,-1.4139662207759616,1.1787692825809566,1.394658952289457
1687015365.784591,-0.48004817962646484,-0.8757652044296265,-0.05088403448462486,0.22003841400146484,0.04730445146560669,-0.0021249018609523773,0.3481614589691162,0.41428402066230774,2.307215929031372,-1.465192891455332,1.0670186638775172,1.476090677301741
1687015365.838745,-0.5735002756118774,-0.8176084756851196,-0.05112849548459053,0.18331772089004517,0.053967058658599854,0.0664636492729187,0.14208097755908966,0.6104731559753418,2.1790931224823,-1.4818797522234166,0.9572451311193326,1.5250722553941114
1687015365.849329,-0.6536539793014526,-0.7527217268943787,-0.07840067148208618,0.14542949199676514,0.02120000123977661,0.018769383430480957,-0.5772256851196289,0.6184103488922119,2.0269196033477783,-1.4514244242202459,0.8521865624688589,1.527722093322393
1687015365.899262,-0.7201502919197083,-0.680804431438446,-0.13374990224838257,0.16718703508377075,0.0070677995681762695,0.06224729120731354,-1.0328238010406494,0.6636998653411865,1.9462144374847412,-1.3871636548538642,0.7488603238915789,1.4836050535693042
1687015365.995348,-0.7770860195159912,-0.6019943952560425,-0.1836843490600586,0.1422441601753235,-0.0013991594314575195,-0.002945825457572937,-0.6012741327285767,0.5812726616859436,1.9635599851608276,-1.3386809551003558,0.6459964415676331,1.4574282927180813
1687015366.008628,-0.8284937739372253,-0.5172532796859741,-0.21458618342876434,0.12739813327789307,-0.0023085474967956543,-0.016263961791992188,-0.19681519269943237,0.41537371277809143,2.1053411960601807,-1.317358049050944,0.5436384121169984,1.463926944258568
1687015366.0509381,-0.875813364982605,-0.4256536364555359,-0.22753064334392548,0.14984577894210815,-0.044225603342056274,-0.04898908734321594,0.04136071354150772,0.13142260909080505,2.2272884845733643,-1.316621671653716,0.4396841048328527,1.491888871877439
1687015366.141954,-0.9177252650260925,-0.3234444856643677,-0.23057372868061066,0.20988523960113525,-0.043605685234069824,-0.04675471782684326,0.15049803256988525,0.025344189256429672,2.4730281829833984,-1.324646392325922,0.32936738725755216,1.529616359693455
1687015366.156389,-0.9504097700119019,-0.20820236206054688,-0.2310265302658081,0.24668961763381958,-0.048709869384765625,0.06145566701889038,0.22022469341754913,0.10486520081758499,2.642925977706909,-1.3323402155501816,0.20973668970806233,1.569876748800395
1687015366.203094,-0.9667665362358093,-0.0771169364452362,-0.24375297129154205,0.3010866045951843,-0.08418375998735428,0.11409910023212433,-0.32125213742256165,0.29304468631744385,2.911362409591675,-1.3238118975980153,0.07719357819882347,1.6045833019272757
1687015366.294951,-0.9635688066482544,0.07278888672590256,-0.2573655843734741,0.21079164743423462,-0.026692092418670654,0.052684247493743896,-0.3272513449192047,0.2922919988632202,2.966646671295166,-1.309792955489911,-0.07285331427579328,1.6147138587112968
1687015366.311702,-0.9381892681121826,0.21659719944000244,-0.26997512578964233,0.06201434135437012,-0.01869073510169983,-0.030729740858078003,0.25526973605155945,0.2557505667209625,3.015578031539917,-1.2906046052888636,-0.2183275678946727,1.6570083570587844
1687015366.3566852,-0.892493486404419,0.3535430431365967,-0.28011229634284973,0.1090918779373169,-0.07265922427177429,-0.0665520429611206,0.2383016049861908,0.00530754029750824,3.274115562438965,-1.266678745151048,-0.36135605883312655,1.7208121870325983
1687015366.5160542,-0.8270456790924072,0.4849136769771576,-0.28434881567955017,0.16943758726119995,-0.05649268627166748,0.06942889094352722,0.4909265637397766,-0.029568064957857132,3.1674492359161377,-1.2396441544865806,-0.5062644749103793,1.7900048641504411
1687015366.531179,-0.7420896887779236,0.6063336730003357,-0.2857666611671448,0.14066439867019653,0.03139221668243408,0.04704293608665466,-0.09005962312221527,-0.19342365860939026,3.0228753089904785,-1.2032145678527515,-0.6514419435465423,1.8650252453657086
1687015366.535727,-0.6470704078674316,0.7171820402145386,-0.2587469518184662,0.18048709630966187,0.0516473650932312,0.05318063497543335,-1.2797974348068237,-0.173678457736969,2.8563601970672607,-1.1903981679226483,-0.7997502193284756,1.8997340079175886
1687015366.592606,-0.5523537993431091,0.8038704991340637,-0.2206753045320511,0.13777250051498413,0.23194187879562378,-0.05651579797267914,-0.08726610243320465,-0.31574609875679016,2.354714870452881,-1.190705523577542,-0.9337741212581908,1.9148690445985566
1687015366.603456,-0.468741774559021,0.853477418422699,-0.22772210836410522,0.046012282371520996,0.10811614990234375,0.03129580616950989,0.26404717564582825,0.0051900953985750675,1.8463528156280518,-1.1185603999188927,-1.0226221378400295,2.0095780302512916
1687015366.721003,-0.3983286917209625,0.889652669429779,-0.22327673435211182,-0.010042339563369751,0.11330759525299072,0.020502746105194092,-0.6673389673233032,0.20937083661556244,1.3276331424713135,-1.0599016528950373,-1.0965839421079404,2.069725669606645
1687015366.7275128,-0.34508806467056274,0.918865978717804,-0.1913105845451355,-0.01666736602783203,0.2650177478790283,-0.018467187881469727,-0.5589616894721985,0.34395599365234375,0.8894668221473694,-1.0645950892837408,-1.1651967129603655,2.050633734489622
1687015366.8042688,-0.32079455256462097,0.9238222241401672,-0.2089100182056427,0.01702257990837097,0.19879740476608276,-0.10430704057216644,0.578746497631073,0.12070169299840927,0.1601373851299286,-0.993559122489341,-1.1779475068099545,2.1114179695165185
1687015366.819515,-0.31633925437927246,0.9239438772201538,-0.2150750756263733,-0.03656604886054993,0.05881375074386597,0.0021387338638305664,-0.029216160997748375,0.10956194996833801,0.043781086802482605,-0.9736966959801735,-1.1782654887855235,2.129769722586279
1687015366.894074,-0.3123510181903839,0.9239377975463867,-0.22085240483283997,-0.01667425036430359,-0.03439617156982422,0.03524453938007355,0.09671872854232788,0.12715399265289307,0.07781102508306503,-0.9553446497420542,-1.178249538656261,2.1438286007766982
1687015366.907969,-0.30587509274482727,0.9249117970466614,-0.22578419744968414,0.0051853954792022705,-0.020813345909118652,0.009124785661697388,0.1013958677649498,0.08600593358278275,0.11600049585103989,-0.934917179781835,-1.1808035694883041,2.159826738577542
1687015366.985302,-0.3012728691101074,0.9250317811965942,-0.2314106822013855,0.023532360792160034,0.04413026571273804,-0.0009195804595947266,0.13502644002437592,0.0355236791074276,0.02985721454024315,-0.9158052505992346,-1.1811192538514264,2.176903211443924
1687015366.992772,-0.3034070134162903,0.9218143820762634,-0.24125182628631592,0.013032257556915283,0.017531931400299072,0.012568429112434387,0.165012389421463,0.05506959185004234,-0.11860548704862595,-0.8990242817734532,-1.1727353894891337,2.1921601551288683
1687015367.040426,-0.30603569746017456,0.9203051924705505,-0.24368156492710114,-0.029856085777282715,-0.011216998100280762,0.003233611583709717,-0.08970702439546585,0.15525655448436737,-0.09026166796684265,-0.8983448456008384,-1.1688599176472758,2.187818916806445
1687015367.135367,-0.30774158239364624,0.9205412268638611,-0.24062204360961914,-0.0075965821743011475,-0.013680875301361084,-0.01508466899394989,-0.03534302860498428,0.08635490387678146,-0.053256113082170486,-0.9071920184739752,-1.1694637316714285,2.172244283304572
1687015367.143717,-0.3092496395111084,0.917938232421875,-0.24850431084632874,-0.01086452603340149,0.01234447956085205,-0.012680292129516602,0.2984355390071869,0.07473384588956833,-0.0571504570543766,-0.8938812066433635,-1.1628517733539732,2.181981366528856
1687015367.189818,-0.31119704246520996,0.9139186143875122,-0.26059383153915405,-0.001623392105102539,-0.029641270637512207,0.020161181688308716,0.07016044855117798,0.04296845570206642,-0.04305107891559601,-0.8736677076091179,-1.1528357629430985,2.200675487767429
1687015367.285627,-0.31256556510925293,0.9132198095321655,-0.2614050507545471,-0.008250534534454346,-0.003795921802520752,0.013251423835754395,-0.02060602605342865,0.08989157527685165,-0.08336201310157776,-0.8742976101579937,-1.1511174077391868,2.196124492183961
1687015367.292897,-0.3133898079395294,0.9132705330848694,-0.2602379620075226,-0.03336617350578308,0.0018753409385681152,0.004165023565292358,0.016071338206529617,0.0602504163980484,-0.015913669019937515,-0.8777934687516614,-1.151241858785782,2.1897201752024884
1687015367.341398,-0.31389519572257996,0.9119762778282166,-0.2641389071941376,-0.0038233399391174316,0.0005756616592407227,-0.002615213394165039,0.058533087372779846,0.03518296778202057,-0.019177306443452835,-0.8712649769264733,-1.1480758826106747,2.193584665815761
1687015367.4370918,-0.3156620264053345,0.9111825823783875,-0.26477158069610596,0.004428476095199585,-0.012302517890930176,-0.009810268878936768,-0.045128680765628815,0.01832951046526432,-0.0341956689953804,-0.8728511405160705,-1.1461453578634964,2.1901594577683325
1687015367.444768,-0.3154914379119873,0.9112462401390076,-0.2647556662559509,-0.03317192196846008,0.003136754035949707,-0.010558605194091797,0.01865020953118801,0.06292902678251266,-0.03544509410858154,-0.8726145616988245,-1.146299931374087,2.1884429856311374
1687015367.489363,-0.31583866477012634,0.9110429883003235,-0.2650407552719116,-0.013140827417373657,0.0019819140434265137,0.002864331007003784,-0.0004910386633127928,0.04126172512769699,-0.05516999587416649,-0.8726262596562697,-1.1458066249792085,2.1863937001236047
1687015367.5863938,-0.31680232286453247,0.9105039834976196,-0.2657419741153717,-0.02989262342453003,-0.0008360147476196289,0.02387496829032898,0.009598213247954845,0.06907950341701508,-0.04202922433614731,-0.8728253391307186,-1.1445013027328903,2.1849009169677136
1687015367.594878,-0.31759893894195557,0.9097675681114197,-0.26730892062187195,-0.014981687068939209,-0.007774710655212402,0.007497608661651611,0.04944362863898277,0.02644522674381733,-0.015724385157227516,-0.8711666227368678,-1.1427237474031662,2.1847720922035796
1687015367.6768599,-0.318519651889801,0.9085026979446411,-0.270496129989624,0.016471892595291138,-0.0006352066993713379,-0.0012323260307312012,0.06540444493293762,-0.0409991480410099,-0.012372329831123352,-0.866750056238956,-1.1396869168513528,2.189211622853131
1687015367.690668,-0.319923996925354,0.9075608253479004,-0.2719965875148773,-0.017157942056655884,-0.0016617178916931152,0.009240329265594482,0.06856544315814972,-0.007705995813012123,-0.01698306016623974,-0.866191219481059,-1.1374385088381052,2.1921355611711615
1687015367.7298741,-0.3186658024787903,0.9075250625610352,-0.27358847856521606,-0.04768252372741699,-0.0004509091377258301,-0.008454948663711548,0.01093254704028368,0.017974156886339188,0.013206599280238152,-0.8613631499652822,-1.1373533525334667,2.197398782948744
1687015367.830128,-0.31801721453666687,0.9082005620002747,-0.27209728956222534,-0.014715969562530518,0.002657651901245117,-0.014233827590942383,-0.040112707763910294,-0.028067462146282196,0.0310782752931118,-0.863056942333171,-1.1389644297947417,2.19714848966514
1687015367.844862,-0.3221885859966278,0.9059894680976868,-0.2745501399040222,0.04594343900680542,0.08265811204910278,-0.06475943326950073,0.3951989412307739,-0.10542403161525726,-0.20881494879722595,-0.8650605167682934,-1.1337113577773021,2.1976665605521126
1687015367.884253,-0.337970107793808,0.8957631587982178,-0.28876417875289917,0.0671418309211731,0.103473961353302,-0.050347089767456055,0.1079777330160141,-0.06678041070699692,-0.5668137073516846,-0.8637490669164943,-1.110144997835973,2.202331058390055
1687015367.97788,-0.37914273142814636,0.875201404094696,-0.30045539140701294,0.053321778774261475,0.22491157054901123,-0.008855462074279785,0.7615697979927063,-0.21243694424629211,-1.2032091617584229,-0.9006699571919745,-1.0658519750170976,2.1721837613288857
1687015367.993444,-0.4496642053127289,0.8288906216621399,-0.332780122756958,0.1529569923877716,0.1965305209159851,-0.05958431959152222,1.0330661535263062,-0.5710926651954651,-1.8016515970230103,-0.933684873422682,-0.9771216937154664,2.1530025923883835
1687015368.029652,-0.542081892490387,0.7637163400650024,-0.3505491316318512,0.13479429483413696,0.15579354763031006,-0.06670239567756653,0.7449582815170288,-0.9373771548271179,-2.142421007156372,-0.9967642862047166,-0.869050482269541,2.1209453870772768
1687015368.12577,-0.6440147757530212,0.68656986951828,-0.33744171261787415,0.15562665462493896,0.09493952989578247,-0.023932069540023804,0.2827150523662567,-1.082919955253601,-2.424548387527466,-1.0881603913609208,-0.7567606564351477,2.0656473000335303
1687015368.141561,-0.741752028465271,0.595430850982666,-0.3086523413658142,0.14768147468566895,0.03213268518447876,-0.016344577074050903,0.034722696989774704,-1.081440806388855,-2.627960205078125,-1.1764774422449726,-0.6378018426853747,2.009926328263885
1687015368.1838121,-0.828433096408844,0.49253910779953003,-0.2666534185409546,0.13850688934326172,0.08109983801841736,-0.020089685916900635,-0.014903622679412365,-0.9960559606552124,-2.7231481075286865,-1.2593918277145606,-0.5150049095453523,1.952112211940284
1687015368.276709,-0.8994956612586975,0.3771655261516571,-0.22057634592056274,0.11560577154159546,-0.009749144315719604,-0.0028122663497924805,-0.22850480675697327,-0.989473283290863,-2.713078022003174,-1.3303193897675485,-0.3867338775349235,1.9060369372028487
1687015368.290959,-0.9507337212562561,0.2571062743663788,-0.17321044206619263,0.14487123489379883,-0.008220136165618896,0.00023686885833740234,-0.09179112315177917,-0.9551413655281067,-2.574463367462158,-1.39058672390066,-0.2600266142930595,1.8684191277792748
1687015368.329794,-0.9828206896781921,0.135269895195961,-0.12556211650371552,0.1630726456642151,0.024108141660690308,-0.017656803131103516,0.06811585277318954,-1.0358973741531372,-2.493011236190796,-1.4437277819658925,-0.13568586292020254,1.8496777159944269
1687015368.42799,-0.9973246455192566,0.011929240077733994,-0.07211849838495255,0.17165637016296387,0.05905464291572571,-0.004617862403392792,0.22994637489318848,-1.0989446640014648,-2.496635913848877,-1.4986100137838723,-0.011929522789405463,1.8418436075508091
1687015368.44276,-0.9931343197822571,-0.11585790663957596,-0.016165316104888916,0.2320563793182373,0.07734469324350357,-0.023415863513946533,0.0451681911945343,-1.194608449935913,-2.5954179763793945,-1.5545206948941328,0.11611867594356293,1.8459898057625899
1687015368.482139,-0.9678149819374084,-0.2484961599111557,0.03979980945587158,0.22257566452026367,0.18488222360610962,-0.05652332305908203,-0.5736902356147766,-1.2233675718307495,-2.9104065895080566,-1.6118965350239849,0.2511274060625537,1.8357794857354608
1687015368.578349,-0.9120066165924072,-0.40046563744544983,0.0887208953499794,0.10852450132369995,0.19677603244781494,-0.05719614028930664,-0.8634351491928101,-1.248313069343567,-3.678194522857666,-1.6677721605468927,0.41202496640267416,1.8049473820016477
1687015368.5941172,-0.813814640045166,-0.5662583112716675,0.130605086684227,0.4288199543952942,0.17381739616394043,-0.05220530927181244,-0.12475764006376266,-1.37223219871521,-3.707899570465088,-1.729924510668305,0.601959141088829,1.8030653660050717
1687015368.630875,-0.6851874589920044,-0.7062535881996155,0.17811311781406403,0.4048377275466919,0.028152942657470703,0.03129863739013672,-0.4406277537345886,-1.333301067352295,-3.622490882873535,-1.8251156931741075,0.7841922783607175,1.8454494291824233
1687015368.728262,-0.5456584095954895,-0.8193976283073425,0.17562614381313324,0.374347984790802,0.13870304822921753,0.05847428739070892,-1.1122483015060425,-0.8972467184066772,-3.2552149295806885,-1.8821864643109762,0.9603593672287423,1.846976621728715
1687015368.743923,-0.4030783176422119,-0.901181697845459,0.1593731939792633,0.17767548561096191,-0.050081849098205566,0.04953503608703613,-0.8629070520401001,-0.5800926685333252,-3.200214385986328,-1.947322370661513,1.1224881054114144,1.8778104287888795
1687015368.85046,-0.2562611997127533,-0.9569874405860901,0.13603448867797852,0.1614583432674408,-0.026548385620117188,0.06901323795318604,-0.5796067118644714,-0.43586695194244385,-3.049485206604004,-2.058812891164059,1.2764343217532061,1.9672179517708857
1687015368.9115071,-0.10774020850658417,-0.9879988431930542,0.11068055033683777,0.31306248903274536,0.11045074462890625,0.044928647577762604,-0.08136191964149475,-0.3675694465637207,-2.866441011428833,-2.3696555124353154,1.4157143094212037,2.2652718023857337
1687015368.926914,0.0424957349896431,-0.9935558438301086,0.10507703572511673,0.1778717190027237,-0.10008740425109863,0.05933654308319092,-0.5867295861244202,-0.48089414834976196,-3.1195595264434814,2.757277828692137,1.4572085523056297,-2.8721220418612816
1687015368.930552,0.198111891746521,-0.9742278456687927,0.10785245895385742,0.2520681917667389,0.049178898334503174,-0.06911027431488037,0.5152627825737,-0.6991559863090515,-3.19431471824646,2.0693312857561543,1.3432720531012758,-2.197842056646526
1687015369.027367,0.3471699357032776,-0.9336131811141968,0.08854188024997711,0.2689189910888672,0.1063883900642395,0.06752514839172363,-0.16299167275428772,-0.14837026596069336,-2.7746944427490234,1.8205119481291305,1.2043686301624907,-1.964701009487772
1687015369.041928,0.4581972658634186,-0.88653165102005,0.06416535377502441,0.02530801296234131,-0.3552439212799072,0.05384624004364014,-1.5174267292022705,0.12201081216335297,-2.075845718383789,1.709930222245568,1.089794036773319,-1.8498664816413648
1687015369.118619,0.5398094058036804,-0.8417661190032959,0.006002705544233322,0.17462247610092163,-0.023575246334075928,-0.05782151222229004,-1.246193289756775,0.10531917959451675,-1.9207934141159058,1.5819159149567716,1.0005464750391637,-1.6895076158147035
1687015369.132866,0.6169132590293884,-0.7846101522445679,-0.06168438866734505,0.21734577417373657,0.059237897396087646,0.022133715450763702,-2.086185932159424,0.25604140758514404,-1.811259150505066,1.4711388071563944,0.9020671089023504,-1.5382722735490268
1687015369.170315,0.6937345862388611,-0.7147602438926697,-0.08860081434249878,0.2598329186439514,-0.04268598556518555,-0.04753803461790085,-0.6475282311439514,0.1773189753293991,-2.1507503986358643,1.4437682877400393,0.7962812553306262,-1.4783903818659703
1687015369.2321792,0.7615519165992737,-0.6377505660057068,-0.11538250744342804,0.13682472705841064,-0.11896336078643799,-0.05725540220737457,-1.0699151754379272,0.47512590885162354,-1.8392364978790283,1.420430223052163,0.6915742917815917,-1.4220398208360223
1687015369.3268142,0.814400315284729,-0.56536865234375,-0.13080762326717377,0.11836951971054077,-0.20085150003433228,-0.14273661375045776,-1.2285938262939453,0.49201932549476624,-1.4293540716171265,1.4115382185304555,0.600880114877896,-1.3660358175438196
1687015369.344668,0.8566572070121765,-0.49960729479789734,-0.12857390940189362,0.19105714559555054,-0.23989471793174744,-0.09428060054779053,-0.8104056715965271,0.4759114682674408,-1.3660004138946533,1.4218203741725033,0.5231453695256629,-1.3335132900556899
1687015369.413492,0.8888105750083923,-0.43787455558776855,-0.13521020114421844,0.16338986158370972,-0.09195640683174133,-0.045224905014038086,-1.1953134536743164,0.5243316292762756,-1.257367730140686,1.419828907737294,0.45323316241915373,-1.276991882148848
1687015369.425992,0.9174114465713501,-0.3725903630256653,-0.13975989818572998,0.13002818822860718,-0.15542477369308472,-0.049387991428375244,-2.0431089401245117,0.5349382758140564,-1.1724679470062256,1.4196171300293157,0.3817988095278569,-1.2091346903614262
1687015369.470128,0.9399065375328064,-0.30267417430877686,-0.1580001562833786,0.024998247623443604,-0.10015785694122314,-0.08466027677059174,-2.3808162212371826,0.45018094778060913,-1.0193179845809937,1.404251439398051,0.30749720017359505,-1.0897571420364203
1687015369.565085,0.957978367805481,-0.2409072071313858,-0.1556968241930008,-0.03765958547592163,-0.21360637247562408,-0.10589982569217682,-1.8592067956924438,0.59481281042099,-0.9117246270179749,1.4096786553337148,0.24330047385889686,-1.0058963831481738
1687015369.581915,0.9706855416297913,-0.19210675358772278,-0.14444653689861298,0.039919376373291016,-0.09082174301147461,-0.11693644523620605,-1.1775257587432861,0.6791516542434692,-0.6421726942062378,1.4230715837462486,0.19330842922272604,-0.9216925741408122
1687015369.622329,0.979417622089386,-0.15832704305648804,-0.12519538402557373,0.11227250099182129,-0.23513607680797577,-0.1505766361951828,-1.0127991437911987,0.40237730741500854,-0.28315943479537964,1.443659430061781,0.15899609353357033,-0.872154557279917
1687015369.713513,0.9837417602539062,-0.14153924584388733,-0.11053924262523651,0.021125853061676025,-0.2606976628303528,-0.10064231604337692,-0.26855891942977905,0.31491148471832275,-0.21231934428215027,1.4588995748495903,0.14201614735510132,-0.8578438999798215
1687015369.7306771,0.9850680232048035,-0.14115655422210693,-0.09856881201267242,0.015176117420196533,-0.04533635079860687,-0.10385417193174362,-0.07001427561044693,0.23353751003742218,0.0853976383805275,1.4710653492231418,0.1416295754745072,-0.8367913599538557
1687015369.7717729,0.9848775863647461,-0.14817434549331665,-0.08978084474802017,-0.04987996816635132,-0.13919442892074585,-0.05818355083465576,-0.33832886815071106,0.15960381925106049,0.2535809874534607,1.479888191229929,0.14872198409251225,-0.8350389850638019
1687015369.835839,0.9831797480583191,-0.16007113456726074,-0.0879494845867157,-0.050333499908447266,0.06200288236141205,-0.036028094589710236,0.4630400538444519,0.042466625571250916,0.195053830742836,1.4815796666579235,0.16076271008630977,-0.8288408098319883
1687015369.896154,0.981692910194397,-0.17245447635650635,-0.08086171001195908,0.0787472128868103,0.011870965361595154,-0.042597055435180664,0.18658968806266785,0.0461612306535244,0.2616553008556366,1.488612196740618,0.17332093312830255,-0.8474843195642698
1687015369.987207,0.9802826642990112,-0.18181076645851135,-0.07740087807178497,0.022067248821258545,0.0022300779819488525,-0.014121226966381073,0.04302944988012314,0.03647158294916153,0.11950421333312988,1.4920020864880292,0.18282758874393784,-0.8575062952476551
1687015369.995631,0.97918301820755,-0.1870119273662567,-0.07891473174095154,-0.004817605018615723,0.038757503032684326,0.010418109595775604,-0.20798465609550476,-0.020351484417915344,0.0815684124827385,1.4903777183550253,0.18811953022467542,-0.8480484984625714
1687015370.0736299,0.9781821966171265,-0.19101858139038086,-0.08168106526136398,-0.030992746353149414,-0.03867197036743164,0.02272123098373413,-0.13335192203521729,-0.0018219186458736658,0.12390487641096115,1.487486688054057,0.19219973822175496,-0.8394604756887386
1687015370.090137,0.9766917824745178,-0.1994171291589737,-0.07941138744354248,-0.005332469940185547,-0.030120849609375,0.0038957595825195312,0.3742124140262604,0.0670834630727768,0.1782677322626114,1.4896682890089075,0.20076306609160247,-0.8442521645537641
1687015370.161819,0.9745501279830933,-0.21172679960727692,-0.0736464262008667,0.04455387592315674,-0.05354723334312439,-0.0005721971392631531,0.09399299323558807,0.07975425571203232,0.30152028799057007,1.4953700214879782,0.2133414733210248,-0.8556388929458244
1687015370.176999,0.9715995788574219,-0.2268306016921997,-0.06739655882120132,0.006641507148742676,-0.005621805787086487,-0.023072727024555206,0.10769788175821304,0.10664046555757523,0.2855793833732605,1.5015406646391938,0.22882222824290846,-0.8615728265360136
1687015370.252624,0.9688533544540405,-0.2399374097585678,-0.061262838542461395,0.006579935550689697,0.102059006690979,-0.022828273475170135,0.4861260652542114,0.05019698292016983,0.19247248768806458,1.5076480855522627,0.24230138193668369,-0.8721847123724193
1687015370.349165,0.9672524333000183,-0.2480226755142212,-0.05392325296998024,-0.00596386194229126,0.02005636692047119,-0.015061676502227783,0.20206303894519806,0.009150481782853603,0.10029523074626923,1.5151050783733635,0.25063861904972284,-0.8946228674044976
1687015370.366218,0.9667085409164429,-0.2502352297306061,-0.05345376208424568,0.01929926872253418,0.03713098168373108,-0.01511913537979126,0.05870442092418671,-0.05908210203051567,-0.018287543207406998,1.515557976850172,0.2529232144990067,-0.8997886000041228
1687015370.431912,0.9671798944473267,-0.2479173243045807,-0.0556788332760334,0.0009445548057556152,-0.00022111833095550537,0.013671517372131348,0.17579159140586853,-0.11131902784109116,-0.07846572995185852,1.5132915685014208,0.25052987469260957,-0.9067168783954013
1687015370.4462829,0.9683800935745239,-0.24302540719509125,-0.05637955665588379,-0.0022546052932739258,-0.01632821559906006,0.024565044790506363,0.367128849029541,-0.046411581337451935,-0.12734399735927582,1.5126414941398025,0.24548355556446524,-0.9225481805736172
1687015370.521925,0.9688539505004883,-0.2417338788509369,-0.0537320114672184,-0.012890636920928955,0.011173546314239502,-0.012048549950122833,0.16961131989955902,0.016841869801282883,-0.025714168325066566,1.5153937304223166,0.24415232186643798,-0.9343140553564183
1687015370.527934,0.9690893292427063,-0.24164476990699768,-0.049737222492694855,-0.007434666156768799,-0.005776509642601013,-0.012777980417013168,0.06057404726743698,0.04799765720963478,0.024091871455311775,1.519517650366168,0.24406049884338551,-0.9408881623111138
1687015370.616157,0.9694501161575317,-0.24065691232681274,-0.0474441833794117,-0.0001812577247619629,-0.03802962601184845,-0.010111868381500244,0.09784667193889618,0.021753713488578796,-0.04517881199717522,1.5218960680101914,0.24304259389038577,-0.9493080062718007
1687015370.633271,0.9697297811508179,-0.2395181506872177,-0.047490280121564865,0.006817519664764404,0.017334923148155212,-0.012903928756713867,0.010974845848977566,0.0020483641419559717,-0.05606907606124878,1.5218627259114244,0.24186952834290443,-0.9484464213857864
1687015370.706071,0.9698423147201538,-0.23915168642997742,-0.04703780263662338,0.015768706798553467,-0.03721548616886139,0.025782406330108643,-0.23058749735355377,0.040074754506349564,0.0328945517539978,1.522333840043654,0.24149208712878398,-0.9448028657176457
1687015370.712381,0.9698941707611084,-0.2387443333864212,-0.048026904463768005,-0.013213813304901123,-0.0009102374315261841,0.026100099086761475,-0.22003361582756042,0.05566764995455742,-0.03591800108551979,1.5213190660633744,0.2410725846164129,-0.9303308990065661
1687015370.765595,0.9703543782234192,-0.23765376210212708,-0.04396901652216911,-0.008211374282836914,0.0069866180419921875,-0.00943666696548462,0.10431274026632309,0.08676103502511978,-0.038548342883586884,1.5255149708910896,0.23994969343142505,-0.9298207231598115
1687015370.8573198,0.9709295034408569,-0.23617354035377502,-0.03896050527691841,-0.008161008358001709,-0.06070144474506378,-0.01549803838133812,-0.2345713973045349,0.0936746820807457,-0.017614562064409256,1.530690824441496,0.23842609015177396,-0.9300367092439241
1687015370.863689,0.9709025621414185,-0.2364272028207779,-0.03808978945016861,0.015547871589660645,0.03205093741416931,-0.04949558526277542,0.007241272367537022,0.04651765152812004,-0.010321829468011856,1.5315851157254763,0.23868715754678518,-0.9194037287914191
1687015370.911809,0.9709337949752808,-0.23642908036708832,-0.03726828470826149,0.006116986274719238,-0.030630216002464294,-0.04059719666838646,-0.11709088832139969,6.163492798805237e-06,0.007516689598560333,1.5324312003101217,0.23868908603634786,-0.9184402737312428
1687015371.0111032,0.9708423018455505,-0.2367580682039261,-0.03756265342235565,0.011182904243469238,-0.003186434507369995,-0.04103529453277588,0.1610323041677475,-0.01661071926355362,-0.0019016461446881294,1.5321248280903672,0.23902768216850645,-0.9205531869828517
1687015371.026987,0.9704290628433228,-0.23830829560756683,-0.03842885419726372,0.0013727545738220215,-0.0032993704080581665,-0.03163939714431763,0.02203473076224327,-0.016885822638869286,0.05138833820819855,1.5312171485589805,0.24062358478286455,-0.9231325287572152
1687015371.058943,0.9701051115989685,-0.23947827517986298,-0.0393223911523819,0.003420889377593994,0.008139818906784058,-0.014785166829824448,0.1118244007229805,-0.040403664112091064,-0.0006986297084949911,1.5302843489271827,0.24182844854933447,-0.9272001311043991
1687015371.1519341,0.9699920415878296,-0.23957397043704987,-0.04146953299641609,-0.00432431697845459,0.026301920413970947,-0.016727443784475327,0.09953440725803375,-0.04404749348759651,0.00035138800740242004,1.5280698962201813,0.24192702614697228,-0.9298835012880586
1687015371.169915,0.9699198007583618,-0.2399654984474182,-0.04089374840259552,-0.004633486270904541,-0.001779511570930481,0.0037081874907016754,0.008270583115518093,0.04167815297842026,0.028953803703188896,1.5286592915743413,0.242330310012813,-0.935263367131374
1687015371.210092,0.9692366123199463,-0.24295049905776978,-0.039442580193281174,-0.015714824199676514,0.014282256364822388,-0.06744515895843506,-0.1580381542444229,0.03262944519519806,0.08572401106357574,1.5301242872002734,0.24540633522940222,-0.9295816185321489
1687015371.308985,0.9691168069839478,-0.2427615225315094,-0.04335783049464226,0.016540169715881348,0.013101428747177124,-0.07289880514144897,0.05987909436225891,-0.19432391226291656,-0.04508154094219208,1.5260866125372023,0.24521152150257727,-0.9256126265833927
1687015371.325007,0.969562292098999,-0.2388402223587036,-0.05389324575662613,0.028713524341583252,-0.09183299541473389,-0.1296393871307373,0.3790108859539032,-0.38817405700683594,-0.07163092494010925,1.5152683385576977,0.24117132534756444,-0.9381280616118552
1687015371.36039,0.9678356051445007,-0.24123699963092804,-0.0714094266295433,0.06269735097885132,-0.22046345472335815,-0.15306252241134644,0.8539655208587646,-0.5966426134109497,0.05850183963775635,1.4971471826202576,0.24364029707881796,-0.9701467734682853
1687015371.456884,0.9610182046890259,-0.25938481092453003,-0.09572596102952957,0.045558273792266846,-0.29955989122390747,-0.23796842992305756,0.32386326789855957,-0.7942148447036743,0.5811957716941833,1.4715149249515431,0.2623851616451795,-0.9991952700584021
1687015371.4637542,0.9469969868659973,-0.29473334550857544,-0.12778502702713013,0.09314894676208496,-0.25446099042892456,-0.1274181455373764,0.8914309740066528,-0.9261665344238281,0.7689095139503479,1.4366693784739852,0.29917646032947187,-1.0281389631889355
1687015371.510318,0.9252075552940369,-0.34463995695114136,-0.1587895303964615,0.12183517217636108,-0.22849535942077637,-0.047799140214920044,0.8141366243362427,-0.9405272603034973,1.0999630689620972,1.4008264133357904,0.35185523117719836,-1.0630557625339374
1687015371.610955,0.8942170143127441,-0.4097896218299866,-0.1801350861787796,0.1709228754043579,-0.22897392511367798,-0.03005470335483551,0.9991975426673889,-0.8400397300720215,1.468821406364441,1.37201223671378,0.4222234113201416,-1.1005827072541174
1687015371.6265268,0.8530102372169495,-0.4854382872581482,-0.1916329264640808,0.10194581747055054,-0.11130240559577942,0.00706268846988678,1.2762445211410522,-0.795149028301239,1.5458941459655762,1.349810386389755,0.5068644214216765,-1.1456479899017495
1687015371.658225,0.8032593131065369,-0.5636555552482605,-0.19252730906009674,0.13410329818725586,-0.07121682167053223,-0.002876654267311096,0.9560102820396423,-0.6583738923072815,1.7255247831344604,1.3355514382494438,0.5988047356193921,-1.1859333955582403
1687015371.758442,0.7448646426200867,-0.6382966637611389,-0.19430388510227203,0.14699625968933105,-0.012002408504486084,0.014753788709640503,0.5016765594482422,-0.5594455599784851,1.766363501548767,1.3156247912862802,0.6922834732340978,-1.203015149460325
1687015371.775188,0.6802274584770203,-0.7047525644302368,-0.20153066515922546,0.135217547416687,0.07963043451309204,0.04024535417556763,0.41802966594696045,-0.5396589636802673,1.7110878229141235,1.282765488938797,0.7820743542856375,-1.196678636905696
1687015371.809414,0.6131454706192017,-0.7631483674049377,-0.20410127937793732,0.12199252843856812,0.07177257537841797,0.06690961122512817,0.246291846036911,-0.44767093658447266,1.7266368865966797,1.2494576135320765,0.8681711723704564,-1.184598500160643
1687015371.909311,0.5417991876602173,-0.815147876739502,-0.20490925014019012,0.143976628780365,0.08837175369262695,0.0818014144897461,0.07202675193548203,-0.2784149944782257,1.7562919855117798,1.2092218520380225,0.9529844624450152,-1.1552032251422777
1687015371.925993,0.4668475091457367,-0.8564366102218628,-0.2203858345746994,0.12206551432609558,0.05455666780471802,0.07362687587738037,-0.47937431931495667,-0.22910992801189423,1.7517262697219849,1.1297393253507086,1.028327220547563,-1.074458920571007
1687015371.9592462,0.39116325974464417,-0.887781023979187,-0.2425621598958969,0.14167368412017822,0.12282735109329224,0.004235208034515381,0.01030958816409111,-0.24599260091781616,1.6209828853607178,1.015725020667816,1.09250143822734,-0.9542469328503884
1687015372.056797,0.31603553891181946,-0.9213706851005554,-0.2262694388628006,0.08049464225769043,-0.034439921379089355,0.01154780387878418,0.566881537437439,-0.1576107144355774,1.6755112409591675,0.9494377427019294,1.1715923277447686,-0.894049615179349
1687015372.0633922,0.2305605709552765,-0.9476488828659058,-0.22091582417488098,0.11804178357124329,-0.11904752254486084,0.017256826162338257,-0.2623957693576813,-0.03425247222185135,1.9574384689331055,0.8067575937257735,1.2457905558488789,-0.7469309427212707
1687015372.109105,0.12972036004066467,-0.966828465461731,-0.22003529965877533,0.16295850276947021,-7.528066635131836e-05,-0.0222131609916687,0.5339089632034302,-0.04147709906101227,2.2149534225463867,0.5326953436778695,1.312507574143497,-0.46332626692073053
1687015372.2084532,0.011085347272455692,-0.9820618629455566,-0.1882336586713791,0.2604295611381531,-0.07792055606842041,0.04130685329437256,0.5305947661399841,0.08169640600681305,2.7291040420532227,0.05882347585670544,1.3811015940387965,0.024250249936102242
1687015372.271219,-0.12953504920005798,-0.9760668873786926,-0.17468346655368805,0.23549208045005798,-0.08040595054626465,0.042344093322753906,0.13451777398586273,0.29543939232826233,3.0624704360961914,-0.6380656561870068,1.3515742178802397,0.7429880644770814
1687015372.278987,-0.27865761518478394,-0.9442148804664612,-0.17552292346954346,0.24806371331214905,-0.036086082458496094,-0.004057705402374268,-0.05260950326919556,0.2596537172794342,3.2316322326660156,-1.0086901545532083,1.235202413724312,1.1417146027429819
1687015372.284399,-0.4247330129146576,-0.8854743838310242,-0.18851298093795776,0.2410019040107727,-0.040917277336120605,0.014852762222290039,-0.30503055453300476,0.23853938281536102,3.2655656337738037,-1.1530778607107657,1.0875139180276265,1.311731683989705
1687015372.321284,-0.5607237219810486,-0.8012442588806152,-0.20879854261875153,0.2430967092514038,-0.018305480480194092,0.03973117470741272,-0.4209940433502197,0.24657492339611053,3.3302838802337646,-1.2143305228607386,0.9293718259501118,1.3973607634498328
1687015372.384388,-0.6852148175239563,-0.6906533241271973,-0.23125499486923218,0.22767996788024902,-0.016484856605529785,0.07766008377075195,-0.5893483757972717,0.08954092860221863,3.4040980339050293,-1.2453070140977016,0.7623920324178343,1.4486977409337671
1687015372.445739,-0.7888672947883606,-0.552514374256134,-0.2691032886505127,0.25416862964630127,-0.1281956434249878,0.13479545712471008,-1.5401629209518433,0.2086002081632614,3.498386859893799,-1.2420486604220444,0.5853778320253379,1.4572919885905762
1687015372.512062,-0.8685895204544067,-0.3928655683994293,-0.3020083010196686,0.13094907999038696,0.004071563482284546,0.05203890800476074,-0.3238452672958374,0.11278810352087021,3.4286155700683594,-1.2361722523326242,0.403745642509224,1.4609359085978906
1687015372.59832,-0.9211195707321167,-0.23937395215034485,-0.30698347091674805,0.1307600736618042,-0.07179854810237885,0.04770621657371521,0.10622883588075638,0.10674929618835449,3.4454729557037354,-1.249100870978062,0.24172100583401854,1.5198098752162321
1687015372.617089,-0.9487462043762207,-0.08145656436681747,-0.3053613603115082,0.14154094457626343,-0.02569068968296051,-0.023343414068222046,0.2073397934436798,-0.08063408732414246,3.428541421890259,-1.2594090701675476,0.08154691247074478,1.5827237287818097
1687015372.650073,-0.9523027539253235,0.07613062113523483,-0.29550623893737793,0.14251857995986938,-0.003163076937198639,-0.03225252032279968,0.22097598016262054,-0.3227849304676056,3.357356309890747,-1.2699105589058568,-0.07620435070227731,1.6425199757503228
1687015372.744228,-0.9329450726509094,0.22633394598960876,-0.27997615933418274,0.20023316144943237,-0.03913913667201996,0.012153923511505127,0.4808850884437561,-0.4837566912174225,3.3504045009613037,-1.2792484352417024,-0.22831231076342692,1.7088794418434439
1687015372.759655,-0.8881565928459167,0.38224315643310547,-0.25508442521095276,0.16475260257720947,-0.11117076873779297,0.03595304489135742,-0.42536461353302,-0.5273138880729675,3.4391682147979736,-1.291117520332666,-0.3922225703260451,1.7597192411308744
1687015372.867105,-0.8173262476921082,0.5272332429885864,-0.23238593339920044,0.09898805618286133,0.10435861349105835,-0.04541555047035217,0.478793203830719,-0.528923511505127,3.2960591316223145,-1.2937819696721498,-0.5553412107708798,1.8112686646392016
1687015372.884728,-0.7309063076972961,0.6421103477478027,-0.23123635351657867,0.14985162019729614,-0.041539669036865234,-0.025111228227615356,0.3221348524093628,-0.34080779552459717,2.9995627403259277,-1.2643902424966944,-0.6972479316578664,1.8965960381458222
1687015372.958945,-0.6355574131011963,0.736351490020752,-0.23206335306167603,0.1690961718559265,0.06728321313858032,-0.0409773588180542,0.5095083713531494,-0.32541197538375854,2.7416157722473145,-1.220703602275558,-0.8276619995084925,1.9839411652043895
1687015372.964484,-0.5463287234306335,0.8014933466911316,-0.24317339062690735,0.21690672636032104,0.04417920112609863,-0.0262204110622406,0.47283920645713806,-0.2904297411441803,2.1875219345092773,-1.152020917007634,-0.9297883052128033,2.0910761343014377
1687015373.047684,-0.4693501591682434,0.8464570045471191,-0.25143805146217346,0.19342544674873352,0.044244349002838135,-0.002681732177734375,0.21794036030769348,-0.26618289947509766,1.7023043632507324,-1.0789864021538267,-1.0092956292127238,2.1964842429616342
1687015373.06314,-0.40680381655693054,0.8792749643325806,-0.24776281416416168,0.11993855237960815,-0.009081423282623291,0.03935837745666504,-0.07901252061128616,-0.1589476317167282,1.4256764650344849,-1.02375086305586,-1.0743378499186762,2.276218446515351
1687015373.099298,-0.3507448136806488,0.9044861793518066,-0.24265791475772858,0.07451492547988892,0.02726125717163086,0.018521681427955627,-0.054043300449848175,-0.03572351485490799,1.1625988483428955,-0.965570538506222,-1.1301734286633642,2.3455246779893546
1687015373.194892,-0.30447298288345337,0.9216762185096741,-0.24043530225753784,0.03478914499282837,0.024246633052825928,0.05812336504459381,-0.21796885132789612,0.17971555888652802,0.8333340287208557,-0.9023817025277852,-1.1723791607310243,2.4099289922606904
1687015373.209324,-0.26932841539382935,0.9371320009231567,-0.22191455960273743,0.01726841926574707,0.06804084777832031,0.043722450733184814,-0.6686264872550964,0.3384362459182739,0.5516272783279419,-0.8816182285235902,-1.214319035902801,2.418845374766716
1687015373.251111,-0.2472182959318161,0.9490576982498169,-0.19537824392318726,0.030924946069717407,0.0968865156173706,0.013844504952430725,-0.48726463317871094,0.4044261574745178,0.2695624828338623,-0.9019940337839151,-1.2502317973020374,2.3772388839195715
1687015373.311156,-0.2368231862783432,0.9506561756134033,-0.20041905343532562,-0.02184385061264038,0.20046693086624146,0.03969830274581909,0.5170830488204956,0.652985692024231,-0.03923230618238449,-0.8684650776779266,-1.2553441968322077,2.383013718421864
1687015373.408256,-0.23760198056697845,0.9404975771903992,-0.24291910231113434,-0.03711727261543274,0.00124436616897583,-0.11106948554515839,0.5202121138572693,0.3362199366092682,-0.1876593977212906,-0.7743332965106192,-1.2240916521395038,2.4528811996662765
1687015373.4160829,-0.24193322658538818,0.9381574988365173,-0.24764680862426758,-0.0344187468290329,0.02680838108062744,-0.032290875911712646,0.23266932368278503,0.1572580188512802,-0.0024264887906610966,-0.7737282900192672,-1.2172694332825253,2.4447740420631967
1687015373.494571,-0.23888342082500458,0.9329398274421692,-0.2693662941455841,0.03704012930393219,-0.08449006080627441,-0.05047309398651123,0.18309077620506287,0.06478969007730484,0.054957177489995956,-0.7254937508043161,-1.2024938574267592,2.4875600272432705
1687015373.5119739,-0.23661980032920837,0.9343023300170898,-0.2666274607181549,0.01487906277179718,0.035317420959472656,-0.05475309491157532,0.15883927047252655,-0.1096014678478241,0.01792345754802227,-0.72584062339579,-1.206296974224684,2.490110484374865
1687015373.5822,-0.23772898316383362,0.9290154576301575,-0.2835761606693268,0.0064514875411987305,-0.036437273025512695,0.012458086013793945,0.3214583098888397,-0.02889907732605934,-0.020806826651096344,-0.6976769743146812,-1.1917432761630362,2.5224808852717935
1687015373.596986,-0.23935222625732422,0.9278255701065063,-0.2860950827598572,-0.01955893635749817,-0.014968454837799072,0.013344287872314453,-0.07742621004581451,-0.011870024725794792,-0.07153192162513733,-0.6966735042412131,-1.1885405363606776,2.5253825293766794
1687015373.641931,-0.24224455654621124,0.9263039231300354,-0.28858038783073425,-0.03306978940963745,0.0203360915184021,0.010626405477523804,0.18972013890743256,0.06385856121778488,-0.046995218843221664,-0.6983286386458758,-1.1844817313861042,2.524078697952333
1687015373.735471,-0.2445189505815506,0.9246183633804321,-0.2920469641685486,0.016323745250701904,-0.012386918067932129,-0.008276432752609253,-0.060637954622507095,-0.06065043807029724,-0.029307037591934204,-0.6970505781191584,-1.1800324382653438,2.5239653737796703
1687015373.754147,-0.2486996352672577,0.9237194657325745,-0.29136067628860474,0.025433003902435303,0.023485183715820312,-0.0018826723098754883,0.1338031142950058,-0.027086440473794937,-0.14034773409366608,-0.7065687686379947,-1.1776791809935347,2.5161785724941708
1687015373.788391,-0.2580214738845825,0.9171475768089294,-0.30375242233276367,0.019709676504135132,-0.010882198810577393,0.05573612451553345,0.3843432664871216,-0.1027650386095047,-0.24784649908542633,-0.7041727082511544,-1.1608633817023495,2.5231776525598235
1687015373.884783,-0.2698943018913269,0.9114683866500854,-0.3104552626609802,0.017300307750701904,-0.04507434368133545,0.03131106495857239,-0.041688233613967896,-0.07877431064844131,-0.19646219909191132,-0.7156210713437897,-1.1468396228014812,2.516180079612601
1687015373.903909,-0.2823196351528168,0.9103289246559143,-0.3026500642299652,0.046037256717681885,-0.013264656066894531,-0.04303771257400513,-0.08722633123397827,-0.269967257976532,-0.19094453752040863,-0.7506574799173873,-1.1440780529014498,2.486439326856305
1687015373.941623,-0.2943718731403351,0.9067544341087341,-0.3018970489501953,-0.022278547286987305,0.049056172370910645,-0.007459580898284912,0.22596348822116852,-0.17600969970226288,-0.23961719870567322,-0.7727784129003304,-1.1355220365717809,2.474165584819641
1687015374.034998,-0.3083477020263672,0.8994535207748413,-0.3096856474876404,-0.0276203453540802,0.028738677501678467,-0.030539512634277344,0.21983787417411804,-0.24040724337100983,-0.2364983707666397,-0.7832333562934382,-1.1185174360575878,2.474962319782598
1687015374.051326,-0.3244737684726715,0.8901065587997437,-0.32004261016845703,0.008326888084411621,0.09080475568771362,-0.04622930288314819,0.4329812228679657,-0.19031068682670593,-0.35945558547973633,-0.7922732429569196,-1.0975789493559438,2.4734894041601256
1687015374.1644192,-0.34542518854141235,0.8785632252693176,-0.32986098527908325,-0.021441906690597534,0.03565192222595215,-0.0026127099990844727,0.12809911370277405,-0.05919919162988663,-0.4865661859512329,-0.8084423824915488,-1.0728456591284867,2.46422625645514
1687015374.182332,-0.36928829550743103,0.8653254508972168,-0.33887767791748047,-0.019414126873016357,0.05325371026992798,-0.046574532985687256,0.4136250913143158,-0.1445019394159317,-0.5908800363540649,-0.8283145647160339,-1.0457993448782896,2.448372507247306
1687015374.186214,-0.397016704082489,0.8484917283058167,-0.34991371631622314,-0.03264033794403076,0.033832550048828125,0.00692671537399292,0.29495179653167725,-0.1184118241071701,-0.5637621283531189,-0.8483768389722484,-1.0131287004618252,2.435934985322674
1687015374.208992,-0.4272180199623108,0.8318472504615784,-0.3542806804180145,0.02264648675918579,-0.007842183113098145,-0.009427756071090698,0.121910460293293,-0.2987974286079407,-0.6415624618530273,-0.8784586554408668,-0.9824277990321394,2.412592471510226
1687015374.271792,-0.45773643255233765,0.8148472905158997,-0.355670303106308,0.002795606851577759,0.009356260299682617,0.024203717708587646,0.1886134147644043,-0.2296498417854309,-0.5987991690635681,-0.9102256005110364,-0.9524656946924124,2.390297428518755
1687015374.332428,-0.48659655451774597,0.8006731271743774,-0.3494947552680969,0.028848111629486084,-0.050779879093170166,-0.007118344306945801,-0.1346341073513031,-0.3256434202194214,-0.5575727820396423,-0.9479311385898034,-0.928417925849063,2.360399953285153
1687015374.395014,-0.5106518268585205,0.7881104350090027,-0.3436811566352844,-0.023009061813354492,-0.030740439891815186,0.0005568563938140869,0.09519261121749878,-0.1748063862323761,-0.4894890785217285,-0.9784051205640518,-0.9077331124312221,2.3367809408974685
1687015374.4881558,-0.5318609476089478,0.7759115099906921,-0.3392423987388611,0.009796679019927979,-0.005342602729797363,-0.017202913761138916,0.04454115033149719,-0.19717854261398315,-0.43881911039352417,-1.0030167249348745,-0.8881586959165128,2.317960597665276
1687015374.506658,-0.5517950057983398,0.7618900537490845,-0.339184045791626,0.03124147653579712,-0.0012394189834594727,-0.00548139214515686,0.2445078045129776,-0.18918320536613464,-0.44957348704338074,-1.0196437880456393,-0.8662262064851668,2.308130590723312
1687015374.540327,-0.5735380053520203,0.7479748129844666,-0.33404797315597534,0.08643162250518799,-0.05208241939544678,-0.0010044574737548828,-0.2260669469833374,-0.3439489006996155,-0.44639161229133606,-1.0433932181271584,-0.8450055921335895,2.2932795367084533
1687015374.632594,-0.6019158959388733,0.7333300113677979,-0.31610819697380066,0.1879907250404358,-0.009376764297485352,-0.03517952561378479,-0.0559677891433239,-0.4937434494495392,-0.811069905757904,-1.0872160323800921,-0.8232070501238667,2.259754444053559
1687015374.6476722,-0.6516237854957581,0.7014051675796509,-0.2888205647468567,0.39138513803482056,0.04288804531097412,-0.06716689467430115,-0.22817732393741608,-0.8652926683425903,-1.4210435152053833,-1.1535848383149376,-0.7773670498719654,2.216086565659825
1687015374.691118,-0.7233202457427979,0.6448745727539062,-0.24686969816684723,0.31288933753967285,0.02498626708984375,-0.09854339063167572,-0.3449462950229645,-1.1675338745117188,-2.252472162246704,-1.2418923888719542,-0.7008591254999662,2.1584105862651737
1687015374.785893,-0.8105383515357971,0.5542122721672058,-0.18941117823123932,0.2063816785812378,0.058122992515563965,-0.019313722848892212,-0.10318759083747864,-1.1186575889587402,-2.6603264808654785,-1.3412303014100022,-0.5874163311246745,2.100479147596041
1687015374.8049688,-0.8937721252441406,0.42779186367988586,-0.13478055596351624,0.32677072286605835,-0.03173470497131348,-0.0021517276763916016,-0.40508511662483215,-1.4082465171813965,-3.1595211029052734,-1.42112437190986,-0.4420483906448899,2.0566117453782384
1687015374.839397,-0.9557003974914551,0.28210845589637756,-0.0839759036898613,0.04763442277908325,-0.043888211250305176,-0.011757679283618927,-0.4662741422653198,-0.592761218547821,-3.4761159420013428,-1.4831529869640274,-0.28599112588615216,2.0177506260755087
1687015374.9333649,-0.9919495582580566,0.11979486048221588,-0.041054368019104004,-0.08818966150283813,-0.010526679456233978,0.02883213758468628,-0.6769359707832336,-0.43512478470802307,-3.2711434364318848,-1.529432376980557,-0.12008325122676428,1.9662369154633992
1687015374.948997,-0.9986269474029541,-0.046724043786525726,-0.023692991584539413,0.07290655374526978,-0.07270652055740356,0.013805385679006577,-0.33616238832473755,-0.5285208225250244,-3.1626319885253906,-1.547075208155197,0.046741061908202375,1.9409840658853992
1687015375.024059,-0.9799696803092957,-0.19912853837013245,-0.00272628222592175,0.05505812168121338,-0.10017263889312744,0.10204583406448364,-0.21304945647716522,-0.47543591260910034,-3.03781795501709,-1.5680143272683664,0.2004685646615318,1.9311149198950857
1687015375.030261,-0.9434378743171692,-0.3311845660209656,0.015554919838905334,-0.009702503681182861,-0.0822981595993042,0.03106081672012806,-0.39187338948249817,-0.46661576628685,-2.649043321609497,-1.5872823202035882,0.3375587221269071,1.911337714707976
1687015375.078922,-0.8962214589118958,-0.442762166261673,0.027361497282981873,0.008724570274353027,-0.14814969897270203,0.056867118924856186,-0.9501365423202515,-0.3946627676486969,-2.152872085571289,-1.6013166845905797,0.45867691564040436,1.8827668044647274
1687015375.146807,-0.8430914878845215,-0.5373605489730835,0.020983507856726646,0.0011420845985412598,-0.0020375847816467285,-0.021059753373265266,-0.5383439064025879,-0.3508257269859314,-2.191495895385742,-1.5956799571192875,0.567304297041932,1.8354124570613894
1687015375.2033691,-0.7809693217277527,-0.6238778233528137,0.029385562986135483,-0.013723671436309814,-0.06958842277526855,0.04420769214630127,-0.4006354808807373,-0.39839839935302734,-2.073406934738159,-1.608405621392114,0.6736948070885538,1.82030368060247
1687015375.300782,-0.7121524214744568,-0.7015918493270874,0.024660859256982803,0.021158039569854736,0.07466912269592285,-0.011309381574392319,-0.3108791410923004,-0.25437045097351074,-2.103713035583496,-1.6054111223524998,0.7776289884202089,1.7935857544166052
1687015375.319995,-0.6319341659545898,-0.7746490240097046,0.024047410115599632,0.014075219631195068,0.00418698787689209,0.0595250129699707,-0.3947228193283081,-0.16703617572784424,-2.248552083969116,-1.6088316374181562,0.886159952842974,1.7826314925548372
1687015375.379214,-0.5409032106399536,-0.8410696983337402,0.00505784759297967,0.04218494892120361,0.059621334075927734,0.014488697052001953,-0.44666993618011475,-0.1362282931804657,-2.294538736343384,-1.5801467987119369,0.9992576884113075,1.740075841164377
1687015375.3930779,-0.440304696559906,-0.8978474140167236,-0.0014121922431513667,0.05010691285133362,0.008427798748016357,0.056908488273620605,-0.12818628549575806,-0.07947694510221481,-2.3095338344573975,-1.5675890308445584,1.114856080664015,1.7204934228296451
1687015375.471789,-0.3282875716686249,-0.944507896900177,-0.011503733694553375,0.01719135046005249,-0.03152066469192505,0.014235138893127441,-0.39948710799217224,-0.03842343017458916,-2.5046353340148926,-1.5357690214951016,1.2360932136268674,1.6843925300792868
1687015375.487047,-0.2084674835205078,-0.9775940775871277,-0.029178285971283913,0.026262283325195312,0.07439571619033813,0.014606237411499023,-0.08779917657375336,-0.1070832759141922,-2.6103692054748535,-1.43173408633546,1.3587108548523565,1.5702646252341559
1687015375.599495,-0.08161745965480804,-0.9964715838432312,-0.01957540586590767,0.13598453998565674,0.10288631916046143,0.02671658992767334,0.2799735963344574,-0.25771549344062805,-2.566295623779297,-1.3353994610363473,1.4867666224825484,1.4655501972770557
1687015375.655005,0.05437342822551727,-0.9983862042427063,-0.0163890328258276,0.10929235070943832,-0.0387079119682312,0.030015232041478157,-0.34332868456840515,0.10258074104785919,-2.7824184894561768,1.2780407702601326,1.5139763780033466,-1.1501569207724687
1687015375.752884,0.18850380182266235,-0.9813291430473328,-0.038206033408641815,0.12883326411247253,-0.01564967632293701,0.03132438659667969,-0.4233819842338562,0.22948676347732544,-2.6778805255889893,1.3708247499634243,1.3772544268512965,-1.2376834221252762
1687015375.7704449,0.30998873710632324,-0.949065089225769,-0.05641496926546097,0.14231231808662415,-0.012559115886688232,0.019900739192962646,-0.43582984805107117,0.04210568219423294,-2.397007703781128,1.3907761445963225,1.2502552389591324,-1.2492603751636986
1687015375.7741032,0.41611817479133606,-0.9064878821372986,-0.07159106433391571,0.16894954442977905,-0.10578012466430664,-0.026690714061260223,-0.3860270082950592,0.10576268285512924,-2.0666093826293945,1.4004192655836238,1.1348903716444414,-1.250096043684354
1687015375.7781281,0.5015503168106079,-0.8607189059257507,-0.08723712712526321,0.03323972225189209,-0.10009658336639404,-0.11607092618942261,-0.383175790309906,0.15530690550804138,-1.8052866458892822,1.398584258673179,1.0366801984671283,-1.2397386927269047
1687015375.836012,0.579253613948822,-0.8090959191322327,-0.09914293885231018,0.055451035499572754,-0.09092861413955688,0.04109857976436615,-0.38344597816467285,0.24010220170021057,-1.883026123046875,1.4012825174878443,0.9426121164104019,-1.2362791363701542
1687015375.924955,0.6493145227432251,-0.7528014779090881,-0.108077272772789,0.03907054662704468,-0.032034337520599365,0.02804499864578247,-0.40900301933288574,0.1494811326265335,-1.8258838653564453,1.4058601687582417,0.8523077600210768,-1.2305622985736364
1687015375.9315991,0.7137833833694458,-0.6906486749649048,-0.11626636981964111,0.11804962158203125,-0.001963019371032715,-0.05148869752883911,-0.6540626883506775,0.1754174828529358,-1.532645583152771,1.4093269357769558,0.7623856726870588,-1.2148613214689927
1687015375.981664,0.7672439813613892,-0.6295434236526489,-0.12252365052700043,-0.011323511600494385,-0.03229135274887085,0.0073503851890563965,-0.20422592759132385,0.42520350217819214,-1.590995192527771,1.4124402167005565,0.6809654193808866,-1.2042187720735833
1687015376.078362,0.8118181824684143,-0.5704140067100525,-0.12481703609228134,-0.11935901641845703,-0.2046714425086975,0.0211031436920166,-0.34413376450538635,0.2270161509513855,-1.610438585281372,1.4182409422321955,0.6070098368511453,-1.2033578408746364
1687015376.085585,0.8519288301467896,-0.5082980990409851,-0.12589892745018005,0.08750909566879272,-0.11374175548553467,0.031080901622772217,-0.3883063495159149,0.1947653442621231,-1.3047301769256592,1.4240772067050425,0.5332073767785799,-1.1924087792828824
1687015376.129825,0.8819409012794495,-0.45438843965530396,-0.12534642219543457,0.09488117694854736,-0.08084416389465332,0.06272439658641815,-0.47244754433631897,0.3544262945652008,-0.9445953965187073,1.4296162172643265,0.47168557463007665,-1.1763603175628923
1687015376.2251039,0.903083324432373,-0.4136795401573181,-0.11536844819784164,0.03775840997695923,-0.15628200769424438,0.038983047008514404,-1.1115111112594604,0.6633225083351135,-0.703262209892273,1.4437350502932982,0.4264919591315107,-1.1474183240706328
1687015376.233732,0.9181780219078064,-0.3806474208831787,-0.1098029688000679,0.024662554264068604,0.0390794575214386,-0.010756663978099823,-0.6130300164222717,0.62888103723526,-0.6548594236373901,1.4517736837482245,0.39049632990004746,-1.090786002135953
1687015376.282212,0.9328599572181702,-0.34860196709632874,-0.0908249169588089,-0.0030808448791503906,-0.14260897040367126,-0.11735063791275024,-0.9934956431388855,0.5287757515907288,-0.4560582935810089,1.4737404376870795,0.356079099057499,-1.0588485247998154
1687015376.378484,0.9446505904197693,-0.3195778727531433,-0.0741976946592331,-0.04891389608383179,-0.1503317952156067,-0.02144431322813034,-0.37921974062919617,0.622184157371521,-0.6474108695983887,1.4924121361589093,0.3252839584548609,-1.0357816030872555
1687015376.3968282,0.9539425373077393,-0.29181838035583496,-0.06954161077737808,0.057135581970214844,-0.07831409573554993,-0.10182977467775345,-1.6791330575942993,0.32185226678848267,-0.3207288384437561,1.4980258897557512,0.2961274284287307,-0.9653693351516393
1687015376.467408,0.9605286717414856,-0.2703735828399658,-0.06544435024261475,-0.03036808967590332,-0.1812255084514618,-0.09669548273086548,-1.1065807342529297,0.4435037076473236,-0.2702484130859375,1.502767788268865,0.2737810485985423,-0.9126910875007435
1687015376.483434,0.9625536203384399,-0.26299533247947693,-0.06575753539800644,0.014878690242767334,0.04863986372947693,-0.1117020845413208,-0.18504095077514648,0.2281321883201599,-0.08748285472393036,1.5025865952104316,0.26612553167555103,-0.8612171381771314
1687015376.519353,0.963932991027832,-0.2599141299724579,-0.05725403502583504,0.013926565647125244,-0.11352944374084473,-0.1065489649772644,-0.36759406328201294,0.15344791114330292,0.04654631391167641,1.5114697449037209,0.2629332861710703,-0.858096365217811
1687015376.651896,0.9635775089263916,-0.2618315517902374,-0.0544314868748188,0.023940861225128174,-0.025537192821502686,-0.05472981557250023,0.39472490549087524,0.03134952485561371,-0.0019742839504033327,1.514367341947329,0.2649194759648718,-0.8587451840181729
1687015376.671762,0.9634071588516235,-0.26302364468574524,-0.05162738263607025,-0.01244884729385376,-0.06420105695724487,-0.05226963385939598,-0.21091938018798828,0.019191043451428413,0.0030600226018577814,1.5172592017027597,0.2661548774904673,-0.8603432952859206
1687015376.699407,0.9631312489509583,-0.26341375708580017,-0.0546930693089962,0.0022464990615844727,-0.01762261986732483,0.01813311129808426,-0.07315631955862045,-0.006215780042111874,-0.023962074890732765,1.514070524623331,0.2665592379687157,-0.8560019748241645
1687015376.794719,0.9624983668327332,-0.2645092308521271,-0.06026693806052208,0.0011858940124511719,0.04183769226074219,0.017893366515636444,-0.19419313967227936,-0.0465373694896698,0.07463353872299194,1.5082628566106857,0.26769500322150336,-0.8434819150412866
1687015376.8019218,0.9622048139572144,-0.2651553750038147,-0.06208627298474312,-0.00499039888381958,0.029056131839752197,-0.004945516586303711,-0.04755082726478577,-0.013096855022013187,-0.01499041635543108,1.5063606439689354,0.268365063022942,-0.8394696399046121
1687015376.886101,0.9625704288482666,-0.26406803727149963,-0.061045266687870026,-0.01281750202178955,0.037200331687927246,-0.003667116165161133,0.31065818667411804,0.012407705187797546,-0.06199108064174652,1.5074621312028957,0.26723753980017506,-0.84693513044819
1687015376.903987,0.9643459916114807,-0.2577785551548004,-0.059894707053899765,-0.022161424160003662,0.00507768988609314,0.016712427139282227,-0.08945530652999878,-0.05348724126815796,-0.1819276064634323,1.5087668560263834,0.26072234179806564,-0.8539281219370944
1687015376.970796,0.9670043587684631,-0.24711771309375763,-0.06192995235323906,0.02237546443939209,7.79181718826294e-05,-0.013478867709636688,-0.1053389310836792,-0.05877388268709183,-0.25647786259651184,1.5068405753816074,0.249704582600044,-0.8517342828894445
1687015376.9857268,0.9696562886238098,-0.23459388315677643,-0.06879426538944244,0.018243610858917236,-0.018381595611572266,-0.0245131254196167,-0.11582757532596588,-0.07797855883836746,-0.23752382397651672,1.4999679394345196,0.2368007697470102,-0.8423400570154483
1687015377.061983,0.9714568257331848,-0.22572024166584015,-0.07295344769954681,-0.006872415542602539,-0.06566159427165985,-0.03785580396652222,-0.21993644535541534,0.0011209629010409117,-0.10263251513242722,1.4958400725204752,0.22768228805846574,-0.8375867082952775
1687015377.0675368,0.9718142747879028,-0.2237507700920105,-0.07425002753734589,-0.012814462184906006,-0.022663429379463196,-0.03265298157930374,0.19009165465831757,-0.012602129019796848,-0.0456111766397953,1.4945409584018863,0.22566112727654478,-0.8368677108499287
1687015377.120486,0.9714690446853638,-0.22463543713092804,-0.07607375085353851,-0.012392938137054443,-0.016209334135055542,-0.014227695763111115,0.0068771736696362495,-0.07369859516620636,0.030059216544032097,1.4926478554753233,0.22656888864061503,-0.8393778971647673
1687015377.1837091,0.9710283279418945,-0.22583642601966858,-0.07811585813760757,0.004420340061187744,-0.03162512183189392,-0.0008025169372558594,0.1155967265367508,-0.05780111998319626,0.022896911948919296,1.4905226715125675,0.22780155746840278,-0.8466947920179714
1687015377.2774339,0.9701817631721497,-0.22931332886219025,-0.07850421220064163,0.013918638229370117,-0.027324259281158447,-0.01883155107498169,0.13212217390537262,-0.0468137189745903,0.08964598178863525,1.4900552251230892,0.23137215820485785,-0.850032254142119
1687015377.285407,0.9686316251754761,-0.2360837757587433,-0.07757073640823364,-0.02249521017074585,-0.024307474493980408,-0.07814507931470871,0.7788224220275879,-0.11909954249858856,0.08524823188781738,1.4908840685345712,0.23833371625244626,-0.8730966189917203
1687015377.366238,0.9662912487983704,-0.24519400298595428,-0.07849352061748505,0.015459299087524414,-0.13333076238632202,-0.12481451034545898,0.533802330493927,-0.28338027000427246,0.22016377747058868,1.4897425492104863,0.24771980576996316,-0.9070171527396684
1687015377.381507,0.9617145657539368,-0.2604595422744751,-0.08524088561534882,0.022935152053833008,-0.12676271796226501,-0.12972486019134521,0.828978419303894,-0.39975330233573914,0.32397034764289856,1.4823930585401413,0.2634981523579204,-0.9456997910789835
1687015377.418254,0.9542638659477234,-0.2829042375087738,-0.09667441993951797,0.04419517517089844,-0.08548876643180847,-0.08861298859119415,0.4526613652706146,-0.4108395278453827,0.49649983644485474,1.4698329398228327,0.2868207017480293,-0.9721201387175237
1687015377.512453,0.9442660212516785,-0.3101201355457306,-0.11039582639932632,0.018960297107696533,-0.04634040594100952,-0.08090351521968842,0.6328579783439636,-0.5341362357139587,0.5074719786643982,1.4544128781156507,0.31531939992206615,-0.9978166265907206
1687015377.5182009,0.9323410391807556,-0.3384953439235687,-0.1271272748708725,0.029893577098846436,-0.10761061310768127,-0.07492953538894653,0.32896843552589417,-0.5879653096199036,0.5998375415802002,1.4352792895430997,0.34531738414743374,-1.0214527123778567
1687015377.572106,0.9173174500465393,-0.36906591057777405,-0.1493956297636032,0.03467839956283569,-0.13577112555503845,-0.051074251532554626,0.13989372551441193,-0.5574768781661987,0.6725828647613525,1.4093523208109218,0.37800378472396756,-1.0314396728459996
1687015377.6686978,0.8972988128662109,-0.4024442732334137,-0.1813654601573944,0.07050514221191406,-0.07842117547988892,-0.07002298533916473,-0.2779528796672821,-0.6933177709579468,0.8459605574607849,1.371359472948647,0.41418532538428077,-1.011091146925671
1687015377.6862779,0.8725324869155884,-0.4414719045162201,-0.2092599719762802,0.0667528510093689,-0.06106102466583252,-0.04006856679916382,0.2697976529598236,-0.7307802438735962,0.8996018171310425,1.3354115473834953,0.45723844102294603,-1.0070012093157004
1687015377.7188659,0.8425790071487427,-0.4870624244213104,-0.22984950244426727,0.08512485027313232,-0.042020827531814575,-0.025826677680015564,0.632727324962616,-0.6717036962509155,1.0432169437408447,1.3044832823745465,0.5087230681962575,-1.0158629318420738
1687015377.814569,0.8058285713195801,-0.5418924689292908,-0.2387324422597885,0.08299601078033447,-0.11518150568008423,-0.015265285968780518,0.6469876766204834,-0.6068245768547058,1.2561979293823242,1.2827768890008886,0.5726872382868036,-1.036110121833414
1687015377.8307772,0.7585452795028687,-0.6048609614372253,-0.24238863587379456,0.10259974002838135,-0.09942364692687988,-0.03152182698249817,0.7448266744613647,-0.5524317622184753,1.54534912109375,1.261507029615006,0.6495912658105266,-1.0491693826454516
1687015377.871201,0.6981086730957031,-0.6763543486595154,-0.23492354154586792,0.11066818237304688,-0.13315492868423462,-0.03978034853935242,0.9376441240310669,-0.49053069949150085,1.8839589357376099,1.2461856561396658,0.7428018561339484,-1.0658215807773423
1687015377.99713,0.6207940578460693,-0.7533410787582397,-0.21700730919837952,0.18873053789138794,-0.11541813611984253,-0.01518559455871582,0.8549309968948364,-0.3003554344177246,2.2150206565856934,1.2345098991285763,0.8531278444389628,-1.0768342578359305
1687015378.0152988,0.5262039303779602,-0.8299766182899475,-0.185062974691391,0.1645156741142273,-0.10232013463973999,-0.022593781352043152,1.0041265487670898,-0.29246440529823303,2.4251515865325928,1.2326128199610191,0.9790657904777859,-1.090941578267532
1687015378.081784,0.41153883934020996,-0.8984100818634033,-0.15328113734722137,0.24109482765197754,-0.04838252067565918,0.04068662226200104,0.4099791646003723,-0.0471179373562336,2.847707748413086,1.2142556865035325,1.1161356738895563,-1.075755173097749
1687015378.0979528,0.27617955207824707,-0.9507396817207336,-0.14078038930892944,0.24178007245063782,-0.018712282180786133,0.04774761199951172,0.2638569474220276,-0.01306578516960144,3.05511736869812,1.0993852998721547,1.2556134257239895,-0.9542076877647686
1687015378.170734,0.12690362334251404,-0.9836687445640564,-0.12763799726963043,0.23675912618637085,-0.02913343906402588,0.05201554298400879,0.3049044609069824,0.012108721770346165,3.109369993209839,0.782513045566076,1.3898216495464277,-0.6292650234981503
1687015378.186424,-0.025770150125026703,-0.9928253293037415,-0.11676384508609772,0.1980418860912323,-0.013110339641571045,0.045215435326099396,0.08678124099969864,0.1256801187992096,3.0876386165618896,-0.2172209184967773,1.450935917695086,0.38328490222888884
1687015378.2999911,-0.17615243792533875,-0.9777486324310303,-0.11392156034708023,0.24167367815971375,-0.014545738697052002,0.0667262077331543,0.041562095284461975,0.17596645653247833,3.08709454536438,-0.9967293684244113,1.359446524603001,1.1798785226063626
1687015378.389841,-0.3208438456058502,-0.9395214319229126,-0.11982744932174683,0.2269870638847351,-0.017036736011505127,0.0791170746088028,-0.15001480281352997,0.32982152700424194,3.0765392780303955,-1.2133625137014132,1.2212303508055369,1.417918671526932
1687015378.408846,-0.45902422070503235,-0.8782660961151123,-0.13396045565605164,0.19474199414253235,0.00482255220413208,0.09376890957355499,-0.19128233194351196,0.2921694815158844,3.049549102783203,-1.2868448432193798,1.0722239833160614,1.5131756639817147
1687015378.445029,-0.5826317071914673,-0.7988412976264954,-0.14964257180690765,0.21190416812896729,-0.02427881956100464,0.08436556160449982,-0.12088301032781601,0.405172199010849,3.0333127975463867,-1.3193913370575023,0.9253665194581502,1.574868266759264
1687015378.448621,-0.6920945644378662,-0.7024667263031006,-0.1659693866968155,0.17848366498947144,-0.06492835283279419,0.05671656131744385,-0.07281885296106339,0.42762285470962524,3.0382449626922607,-1.33543346829641,0.7788575056709155,1.6238831985098385
1687015378.4518561,-0.7859962582588196,-0.5885908007621765,-0.18913210928440094,0.1644599437713623,-0.05378901958465576,0.0450434684753418,-0.32483893632888794,0.42523059248924255,3.0499980449676514,-1.334658344706506,0.6293146091049513,1.6561672716158733
1687015378.499279,-0.8618016242980957,-0.4609929621219635,-0.21162116527557373,0.1618046760559082,-0.03227794170379639,-0.0051146000623703,-0.06527500599622726,0.33707037568092346,3.0310399532318115,-1.3300039442091982,0.4791138303646842,1.6845482696957192
1687015378.563906,-0.917644202709198,-0.3289146423339844,-0.22303397953510284,0.15261435508728027,-0.09561535716056824,0.019786983728408813,0.1669294685125351,0.3101085424423218,3.036184787750244,-1.332368890401869,0.3351540464435241,1.7286895243720284
1687015378.659359,-0.9529306888580322,-0.18673378229141235,-0.2388589084148407,0.2121623158454895,-0.10829490423202515,0.04771213233470917,-0.06322433054447174,0.32592326402664185,3.143207311630249,-1.3251992447246692,0.18783639666186852,1.7690645539317034
1687015378.665285,-0.9663846492767334,-0.03340008482336998,-0.2549220323562622,0.2557064890861511,-0.08203268051147461,0.025048434734344482,-0.08340474218130112,0.25672200322151184,3.2818944454193115,-1.312882099780363,0.03340629739747994,1.8049471339954688
1687015378.7125602,-0.9552834630012512,0.12204276025295258,-0.26933130621910095,0.26088637113571167,-0.03489980846643448,0.03428494930267334,0.2768925428390503,0.3124088943004608,3.2709100246429443,-1.2959908377211635,-0.12234776773440063,1.851802936036036
1687015378.8033218,-0.919255256652832,0.27258676290512085,-0.2840185761451721,0.23248755931854248,-0.029071718454360962,0.027686238288879395,0.2363131195306778,0.2673816680908203,3.270982265472412,-1.2711343160012776,-0.2760805856905496,1.9119588352765247
1687015378.822017,-0.8585081100463867,0.41219305992126465,-0.30505895614624023,0.21670806407928467,0.01306942105293274,-0.02494281530380249,0.2480427324771881,0.38479378819465637,3.196582794189453,-1.2293756207011681,-0.4248598110569035,1.9808104245726188
1687015378.8591661,-0.7845819592475891,0.5333799123764038,-0.3161284625530243,0.20314562320709229,0.08299893140792847,0.015209943056106567,0.10530618578195572,0.157932847738266,2.83497953414917,-1.1877700926650734,-0.5625913299970615,2.0459937023648154
1687015378.955984,-0.7045554518699646,0.626373291015625,-0.3335539400577545,0.16668307781219482,0.051116943359375,0.007153213024139404,0.21846012771129608,0.27111658453941345,2.42350697517395,-1.1286340922282025,-0.6768920125986854,2.124970757946855
1687015378.9730859,-0.6289639472961426,0.697035551071167,-0.3443051278591156,0.1678432822227478,0.09185916185379028,0.020666301250457764,0.2165423482656479,0.2319840043783188,1.9321528673171997,-1.069938913100926,-0.7712548351155031,2.1970884246115205
1687015379.0129452,-0.560134768486023,0.746720552444458,-0.3586884140968323,0.12245166301727295,-0.005357027053833008,0.0072480738162994385,-0.04289903864264488,0.16796275973320007,1.695122480392456,-1.001227133888012,-0.8431178300988947,2.2781510197593446
1687015379.116395,-0.4984016418457031,0.7888474464416504,-0.3596044182777405,0.08177569508552551,0.05670297145843506,0.004273086786270142,0.005727930925786495,0.22440430521965027,1.4229254722595215,-0.9457760160644487,-0.9089314560867845,2.3377504850297055
1687015379.132728,-0.4414607882499695,0.8201953768730164,-0.36385709047317505,0.04541885852813721,0.04326903820037842,-0.013614773750305176,-0.1817009001970291,0.21662448346614838,1.1518471240997314,-0.8814655904981819,-0.9617524964665564,2.402282576140714
1687015379.190825,-0.39202022552490234,0.8474129438400269,-0.3580666184425354,0.01341906189918518,0.01899653673171997,0.010700315237045288,-0.427097350358963,0.2717551290988922,1.0328636169433594,-0.8306335169311447,-1.0110935035578292,2.449668504290243
1687015379.2851381,-0.3511916399002075,0.8751765489578247,-0.3327620029449463,0.05271443724632263,0.04325002431869507,-0.021959006786346436,-0.7063183784484863,0.1186099573969841,0.765691339969635,-0.8123373628222523,-1.0658006041569585,2.459591792731318
1687015379.305354,-0.31884559988975525,0.8920884132385254,-0.3201811909675598,0.0010355114936828613,0.10336452722549438,-0.05365908145904541,0.030353514477610588,0.24400515854358673,0.46610650420188904,-0.7833081373061882,-1.1019461530601267,2.481951140450643
1687015379.374053,-0.2969834804534912,0.8974565863609314,-0.32614797353744507,0.012315511703491211,0.013157427310943604,-0.0069055259227752686,-0.02445243112742901,0.17195342481136322,0.36856308579444885,-0.7386291715056071,-1.113969219127268,2.5227364160791774
1687015379.389004,-0.28322678804397583,0.9032566547393799,-0.32235071063041687,0.00804978609085083,0.06810259819030762,0.011941224336624146,-0.18312542140483856,0.1193261668086052,0.12791040539741516,-0.7208818390432478,-1.1272993984647601,2.5346312188254445
1687015379.460887,-0.2794834077358246,0.9060083031654358,-0.3178649842739105,-0.0036892294883728027,0.019010066986083984,-0.02440488338470459,-0.09424571692943573,0.04238779842853546,0.0036395927891135216,-0.7212331278687762,-1.1337558835547337,2.529159290897423
1687015379.465496,-0.2793276011943817,0.9052072167396545,-0.3202749490737915,-0.012756168842315674,0.035008907318115234,-0.01030665636062622,0.18049216270446777,0.07339639961719513,-0.040247637778520584,-0.7172132054337016,-1.1318671078419087,2.5304248066130284
1687015379.556725,-0.2813807427883148,0.9012744426727295,-0.3294379711151123,0.007653295993804932,-0.0016619563102722168,-0.00292891263961792,0.11160624772310257,0.024533964693546295,-0.07097205519676208,-0.7068831824078311,-1.1227021952148404,2.5381749860973644
1687015379.574111,-0.2842244505882263,0.9003570675849915,-0.3295055627822876,0.004271388053894043,-0.01772749423980713,0.008353859186172485,-0.03024658001959324,0.0026790895499289036,-0.07049508392810822,-0.7117514048103559,-1.1205893874610715,2.532025604160806
1687015379.6395469,-0.2850876450538635,0.899497389793396,-0.331103652715683,-0.005775421857833862,-0.02062159776687622,0.010058820247650146,0.008733219467103481,0.04210887476801872,0.009620520286262035,-0.7108583858839569,-1.1186178102838413,2.5315228599462984
1687015379.644211,-0.284944623708725,0.8991420865058899,-0.33219030499458313,0.011186659336090088,0.014508545398712158,-0.020089328289031982,0.06902789324522018,0.013222189620137215,-0.004379051737487316,-0.7089907207970488,-1.1178052501550717,2.531076087881849
1687015379.703623,-0.28546130657196045,0.8978871703147888,-0.3351275324821472,-0.0038453340530395508,0.0023813843727111816,-0.01252862811088562,0.006293630693107843,0.08074469119310379,-0.012586714699864388,-0.7055375691343225,-1.11494633838893,2.532014918109731
1687015379.798184,-0.28491267561912537,0.8977034091949463,-0.3360857367515564,-0.016219615936279297,0.013780534267425537,0.003062695264816284,0.0061870599165558815,0.08327672630548477,-0.03341882675886154,-0.7031794218732761,-1.114529164954104,2.5304666511396356
1687015379.81666,-0.2847442030906677,0.8969321250915527,-0.33828046917915344,-0.01496899127960205,0.013941347599029541,-0.00827711820602417,0.040702782571315765,0.1276843249797821,-0.05639151856303215,-0.6996791108204717,-1.1127816387846288,2.5283785419974065
1687015379.847203,-0.28572916984558105,0.8952273726463318,-0.3419461250305176,0.011101394891738892,-0.016488730907440186,0.01726970076560974,0.06801757961511612,0.03884730488061905,-0.005393183324486017,-0.6960727150691135,-1.1089411376169673,2.5283203850759195
1687015379.943577,-0.28474053740501404,0.8948463201522827,-0.34376272559165955,0.018505185842514038,-0.01265949010848999,0.005216032266616821,0.02125176414847374,-0.000329749658703804,0.020567843690514565,-0.6917636495840757,-1.1080868491607712,2.5306837193569742
1687015379.950509,-0.2834759056568146,0.8944100141525269,-0.3459368646144867,0.0007762908935546875,0.014128923416137695,0.016408085823059082,0.06764087826013565,0.050241634249687195,0.0161618422716856,-0.6864851652798685,-1.1071102462458038,2.535341874200965
1687015380.000057,-0.28206631541252136,0.8936830163002014,-0.34895485639572144,-0.006965696811676025,0.010415613651275635,-0.011320352554321289,0.014004591852426529,0.04277608543634415,-0.03429567068815231,-0.6797920505304069,-1.1054873855309886,2.539529005487695
1687015380.100844,-0.2831960916519165,0.8943007588386536,-0.34644821286201477,-0.02304786443710327,0.01884639263153076,-0.009478241205215454,-0.04250755533576012,0.006349103059619665,-0.02488013356924057,-0.6852771476507667,-1.1068661260713994,2.5342268315356984
1687015380.117978,-0.28470295667648315,0.893626868724823,-0.3469514846801758,-0.004374831914901733,0.017231345176696777,-0.009249627590179443,0.082918681204319,-0.007706794887781143,-0.03099188581109047,-0.6871669480604491,-1.1053623114582216,2.5312590387997473
1687015380.148728,-0.2882625460624695,0.8905416131019592,-0.3519098162651062,0.006936222314834595,-0.025276601314544678,0.030910789966583252,0.008564375340938568,-0.08302240818738937,-0.03719572350382805,-0.6863017198187182,-1.0985343357181734,2.535298183174032
1687015380.240823,-0.2890903651714325,0.8929910659790039,-0.3449549674987793,-0.019823849201202393,0.01447969675064087,0.00022846460342407227,-0.1405266672372818,0.013702090829610825,-0.003961068578064442,-0.6975168645869684,-1.10394767522844,2.5248692594109845
1687015380.258929,-0.2898218631744385,0.8943461775779724,-0.3408057391643524,0.003093898296356201,0.0069144368171691895,-0.022902697324752808,-0.03857610374689102,-0.027141833677887917,-0.02403005212545395,-0.704727364436281,-1.1069675478758214,2.517279167542471
1687015380.298112,-0.2929050922393799,0.8932494521141052,-0.34104570746421814,0.016156405210494995,0.01759350299835205,-0.011462748050689697,0.07205253839492798,-0.09135810285806656,-0.05728794261813164,-0.7096061561080007,-1.1045220863445142,2.515164995806289
1687015380.395732,-0.29986393451690674,0.8895853757858276,-0.34455716609954834,0.03558164834976196,0.009050548076629639,0.007505834102630615,0.12892016768455505,-0.1093055009841919,-0.14419540762901306,-0.7161549339357056,-1.0964365963687355,2.513097912368147
1687015380.403929,-0.3098956048488617,0.8837671279907227,-0.35060012340545654,0.02663138508796692,0.003195822238922119,0.010786950588226318,0.07478463649749756,-0.06054062396287918,-0.2596966326236725,-0.7238487525406225,-1.0838526625959433,2.507809411097097
1687015380.484813,-0.32392215728759766,0.8806226849555969,-0.34580081701278687,0.005288124084472656,0.007637202739715576,-0.009149104356765747,-0.04581236094236374,-0.15352489054203033,-0.32342010736465454,-0.7527415914037647,-1.077174828462231,2.481715506414571
1687015380.576882,-0.3415832817554474,0.8726108074188232,-0.349100798368454,0.025268584489822388,-0.002676665782928467,-0.011738985776901245,0.19114430248737335,-0.14339734613895416,-0.3890991806983948,-0.7745144257341989,-1.0605224611943076,2.4640910813778505
1687015380.593936,-0.36151912808418274,0.8639383316040039,-0.35059165954589844,0.013237237930297852,-0.008210182189941406,0.007558912038803101,0.10658721625804901,-0.20512035489082336,-0.3757493197917938,-0.8007421383231565,-1.043038378510937,2.445395521392949
1687015380.663121,-0.3836074769496918,0.8561309576034546,-0.3462444543838501,0.061067134141922,-0.019384682178497314,0.012733161449432373,-0.13910923898220062,-0.30525174736976624,-0.4249357283115387,-0.8365461077679004,-1.027735453267249,2.416928053224113
1687015380.668478,-0.4082435965538025,0.8491445183753967,-0.3350985646247864,0.02536994218826294,-0.0016101598739624023,-0.0021053850650787354,-0.09974807500839233,-0.3418237864971161,-0.4694545865058899,-0.8834826225053347,-1.0143633883550303,2.3802653415484074
1687015380.755307,-0.4344980716705322,0.8403130769729614,-0.32416868209838867,0.020359277725219727,0.009525179862976074,-0.00760301947593689,0.013554340228438377,-0.40060916543006897,-0.4904122054576874,-0.9298111640095427,-0.9978605368060082,2.3471964038175206
1687015380.7722502,-0.46022799611091614,0.8292510509490967,-0.3170691132545471,-0.004753082990646362,0.01021122932434082,-0.011528819799423218,0.0024734591133892536,-0.3584534525871277,-0.5053899884223938,-0.9675323534426847,-0.9777662447341651,2.3242205069935347
1687015380.841569,-0.48783454298973083,0.817827582359314,-0.3052467107772827,-0.009373098611831665,0.026425957679748535,-0.002934962511062622,-0.08632045984268188,-0.3419879376888275,-0.5625110864639282,-1.0116810741644504,-0.9576257326441167,2.293811320446207
1687015380.859457,-0.5195630192756653,0.8034126162528992,-0.2908309996128082,0.09477353096008301,0.009560465812683105,-0.025117456912994385,-0.2381034642457962,-0.4267723262310028,-0.7438415288925171,-1.0604901315015678,-0.9330047008123092,2.2532458110315883
1687015380.9045858,-0.5593265295028687,0.7831756472587585,-0.2716428339481354,0.12144500017166138,-0.002001941204071045,-0.04477858543395996,-0.3301358222961426,-0.2504621148109436,-1.1132510900497437,-1.1186859294562859,-0.8997567418116756,2.2016850897615816
1687015380.997366,-0.6134108901023865,0.7514822483062744,-0.24290281534194946,0.2888258695602417,0.008115589618682861,-0.08442860841751099,-0.4875563085079193,-0.36767226457595825,-1.4939634799957275,-1.1937541196540549,-0.8503058607554443,2.126041162073024
1687015381.004898,-0.6782624125480652,0.7008286714553833,-0.22090578079223633,0.2143188714981079,-0.004875242710113525,-0.02347886562347412,-0.39215630292892456,-0.2083670198917389,-1.9141337871551514,-1.2559371586794912,-0.7765584918107923,2.0573178496753686
1687015381.050838,-0.7509320378303528,0.6273928880691528,-0.2061050832271576,0.09680300951004028,0.006625056266784668,0.03287215530872345,-0.12959851324558258,-0.11823223531246185,-2.276228427886963,-1.3029269221831477,-0.6782006483683667,2.000909938614311
1687015381.147218,-0.8195111751556396,0.538185715675354,-0.19686970114707947,0.05263489484786987,-0.06603294610977173,0.0057839155197143555,-0.43392330408096313,-0.09226278215646744,-2.473118305206299,-1.3350355824645934,-0.5682829922812032,1.9478283004908326
1687015381.154311,-0.8768365979194641,0.4455929696559906,-0.18056727945804596,-0.061105966567993164,-0.0304013192653656,0.009241655468940735,-0.38022199273109436,-0.040963638573884964,-2.291104793548584,-1.367705057669857,-0.4618365039285674,1.894908842889427
1687015381.236126,-0.9226629137992859,0.3500690162181854,-0.1616937667131424,0.04816639423370361,-0.035387009382247925,0.03963881731033325,-0.1894267350435257,-0.3691937029361725,-1.9935330152511597,-1.3973111643337395,-0.35764479668118754,1.854415968395362
1687015381.25315,-0.9553354978561401,0.25674813985824585,-0.14633747935295105,0.06037694215774536,-0.027225404977798462,0.03534513711929321,0.08447560667991638,-0.3641553819179535,-1.8899118900299072,-1.4187986426885366,-0.2596560295751039,1.8400757594480013
1687015381.291294,-0.9768109321594238,0.16693685948848724,-0.13406133651733398,0.04616212844848633,-0.04666711390018463,0.006620004773139954,-0.002312640892341733,-0.2617873549461365,-1.8693574666976929,-1.4344045298631112,-0.16772211862593062,1.8304501216736064
1687015381.351344,-0.9895266890525818,0.078496553003788,-0.12114130705595016,-0.013189375400543213,0.008142828941345215,0.000978417694568634,-0.2834542393684387,-0.088182732462883,-1.8816516399383545,-1.4489790084680916,-0.07857738609084164,1.8086864593575365
1687015381.446198,-0.9935048818588257,-0.018652331084012985,-0.11225221306085587,0.10016357898712158,0.06889951974153519,-0.03328604996204376,-0.3770345449447632,-0.28556904196739197,-2.11472487449646,-1.4582873940891232,0.018653412650313287,1.78263612508398
1687015381.453198,-0.986454427242279,-0.13015729188919067,-0.09983568638563156,0.08147072792053223,0.1502225250005722,-0.01887764036655426,-0.030470065772533417,-0.3317631483078003,-2.525658369064331,-1.4699331789730725,0.13052761326030957,1.7575701116500557
1687015381.535109,-0.9623918533325195,-0.26016730070114136,-0.07819759100675583,0.0690508484840393,0.09052005410194397,-0.0005682036280632019,0.32026615738868713,-0.3754365146160126,-2.7707765102386475,-1.4897210546165138,0.2631954804632238,1.754408661370631
1687015381.55141,-0.918554425239563,-0.3918595314025879,-0.05199739336967468,0.17484110593795776,0.009077608585357666,-0.005634956061840057,-0.060918163508176804,-0.6142138838768005,-2.779874086380005,-1.5142488255123525,0.4026519157044138,1.7524531722995509
1687015381.6577559,-0.8588110208511353,-0.5115644931793213,-0.027304252609610558,0.23962455987930298,-0.181413471698761,0.025000274181365967,-0.0647534728050232,-0.7424473762512207,-2.5596652030944824,-1.539013946511942,0.5370045889134879,1.738468108084117
1687015381.67611,-0.7881788015365601,-0.6154010891914368,0.007475914899259806,0.11338931322097778,-0.0004894733428955078,0.058167457580566406,0.44606366753578186,-0.576023280620575,-2.568711280822754,-1.5802810916895829,0.6628946901954198,1.7524654734660436
1687015381.776087,-0.6974436640739441,-0.7162026166915894,0.025026513263583183,0.12204992771148682,0.01043778657913208,0.06689250469207764,-0.32658621668815613,-0.35051649808883667,-2.896268844604492,-1.6066641429920443,0.7983457855482097,1.7605250454341639
1687015381.7941508,-0.5800623893737793,-0.8142338395118713,0.02347605675458908,-0.03004509210586548,0.12122529745101929,0.025931954383850098,-0.16909638047218323,-0.10060370713472366,-3.3214974403381348,-1.6112458599470096,0.9514082272913535,1.7491345297843468
1687015381.861187,-0.4320380985736847,-0.9016237258911133,0.02043899893760681,0.12175062298774719,-0.011416435241699219,0.05336785316467285,0.014089456759393215,-0.03437160700559616,-3.4407784938812256,-1.618069405603272,1.1235090878550278,1.7554152574348352
1687015381.86588,-0.2725948691368103,-0.9612725377082825,0.04058448597788811,0.08698698878288269,0.09075862169265747,-0.022136572748422623,1.2684706449508667,-0.22334711253643036,-3.429908275604248,-1.7185927550099185,1.2915830525807528,1.85378765265205
1687015381.921948,-0.1077570915222168,-0.979651689529419,0.1693257838487625,0.1124110221862793,-0.08007127046585083,-0.08302199840545654,3.435436725616455,-1.36410653591156,-3.179175615310669,-2.5748453076516578,1.368718489192038,2.689921363695937
1687015382.020993,0.05106303468346596,-0.9321056604385376,0.3585687279701233,0.10079244524240494,-0.031013786792755127,0.0739569365978241,4.095532417297363,-1.3350523710250854,-2.8085949420928955,3.000135840721912,1.2001837584171238,-2.9303480280203247
1687015382.044141,0.20161357522010803,-0.865350604057312,0.45882532000541687,0.03576746582984924,-0.3504088521003723,0.27132314443588257,0.2372688353061676,-1.3136574029922485,-2.5990421772003174,2.7275781064732754,1.0458495543916482,-2.7078687033503943
1687015382.108443,0.334561288356781,-0.8483323454856873,0.41036728024482727,0.10463246703147888,-0.03118431568145752,0.14873015880584717,-1.0180835723876953,-0.8063187003135681,-2.672673463821411,2.4576081478259106,1.012827632395373,-2.454128853006427
1687015382.1244311,0.4586208164691925,-0.8175579905509949,0.34823328256607056,0.07632189989089966,-0.07058000564575195,0.028842002153396606,-1.4732582569122314,-0.7697084546089172,-2.5540950298309326,2.220226346636249,0.9571573976817548,-2.212812620212433
1687015382.1275148,0.5698642730712891,-0.7758755087852478,0.2706887125968933,0.09523594379425049,-0.03819632530212402,-0.0060401856899261475,-1.198789119720459,-0.7201308608055115,-2.412656307220459,2.014249209166399,0.8881016127303075,-1.9984602189683445
1687015382.1595879,0.6672775149345398,-0.7119027376174927,0.21894153952598572,0.05153357982635498,-0.017772555351257324,0.05333636701107025,-0.41196176409721375,-0.6310042142868042,-2.4866554737091064,1.8878400564473306,0.7922038978958817,-1.8827612855987927
1687015382.2226439,0.7539721131324768,-0.6352971792221069,0.16710448265075684,0.10430431365966797,-0.12849682569503784,-0.038869500160217285,-1.1645712852478027,-0.86648029088974,-2.3032426834106445,1.7889029289325906,0.6883932590846978,-1.7865334092921792
1687015382.2826262,0.8286373019218445,-0.550671398639679,0.10060443729162216,0.08513528108596802,-0.16655272245407104,0.07682488858699799,-1.9590338468551636,-0.39634454250335693,-2.3720998764038086,1.6916145075088336,0.5831683621211315,-1.6762428178923026
1687015382.380307,0.8803603649139404,-0.47340723872184753,0.029174597933888435,0.1171829104423523,-0.05076265335083008,0.0843050479888916,-2.2682945728302,0.07294623553752899,-1.7663906812667847,1.6039235839608676,0.493154937901056,-1.532254714710001
1687015382.386374,0.9148504734039307,-0.4037860929965973,-0.002360585844144225,0.11951237916946411,-0.03600272536277771,-0.18466633558273315,-2.164097309112549,0.1096200942993164,-1.173620581626892,1.5682160357468036,0.41565155890060057,-1.4096087067629421
1687015382.432946,0.9413591623306274,-0.3364820182323456,-0.024952733889222145,-0.04496639966964722,-0.18982410430908203,0.023426953703165054,-1.3741047382354736,0.45163866877555847,-1.4718067646026611,1.5442953990918429,0.34317857248700384,-1.3214507997364882
1687015382.559527,0.9592746496200562,-0.28012359142303467,-0.0363728404045105,0.005309700965881348,-0.09066498279571533,-0.08996981382369995,-1.3573838472366333,0.2511688768863678,-1.1375185251235962,1.5328974578830654,0.283922851321538,-1.2374124569562372
1687015382.577787,0.9700918197631836,-0.23954448103904724,-0.03925168514251709,0.03622543811798096,-0.23994773626327515,-0.17975759506225586,-0.9153180718421936,-0.06693647056818008,-0.4113057851791382,1.5303565621175503,0.24189664955859258,-1.184374815219125
1687015382.64225,0.9749659895896912,-0.21745775640010834,-0.04640744626522064,-0.0035609006881713867,-0.33266735076904297,-0.1397954821586609,-0.4172916114330292,-0.07495223730802536,-0.18618640303611755,1.5232331824922347,0.21920914121935287,-1.1617359854611016
1687015382.659648,0.9747150540351868,-0.21579939126968384,-0.057977546006441116,0.009263277053833008,-0.11731523275375366,-0.09982877969741821,0.08299924433231354,-0.16949570178985596,0.05116776376962662,1.5113847954853317,0.21751043154478739,-1.1453363322211971
1687015382.699274,0.972381055355072,-0.22448725998401642,-0.06388037651777267,0.037750840187072754,-0.08212283253669739,-0.03762102127075195,0.2151917666196823,-0.19706153869628906,0.2771759331226349,1.5051957945504337,0.2264168358484736,-1.1542893524441744
1687015382.795754,0.9688917398452759,-0.23774366080760956,-0.06875249743461609,0.008983075618743896,-0.04671071469783783,0.03214675188064575,0.13138718903064728,-0.14370767772197723,0.2755748927593231,1.4999551327671201,0.24004224455667386,-1.167027293309174
1687015382.802497,0.9649946093559265,-0.25185728073120117,-0.0731668621301651,-0.017896831035614014,0.05924561619758606,0.06817729026079178,0.0954815223813057,-0.04020526260137558,0.2325136512517929,1.4951201132993353,0.25459892785920846,-1.1692292809263571
1687015382.8869529,0.9625556468963623,-0.2607506811618805,-0.07413340359926224,-0.009384870529174805,0.063042551279068,0.06134659796953201,-0.012268779799342155,-0.03749336302280426,0.16581737995147705,1.4939308056947682,0.26379969307199885,-1.1683001611775214
1687015382.9047,0.9617926478385925,-0.264152467250824,-0.07196130603551865,-0.02519291639328003,0.03765103220939636,0.0798502042889595,0.12515108287334442,0.061716753989458084,0.015964437276124954,1.49611549435696,0.26732505844573723,-1.1745093137556846
1687015382.939471,0.96244877576828,-0.2631542384624481,-0.06665191799402237,0.002593398094177246,0.028992831707000732,0.042070090770721436,-0.06078265234827995,0.1296364963054657,-0.017384866252541542,1.5016542898563952,0.2662902203692915,-1.1735319793644163
1687015383.038224,0.9638481736183167,-0.2599046528339386,-0.05870739743113518,-0.0071067214012146,-0.0267469584941864,0.012961626052856445,-0.042900726199150085,0.18306590616703033,-0.08193568885326385,1.5099620993618692,0.26292345727798866,-1.1724425770114075
1687015383.0553598,0.9650329351425171,-0.2569747269153595,-0.0517256073653698,-0.02304685115814209,-0.041746586561203,-0.016236957162618637,-0.06261468678712845,0.1585032194852829,-0.07317109405994415,1.5172477297574116,0.2598904854196269,-1.170377711226194
1687015383.089411,0.9658703207969666,-0.2550176680088043,-0.04539414495229721,0.0025135278701782227,-0.042315125465393066,-0.050568342208862305,-0.14165771007537842,0.16212458908557892,-0.014526228420436382,1.5238327061903045,0.25786597563213154,-1.1637240539817704
1687015383.181591,0.9657089710235596,-0.2564511001110077,-0.0404839962720871,-0.006236374378204346,-0.043796002864837646,-0.06612908095121384,-0.02936578541994095,0.09821698069572449,0.0368737131357193,1.52889932972479,0.25934872367493217,-1.1600065706039464
1687015383.188349,0.9650296568870544,-0.25925859808921814,-0.03877057507634163,-0.008715391159057617,-0.04725998640060425,-0.047807756811380386,-0.02689042128622532,0.0808086022734642,0.06702422350645065,1.5306423955421316,0.2622544767806434,-1.1584292407788346
1687015383.275938,0.9637766480445862,-0.2640077769756317,-0.037873972207307816,0.0010365843772888184,-0.01162692904472351,-0.046873267740011215,-0.05334262549877167,0.043253593146800995,0.08125296235084534,1.5315190769687983,0.2671750575387829,-1.1548360741573163
1687015383.2940521,0.9626196026802063,-0.268265962600708,-0.037381015717983246,0.004742026329040527,-0.01092413067817688,-0.011935297399759293,-0.023258136585354805,0.048389408737421036,0.06047670915722847,1.5319832325020915,0.2715925762561064,-1.1522484535547857
1687015383.329694,0.9618412256240845,-0.2711453139781952,-0.03663327544927597,-0.0075868964195251465,-0.0035281479358673096,-0.011874321848154068,-0.020023327320814133,0.0406622476875782,0.0414946973323822,1.5327281138485878,0.2745827359478182,-1.1514711231003185
1687015383.4229732,0.96149080991745,-0.27241697907447815,-0.036393556743860245,-0.004566371440887451,-0.003614455461502075,-0.002333160489797592,-0.02016829326748848,0.005452416837215424,-0.0014200134901329875,1.5329632148961057,0.2759041395020735,-1.1501138829051383
1687015383.440331,0.9614112377166748,-0.27265214920043945,-0.03673256188631058,-0.010834455490112305,-0.01520487666130066,-0.00989818200469017,-0.1243072971701622,0.03364845737814903,0.02342168614268303,1.5326079814542461,0.27614854157936514,-1.146693192865265
1687015383.479762,0.9612274765968323,-0.27317628264427185,-0.03763782978057861,-0.0143585205078125,-0.02980223298072815,-0.014226734638214111,-0.27749213576316833,0.04019246622920036,0.020166905596852303,1.5316603113244343,0.2766933689881498,-1.1371198379257577
1687015383.54227,0.9608129262924194,-0.2740391492843628,-0.04172859340906143,0.002169311046600342,-0.0795375406742096,0.0444294810295105,-0.9418643712997437,0.11511553078889847,0.06489509344100952,1.527393095569189,0.27759044796986343,-1.1103980704070815
1687015383.638459,0.9588788151741028,-0.27806583046913147,-0.05684220418334007,-0.003175020217895508,-0.08156856894493103,0.007922589778900146,-2.216581106185913,0.23021318018436432,0.2709527909755707,1.5115857565195825,0.2817799397711395,-1.020380839348454
1687015383.6560411,0.9564896821975708,-0.28297871351242065,-0.07106822729110718,-0.006752073764801025,0.061146438121795654,-0.01522015780210495,-1.065388798713684,0.1822323352098465,0.09884507209062576,1.4966315128605534,0.2868983309018061,-0.9333542918435191
1687015383.720418,0.9561079144477844,-0.2830030918121338,-0.07594305276870728,-0.009498178958892822,-0.0642564594745636,-0.0011290386319160461,-1.2463644742965698,0.2382180094718933,0.12036082148551941,1.4915333616516995,0.2869237597245307,-0.8758642733641442
1687015383.734175,0.955301821231842,-0.2841983437538147,-0.08142484724521637,0.0016990900039672852,0.0026583969593048096,-0.02286887913942337,-0.837452232837677,0.17610448598861694,0.09894247353076935,1.4857671563057175,0.28817020438631535,-0.8196086306908004
1687015383.7802238,0.9549258351325989,-0.28497108817100525,-0.08311623334884644,-0.0367586612701416,-0.02456870675086975,-0.007444560527801514,-0.5102962255477905,0.15818434953689575,0.05291000381112099,1.48397566573469,0.28897626548032335,-0.7885343913830861
1687015383.8729172,0.9537990093231201,-0.28796783089637756,-0.0856870785355568,-0.01878601312637329,-0.004482179880142212,-0.014441020786762238,-0.596733808517456,0.09795162826776505,0.15470434725284576,1.4811991843107597,0.2921040962189865,-0.7563937844572339
1687015383.889291,0.9524039626121521,-0.29287201166152954,-0.0845741480588913,0.021564602851867676,0.000849306583404541,0.010782718658447266,-0.28094935417175293,0.17498134076595306,0.15395240485668182,1.4822279328383678,0.29722918629319045,-0.7360125638895109
