Timestamp,gravityX,gravityY,gravityZ,accelerationX,accelerationY,accelerationZ,rotationRateX,rotationRateY,rotationRateZ,attitudeRoll,attitudePitch,attitudeYaw
1687012420.247754,0.058221712708473206,-0.23808597028255463,-0.9694974422454834,-0.00699794664978981,-0.003170698881149292,0.0039365291595458984,0.005204450339078903,0.0006744374986737967,0.008680785074830055,0.05998146111003558,0.24039468204327863,0.38322809104305844
1687012428.0877352,0.07478036731481552,-0.2646527588367462,-0.9614399671554565,0.0010100454092025757,-0.008372724056243896,-0.012787938117980957,-0.0015451536746695638,0.005408827681094408,0.008175184018909931,0.07762327156478309,0.2678438395894926,0.32072459161834155
1687012428.100497,0.07505036145448685,-0.26521188020706177,-0.9612648487091064,0.00635528564453125,-0.013001590967178345,-0.006981611251831055,-0.006548789329826832,0.006833974272012711,0.0040788426995277405,0.07791653067192704,0.2684236748205639,0.32103613610749343
1687012428.2119,0.07515978068113327,-0.26488402485847473,-0.9613466858863831,0.006016984581947327,-0.004296243190765381,0.007641851902008057,-0.007666651159524918,-0.0014026507269591093,0.0005490223411470652,0.07802305337960319,0.2680836429604487,0.321323109624136
1687012428.3045049,0.07510853558778763,-0.2651018798351288,-0.9612906575202942,-0.004414558410644531,-0.005039721727371216,0.0014975666999816895,-0.01719832792878151,0.003798058954998851,0.005695647560060024,0.07797459700591035,0.2683095708358522,0.3214237613443135
1687012428.317165,0.07524966448545456,-0.2646600604057312,-0.9614013433456421,-0.0007409900426864624,0.008678644895553589,-0.00022280216217041016,0.0011097959941253066,0.0034166057594120502,0.003974513150751591,0.07811156288665903,0.2678513808310278,0.3215344861082865
1687012428.322363,0.07500190287828445,-0.2642803192138672,-0.9615251421928406,-0.0074512287974357605,-0.004976212978363037,-0.0014265179634094238,-0.02125369943678379,0.0019233713392168283,0.013498975895345211,0.07784542927279067,0.2674576484080672,0.32217631364268584
1687012428.331692,0.07494419068098068,-0.26353028416633606,-0.9617354869842529,-0.0023733824491500854,-0.0017284750938415527,-0.00629734992980957,0.005462865810841322,0.00014997227117419243,0.0026943981647491455,0.07776882785688231,0.2666800239913483,0.3227953434032553
1687012428.581572,0.07496744394302368,-0.2632538378238678,-0.9618093967437744,0.004607148468494415,-0.0074828267097473145,-0.006772756576538086,-0.005529864225536585,-0.0014521852135658264,-0.0003313522320240736,0.07778690932529682,0.2663934684241158,0.3231017105265793
1687012428.59552,0.07506334781646729,-0.26285499334335327,-0.9619109630584717,0.006479628384113312,-0.005836993455886841,-0.0007507801055908203,-0.03202725201845169,0.008732009679079056,0.003347005695104599,0.07787782510087257,0.26598007167845317,0.3233219235285772
1687012428.6007118,0.07510417699813843,-0.26188886165618896,-0.9621713161468506,-0.0008854269981384277,-0.00874096155166626,-0.0009634494781494141,-0.00979105569422245,-0.004677006974816322,0.007065643556416035,0.07789901525750717,0.26497886211324234,0.32400954909757135
1687012428.6269798,0.07494977116584778,-0.2615090310573578,-0.962286651134491,-0.0037217363715171814,-0.002529054880142212,0.005026519298553467,-0.03232370316982269,0.004744901787489653,-0.0009865564061328769,0.07773023183395335,0.26458529800893943,0.32403648626505227
1687012428.6306891,0.07476090639829636,-0.26091864705085754,-0.962461531162262,0.002311237156391144,0.0015040338039398193,0.0015393495559692383,0.008789420127868652,-0.0041579571552574635,-0.002947774715721607,0.0775211083639776,0.26397370264260406,0.3241327143955093
1687012428.6340709,0.07452168315649033,-0.2606346309185028,-0.9625570774078369,-0.004453323781490326,-0.0004127025604248047,-0.002134084701538086,-0.016346115618944168,-0.0009002895094454288,0.00041979236993938684,0.0772664077663089,0.2636794851933064,0.32419269061723066
1687012428.699171,0.07450078427791595,-0.2599315345287323,-0.9627487659454346,0.0008318573236465454,-0.0056781768798828125,-0.01002955436706543,-0.01607513800263405,-0.006969633512198925,0.010071022436022758,0.07722950176059051,0.26295130906053776,0.3243545412119922
1687012428.720119,0.0744071751832962,-0.2590988278388977,-0.9629804491996765,0.007044248282909393,-0.007472187280654907,-0.002427816390991211,-0.018173353746533394,-0.010241948068141937,0.0034742383286356926,0.07711436248989469,0.2620890381565134,0.32468450068687005
1687012428.724411,0.0736609548330307,-0.2585470974445343,-0.9631860852241516,0.005059145390987396,-0.0073983073234558105,-0.0032140612602233887,-0.01811463199555874,-0.019054614007472992,-0.00403341231867671,0.07632777553022374,0.261517871729379,0.32467251580179923
1687012428.791096,0.07332601398229599,-0.2580554187297821,-0.9633435010910034,-0.002052202820777893,-0.007493257522583008,0.000742793083190918,-0.041856177151203156,0.006800684612244368,0.006329080555588007,0.07596967981002714,0.2610089181282471,0.3244909494382025
1687012428.832228,0.07302045822143555,-0.25634607672691345,-0.9638229608535767,-0.00345563143491745,0.00660550594329834,-0.00546109676361084,-0.036689870059490204,0.009523056447505951,0.018490739166736603,0.07561682458573157,0.25924006585424797,0.3252383300504964
1687012428.882804,0.07313382625579834,-0.2535632848739624,-0.9645501971244812,-0.005354277789592743,-0.00524100661277771,8.791685104370117e-05,-0.07846177369356155,0.0036109278444200754,-0.0026790618430823088,0.07567688922676775,0.256362159772187,0.3261479023553255
1687012428.923253,0.07357562333345413,-0.24875706434249878,-0.9657673239707947,0.0015434026718139648,0.010948866605758667,-0.0018230080604553223,-0.09000208973884583,0.014172935858368874,0.007988829165697098,0.07603671318231647,0.2513967719173739,0.3268896045025724
1687012428.9623241,0.07400975376367569,-0.2439882457256317,-0.966949999332428,0.0024062693119049072,-0.011306524276733398,-0.010634839534759521,-0.1406247913837433,0.01866116188466549,0.013800778426229954,0.07639044359740163,0.2464762752991924,0.327757635976337
1687012429.037541,0.07426030188798904,-0.238826185464859,-0.9682186841964722,0.0012554526329040527,-0.007755830883979797,-0.000836491584777832,-0.09212090075016022,0.0027146851643919945,0.004891306161880493,0.07654799680736082,0.24115687212179937,0.3290857932849733
1687012429.10411,0.07438042759895325,-0.23692885041236877,-0.9686754941940308,0.001074284315109253,-0.003336012363433838,-0.006971418857574463,-0.05824607238173485,-0.0007270066998898983,-0.0034929239191114902,0.07663531730180151,0.23920346579966045,0.32950154118233455
1687012429.118052,0.07447883486747742,-0.23465681076049805,-0.9692208766937256,0.002257615327835083,0.0020060837268829346,-0.004198312759399414,-0.033018480986356735,0.00023412820883095264,0.0007180663524195552,0.07669330954312979,0.23686551108302423,0.329649522782744
1687012429.169296,0.07430608570575714,-0.23022404313087463,-0.9702966213226318,-0.002879686653614044,-0.0007787495851516724,-5.555152893066406e-05,-0.14256654679775238,0.0006860666908323765,0.018742872402071953,0.07643161624266782,0.23230790374724078,0.33038273078239677
1687012429.2114592,0.0752214640378952,-0.22350262105464935,-0.971796452999115,6.540864706039429e-05,0.006309047341346741,-0.0022483468055725098,-0.12362898886203766,0.031307004392147064,0.02076634392142296,0.07725051371547247,0.22540653070737812,0.3316880517374809
1687012429.2836409,0.07576240599155426,-0.2209494709968567,-0.972338080406189,-4.828721284866333e-05,-0.008252769708633423,-0.002256035804748535,-0.0555117167532444,0.009768689051270485,0.014051182195544243,0.07776064521877338,0.22278789795821943,0.33271674168069876
1687012429.324616,0.07603760063648224,-0.2187335044145584,-0.9728175401687622,-0.002215564250946045,0.006407484412193298,-0.013815760612487793,0.014080544002354145,-0.014920679852366447,0.0014370533172041178,0.07800365055206153,0.22051635846994525,0.33323638548891393
1687012429.408276,0.07575637847185135,-0.21933071315288544,-0.9727050065994263,0.001483619213104248,-0.005843207240104675,-0.01891791820526123,-0.013579445891082287,-0.007822022773325443,0.003394809551537037,0.0777252748632147,0.22112842282696638,0.33306698907009274
1687012429.420559,0.07556714117527008,-0.21734113991260529,-0.9731661677360535,0.007135502994060516,-0.00861099362373352,0.006643950939178467,-0.07505688071250916,-0.0021576567087322474,0.0038101961836218834,0.07749530006192601,0.21908966596440274,0.3332591143360331
1687012429.468248,0.07590235024690628,-0.2134176790714264,-0.9740080833435059,0.008127808570861816,-0.004615128040313721,0.00826406478881836,-0.11014135926961899,0.022145552560687065,0.014500923454761505,0.07777067104780729,0.21507191146189839,0.3339369305274378
1687012429.5245929,0.07649984210729599,-0.2109687626361847,-0.9744946956634521,-0.00737752765417099,0.00880509614944458,-0.005439937114715576,0.020545633509755135,0.010630754753947258,0.0022819412406533957,0.07834139207941192,0.2125659195896607,0.33489617499199736
1687012429.575959,0.07698174566030502,-0.21060892939567566,-0.9745345711708069,-0.0003215894103050232,-0.006126865744590759,0.00770723819732666,-0.05828606337308884,0.022697802633047104,0.005039777606725693,0.07882964982877864,0.21219781825884226,0.33513680756809355
1687012429.619125,0.07717505842447281,-0.20891346037387848,-0.9748842120170593,-0.004741586744785309,8.171796798706055e-05,-0.017059147357940674,-0.016856465488672256,0.0009688057471066713,0.009661227464675903,0.07899856020405333,0.21046377356454193,0.33569079531642004
1687012429.70926,0.07752526551485062,-0.20701374113559723,-0.9752615690231323,0.014439456164836884,-0.017977073788642883,-0.0025673508644104004,-0.08642365038394928,0.008013488724827766,0.00840874295681715,0.07932496359414783,0.20852158518133676,0.3363073018496331
1687012429.7214088,0.07816716283559799,-0.20358183979988098,-0.9759325385093689,0.011356160044670105,0.005629599094390869,0.0040392279624938965,-0.048879869282245636,0.027337385341525078,0.030012771487236023,0.07992422437557872,0.20501499532509962,0.33765038440337336
1687012429.754527,0.07898404449224472,-0.2016506940126419,-0.9762676358222961,-0.0048110634088516235,0.0033322572708129883,-0.011677861213684082,-0.04006258770823479,0.019206399098038673,0.02126135677099228,0.0807282568094877,0.20304294593641092,0.33914557668782697
1687012429.828649,0.0799807608127594,-0.19908520579338074,-0.9767129421234131,-0.008523836731910706,0.003589630126953125,-0.004762887954711914,-0.03493799641728401,0.0153898224234581,-0.0001756904530338943,0.08170537938550687,0.200424352821115,0.33971466543353784
1687012429.905236,0.08020862936973572,-0.19748196005821228,-0.9770196676254272,0.007041133940219879,-0.003522038459777832,0.003234267234802246,-0.07258137315511703,0.014773568138480186,0.013677740469574928,0.08191151701479724,0.19878863102378655,0.34046894672728073
1687012429.919384,0.08063673228025436,-0.19397635757923126,-0.9776865243911743,-0.012048475444316864,0.002081841230392456,-0.010030150413513184,-0.07258746027946472,0.013342473655939102,0.0074779679998755455,0.08229083037068556,0.19521388008129067,0.34173236332250645
1687012430.0102792,0.0814635306596756,-0.19099161028862,-0.9782054424285889,0.0197175070643425,-0.005465269088745117,0.0012919902801513672,-0.08795398473739624,0.01553753949701786,0.028468869626522064,0.08308682700213484,0.19217225756575837,0.34249147696455273
1687012430.023162,0.08188248425722122,-0.18538132309913635,-0.9792492389678955,-0.007312767207622528,0.01118701696395874,-0.002699613571166992,-0.11536071449518204,0.018571412190794945,0.008375519886612892,0.08342354390562298,0.18645989655147796,0.34444172618991786
1687012430.0602322,0.08343814313411713,-0.18081212043762207,-0.9799719452857971,0.00819089263677597,-0.00029443204402923584,-0.004509866237640381,-0.09977629035711288,0.03708038106560707,0.04194246605038643,0.08493854451063342,0.18181211729871583,0.3458648265537488
1687012430.135884,0.0845709964632988,-0.17648568749427795,-0.9806632995605469,-0.006583325564861298,-0.010571762919425964,-0.00954049825668335,-0.13207612931728363,0.04535917192697525,0.0206295233219862,0.0860257282321715,0.17741494965901342,0.34737550366319675
1687012430.181449,0.08666080981492996,-0.16995619237422943,-0.981633722782135,-0.016500897705554962,0.0010109245777130127,-0.002497076988220215,-0.13772696256637573,0.049903854727745056,0.012872200459241867,0.08805394326088235,0.1707852146512454,0.34864687621659685
1687012430.23594,0.08881829679012299,-0.16334472596645355,-0.9825628995895386,0.009539864957332611,-0.01168881356716156,-0.007885098457336426,-0.19708029925823212,0.06577576696872711,0.028822006657719612,0.09014950625943693,0.16407996621908136,0.3500592463857756
1687012430.308156,0.09100546687841415,-0.15561555325984955,-0.9836167097091675,-0.007051602005958557,-0.003976106643676758,-0.02346336841583252,-0.13427434861660004,0.04604857787489891,0.023294880986213684,0.09225861787266079,0.15625056286258454,0.35266914131220173
1687012430.321049,0.09396179765462875,-0.14749538898468018,-0.9845893979072571,0.019288934767246246,0.009235531091690063,-0.01226729154586792,-0.20963416993618011,0.051402948796749115,0.02718762494623661,0.09514433229094045,0.14803549000932642,0.35453309449115755
1687012430.3632488,0.09623541682958603,-0.13654737174510956,-0.9859480261802673,-0.005430363118648529,0.010418251156806946,-0.004774570465087891,-0.22919771075248718,0.06968963146209717,0.03166073560714722,0.09729877585055334,0.13697529240093062,0.3576381702121518
1687012430.4052591,0.09929951280355453,-0.12713757157325745,-0.9869020581245422,-0.020472608506679535,-0.00324876606464386,-0.009817302227020264,-0.1697831153869629,0.0558670274913311,0.013945788145065308,0.10027990085647112,0.1274825922806603,0.36011561380282503
1687012430.4644299,0.10189948230981827,-0.11755870282649994,-0.9878240823745728,0.017775200307369232,0.004719987511634827,-0.0023949742317199707,-0.24559913575649261,0.07451643794775009,0.03588743880391121,0.10279191974739775,0.11783117656525767,0.36222064096728934
1687012430.513113,0.1042579635977745,-0.10676813870668411,-0.9888027310371399,-0.012125380337238312,0.0038628950715065002,0.009554684162139893,-0.23763105273246765,0.05486506223678589,0.02623920515179634,0.10505044019145084,0.10697203940698019,0.3649489815429927
1687012430.554913,0.10697620362043381,-0.09625821560621262,-0.9895910620689392,0.02011425793170929,-0.016122743487358093,-0.013048708438873291,-0.2600330114364624,0.04950012266635895,0.024058209732174873,0.10768326336402374,0.09640748562600217,0.36658762014028473
1687012430.635606,0.1090715155005455,-0.08335646241903305,-0.9905327558517456,-0.0008103996515274048,0.008741006255149841,-0.0049353837966918945,-0.2808530032634735,0.0481514111161232,0.018671568483114243,0.10967215878420446,0.0834532938321111,0.3694178368341719
1687012430.6768951,0.11211053282022476,-0.06899020075798035,-0.9912979006767273,-0.003376401960849762,-0.013758182525634766,-0.01128077507019043,-0.3103375732898712,0.0664949119091034,0.049541864544153214,0.11261618244686056,0.06904504399754408,0.3725436162828279
1687012430.712976,0.11523322761058807,-0.055799808353185654,-0.9917699694633484,-0.0008533447980880737,0.0044540055096149445,0.007700204849243164,-0.22114914655685425,0.06099406257271767,0.014263436198234558,0.1156708146143865,0.055828804283067426,0.3755541627938074
1687012430.757127,0.117356076836586,-0.04599317908287048,-0.992024302482605,-0.015152700245380402,0.008227694779634476,-0.0035811662673950195,-0.14959657192230225,0.024633299559354782,0.018761515617370605,0.11775233223820132,0.046009411322610744,0.37771838305305966
1687012430.804513,0.11868342757225037,-0.038351546972990036,-0.9921911954879761,0.006423391401767731,0.012045420706272125,0.0017585158348083496,-0.15861764550209045,0.032906677573919296,-0.0023852484300732613,0.11905183281862479,0.03836095655464603,0.3786891453788354
1687012430.903984,0.11940795928239822,-0.031668566167354584,-0.992340087890625,-0.01741819828748703,-0.006676752120256424,-0.00628662109375,-0.12682078778743744,0.013557301834225655,-0.0005266950465738773,0.11975390528350366,0.031673861653989915,0.37985811455370294
1687012430.917727,0.120146743953228,-0.02661166712641716,-0.9923993945121765,0.002930648624897003,-0.008208869025111198,-0.006318807601928711,-0.08413111418485641,0.014437476173043251,-0.0024220668710768223,0.12048056923648127,0.02661480823893578,0.3801005074686632
1687012430.951272,0.12044613808393478,-0.021455971524119377,-0.9924879670143127,-0.000985071063041687,-0.0072305332869291306,-0.020314157009124756,-0.11310647428035736,0.017688574269413948,0.01382268313318491,0.12076722095739262,0.021457618258234848,0.3810535992423145
1687012431.004949,0.12149197608232498,-0.018276885151863098,-0.9924241304397583,0.004240445792675018,0.00945732370018959,-0.0127485990524292,-0.051597580313682556,0.013033369556069374,-0.004014370962977409,0.12181330476496646,0.018277903290494116,0.38163133033064517
1687012431.066844,0.12208428233861923,-0.014176245778799057,-0.9924184679985046,0.010239936411380768,0.02154625952243805,-0.007688283920288086,-0.08930221945047379,0.01126689463853836,0.02397218905389309,0.12240196661676038,0.014176720391117848,0.3824653963823384
1687012431.110489,0.12284251302480698,-0.011739496141672134,-0.9923567175865173,-0.016259871423244476,0.018193982541561127,0.0009779930114746094,-0.005002469755709171,0.00980410911142826,-0.016798077151179314,0.12316211737990407,0.01173976568585721,0.3833507052341766
1687012431.222454,0.12306622415781021,-0.009812956675887108,-0.9923499226570129,0.014980033040046692,0.0008102906867861748,0.015177130699157715,-0.10476856678724289,0.015811223536729813,0.0064005861058831215,0.12338498087687419,0.009813114493896798,0.3829243141117438
1687012431.2667708,0.12386888265609741,-0.004089308436959982,-0.9922901391983032,-0.019514024257659912,0.008499117568135262,-0.012012779712677002,-0.08274511247873306,0.02165987901389599,-0.012731430120766163,0.1241888945815255,0.004089319953886756,0.3839580612901861
1687012431.273298,0.12528985738754272,-0.0008381055667996407,-0.9921198487281799,-0.00016777217388153076,-0.008881725370883942,-0.0019902586936950684,-0.07832381874322891,0.020361945033073425,-0.020281625911593437,0.1256200223349415,0.0008381056587491478,0.38335180217388065
1687012431.310052,0.125097393989563,0.0040739309042692184,-0.9921361207962036,0.026910677552223206,-0.024886902421712875,0.013208508491516113,-0.14005035161972046,0.012149998918175697,0.004398355260491371,0.1254270370053281,-0.0040739423322804095,0.38315222374920865
1687012431.388756,0.12662538886070251,0.010258321650326252,-0.9918975830078125,-0.02817566692829132,0.019053829833865166,-0.0267486572265625,-0.07537174969911575,0.03804391250014305,-0.01140377763658762,0.12697295177253323,-0.010258501332163193,0.38422879675428645
1687012431.422967,0.1290045529603958,0.011281363666057587,-0.9915798306465149,-0.008414342999458313,0.008539821952581406,-0.0023319125175476074,-0.011835209093987942,0.023440293967723846,-0.04487624764442444,0.1293733596205025,-0.011281602714110413,0.38300150137317
1687012431.5088758,0.1289793699979782,0.01326663140207529,-0.9915585517883301,0.01335461437702179,0.008934923447668552,0.014294147491455078,-0.07401801645755768,0.015088086947798729,0.003694282379001379,0.12935113416402674,-0.013267020897155554,0.38244647365930357
1687012431.523631,0.1291876882314682,0.01537122018635273,-0.9915010333061218,-0.0157691091299057,-0.008825182914733887,-0.003982365131378174,-0.012221988290548325,0.019616348668932915,-0.009720658883452415,0.12956515495337112,-0.01537182598044355,0.3826389172292913
1687012431.561191,0.12992657721042633,0.01546204648911953,-0.9914030432701111,0.01439104974269867,-0.0024005062878131866,0.004098355770111084,-0.03026672452688217,-0.0038412183057516813,0.00522040668874979,0.13031059405839474,-0.015462662319581448,0.3821885164741378
1687012431.614263,0.12963932752609253,0.016659187152981758,-0.9914212822914124,-0.0025030970573425293,0.0010868031531572342,-0.016635358333587646,-0.012807928025722504,0.004375254735350609,0.0014521668199449778,0.13002337946818204,-0.01665995837648541,0.3823408488912427
1687012431.660939,0.1296035200357437,0.015638291835784912,-0.9914425611495972,0.01108253002166748,0.006181793287396431,-0.002331852912902832,0.03558113053441048,-0.024458080530166626,-0.011712570674717426,0.12998509492641572,-0.015638929778345686,0.38144986121212315
1687012431.7092519,0.12841089069843292,0.014954431913793087,-0.9916083216667175,-0.005852296948432922,0.01801982894539833,0.02165287733078003,0.01882052794098854,-0.01054838951677084,-0.016108250245451927,0.1287809230728692,-0.01495498978925152,0.3804966040452592
1687012431.759018,0.12797029316425323,0.014946981333196163,-0.9916653633117676,-0.002695634961128235,0.00418755691498518,0.018505573272705078,-0.0009294753544963896,-0.0007391683757305145,-0.005517259240150452,0.12833659680828768,-0.014947538274997672,0.3802590589592628
1687012431.808834,0.12759605050086975,0.013927429914474487,-0.9917284250259399,0.004728183150291443,0.008533524349331856,0.02635061740875244,0.056298479437828064,0.00270847138017416,-0.022374138236045837,0.12795731752671025,-0.013927880449720018,0.37980724641273816
1687012431.849793,0.1275208443403244,0.012909580022096634,-0.9917518496513367,-0.0008118599653244019,-0.0068365661427378654,0.0023872852325439453,0.012800407595932484,0.00797354057431221,-0.0016299095004796982,0.12787972430063285,-0.012909938174859959,0.3792838181676337
1687012431.901192,0.127302885055542,0.01117513608187437,-0.9918009042739868,0.00041319429874420166,-0.002920113503932953,-0.017857849597930908,0.04174555093050003,-0.008022380992770195,-0.01209220476448536,0.12765727078165087,-0.011175368517830958,0.37860172962524624
1687012431.9698029,0.12716563045978546,0.009356936439871788,-0.9918373823165894,0.02003590762615204,-0.0008425135165452957,-0.015776753425598145,0.028365829959511757,-0.010965973138809204,-0.005621654912829399,0.1275165012480659,-0.00935707266749322,0.37758981259463426
1687012432.0089731,0.12690971791744232,0.008865507319569588,-0.991874635219574,-0.0032677501440048218,0.010955678299069405,-0.008171141147613525,0.012184595689177513,-0.0008763209916651249,0.015444149263203144,0.1272579065322708,-0.008865623134558891,0.37772320237601725
1687012432.107806,0.12727762758731842,0.008098519407212734,-0.9918340444564819,-0.0027964413166046143,0.013828378170728683,-0.006884157657623291,0.027056574821472168,-0.009707186371088028,0.003648875281214714,0.12762800653890444,-0.008098607632753555,0.3776446532194036
1687012432.121254,0.12677308917045593,0.008220786228775978,-0.991897702217102,-0.006564334034919739,0.009830377995967865,0.006958127021789551,-0.011517804116010666,-0.008190693333745003,0.020900165662169456,0.1271194536216474,-0.008220879285787226,0.37766112181117173
1687012432.164799,0.1267719268798828,0.009536772035062313,-0.9918860197067261,-0.0054187774658203125,0.009704576805233955,-0.0012475252151489258,-0.00927546713501215,0.0015713013708591461,0.0010674064978957176,0.127119780558082,-0.009536916617981861,0.37863488184610766
1687012432.2045069,0.12692883610725403,0.008411014452576637,-0.9918761849403381,-0.0037751346826553345,-0.00693089235574007,0.0031219124794006348,0.004050280898809433,0.014600994996726513,0.018791142851114273,0.12727667468650558,-0.008411113604346166,0.378738528039203
1687012432.244639,0.12761111557483673,0.00856075994670391,-0.991787314414978,0.012022063136100769,0.011947072111070156,-0.018588662147521973,0.009661206044256687,0.01191049162298441,0.0031983349472284317,0.1279647467959145,-0.008560864116023411,0.37953936424484536
1687012432.319931,0.12778252363204956,0.006299467757344246,-0.9917821884155273,0.0044348835945129395,-0.0005926629528403282,-0.0007562041282653809,0.051822416484355927,-0.012161732651293278,0.0019449181854724884,0.1281354025098252,-0.006299509274707278,0.379218540545836
1687012432.3637009,0.12769101560115814,0.004754267632961273,-0.9918026328086853,0.012537270784378052,0.014807517640292645,-0.021213114261627197,0.06228318437933922,0.006102492101490498,0.01193250436335802,0.1280420349828371,-0.004754285573585805,0.379191876702939
1687012432.4101481,0.12829716503620148,-5.278896423988044e-05,-0.9917357563972473,-0.029191330075263977,0.007590648718178272,-0.0004975199699401855,0.15308760106563568,0.013376295566558838,-0.025075379759073257,0.12865176709652348,5.2788965807595544e-05,0.3783794803462841
1687012432.4687681,0.12861348688602448,-0.0067195589654147625,-0.9916720390319824,0.018496498465538025,0.0074062226340174675,0.00015592575073242188,0.147060826420784,0.003882037475705147,-0.010454160161316395,0.12897365740387853,0.00671960971834236,0.3764866717675186
1687012432.515331,0.1286378651857376,-0.013950266875326633,-0.9915934801101685,-0.027151674032211304,-0.0214806217700243,0.0012065768241882324,0.1131543517112732,0.023883085697889328,-0.004527828190475702,0.12900794098968757,0.013950719372671453,0.3758341592618506
1687012432.545977,0.12980221211910248,-0.020104289054870605,-0.9913360476493835,0.021442905068397522,0.002434631809592247,-0.01127314567565918,0.17670562863349915,-0.004685440566390753,-0.02049853838980198,0.1301959597768195,0.020105642923198396,0.3738956899418878
1687012432.622956,0.12901630997657776,-0.02814139612019062,-0.9912430644035339,0.005825623869895935,-0.022105775773525238,-0.0049574971199035645,0.09061712771654129,0.008612876757979393,0.007494945544749498,0.12942848534422527,0.02814511232755966,0.37242707041604284
1687012432.657775,0.12956681847572327,-0.034397248178720474,-0.9909738898277283,-0.0009199529886245728,0.012729790061712265,-0.009529650211334229,0.2242717742919922,-0.023179851472377777,0.00415174663066864,0.13000947562823256,0.03440403616169378,0.37200174134078534
1687012432.715973,0.12827016413211823,-0.04431873932480812,-0.9907485246658325,0.010996818542480469,-0.022301115095615387,-0.0033463239669799805,0.1654287427663803,-0.016998831182718277,-0.005207200534641743,0.1287517412691366,0.044333259702885035,0.37041215188520576
1687012432.760119,0.12797866761684418,-0.05123915895819664,-0.9904524087905884,-0.0026734918355941772,0.007034469395875931,-0.0037949681282043457,0.16936764121055603,-0.0055124410428106785,0.014105510897934437,0.12850034407171346,0.051261605951568104,0.36966159194234677
1687012432.804116,0.1278645247220993,-0.059672243893146515,-0.9899948835372925,0.009968101978302002,-0.0018359124660491943,0.007664620876312256,0.2109539657831192,-0.002965659834444523,-0.02097950503230095,0.12844567837527773,0.059707712959195275,0.36812572376462505
1687012432.844945,0.12729285657405853,-0.0678643211722374,-0.9895407557487488,0.005168691277503967,-0.001578398048877716,0.0028312206268310547,0.1535695642232895,0.003444924019277096,-0.004971178248524666,0.12793571384920546,0.06791652530800325,0.3662559875269312
1687012432.920498,0.1272706389427185,-0.07734376937150955,-0.9888478517532349,-0.010785043239593506,0.002590976655483246,-0.005735278129577637,0.20805396139621735,-0.007793083321303129,-0.021301880478858948,0.1280022900117717,0.07742108730221008,0.36458876734219975
1687012432.999152,0.12678846716880798,-0.08686559647321701,-0.9881189465522766,0.01261584460735321,0.005841448903083801,-0.011408030986785889,0.23378360271453857,-0.019058432430028915,-0.02530055120587349,0.1276156428569066,0.08697521483840369,0.36197515561186866
1687012433.03188,0.12645739316940308,-0.09600123018026352,-0.9873157143592834,-0.0007249563932418823,-0.004966162145137787,-0.004337728023529053,0.20272395014762878,-0.008158113807439804,-0.01182948425412178,0.12738843768542282,0.09614930489660461,0.3605401535489114
1687012433.04578,0.12634600698947906,-0.1056939885020256,-0.9863394498825073,-0.0009492784738540649,-0.000568196177482605,0.0039023160934448242,0.19639962911605835,-0.01602189429104328,-0.016757862642407417,0.1274020679625149,0.10589177568543509,0.35850873907841413
1687012433.2119389,0.1255899965763092,-0.11575520038604736,-0.9853059649467468,0.004399612545967102,-0.007718890905380249,0.009155511856079102,0.20066985487937927,-0.0026464357506483793,-0.0172364991158247,0.12677930798074338,0.11601527880656795,0.3561086045413479
1687012433.255167,0.125202015042305,-0.12398533523082733,-0.9843536615371704,-0.0158880352973938,0.0036392956972122192,0.00689089298248291,0.1705586463212967,0.002826005220413208,-0.022967755794525146,0.12651279760912246,0.12430521453415302,0.3542932160246946
1687012433.262093,0.12507791817188263,-0.13303819298744202,-0.9831868410110474,-3.2141804695129395e-05,-0.0045960694551467896,0.0007954835891723633,0.17635707557201385,-0.01072273775935173,0.0013042946811765432,0.1265371316569641,0.13343379491956456,0.3520785533784344
1687012433.303584,0.12469080090522766,-0.1407305747270584,-0.9821645021438599,0.007251955568790436,0.011610731482505798,-0.016279101371765137,0.2138788253068924,-0.01398040447384119,-0.00494794175028801,0.12627955725646375,0.14119930146232554,0.3510773979883425
1687012433.3201509,0.124350406229496,-0.14953617751598358,-0.9809056520462036,-0.0029667317867279053,-0.01130668818950653,-0.008550524711608887,0.18717144429683685,-0.012813673354685307,-0.012156919576227665,0.1260983806813592,0.1500991581271835,0.3494523073613309
1687012433.354965,0.12416043877601624,-0.15515978634357452,-0.9800559282302856,0.015564300119876862,-0.010382786393165588,0.0029288530349731445,0.08438902348279953,-0.0034239012748003006,0.006345858331769705,0.1260157871821296,0.15578920067161908,0.3482995663255326
1687012433.3858519,0.12350926548242569,-0.16215167939662933,-0.979005753993988,-0.00755772739648819,-0.0008274316787719727,0.0003375411033630371,0.14838166534900665,-0.019807223230600357,-0.006174460984766483,0.12549487496189482,0.1628707980179983,0.34750019716322195
1687012433.436657,0.12321079522371292,-0.16770128905773163,-0.9781080484390259,-0.007884852588176727,-0.017189443111419678,-0.0003007650375366211,0.10603350400924683,0.0031363526359200478,-0.01015681866556406,0.1253084696540171,0.16849747285031258,0.346389142508971
1687012433.499618,0.12294785678386688,-0.1737358123064041,-0.9770873785018921,0.006965480744838715,0.0026695579290390015,0.00310361385345459,0.12528064846992493,-0.00516427680850029,0.009686860255897045,0.1251731006107934,0.1746219089468484,0.3453136366350688
1687012433.547245,0.12277894467115402,-0.179665207862854,-0.9760357141494751,-0.007010497152805328,-0.0022347867488861084,-0.0019458532333374023,0.12898945808410645,-0.008265882730484009,-0.018264612182974815,0.12513620577812784,0.18064611496102598,0.3445292975432588
1687012433.6023998,0.12290211021900177,-0.18533800542354584,-0.9749588966369629,0.006995953619480133,-0.006831139326095581,-0.005280911922454834,0.12975534796714783,-0.013294286094605923,0.00045201671309769154,0.1253973293609445,0.18641581463607892,0.34320846626455126
1687012433.6578178,0.1225365474820137,-0.18874424695968628,-0.9743512868881226,0.0067359209060668945,-0.008216187357902527,-0.007536530494689941,0.03829014301300049,-0.0001779517624527216,0.0021689566783607006,0.1251053845944944,0.18988324513072016,0.3428938686770492
1687012433.6990318,0.12229806929826736,-0.19366347789764404,-0.9734154343605042,-0.0037525445222854614,0.003950983285903931,0.0026818513870239258,0.13317514955997467,-0.018997356295585632,-0.019540267065167427,0.1249832323386626,0.19489494711367736,0.3415527545304631
1687012433.774372,0.1222560927271843,-0.19678756594657898,-0.9727939367294312,0.011761859059333801,0.00028492510318756104,0.0006260275840759277,0.054139770567417145,0.012893552891910076,0.008038164116442204,0.12501976915594804,0.19808032925018107,0.3409867979808696
1687012433.981601,0.12197737395763397,-0.20260684192180634,-0.9716336727142334,-0.011869952082633972,-0.003234192728996277,-0.0011293888092041016,0.14784614741802216,-0.00874649453908205,0.006386804394423962,0.1248851145696547,0.20401924671315305,0.3403433203120012
1687012433.992744,0.12176179885864258,-0.20740392804145813,-0.9706480503082275,-0.0004544258117675781,-0.007241412997245789,0.010229408740997314,0.08780021220445633,-0.015758685767650604,-0.018390046432614326,0.12479195886695713,0.20892043634759466,0.3389665640050299
1687012433.997658,0.12073838710784912,-0.21085810661315918,-0.9700314998626709,0.006870873272418976,-0.0056488364934921265,0.0008389949798583984,0.0674462541937828,-0.00798855908215046,0.005591251887381077,0.12383165954854765,0.212452713637701,0.3383346901274446
1687012434.095159,0.1202574074268341,-0.2151309996843338,-0.9691526293754578,-0.0018949657678604126,-0.010409146547317505,-0.022043049335479736,0.09236066043376923,-0.019878508523106575,-0.004192003980278969,0.12345407633823587,0.21682596627787887,0.337845553325467
1687012434.105476,0.11992122232913971,-0.2186519056558609,-0.9684060215950012,-0.0045037418603897095,-0.004538372159004211,-0.01360386610031128,0.08018326014280319,-0.022479794919490814,-0.016012711450457573,0.12320639321888124,0.22043273928521817,0.3368156400699177
1687012434.124051,0.11881186068058014,-0.22217148542404175,-0.9677414894104004,0.016243688762187958,-0.004955559968948364,0.0016007423400878906,0.04487161338329315,-0.015278607606887817,-0.001191819435916841,0.12216098166240551,0.22404106193575565,0.3361636442384709
1687012434.129404,0.11787546426057816,-0.22707390785217285,-0.966717541217804,-0.013398528099060059,-0.00910159945487976,0.006634533405303955,0.13100911676883698,-0.004642297513782978,-0.003837337251752615,0.12133475880036436,0.2290720487950463,0.3355583539958537
1687012434.182606,0.11819073557853699,-0.228168323636055,-0.9664213061332703,0.02309039980173111,0.02988038957118988,-0.006860554218292236,0.06583575159311295,-0.015936141833662987,0.008234438486397266,0.12169301303942981,0.2301959612165882,0.335378796245539
1687012434.299437,0.11731801927089691,-0.2329384833574295,-0.9653891324996948,-0.0005424991250038147,-0.0022299587726593018,-0.0037270784378051758,0.0897052213549614,-0.01673145219683647,0.015394081361591816,0.1209310971085671,0.23509819221208852,0.3347734258735165
1687012434.369368,0.11710405349731445,-0.23552997410297394,-0.9647861123085022,0.004722133278846741,-0.0003098398447036743,-0.020214498043060303,0.09057576209306717,-0.02644328773021698,-0.005709140095859766,0.12078739155751636,0.23776385194973076,0.3343041104364174
1687012434.385023,0.11590858548879623,-0.24022811651229858,-0.9637715816497803,-0.0005826577544212341,-0.02191784977912903,-0.0017435550689697266,0.07001984119415283,-0.021874990314245224,0.0018789382884278893,0.11969076958189875,0.24260084011633443,0.33363954130586304
1687012434.390501,0.11485552042722702,-0.24313391745090485,-0.9631687998771667,0.0038731247186660767,-0.0017696171998977661,-0.008983910083770752,0.05678437650203705,-0.02933334931731224,-0.004943680949509144,0.11868709676261656,0.24559542269118,0.3330446092277429
1687012434.425222,0.11410889774560928,-0.24710333347320557,-0.9622468948364258,-6.470084190368652e-05,-0.012723296880722046,0.0011262893676757812,0.06966089457273483,-0.015572264790534973,-0.0036414614878594875,0.11803465324333574,0.24968974462603374,0.332459941650222
1687012434.486455,0.11354266107082367,-0.250884473323822,-0.9613350033760071,0.0006388574838638306,-0.005417376756668091,0.00763016939163208,0.09683042019605637,-0.014192570932209492,-0.001233631162904203,0.11756470851329286,0.2535938485723245,0.33165655268608646
1687012434.5832129,0.11319757997989655,-0.2546900510787964,-0.9603745341300964,-0.011696122586727142,-0.004114210605621338,-0.002302408218383789,0.08957548439502716,-0.006284491159021854,-0.008199195377528667,0.11732682166171411,0.2575271727086936,0.330826339248861
1687012434.672369,0.11283519864082336,-0.2572655975818634,-0.9597305059432983,-0.0007136017084121704,-0.001370847225189209,0.00520169734954834,0.03360186889767647,-0.01436842791736126,0.003909265622496605,0.11703241278491527,0.2601914914183273,0.33039033014315156
1687012434.680386,0.11213270574808121,-0.258818119764328,-0.9593953490257263,0.00890001654624939,-0.010530024766921997,0.0027913451194763184,0.021060867235064507,-0.010390286333858967,0.0100772799924016,0.11635062675265062,0.2617984156980673,0.3302635026659407
1687012434.763208,0.11168316751718521,-0.2592449188232422,-0.9593325257301331,0.007442206144332886,-0.009202927350997925,-0.0033139586448669434,0.021902648732066154,-0.015123344026505947,0.00043483916670084,0.11589587542875845,0.2622403151143846,0.3305356558426379
1687012434.7699862,0.11137503385543823,-0.2596113383769989,-0.9592692852020264,0.0073841288685798645,-0.003297567367553711,0.0005290508270263672,-0.015144630335271358,-0.014138064347207546,0.002262500114738941,0.11558651224290967,0.2626197093281,0.3303308362330944
1687012434.882547,0.11084824800491333,-0.2601545453071594,-0.9591831564903259,-0.004662320017814636,-0.0059129297733306885,0.0008854269981384277,0.018547508865594864,0.0008027132134884596,0.005208156071603298,0.11505487220183218,0.26318225412455815,0.33054582023499063
1687012434.8963962,0.11097937822341919,-0.26019614934921265,-0.9591566920280457,-0.0032675862312316895,-0.0064359307289123535,0.0017744898796081543,-0.012021718546748161,0.00965585932135582,0.00021146656945347786,0.11519292761313629,0.2632253309797355,0.3307125776679969
1687012435.1205049,0.11103203892707825,-0.26075243949890137,-0.958999514579773,-0.007180705666542053,-0.004628390073776245,-0.004181027412414551,0.011811619624495506,0.006797843612730503,0.005228862166404724,0.11526582458430579,0.2638015205709709,0.33046258484740576
1687012435.133703,0.11100192368030548,-0.2607923746109009,-0.9589921236038208,0.005071699619293213,-0.003917068243026733,-0.005042910575866699,0.010927229188382626,-0.0006900771986693144,0.009478268213570118,0.1152357151172927,0.26384289531277133,0.3304804259256773
1687012435.14698,0.11065109074115753,-0.2613797187805176,-0.9588727951049805,0.0021113604307174683,-0.013324230909347534,-0.0024157166481018066,0.010087622329592705,-0.01635008677840233,0.0012006312608718872,0.11488888058186111,0.26445134304399615,0.33080216883384284
1687012435.15062,0.11029470711946487,-0.26133695244789124,-0.9589254856109619,0.006511330604553223,-0.011551201343536377,-0.014554738998413086,-0.019619494676589966,-0.007611100096255541,0.0019472484709694982,0.11451584118560071,0.26440704584707564,0.33080390323777653
1687012435.153835,0.11013711988925934,-0.26141801476478577,-0.958921492099762,0.0025337785482406616,-0.0005601048469543457,0.003522932529449463,0.007169508375227451,0.0037009427323937416,0.011244343593716621,0.11435411607937622,0.26449102594139223,0.3312706045734658
1687012435.204468,0.10981946438550949,-0.2618471384048462,-0.9588408470153809,-0.003099486231803894,-0.011529326438903809,0.00872182846069336,-0.00830833986401558,-0.0070059411227703094,0.0025524517986923456,0.11403665802661916,0.26493561290716416,0.3317344242948844
1687012435.213698,0.10930230468511581,-0.26145434379577637,-0.9590070843696594,-0.003268979489803314,-0.0010883510112762451,-0.0014573931694030762,-0.00938723050057888,-0.005404138937592506,0.0001384960487484932,0.11348474375877436,0.2645286588080854,0.3319034613190839
1687012435.300072,0.10921979695558548,-0.2621421813964844,-0.9588286876678467,-0.003430604934692383,-0.005985230207443237,-0.001071155071258545,0.01182631216943264,0.0008875792846083641,0.006622694432735443,0.11342072549879575,0.26524133903493174,0.33217235539899476
1687012435.312213,0.10888069868087769,-0.26145538687705994,-0.9590547680854797,0.0022337958216667175,-0.005146145820617676,-0.008367657661437988,-0.011301334016025066,-0.014614857733249664,0.004068655893206596,0.11304516205643221,0.2645297183365629,0.33251757202244103
1687012435.389952,0.1084325984120369,-0.2616692781448364,-0.9590471982955933,0.007000148296356201,-0.012729495763778687,-0.012128949165344238,-0.009909388609230518,-0.017175931483507156,0.004837510641664267,0.1125847332383472,0.26475132733872725,0.3325169953528891
1687012435.455638,0.10789094865322113,-0.26046842336654663,-0.9594351053237915,0.0015145763754844666,-0.009825736284255981,0.002358078956604004,-0.03968002274632454,-0.00830884836614132,0.0017986440798267722,0.11198212956853522,0.2635073495189766,0.33280314253621873
1687012435.548201,0.10713361948728561,-0.2573145627975464,-0.9603705406188965,-0.007035955786705017,-0.017450422048568726,0.020764827728271484,-0.15011367201805115,-0.011223855428397655,0.016513008624315262,0.11109514041531503,0.2602421643933352,0.3335263312144692
1687012435.561808,0.10734832286834717,-0.24960725009441376,-0.9623786211013794,0.003140568733215332,0.01842138171195984,-0.019249796867370605,-0.11779271066188812,0.005320321768522263,0.012506215833127499,0.1110855964029291,0.25227465103452623,0.33543386812634335
1687012435.566772,0.10716694593429565,-0.2457796186208725,-0.9633834362030029,-0.0020796582102775574,-0.032357558608055115,0.00587916374206543,-0.2089458405971527,0.031120138242840767,0.040244169533252716,0.11078471853750105,0.24832389953386416,0.337377500069295
1687012435.593529,0.10735442489385605,-0.2372867912054062,-0.9654895067214966,0.0005252212285995483,-0.007097959518432617,-0.004816889762878418,-0.19758616387844086,0.003787761554121971,0.032615743577480316,0.11073683285605852,0.2395719159683449,0.3400810737456955
1687012435.690439,0.10837668925523758,-0.22040267288684845,-0.9693694710731506,0.021918125450611115,0.008198708295822144,0.023400843143463135,-0.42335590720176697,0.05270097404718399,0.03304491564631462,0.1113388620318705,0.2222272737826695,0.3439499047162646
1687012435.698962,0.10917479544878006,-0.20429089665412903,-0.9728032350540161,-0.010694563388824463,0.026052996516227722,-0.019079089164733887,-0.21753625571727753,-0.0020141121931374073,0.02108612284064293,0.11175937509340585,0.20573926976488877,0.3481539329354789
1687012435.7505798,0.1094483882188797,-0.1955413967370987,-0.9745689630508423,-0.006237931549549103,-0.02076716721057892,-0.01455157995223999,-0.17973247170448303,0.0071870204992592335,0.013767821714282036,0.11183581233681615,0.19680946812675829,0.35013761219161355
1687012435.8433661,0.11002203822135925,-0.1882566213607788,-0.9759377837181091,-0.012762509286403656,0.019708052277565002,-0.01568514108657837,-0.035251185297966,0.021247180178761482,0.0005144678289070725,0.11226070250226988,0.18938671930478435,0.3512120195407273
1687012435.857857,0.11040835082530975,-0.1867450475692749,-0.9761845469474792,-0.009822405874729156,-0.01198539137840271,0.013904273509979248,-0.08951278030872345,0.023169271647930145,-0.0038792819250375032,0.11262331963842778,0.18784785659786374,0.35145068118826017
1687012435.960985,0.11054110527038574,-0.18077723681926727,-0.9772922992706299,0.006463296711444855,-0.03206758201122284,0.017132997512817383,-0.20545203983783722,0.02619968354701996,0.011100533418357372,0.11263086662042993,0.18177664667741544,0.3524052776433581
1687012436.026278,0.11044532805681229,-0.1757904589176178,-0.9782124161720276,-0.009004883468151093,-0.009954765439033508,-0.008726060390472412,-0.0952652096748352,0.007004682905972004,0.020466936752200127,0.11242913710967543,0.1767086683307379,0.3541098404871609
1687012436.034882,0.11122821271419525,-0.1714942455291748,-0.9788861274719238,0.013634465634822845,-0.004943102598190308,6.532669067382812e-05,-0.06727227568626404,0.006151228211820126,0.005744583439081907,0.11314205965621707,0.17234618987963454,0.3552590810742422
1687012436.040533,0.11143498867750168,-0.16672064363956451,-0.9796869158744812,0.0006560832262039185,0.016757294535636902,-0.0263097882270813,-0.06686370819807053,-0.002102351514622569,0.020743705332279205,0.11325873409307231,0.1675028281437642,0.35675283241367917
1687012436.077001,0.11200900375843048,-0.16489115357398987,-0.9799310564994812,0.001897856593132019,-0.021571233868598938,0.014675319194793701,-0.1212897077202797,0.021952029317617416,0.014314902015030384,0.11380901288432561,0.16564764932233664,0.35740163576817774
1687012436.142401,0.11273018270730972,-0.1564035415649414,-0.9812389016151428,0.007875286042690277,0.008164450526237488,-0.0027545690536499023,-0.1344616562128067,0.02242669276893139,0.02763650007545948,0.11438407893954035,0.15704832680149158,0.35954371108534805
1687012436.199956,0.11395573616027832,-0.14981184899806976,-0.9821255207061768,-0.007510416209697723,0.0005961805582046509,0.002099275588989258,-0.16412842273712158,0.03522992879152298,0.006291862577199936,0.11551317645611134,0.15037797207422207,0.3612966214673969
1687012436.2941031,0.11545964330434799,-0.14208310842514038,-0.9830979108810425,0.011188320815563202,0.009285882115364075,0.0031632184982299805,-0.14222845435142517,0.022007601335644722,0.005373605061322451,0.1169091525599756,0.1425655508249473,0.36262809324918954
1687012436.3078089,0.11592131853103638,-0.13690054416656494,-0.9837786555290222,-0.00344877690076828,-0.008836135268211365,-0.004197418689727783,-0.1322649121284485,0.024079807102680206,0.009170407429337502,0.11729186609790322,0.1373318194217619,0.3638294858943002
1687012436.4137778,0.11785861104726791,-0.12886157631874084,-0.9846339821815491,0.010254189372062683,-0.004423931241035461,-0.010162770748138428,-0.1931522637605667,0.04077427461743355,0.009397774934768677,0.11913109724718388,0.1292208950964067,0.36513678601824895
1687012436.511039,0.11980558931827545,-0.12064564228057861,-0.9854395985603333,-0.009225152432918549,0.010919719934463501,-0.011432290077209473,-0.11850439757108688,0.04708756506443024,0.01729937270283699,0.12098204788257315,0.12094024987671625,0.36788355175772036
1687012436.5234752,0.12152099609375,-0.11575897783041,-0.9858156442642212,0.004074111580848694,-0.013284578919410706,0.012274384498596191,-0.18375281989574432,0.04304506629705429,0.009245175868272781,0.1226507466119922,0.11601907868426856,0.36906456440318713
1687012436.5279732,0.12317201495170593,-0.10558825731277466,-0.9867521524429321,-0.0004150494933128357,-0.005770362913608551,0.0006834268569946289,-0.2489631623029709,0.05376286432147026,0.014669368043541908,0.12418336290325074,0.10578544696458818,0.37098282858033865
1687012436.622988,0.12621286511421204,-0.09598319232463837,-0.987348735332489,0.005439981818199158,0.011357970535755157,0.0009748339653015137,-0.18141630291938782,0.056600552052259445,0.004911346826702356,0.12714055569804786,0.0961311836476886,0.3730946419696456
1687012436.636704,0.1289641410112381,-0.08561505377292633,-0.9879465103149414,-0.021450698375701904,0.0033702030777931213,-0.015730857849121094,-0.19881756603717804,0.055781807750463486,0.01339857466518879,0.12980360993424542,0.08571999119255486,0.3750960125935727
1687012436.746007,0.13140501081943512,-0.07793258875608444,-0.9882606863975525,0.01256166398525238,-0.00257275253534317,-0.009038448333740234,-0.13926702737808228,0.037611592561006546,-0.005877451505511999,0.13219053144661946,0.07801169593359276,0.3761773311016654
1687012436.7589931,0.13273294270038605,-0.07064757496118546,-0.9886308312416077,0.0003694891929626465,0.0003198385238647461,-0.027421414852142334,-0.1843794584274292,0.0434701070189476,0.024005478248000145,0.13346127609289593,0.07070647630224419,0.3777066320141451
1687012436.836956,0.13533085584640503,-0.06391707062721252,-0.988736629486084,-0.010071471333503723,-0.007295668125152588,0.0022101998329162598,-0.12755514681339264,0.06281113624572754,0.006021818146109581,0.1360272588696061,0.06396067084842318,0.3790122696812894
1687012436.849323,0.1373295933008194,-0.05822865664958954,-0.9888124465942383,0.014602184295654297,0.014786902815103531,-0.0007810592651367188,-0.1117691770195961,0.03558927774429321,0.006278147455304861,0.13800059407055937,0.058261611986251856,0.3799281471300008
1687012436.853983,0.1381480097770691,-0.05240081995725632,-0.9890244007110596,-0.012018859386444092,-0.004789099097251892,0.0021317005157470703,-0.1341308057308197,0.033322662115097046,-0.004055649507790804,0.13878315183016776,0.052424831969596034,0.38119155609884225
1687012436.888242,0.1404447704553604,-0.04507771134376526,-0.9890618324279785,0.009457573294639587,-0.008572172373533249,0.011095523834228516,-0.1635899841785431,0.05229830741882324,-0.011225411668419838,0.14105497152241014,0.04509299276954364,0.38184370706356663
1687012436.9849648,0.14190298318862915,-0.03529392555356026,-0.9892511963844299,0.02231210470199585,-0.0031734630465507507,-0.0016850829124450684,-0.2366977483034134,0.03894335404038429,-0.010389045812189579,0.14247295992143172,0.03530125623303752,0.3828870191767938
1687012436.998101,0.14412984251976013,-0.023817410692572594,-0.9892721176147461,0.002827569842338562,0.005979904904961586,-0.022400856018066406,-0.22609463334083557,0.037622157484292984,-0.010297033935785294,0.1446749087954957,0.02381966361188833,0.3841147540803996
1687012437.0398412,0.14572139084339142,-0.015261564403772354,-0.989207923412323,0.023010283708572388,0.021700792014598846,0.0016591548919677734,-0.14898760616779327,0.01184275932610035,-0.016232820227742195,0.14625926738098835,0.015262156716038934,0.3845119873888571
1687012437.134534,0.14618103206157684,-0.006257711909711361,-0.9892380833625793,-0.012407228350639343,-0.005415243562310934,-0.004933059215545654,-0.21882034838199615,0.025706641376018524,-0.00019786122720688581,0.1467096102132489,0.006257752861643725,0.3853558283468372
1687012437.147155,0.14819180965423584,0.002145164180546999,-0.9889563322067261,-0.012129172682762146,0.01962914504110813,-0.017360806465148926,-0.09212347865104675,0.022984182462096214,-0.01799563318490982,0.14873998566357838,-0.0021451658273985,0.38632662632569575
1687012437.187732,0.14823131263256073,0.005180396605283022,-0.9889391660690308,0.01226063072681427,0.007804851047694683,0.012483477592468262,-0.09093526750802994,0.009668199345469475,0.005781068466603756,0.14878160419285175,-0.005180419668030769,0.38608044301618455
1687012437.2850862,0.14827916026115417,0.011138949543237686,-0.988882839679718,-0.001947358250617981,-0.003189101815223694,-0.0032741427421569824,-0.10514083504676819,0.008209851570427418,0.022165369242429733,0.1488372678372821,-0.011139179880319853,0.3876486205014961
1687012437.298332,0.1487080603837967,0.013514901511371136,-0.9887887835502625,0.002247139811515808,0.010227791033685207,-0.015025913715362549,-0.0023580393753945827,-0.018007192760705948,-0.01259667333215475,0.14927541073767658,-0.01351531265468163,0.38816972867428884
1687012437.3403459,0.14777599275112152,0.015672139823436737,-0.9888966679573059,0.01593552529811859,0.003508174791932106,-0.0009714365005493164,-0.08587401360273361,-0.018567878752946854,0.019955608993768692,0.14833755726378356,-0.015672782089905316,0.3884157823494247
1687012437.494378,0.14738216996192932,0.020154092460870743,-0.9888742566108704,-0.0054296404123306274,0.00941745936870575,-0.01916712522506714,-0.06853187084197998,0.0015417404938489199,0.010030408389866352,0.14795129103273308,-0.020155456176091584,0.3901046199693168
1687012437.502238,0.14750678837299347,0.02145681157708168,-0.9888282418251038,-3.059208393096924e-05,0.017041129991412163,-0.003008246421813965,0.016682185232639313,-0.008989818394184113,0.008023450151085854,0.14808135930397381,-0.021458457440080132,0.39065185740763914
1687012437.584508,0.1465456336736679,0.021489342674613,-0.9889704585075378,0.008559972047805786,0.002878960222005844,0.0012385249137878418,-0.040482476353645325,-0.01296041440218687,0.011713659390807152,0.14710951511426715,-0.021490997038593366,0.3912872849163152
1687012437.596655,0.14589230716228485,0.023254279047250748,-0.9890271425247192,-0.013766437768936157,0.0033112894743680954,-0.005632281303405762,-0.02754581719636917,-0.014271577820181847,-0.005465460475534201,0.14645475947422015,-0.02325637607890021,0.3916573551374094
1687012437.676947,0.14512744545936584,0.022446930408477783,-0.9891583323478699,0.01714979112148285,0.00431700237095356,2.2590160369873047e-05,0.008571618236601353,-0.025700977072119713,0.0056099602952599525,0.14567874542973752,-0.022448816328619017,0.3909112772138002
1687012437.685216,0.14409124851226807,0.023784687742590904,-0.9892784953117371,0.0016759783029556274,-0.002620728686451912,-0.021890878677368164,-0.03338377922773361,-0.014470072463154793,0.013468615710735321,0.14463578070419705,-0.023786930062941535,0.3914488882537361
1687012437.76622,0.14390936493873596,0.022021669894456863,-0.9893457889556885,0.004650190472602844,0.01278364472091198,0.000713646411895752,0.07122199237346649,-0.02336955815553665,-0.008898608386516571,0.14444605538422908,-0.022023450136282968,0.3911875436174525
1687012437.7791948,0.14308840036392212,0.02112727053463459,-0.9894843697547913,0.006585046648979187,0.0009064376354217529,-0.002718329429626465,0.0034369993954896927,-0.01614431105554104,0.010355247184634209,0.14361350543766652,-0.021128841674828983,0.39115727568319936
1687012437.855212,0.14258858561515808,0.020573481917381287,-0.9895681738853455,-0.01755806803703308,-0.0024002473801374435,-0.0030007362365722656,0.018452433869242668,-0.007751626893877983,-0.006750635802745819,0.14310673229009277,-0.020574933428000087,0.39089282090726485
1687012437.868311,0.14198654890060425,0.019503146409988403,-0.9896764159202576,0.015392586588859558,-0.0015435367822647095,0.012305259704589844,0.004785535391420126,-0.016631316393613815,0.006018422544002533,0.14249530168378255,-0.019504382336108315,0.39062272620006494
1687012437.975641,0.1414465606212616,0.0193355493247509,-0.9897570610046387,-0.003003552556037903,0.011609291657805443,-0.009510517120361328,0.018164901062846184,-0.0027558912988752127,0.005157555919140577,0.1419492342686893,-0.019336754254907336,0.39109455818500943
1687012437.988683,0.14129722118377686,0.017719149589538574,-0.9898086190223694,0.010649815201759338,0.0010949522256851196,-2.9027462005615234e-05,0.037692442536354065,-0.013189267367124557,-0.00029486685525625944,0.14179406739521497,-0.017720077748616843,0.3907919709031013
1687012438.067287,0.14062854647636414,0.017654716968536377,-0.9899049997329712,-0.002811148762702942,0.006637290120124817,-0.013818144798278809,0.030684953555464745,-0.01011953130364418,0.005455696489661932,0.14111838040061195,-0.017655635116119187,0.39111466495936653
1687012438.080045,0.14054779708385468,0.015633782371878624,-0.9899504780769348,0.0007485896348953247,0.004385767504572868,-0.012063682079315186,0.04178718104958534,-0.005005907267332077,-0.009290559217333794,0.1410320336945606,-0.01563441893778454,0.39057313183204007
1687012438.1193109,0.14003686606884003,0.014508942142128944,-0.9900400042533875,0.001564711332321167,0.0015433207154273987,0.005878627300262451,0.023762332275509834,-0.004268567077815533,0.012613474391400814,0.14051353126751656,-0.01450945086449701,0.39034430897113964
1687012438.216366,0.13985148072242737,0.01212624367326498,-0.990098237991333,-0.015736475586891174,0.012043695896863937,-0.008803129196166992,0.06639443337917328,-0.012305011041462421,-0.006465743761509657,0.14032180375166656,-0.012126541283421001,0.3902141062996563
1687012438.249398,0.13976258039474487,0.01035905908793211,-0.9901308417320251,0.017082497477531433,0.0025193756446242332,0.012027263641357422,0.0322398878633976,0.0034682711120694876,0.0045287832617759705,0.14022921677812672,-0.010359244346889604,0.3898826949894774
1687012438.3082628,0.1389721930027008,0.007458813022822142,-0.9902681708335876,0.009129613637924194,-0.009701836854219437,-0.0015225410461425781,0.05646945536136627,-0.004635728430002928,0.0010494303423911333,0.13942736150741727,-0.007458882386432627,0.3895747017298466
1687012438.3208961,0.1393391489982605,0.004154088906943798,-0.9902359843254089,0.00043135881423950195,-0.00442872941493988,-0.01956009864807129,0.07840831577777863,-0.00935964286327362,-0.01567908376455307,0.13979522931461474,-0.004154100751501519,0.3887804344948193
1687012438.325146,0.1383972316980362,0.0005612195236608386,-0.9903766512870789,0.016189560294151306,0.009112871252000332,0.0020191073417663574,0.08697601407766342,-0.01307572890073061,-0.013365527614951134,0.13884291022084236,-0.0005612195438947219,0.3874428917749684
1687012438.356701,0.13814790546894073,-0.0025459344033151865,-0.9904083609580994,-0.000528872013092041,0.0050178756937384605,-0.008538782596588135,0.05802270025014877,0.013335726223886013,-0.00034140562638640404,0.1385915989851306,0.002545937189586142,0.38679639420384887
1687012438.42281,0.13883355259895325,-0.005930830258876085,-0.9902979731559753,-0.007424846291542053,0.007258362602442503,-0.003720581531524658,0.07384924590587616,0.0018061923328787088,-0.008001189678907394,0.13928593011125845,0.005930865063874481,0.3858903094461845
1687012438.486438,0.13879083096981049,-0.009332281537353992,-0.9902777671813965,-0.002499312162399292,0.015496850945055485,0.006604671478271484,0.12021612375974655,0.00010052626021206379,-0.0013438195455819368,0.1392464226581762,0.009332417018748632,0.3850794970103949
1687012438.5771189,0.1388629674911499,-0.01303439773619175,-0.9902258515357971,-0.005485892295837402,-0.005337165668606758,0.0006628632545471191,0.06050006300210953,0.011969435960054398,-0.008541678078472614,0.13932507938729366,0.013034766772393075,0.3843585278805415
1687012438.590517,0.1393631398677826,-0.01792140305042267,-0.9900791645050049,0.002192661166191101,0.004676792770624161,-0.016176939010620117,0.13778942823410034,0.005738527048379183,-0.007605443708598614,0.13984086142076033,0.01792236277728253,0.3832435252747201
1687012438.632638,0.13937148451805115,-0.024495534598827362,-0.9899371266365051,0.014086157083511353,-0.0016885269433259964,-0.008842110633850098,0.1323758065700531,0.0005683549679815769,0.00041699607390910387,0.13986891500516363,0.0244979840120522,0.3817934995561864
1687012438.728884,0.139261394739151,-0.030561279505491257,-0.9897839426994324,0.0005243867635726929,0.003034442663192749,-0.008720695972442627,0.15759846568107605,-0.0026825659442692995,-0.016375232487916946,0.13978122616469543,0.030566039037839957,0.3807217208879924
1687012438.735848,0.13890239596366882,-0.03825845941901207,-0.9895668029785156,-0.007096976041793823,-0.017451360821723938,0.008136749267578125,0.13581323623657227,-0.0016935565508902073,-0.011791466735303402,0.13945575163642585,0.038267798747786484,0.37892945430388164
1687012438.7820349,0.13864028453826904,-0.0456177219748497,-0.9892916083335876,-0.0016163438558578491,0.008248969912528992,-0.0064359307289123535,0.19151800870895386,-0.008657545782625675,-0.0017906979192048311,0.13923419327824932,0.045633559588386025,0.37738493809951684
1687012438.8741689,0.13806121051311493,-0.05271787568926811,-0.9890196919441223,0.006149619817733765,-0.014100342988967896,0.015966713428497314,0.12261328101158142,0.0024226251989603043,-0.0005097840330563486,0.138697713714461,0.05274232371266859,0.3759134090819332
1687012438.8877048,0.13844887912273407,-0.058383647352457047,-0.9886471629142761,0.004205524921417236,0.007388800382614136,-0.0067446231842041016,0.14053888618946075,-0.0043282220140099525,-0.013636837713420391,0.13913391400517883,0.05841686762663225,0.374475601048639
1687012438.9671369,0.13794688880443573,-0.06507328897714615,-0.9882996082305908,-0.003700047731399536,0.0041449666023254395,-0.01357722282409668,0.15410129725933075,-0.028165645897388458,-0.027761178091168404,0.13868401293602212,0.06511930120107097,0.3725673086458176
1687012439.056941,0.13728758692741394,-0.07333583384752274,-0.9878126978874207,0.00889161229133606,-0.0003640875220298767,-0.01618504524230957,0.23302553594112396,-0.010617276653647423,-0.032475173473358154,0.13809677570088189,0.07340173077113517,0.36997378874745523
1687012439.070533,0.1370486170053482,-0.08212477713823318,-0.9871540665626526,-0.0013216882944107056,-0.008695520460605621,0.005418837070465088,0.13941752910614014,0.007290794514119625,-0.023745397105813026,0.1379502520394311,0.08221736999145013,0.36714116179009837
1687012439.1446872,0.13701586425304413,-0.09025915712118149,-0.9864481687545776,-0.005118891596794128,-0.007778540253639221,-0.0027486085891723633,0.2028891146183014,-0.007041361182928085,-0.018131786957383156,0.13801515147341575,0.0903821634667629,0.364730164031691
1687012439.1599422,0.13755030930042267,-0.09840882569551468,-0.9855940341949463,0.011726438999176025,2.0176172256469727e-05,-0.005830526351928711,0.1685769110918045,0.008470398373901844,-0.020445208996534348,0.13866517158184535,0.09856836082968974,0.3624555452210091
1687012439.230892,0.13722164928913116,-0.11034085601568222,-0.9843754768371582,-0.012603119015693665,0.006504818797111511,0.012573719024658203,0.317615270614624,0.003739292034879327,-0.023430945351719856,0.1385071341110082,0.11056599412523918,0.359641241589494
1687012439.236851,0.1376125067472458,-0.12052474170923233,-0.9831259250640869,0.008780330419540405,-0.008518815040588379,-0.010694265365600586,0.23933927714824677,0.0038275315891951323,-0.029441166669130325,0.139070881199365,0.12081845933222728,0.35699502847611314
1687012439.326016,0.13757683336734772,-0.13331188261508942,-0.981478750705719,0.007686838507652283,0.002223655581474304,-0.018902719020843506,0.31726834177970886,-0.014374818652868271,-0.03544140234589577,0.13926562113566332,0.13370995192209884,0.35326689036773185
1687012439.339021,0.13731183111667633,-0.14620982110500336,-0.9796775579452515,0.007585629820823669,-0.01863086223602295,-0.00034868717193603516,0.1848628968000412,-0.012006736360490322,-0.02011544443666935,0.1392530914663184,0.14673582069515678,0.35004841312587137
1687012439.382777,0.13708087801933289,-0.15219558775424957,-0.9787979125976562,0.015140801668167114,-0.02807171642780304,0.00423431396484375,0.0557495579123497,-1.8161721527576447e-05,-0.0054701874032616615,0.13914521773590965,0.15278935952615488,0.348490020997887
1687012439.476542,0.13694168627262115,-0.15891854465007782,-0.9777483940124512,-0.008386373519897461,0.0035993605852127075,-0.005695819854736328,0.18719102442264557,-0.011528432369232178,-0.02168271504342556,0.13915303397561518,0.15959518681075469,0.3470626913587598
1687012439.491342,0.13732996582984924,-0.16507387161254883,-0.9766734838485718,0.004180043935775757,-0.002818554639816284,0.009876608848571777,0.08749550580978394,0.015308063477277756,-0.0033263429068028927,0.13969407453329882,0.16583291545307535,0.34530913867955176
1687012439.5315828,0.13743212819099426,-0.17109791934490204,-0.9756218194961548,0.003513321280479431,0.005723178386688232,-0.009363532066345215,0.18621772527694702,0.003317536087706685,0.004221854265779257,0.13994538208162544,0.17194390668202086,0.3444434111006774
1687012439.6272612,0.13770942389965057,-0.17967945337295532,-0.9740387201309204,-0.00779607892036438,-0.02187386155128479,-0.00285947322845459,0.10847748816013336,-6.716372445225716e-05,-0.021332774311304092,0.14044898776506495,0.18066059367221304,0.3424228081958379
1687012439.640946,0.1378088891506195,-0.18322846293449402,-0.9733632802963257,0.017159372568130493,-0.005843162536621094,-0.009943604469299316,0.08547327667474747,-0.014848684892058372,-0.005836505442857742,0.14064535086674632,0.18426951262755836,0.3411526816518481
1687012439.719377,0.13710185885429382,-0.1921936571598053,-0.9717327952384949,-0.007676810026168823,-0.00011283159255981445,-0.010063469409942627,0.2366401106119156,-0.010970145463943481,-0.027399122714996338,0.14016490968395914,0.19339699079956818,0.33940354845575044
1687012439.731194,0.13734179735183716,-0.19971223175525665,-0.9701815843582153,-0.0006840676069259644,-0.022730380296707153,-0.00036895275115966797,0.09847132116556168,-0.009091019630432129,-0.013728051446378231,0.1406285472767308,0.20106422076145763,0.3369484099390621
1687012439.773343,0.13729071617126465,-0.204205721616745,-0.9692529439926147,0.0062944889068603516,-0.0017421245574951172,0.015868544578552246,0.08508068323135376,0.01743166893720627,0.008375653065741062,0.14070984482075793,0.20565226642877701,0.3360044246758563
1687012439.866044,0.13735894858837128,-0.2100696861743927,-0.9679892659187317,-0.015120789408683777,-0.0007151812314987183,-0.0019356012344360352,0.15481874346733093,-0.0001657011453062296,-0.005179836414754391,0.1409602141269321,0.2116462402297597,0.335114644609829
1687012439.8740082,0.13777689635753632,-0.2145771086215973,-0.9669406414031982,0.008676961064338684,-0.008674204349517822,0.010092496871948242,0.06097259745001793,-0.0032860380597412586,-0.007498651277273893,0.14153473151202553,0.21625883670016138,0.3337605765019517
1687012439.921221,0.1369115114212036,-0.2188178151845932,-0.9661128520965576,-0.0011693239212036133,-0.011544093489646912,-0.006863832473754883,0.10357784479856491,-0.013065963983535767,-0.011790068820118904,0.14077639583203314,0.22060275959480727,0.3326134107295505
1687012440.047481,0.13673247396945953,-0.22235585749149323,-0.9653300642967224,0.023622140288352966,-0.002070397138595581,0.007749497890472412,0.07682981342077255,-0.01596543751657009,-0.01048931386321783,0.14070722823593884,0.2242301557420715,0.33145688082566377
1687012440.055859,0.13588584959506989,-0.22788040339946747,-0.9641605615615845,-0.011908188462257385,-0.009103834629058838,-0.011242270469665527,0.1275094598531723,-0.0097395870834589,0.00669147027656436,0.14001477130295711,0.22990025096260233,0.3311033144354219
1687012440.135848,0.1364557147026062,-0.23121745884418488,-0.9632851481437683,0.003925144672393799,-0.011549830436706543,0.001203298568725586,0.02998431958258152,-0.013699263334274292,-0.009338496252894402,0.14072033186003158,0.23332886459473937,0.33052658168914356
1687012440.1484308,0.13499097526073456,-0.2349896878004074,-0.9625784754753113,-0.0035822689533233643,0.013172701001167297,0.01129978895187378,0.15156663954257965,-0.029997365549206734,-0.005901220254600048,0.13933026745355045,0.2372079590435434,0.3297030023086151
1687012440.2604709,0.13396652042865753,-0.24139028787612915,-0.9611366391181946,-0.006311476230621338,-0.003040224313735962,-0.01255720853805542,0.10750517249107361,-0.02659650892019272,0.005586990620940924,0.13849116191254696,0.2437982573046372,0.32864086980671947
1687012440.273493,0.13293670117855072,-0.24571272730827332,-0.96018385887146,-0.003618478775024414,-0.011825084686279297,-0.0018369555473327637,0.10394252091646194,-0.023804452270269394,-0.004058512859046459,0.13757464772449438,0.24825488743499052,0.3274134557688793
1687012440.3820338,0.1313728392124176,-0.25099262595176697,-0.9590327739715576,0.0068870484828948975,-0.010176777839660645,0.003451108932495117,0.08962763100862503,-0.033429380506277084,0.0035254373215138912,0.1361374179283314,0.2537055794298119,0.3265568845775712
1687012440.389268,0.1301170438528061,-0.25427180528640747,-0.9583399295806885,0.0032295137643814087,-0.01971498131752014,-0.0027043819427490234,0.02879730612039566,-0.022680597379803658,-0.016113776713609695,0.13494818584854124,0.25709468193577434,0.32597504786306486
1687012440.473384,0.12948442995548248,-0.2560926079750061,-0.9579406976699829,0.003862127661705017,-0.009776502847671509,0.00014650821685791016,0.04254915937781334,-0.00545323034748435,0.008513538166880608,0.13435526353558153,0.2589778488260444,0.3257783415653332
1687012440.486068,0.12912045419216156,-0.2580524981021881,-0.9574637413024902,-0.0018163621425628662,-0.001957237720489502,0.007543087005615234,0.03725301846861839,-0.0046237437054514885,0.0014313942519947886,0.13404804919662838,0.26100588168889355,0.3257148729700568
1687012440.490639,0.1284300684928894,-0.2600991725921631,-0.9570026993751526,0.0008118748664855957,-0.008669108152389526,-0.003065049648284912,0.005749422125518322,-0.010250470601022243,0.004744366742670536,0.1334032871617169,0.2631249243506514,0.3255856981451525
1687012440.519957,0.12812836468219757,-0.2605702579021454,-0.9569149613380432,-0.0003512650728225708,-0.0007364749908447266,0.0001431107521057129,0.033782701939344406,-0.004492627456784248,-0.002775268629193306,0.1331056419364501,0.2636128312477447,0.3254396985328411
1687012440.617064,0.12780630588531494,-0.2606212794780731,-0.9569441676139832,-0.0033708810806274414,-0.0048510730266571045,-0.0030472874641418457,-0.004910545889288187,-0.0013786822091788054,0.009371808730065823,0.1327709960045263,0.26366566123842233,0.3256325519005402
1687012440.6241322,0.12754814326763153,-0.2611341178417206,-0.9568387866020203,0.0009461343288421631,-0.010640144348144531,-0.0008028149604797363,-0.0023888431023806334,-0.003932742401957512,0.006049315445125103,0.13252035639430565,0.2641969112821847,0.32595726060788727
1687012440.676011,0.12711109220981598,-0.2617185115814209,-0.9567372798919678,0.005503043532371521,-0.015030115842819214,-0.013141870498657227,0.007491883356124163,-0.0021481579169631004,-0.003860906232148409,0.13208538657713745,0.26480234723026075,0.32598540096871714
1687012440.769664,0.12707431614398956,-0.26262763142585754,-0.9564930200576782,0.00013819336891174316,-0.01027575135231018,0.004954934120178223,0.0037294141948223114,0.0006229497957974672,0.00524783693253994,0.13208095497307848,0.26574442164931245,0.3258898083225052
1687012440.7826,0.12697258591651917,-0.26276537775993347,-0.9564686417579651,-0.0015606135129928589,0.0006652176380157471,0.00020039081573486328,0.003767541842535138,-0.0013980346266180277,0.008969138376414776,0.13197976000973538,0.26588718945400314,0.3262192349681907
1687012440.822402,0.12655699253082275,-0.262935072183609,-0.9564771056175232,-0.001495957374572754,-0.0032544732093811035,0.006785333156585693,0.00029593403451144695,-0.011093094944953918,0.007173369638621807,0.13155159751900458,0.2660630704815014,0.3264162764506108
1687012440.9192982,0.1260223090648651,-0.2634088695049286,-0.9564173221588135,-0.006195053458213806,-0.014606207609176636,-0.005420386791229248,-0.002453069668263197,-0.005180788692086935,-0.007789734285324812,0.1310102597318632,0.2665541798270145,0.3266711718969181
1687012440.932168,0.12620195746421814,-0.26321518421173096,-0.9564470052719116,0.002139732241630554,-0.005675166845321655,-0.003437638282775879,-0.006629927083849907,-0.0002477262169122696,0.013287787325680256,0.13119085317596219,0.2663533871277527,0.32666271126971297
1687012440.977499,0.12579673528671265,-0.26389166712760925,-0.956313967704773,0.0023160725831985474,-0.01294851303100586,-0.00781261920928955,0.017491387203335762,-0.013416258618235588,0.0035986746661365032,0.13079239749560992,0.26705468982447944,0.3269107672593087
1687012441.069983,0.12540987133979797,-0.2636687755584717,-0.956426203250885,0.004335612058639526,-0.001177966594696045,0.002767205238342285,-0.01448687445372343,-0.011197490617632866,0.004043688997626305,0.13037958460134325,0.2668236114839917,0.3271088580087815
1687012441.082882,0.12469562888145447,-0.26395663619041443,-0.9564402103424072,-0.0007789954543113708,-0.006368041038513184,-0.008311986923217773,0.001822147169150412,-0.012535551562905312,0.006475421134382486,0.12964348155114322,0.26712203630544246,0.3275581766855091
1687012441.1207108,0.12416373938322067,-0.26471471786499023,-0.956299901008606,-0.006930463016033173,-0.001963108777999878,-0.004332423210144043,0.013431265950202942,-0.007628143765032291,0.002280609682202339,0.12911535662239643,0.2679080733300836,0.3276130040715504
1687012441.249362,0.12391755729913712,-0.2650856673717499,-0.9562290906906128,0.0002737268805503845,0.003412693738937378,0.010916590690612793,0.020992469042539597,-0.002222282811999321,-0.00031976739410310984,0.12887162602873062,0.26829275500026073,0.3274493412257848
1687012441.257633,0.12329595535993576,-0.2656731903553009,-0.9561463594436646,-0.004094287753105164,-0.004987150430679321,-0.007095217704772949,0.011418715119361877,-0.01739635318517685,-0.0011114586377516389,0.12824322134170874,0.2689021547212899,0.32765731103875945
1687012441.336313,0.12306464463472366,-0.2661348283290863,-0.956047773361206,0.007581114768981934,-0.013284087181091309,-0.010367631912231445,-0.00012475671246647835,-0.003962303511798382,-0.0023952354677021503,0.12801830878120013,0.26938102987372564,0.3274141060485893
1687012441.3494549,0.12264136224985123,-0.2664460241794586,-0.9560154676437378,0.0012294873595237732,-0.013461172580718994,-0.007058262825012207,-0.0083530368283391,-0.008378712460398674,-0.0036807432770729065,0.12758702162712504,0.26970386150199466,0.3274075225886403
1687012441.426173,0.12229681760072708,-0.2671090364456177,-0.9558746218681335,-0.0029425621032714844,-0.0062063634395599365,0.003039538860321045,0.006889299489557743,-0.005777070298790932,-0.005225509870797396,0.12725099413522753,0.2703918253930423,0.3272194450368845
1687012441.4394279,0.12174350768327713,-0.26756390929222107,-0.9558179974555969,-0.0013669133186340332,-0.0010975897312164307,0.006736576557159424,-0.0068129305727779865,0.0009141219779849052,0.003624440636485815,0.126688842013855,0.2708638588781946,0.3273789211822938
1687012441.548202,0.12105848640203476,-0.26391422748565674,-0.9569190740585327,-0.011027351021766663,0.006055980920791626,-0.009664177894592285,-0.07076200097799301,-0.010370578616857529,0.006007303949445486,0.1258401020150201,0.26707805293577314,0.32829297295734916
1687012441.56396,0.12095236778259277,-0.26172956824302673,-0.9575323462486267,-0.0010640621185302734,0.0003160238265991211,0.000836789608001709,-0.06142140179872513,0.012823601253330708,0.01124773919582367,0.12565127001010876,0.264813819309853,0.3288708904740274
1687012441.63854,0.12093528360128403,-0.25782880187034607,-0.9585921764373779,-0.003213725984096527,-0.015211939811706543,0.01637721061706543,-0.14856743812561035,0.015214676037430763,0.028633587062358856,0.1254962628287851,0.2607743426698207,0.3301942779273584
1687012441.6508908,0.12151817232370377,-0.24966184794902802,-0.9606780409812927,0.007037132978439331,-0.0018639862537384033,-0.011138975620269775,-0.14871835708618164,0.013978613540530205,0.031099939718842506,0.12582385713148436,0.25233103608207297,0.33262461519386405
1687012441.726632,0.12160197645425797,-0.24356664717197418,-0.9622308611869812,-0.00034036487340927124,-0.02431662380695343,0.0299493670463562,-0.19517706334590912,0.013717357069253922,0.024249691516160965,0.12570865907949288,0.24604155576244383,0.33463139875367365
1687012441.738843,0.12310197949409485,-0.2309887409210205,-0.9651373624801636,0.014135569334030151,0.019807130098342896,-0.004879117012023926,-0.25353673100471497,0.03408477082848549,0.02932867221534252,0.12686365718046444,0.2330937818791609,0.33783225367990516
1687012441.821185,0.12393920868635178,-0.22349593043327332,-0.9667929410934448,-0.014777831733226776,-0.011138424277305603,0.0072593092918396,-0.14945535361766815,0.019961494952440262,0.02124997228384018,0.1275007972350327,0.22539966550661508,0.34029917105012164
1687012441.8337622,0.12594518065452576,-0.21400116384029388,-0.968680202960968,0.020005151629447937,0.020412936806678772,-0.018975436687469482,-0.1816720962524414,0.027247458696365356,0.0301083792001009,0.1292920148727929,0.2156691881938076,0.3423885595756949
1687012441.911536,0.12523257732391357,-0.21108205616474152,-0.9694128036499023,-0.04385744035243988,0.008338555693626404,-0.021386146545410156,0.004013662692159414,-0.021467793732881546,0.0031925425864756107,0.12847243714784298,0.21268183231768442,0.34364003325425835
1687012441.925138,0.12620419263839722,-0.20427453517913818,-0.970744252204895,0.022294342517852783,-0.0034280717372894287,-0.0050858259201049805,-0.16532298922538757,0.022636106237769127,-0.006718943826854229,0.1292825418913011,0.2057225630174252,0.3439640391428111
1687012441.9624,0.12609189748764038,-0.1993742734193802,-0.971777081489563,0.011069372296333313,0.0025206655263900757,0.008855938911437988,-0.0751572772860527,0.004910106770694256,0.021250437945127487,0.12903301177204926,0.20071933897598684,0.34531990393521483
1687012442.063364,0.12696640193462372,-0.19307522475719452,-0.9729344844818115,0.006059736013412476,-0.009881898760795593,-0.0014460086822509766,-0.17471995949745178,0.008870227262377739,0.016303550451993942,0.1297650976028732,0.19429537806849564,0.3471488120979209
1687012442.0757241,0.12705263495445251,-0.18655705451965332,-0.9741940498352051,-0.01642639935016632,-0.008831709623336792,0.002483844757080078,-0.13557352125644684,-0.002016597893089056,-0.0007096542394720018,0.12968622260212243,0.18765650530757397,0.34816163769993735
1687012442.1494122,0.12755568325519562,-0.17611312866210938,-0.9760705232620239,0.03530137240886688,0.003963500261306763,-0.0338171124458313,-0.23988936841487885,0.015752900391817093,0.04816094785928726,0.12994644389665033,0.17703645206297774,0.3499915768271164
1687012442.2387118,0.1280864179134369,-0.16584865748882294,-0.9777975678443909,-0.030842140316963196,-0.011031195521354675,0.002944052219390869,-0.2223597764968872,0.037483494728803635,0.01885306090116501,0.13025316454468516,0.16661852966129792,0.35323308531173314
1687012442.251502,0.1308026760816574,-0.15437231957912445,-0.979315996170044,0.01931329071521759,-0.0057228803634643555,-0.028588056564331055,-0.28564131259918213,0.045220158994197845,0.03917105123400688,0.13277947934184428,0.15499211999661236,0.35566563574118976
1687012442.3267221,0.13224487006664276,-0.14024066925048828,-0.9812460541725159,0.0038787871599197388,-0.006899803876876831,0.00048738718032836914,-0.2930731773376465,0.046432338654994965,0.026607388630509377,0.13396517974019945,0.14070448399317573,0.3591031559302505
1687012442.340382,0.1340629905462265,-0.1279977262020111,-0.9826717376708984,-0.0071403831243515015,0.008826613426208496,-0.016443252563476562,-0.19116151332855225,0.02872462570667267,0.017695719376206398,0.13558995523196726,0.12834983583498386,0.3621577560261246
1687012442.42047,0.13529235124588013,-0.11752995103597641,-0.983810305595398,-0.004082009196281433,-0.0182427316904068,-0.00848400592803955,-0.26968851685523987,0.03731980174779892,0.0010343834292143583,0.13666154671726538,0.11780222333785204,0.36363670540890336
1687012442.432714,0.13658969104290009,-0.10589368641376495,-0.9849516749382019,5.27799129486084e-05,0.018735505640506744,-0.0021851658821105957,-0.18607544898986816,0.03141725808382034,0.007346075028181076,0.13779768395114642,0.10609259991719898,0.36551362865268
1687012442.508256,0.13831789791584015,-0.09610405564308167,-0.9857140183448792,-0.005627483129501343,-0.0003772452473640442,-0.00023257732391357422,-0.2586904764175415,0.0561719611287117,0.007633097004145384,0.13941227225301384,0.09625260622225965,0.36734015745344756
1687012442.521692,0.13996504247188568,-0.08694568276405334,-0.9863317012786865,-0.00031660497188568115,0.0009319111704826355,0.0025823116302490234,-0.18364478647708893,0.030121097341179848,0.004137631971389055,0.14096348078156543,0.08705560131805569,0.3689047802405733
1687012442.562725,0.14172156155109406,-0.07703270018100739,-0.9869047403335571,0.005525752902030945,-0.004647575318813324,-0.004489302635192871,-0.25426268577575684,0.0525972917675972,0.01729191653430462,0.1426270069034101,0.07710908916888444,0.37083790428110963
1687012442.6590462,0.14396241307258606,-0.06552967429161072,-0.9874110817909241,-0.007915064692497253,0.011284701526165009,-0.011368155479431152,-0.19480280578136444,0.04430420696735382,0.01200580783188343,0.1447777556023374,0.06557666121933022,0.37317042568849323
1687012442.672883,0.14638811349868774,-0.05721432715654373,-0.9875712990760803,0.00890059769153595,0.007867421954870224,-0.006645619869232178,-0.17325526475906372,0.045274216681718826,-0.012771976180374622,0.1471588693048196,0.05724558674462311,0.3744515256849205
1687012442.7153978,0.14777927100658417,-0.04806948080658913,-0.9878515005111694,0.0048543959856033325,0.003529094159603119,0.013944029808044434,-0.19859421253204346,0.03766920790076256,-0.009041354060173035,0.14849544941983855,0.04808801223544109,0.3753585500002699
1687012442.838784,0.14978107810020447,-0.03813347592949867,-0.9879835247993469,-0.004669994115829468,-0.0006543472409248352,-0.007744014263153076,-0.21009565889835358,0.03596016764640808,-0.02041032165288925,0.15045711709910134,0.03814272256067525,0.376074985339357
1687012442.852536,0.1521061360836029,-0.02830689027905464,-0.9879587292671204,0.008126392960548401,0.0025042984634637833,0.006803333759307861,-0.2092878371477127,0.05484641715884209,-0.012685956433415413,0.1527605577559245,0.028310672580551387,0.3765731637998704
1687012442.929193,0.15463338792324066,-0.016886981204152107,-0.9878275990486145,0.012694507837295532,-0.007069297134876251,0.005405724048614502,-0.2880363166332245,0.06836355477571487,0.005938927177339792,0.1552786943126655,0.01688778466392187,0.3783077718318119
1687012442.942449,0.15810899436473846,-0.002721153199672699,-0.9874179363250732,-0.02316024899482727,0.015294413082301617,-0.028542757034301758,-0.22702936828136444,0.04225614666938782,-0.014848575927317142,0.1587758610823333,0.002721156663074036,0.3804591172244853
1687012443.0211592,0.16042128205299377,0.004394626710563898,-0.9870388507843018,0.019632428884506226,0.018005292862653732,-0.005652129650115967,-0.11411355435848236,0.03190159797668457,-0.027937479317188263,0.16111901188352,-0.004394640672863759,0.38032443588640624
1687012443.0335732,0.16096068918704987,0.01144484430551529,-0.9868944883346558,0.013859257102012634,-0.0038001742213964462,0.006517291069030762,-0.18678349256515503,0.04259872063994408,0.018792741000652313,0.16167463966379766,-0.011445093717888283,0.38098198880014283
1687012443.074919,0.16305004060268402,0.018796341493725777,-0.9864387512207031,-0.03124462068080902,0.021669985726475716,-0.028377532958984375,-0.061246346682310104,0.01812506653368473,-0.017581777647137642,0.16381048553920344,-0.018797448651998398,0.3824967320995627
1687012443.170827,0.16360923647880554,0.0192891675978899,-0.9863366484642029,0.012034699320793152,0.0007303785532712936,0.01487058401107788,-0.03325705602765083,0.013380378484725952,-0.008126757107675076,0.16437894665814123,-0.019290364537599008,0.38146847494859354
1687012443.228376,0.16324563324451447,0.024069542065262794,-0.9862918257713318,-0.0029062777757644653,0.009225152432918549,-0.002859175205230713,-0.10612917691469193,0.01874709315598011,0.021361559629440308,0.16402748327928945,-0.024071866510080024,0.38277774135335724
1687012443.292046,0.16414646804332733,0.025854365900158882,-0.9860970973968506,0.004646271467208862,0.003869771957397461,-0.012438058853149414,0.013678540475666523,-0.002139901975169778,-0.01340361125767231,0.16494831739125984,-0.025857246706760328,0.38307869712834774
1687012443.305974,0.1639767289161682,0.02639741078019142,-0.9861109256744385,0.014062806963920593,0.008285831660032272,-0.011066138744354248,-0.010657647624611855,-0.010455001145601273,-0.006477062590420246,0.16477855226055976,-0.026400477366033733,0.3827069809807574
1687012443.373261,0.16411316394805908,0.02658412791788578,-0.9860832691192627,-0.019520863890647888,0.0055051203817129135,-0.019501447677612305,-0.0194634348154068,0.018377358093857765,-0.007089522667229176,0.16491773264774762,-0.026587261004007566,0.38284374748118505
1687012443.436857,0.16493229568004608,0.027036169543862343,-0.9859342575073242,0.0031890422105789185,0.018648661673069,-0.002774178981781006,0.031830690801143646,0.0065197208896279335,-0.013889571651816368,0.16575051362986468,-0.027039463892204307,0.3823616917721659
1687012443.444195,0.16463488340377808,0.027566121891140938,-0.9859693050384521,0.005027592182159424,-0.0044795554131269455,0.013496160507202148,-0.04011092334985733,0.012730123475193977,0.02267436310648918,0.16545129000103326,-0.027569613939264426,0.382625595406851
1687012443.449288,0.16510967910289764,0.028036929666996002,-0.9858766198158264,-0.01761820912361145,0.003960765898227692,-0.005120694637298584,0.03889583423733711,0.004759726580232382,-0.011439929716289043,0.16593504890541794,-0.02804060461883228,0.3830690891890983
1687012443.4925299,0.1649513691663742,0.026424113661050797,-0.9859476685523987,0.015834778547286987,0.005817722529172897,0.012925207614898682,0.0012553819688037038,-0.016105875372886658,0.0045016855001449585,0.16576712104076913,-0.02642718996416954,0.3824397640098342
1687012443.558955,0.16410528123378754,0.026792185381054878,-0.9860789179801941,-0.007473796606063843,0.006426213309168816,-0.025151550769805908,0.022292666137218475,-0.013701217249035835,0.0003456899430602789,0.1649106704897354,-0.026795392168692162,0.3827940141534013
1687012443.649924,0.1640670895576477,0.02530018985271454,-0.9861246943473816,0.013529956340789795,0.010344358161091805,-0.005116760730743408,0.046718779951334,-0.014400031417608261,-0.0031071649864315987,0.164865464254762,-0.025302890324949548,0.3820906804146521
1687012443.6632771,0.1633998602628708,0.025011761114001274,-0.9862428307533264,0.009360149502754211,0.005063328891992569,-0.002526700496673584,-0.006241638213396072,-0.006446500308811665,0.014017893001437187,0.16418769296485267,-0.02501437046404915,0.3825047921444533
1687012443.7022948,0.16327010095119476,0.024188870564103127,-0.9862848520278931,-0.020142659544944763,0.0077020153403282166,-0.012418150901794434,0.05861525610089302,-0.011537930928170681,-0.00971906166523695,0.1640527670572561,-0.024191230916182496,0.3826161866144678
1687012443.829821,0.16251787543296814,0.023909173905849457,-0.9864158630371094,0.01341596245765686,-0.0011888183653354645,0.012126922607421875,-0.043771129101514816,-0.010338354855775833,0.018204981461167336,0.16328902276983953,-0.02391145192258788,0.382549171555573
1687012443.842901,0.1617709994316101,0.024018829688429832,-0.9865359663963318,-0.008435443043708801,0.009779402986168861,-0.008230209350585938,0.040769100189208984,-0.005295304581522942,-0.0016050089616328478,0.1625323375480752,-0.024021139646133217,0.38312157570385563
1687012443.9178019,0.16147732734680176,0.02235574647784233,-0.9866231679916382,0.013998761773109436,-0.005326917394995689,0.0020192861557006836,0.003954717889428139,-0.01964716799557209,0.0014063603011891246,0.16222834056329646,-0.02235760813848004,0.38268593042827853
1687012443.931275,0.16057264804840088,0.022527439519762993,-0.9867669343948364,-0.002338990569114685,0.003885539248585701,-0.009082674980163574,0.014628134667873383,-0.014185557141900063,0.0061325388960540295,0.16131209580406053,-0.022529346137988855,0.383219474703709
1687012444.012011,0.16033950448036194,0.021483127027750015,-0.986828088760376,-0.009170696139335632,0.009110759943723679,-0.016559302806854248,0.04024042189121246,-0.007439504377543926,0.00691783893853426,0.16107210356763796,-0.021484780665615884,0.3834833298759622
1687012444.025807,0.15977448225021362,0.0192775446921587,-0.9869652986526489,0.004516914486885071,0.014459652826189995,0.0022698640823364258,0.04644234478473663,-0.015577147714793682,0.009134720079600811,0.16049227610966185,-0.01927873958876503,0.38318319750693797
1687012444.1330218,0.1591857522726059,0.018282776698470116,-0.9870793223381042,-0.00551450252532959,0.01778901368379593,-0.007885217666625977,0.021263577044010162,-0.005693446844816208,0.026966314762830734,0.1598927895926323,-0.018283796303109175,0.383984307910985
1687012444.146066,0.15903648734092712,0.015689615160226822,-0.9871480464935303,-0.00991232693195343,-0.007037864997982979,0.0021474361419677734,0.07279228419065475,-0.0023700883612036705,0.005975679494440556,0.15973446863557966,-0.015690258122388955,0.38417959588995854
1687012444.220314,0.15853722393512726,0.011474930681288242,-0.9872863292694092,0.005967780947685242,0.01300018560141325,-0.0014679431915283203,0.10544246435165405,-0.007701292634010315,0.009153629653155804,0.15921954147230688,-0.011475182684277448,0.38371035303135226
1687012444.227759,0.15772555768489838,0.007332073990255594,-0.9874557852745056,-0.005152910947799683,-0.007332058157771826,-0.007478296756744385,0.06427216529846191,-0.007482292130589485,0.00782158225774765,0.1583912424493012,-0.007332139746631006,0.38338372988160097
1687012444.341296,0.15764348208904266,0.0035623859148472548,-0.987489640712738,0.006449520587921143,0.004356944002211094,-0.009260177612304688,0.09432411938905716,-0.016399798914790154,-0.0037700259126722813,0.1583048524151885,-0.0035623935124268397,0.3830312718740461
1687012444.3541322,0.15683947503566742,-0.0006004691822454333,-0.987623929977417,0.005254641175270081,0.007543236017227173,-0.016511201858520508,0.09592968970537186,-0.02098638191819191,-0.006967216730117798,0.1574897405837841,0.0006004692218349858,0.3821862635410269
1687012444.4275022,0.15605714917182922,-0.00595794478431344,-0.987730085849762,-0.0025384724140167236,0.006705644074827433,0.003049910068511963,0.08877982199192047,-0.006880861707031727,0.0008804526878520846,0.15670042490401892,0.0059579798611515715,0.38099791523389676
1687012444.440429,0.15569369494915009,-0.009803556837141514,-0.9877567291259766,-0.0006796568632125854,0.010474961251020432,-0.0037441253662109375,0.10452233254909515,-0.005658382084220648,-0.00019193574553355575,0.15633725358195544,0.009803713472951439,0.3804829532579731
1687012444.5227299,0.1556704342365265,-0.01590307056903839,-0.9876810312271118,-0.007736459374427795,0.010104749351739883,-0.0033468008041381836,0.1718633472919464,0.008604265749454498,-0.0018118699081242085,0.1563260575270218,0.01590374161010616,0.3793364484349924
1687012444.53033,0.15553997457027435,-0.02394411899149418,-0.9875393509864807,-0.002311214804649353,0.00819706916809082,-0.003641068935394287,0.17102718353271484,-0.0031800444703549147,-0.005763734690845013,0.1562192166270902,0.023946408320785158,0.3778740234911498
1687012444.609384,0.1546345055103302,-0.031182505190372467,-0.9874795079231262,0.012052491307258606,-0.013449432328343391,-0.004051804542541504,0.1136508509516716,-0.01350511983036995,0.0004552124300971627,0.15533365559862847,0.031187560018815702,0.3766845537671015
1687012444.6226969,0.15371665358543396,-0.038913875818252563,-0.9873484373092651,-0.00584372878074646,-0.015102218836545944,-0.010683178901672363,0.18145444989204407,-0.02196456305682659,-0.0009316952782683074,0.1544464579703303,0.03892370181950139,0.37597155458258935
1687012444.73028,0.1530655324459076,-0.046487778425216675,-0.9871219992637634,0.001948520541191101,0.006692875176668167,-0.012725412845611572,0.1875087469816208,-0.026961451396346092,-0.0009843592997640371,0.15383726641030157,0.04650453738246834,0.37442385367427883
1687012444.743764,0.15152761340141296,-0.05628350004553795,-0.986849308013916,0.00263194739818573,-0.006491139531135559,-0.013852596282958984,0.2321789562702179,-0.026343420147895813,-0.0011822986416518688,0.15235693657906005,0.05631325807773844,0.37252820413490867
1687012444.850806,0.1506796032190323,-0.0653909295797348,-0.9864175915718079,0.010376930236816406,0.014258749783039093,0.009855091571807861,0.1854342371225357,-0.017525160685181618,-0.003227273467928171,0.15158261086102334,0.06543761965025457,0.3707906412649182
1687012444.8646178,0.1492520570755005,-0.07545515894889832,-0.985916018486023,-0.013952359557151794,-0.002563007175922394,0.0037077665328979492,0.22254608571529388,-0.026785150170326233,-0.026507427915930748,0.15024336169432623,0.07552694445835921,0.3684996604455996
1687012444.908937,0.1489570587873459,-0.08139298111200333,-0.9854881763458252,0.010344699025154114,0.003435857594013214,-0.01318424940109253,0.1322280913591385,-5.911337211728096e-06,-0.008904200978577137,0.1500149589295085,0.08148312026302607,0.3666174860302232
1687012444.9201698,0.1483144313097,-0.09106197208166122,-0.984738826751709,-0.004210412502288818,0.008283063769340515,-0.0018181800842285156,0.22100402414798737,-0.02890174277126789,-0.033381447196006775,0.1494893632081244,0.09118829857017585,0.364072185512823
1687012444.9240708,0.14770226180553436,-0.09681478142738342,-0.9842819571495056,0.01762673258781433,-0.0059378743171691895,-0.004792749881744385,0.09993650764226913,-0.022734837606549263,-0.010220668278634548,0.14894952871777367,0.09696666749997905,0.3618915789105745
1687012444.964099,0.146426722407341,-0.10474173724651337,-0.9836606979370117,-0.00954011082649231,-0.0008490607142448425,-0.011517524719238281,0.2257484495639801,-0.03709788620471954,-0.021905487403273582,0.147773838176348,0.10493420428140214,0.36013197007467845
1687012445.025542,0.14613188803195953,-0.112747423350811,-0.982819139957428,0.022630304098129272,0.005111962556838989,-0.002822279930114746,0.16321925818920135,-0.01536258589476347,-0.02538510598242283,0.14760505817455163,0.11298767522304942,0.3569173385656613
1687012445.0874019,0.14523404836654663,-0.121314637362957,-0.9819316864013672,-0.00874418020248413,0.010734215378761292,0.0019512176513671875,0.22021298110485077,-0.01272747665643692,-0.014227992855012417,0.14684186092949114,0.12161419701889933,0.35503581680884905
1687012445.1821852,0.14558133482933044,-0.1294802874326706,-0.9808368682861328,0.008501917123794556,-0.007772490382194519,0.0015888214111328125,0.12736432254314423,0.006337382830679417,-0.02170661650598049,0.1473498800716963,0.12984484120507467,0.35268597146587805
1687012445.299018,0.14506053924560547,-0.1364695131778717,-0.9799661040306091,-0.0036420822143554688,-0.0003102421760559082,-0.004485189914703369,0.20997770130634308,-0.010690602473914623,-0.0076884012669324875,0.1469589023745599,0.13689670336879736,0.35095283974983377
1687012445.313401,0.14440040290355682,-0.14688320457935333,-0.9785569906234741,0.010705173015594482,-0.00588776171207428,-0.016422808170318604,0.22508031129837036,-0.0275327879935503,-0.006744576618075371,0.1465073229990989,0.14741655571415663,0.34900877116944234
1687012445.388492,0.14321519434452057,-0.15537075698375702,-0.9774197340011597,-0.005489364266395569,-0.014886796474456787,0.002535700798034668,0.15429376065731049,-0.03126201033592224,-0.01592409424483776,0.14548846766555995,0.15600275750817627,0.34700143991555216
1687012445.396449,0.14246517419815063,-0.15959051251411438,-0.9768493175506592,0.00043338537216186523,-0.007218554615974426,0.0009887218475341797,0.08454126119613647,-0.0068864538334310055,0.0009456336265429854,0.14482050543781075,0.16027583328277262,0.3464121393543534
1687012445.481775,0.14163994789123535,-0.16639260947704315,-0.9758338332176208,-0.0019304603338241577,-0.0031782835721969604,-0.00567251443862915,0.14143210649490356,-0.012929965741932392,0.001978606916964054,0.1441409883215882,0.16717014546997552,0.34547556217594816
1687012445.494551,0.14094381034374237,-0.1738164871931076,-0.9746397733688354,-0.007429391145706177,-0.0035974234342575073,0.0037230253219604492,0.1748010814189911,-0.015036881901323795,-0.005344552919268608,0.1436155907668847,0.17470383156663616,0.3440922226964346
1687012445.572263,0.13990317285060883,-0.18058858811855316,-0.9735578298568726,0.0038041025400161743,-0.01603613793849945,0.019410550594329834,0.10105277597904205,-0.015057742595672607,-0.0061154719442129135,0.14272588034026576,0.18158483810380355,0.342426008388884
1687012445.579955,0.1388055980205536,-0.18544170260429382,-0.9728023409843445,0.000934407114982605,-0.00039505958557128906,-0.017340481281280518,0.1453862488269806,-0.026169605553150177,0.0007448311662301421,0.1417296531809603,0.18652134755402205,0.34109371968528124
1687012445.660444,0.13834647834300995,-0.19100823998451233,-0.9717901349067688,0.0038654357194900513,-0.0010693520307540894,-0.004329800605773926,0.10802048444747925,-0.019659774377942085,0.014206045307219028,0.14141226667414303,0.1921891934877205,0.34030761545643373
1687012445.673717,0.13777276873588562,-0.19563889503479004,-0.9709500670433044,0.001723065972328186,-0.004922583699226379,-0.011563301086425781,0.09811748564243317,-0.005001557990908623,0.012465070001780987,0.14095383465534736,0.19690889093249175,0.3400699630975962
1687012445.7493548,0.13743852078914642,-0.20187053084373474,-0.9697210788726807,0.0005009472370147705,0.001782059669494629,-0.003820180892944336,0.1695551723241806,-0.014555380679666996,-0.007167353760451078,0.14079223494825466,0.20326739910330582,0.33914663008169005
1687012445.7618918,0.1369417905807495,-0.2061532437801361,-0.9688899517059326,-0.00023828446865081787,-0.004906296730041504,0.016573667526245117,0.04284831881523132,-0.006264250725507736,-0.000814183265902102,0.14040880582272383,0.20764212467630636,0.3385734787800802
1687012445.8406448,0.13609838485717773,-0.2113187313079834,-0.9678954482078552,-0.0011496543884277344,0.007003575563430786,0.0003051161766052246,0.15971489250659943,-0.012475010007619858,0.009440651163458824,0.13969681097189204,0.21292396844551076,0.3379675487117434
1687012445.847791,0.13546966016292572,-0.21655605733394623,-0.9668254256248474,-0.005831003189086914,-0.022671207785606384,-0.009920120239257812,0.04051041975617409,-0.022313347086310387,-0.005128237884491682,0.1392116903740016,0.21828542264868267,0.33732178017360764
1687012445.929888,0.13444268703460693,-0.2201709747314453,-0.9661521315574646,0.009691834449768066,-0.0003490149974822998,-0.0081978440284729,0.1092173159122467,-0.022773807868361473,0.0006843773880973458,0.13826484122120555,0.2219897467518852,0.33614853261821565
1687012446.023413,0.13389894366264343,-0.22313658893108368,-0.9655470848083496,0.010586544871330261,-0.006614983081817627,-0.005110263824462891,0.03688301891088486,-0.01524913590401411,0.0019616293720901012,0.13779790371437772,0.22503100739172818,0.3362273485747303
1687012446.03141,0.13347311317920685,-0.2255883365869522,-0.9650362133979797,-0.009220793843269348,-0.008984997868537903,-0.005453348159790039,0.023241640999913216,-0.008543295785784721,-0.005186361260712147,0.13743698934693696,0.22754689130226932,0.33592602252167447
1687012446.111635,0.13345862925052643,-0.228018656373024,-0.9644668102264404,0.005884617567062378,-0.010201498866081238,0.004353344440460205,0.05856385454535484,-0.005528775043785572,0.006034468300640583,0.13750236304041438,0.2300422514287738,0.3354514687904691
1687012446.125345,0.1322573870420456,-0.23062068223953247,-0.9640135169029236,-0.010461732745170593,-0.0068060606718063354,0.002877652645111084,0.017384950071573257,-0.009736125357449055,-0.009351212531328201,0.1363433521135336,0.2327155067711358,0.33539705332598146
1687012446.1979551,0.131599560379982,-0.23371289670467377,-0.9633586406707764,-0.0011826753616333008,-0.008550867438316345,-0.015279054641723633,0.09050079435110092,-0.01687268726527691,0.006981821730732918,0.13576461956495026,0.23589459025992343,0.3349213690895018
1687012446.204962,0.13009290397167206,-0.2392926961183548,-0.962192714214325,0.004901602864265442,-0.004893675446510315,0.005298793315887451,0.11556509137153625,-0.027956051751971245,0.014804523438215256,0.1343896861866141,0.2416373223125385,0.3346714777754502
