Timestamp,gravityX,gravityY,gravityZ,accelerationX,accelerationY,accelerationZ,rotationRateX,rotationRateY,rotationRateZ,attitudeRoll,attitudePitch,attitudeYaw
1687007580.394819,0.7084334492683411,-0.6876143217086792,0.15908706188201904,0.06332558393478394,0.048667728900909424,-0.056395307183265686,0.0785633847117424,-0.5034154653549194,-1.1192690134048462,1.7916936043473324,0.7581981678435854,1.3847843830376672
1687007596.918694,0.933820903301239,-0.107657790184021,-0.3411575257778168,-0.0038129091262817383,-0.005577705800533295,-0.006468087434768677,-0.0273393914103508,-0.009097978472709656,0.05338692665100098,1.2205258125298923,0.10786684556336316,1.3664515500548873
1687007596.9359078,0.9328494668006897,-0.11153841763734818,-0.3425653576850891,0.009975850582122803,0.009548671543598175,-0.00817301869392395,-0.007904483936727047,-0.029651811346411705,0.07403793931007385,1.2188597227998037,0.11177099401285905,1.3687223364842056
1687007597.0337539,0.9317392706871033,-0.11484674364328384,-0.34448865056037903,0.005181014537811279,0.015603557229042053,0.008123993873596191,-0.03143320232629776,-0.027270058169960976,0.06923527270555496,1.2166570412250475,0.11510071903142476,1.3704986799172179
1687007597.053786,0.9311766624450684,-0.11593739688396454,-0.3456423580646515,0.002371370792388916,0.026719234883785248,0.018753498792648315,-0.014699405990540981,-0.02245382033288479,0.025215476751327515,1.2153711314392763,0.11619871047194587,1.3725539805573808
1687007597.118456,0.9311335682868958,-0.11604516953229904,-0.3457224369049072,0.011829197406768799,0.03553977608680725,0.016712486743927002,0.02223455347120762,-0.010428492911159992,0.016555143520236015,1.2152804720656027,0.11630721178765228,1.3731587714717841
1687007597.134468,0.9316819310188293,-0.11477674543857574,-0.34466689825057983,0.005848705768585205,0.027542226016521454,0.013093531131744385,-0.007641141302883625,0.008104800246655941,-0.027716446667909622,1.2164687344200693,0.11503025616783172,1.3726886472299822
1687007597.208617,0.9325351715087891,-0.11123308539390564,-0.3435192406177521,0.010046124458312988,0.017422020435333252,-0.013887226581573486,-0.10877863317728043,0.012389648705720901,-0.03416895121335983,1.217849697957531,0.1114637463157825,1.374540801006728
1687007597.223594,0.9335398077964783,-0.10565479844808578,-0.3425500690937042,0.005608260631561279,0.013903677463531494,-0.028848707675933838,-0.3266771733760834,0.06163540482521057,-0.041007883846759796,1.219113456321722,0.10585236376665048,1.3822995457714014
1687007597.2977,0.9357511401176453,-0.09168419986963272,-0.34053483605384827,0.006372332572937012,-0.02777688205242157,-0.01572728157043457,-1.0988905429840088,0.21472978591918945,-0.07880207151174545,1.2217783479012523,0.09181313974088756,1.412485251860962
1687007597.311806,0.9419361352920532,-0.05720619857311249,-0.33088359236717224,0.010929524898529053,-0.0602865107357502,0.054608047008514404,-2.481032133102417,0.47698867321014404,-0.17415861785411835,1.232981417074255,0.05723744726337059,1.4914662406346562
1687007597.3892531,0.9510414004325867,-0.0035541390534490347,-0.30904319882392883,0.017113566398620605,0.06968571245670319,0.10109654068946838,-2.734560489654541,0.6818065643310547,-0.1465839147567749,1.256607469882964,0.0035541466171639274,1.6216260738190378
1687007597.3934898,0.9651970863342285,0.05455765128135681,-0.2557699978351593,0.060422539710998535,-0.1969984769821167,0.15324634313583374,-5.285986423492432,1.1254816055297852,-0.1736924946308136,1.3117575894510405,-0.05458475127109714,1.7944503742065498
1687007597.484456,0.9771525859832764,0.11010649055242538,-0.18179525434970856,0.007802367210388184,0.24400421977043152,0.15048432350158691,-3.525763750076294,1.2871482372283936,0.22021111845970154,1.386853433535814,-0.1103301883246993,2.0283715550551036
1687007597.500452,0.9889054894447327,0.10987358540296555,-0.0999702513217926,0.13322597742080688,-0.07966118305921555,0.19686365127563477,-3.4747393131256104,1.1896227598190308,0.6533817052841187,1.4700467867627593,-0.11009586556405036,2.1961874801615546
1687007597.569378,0.996334433555603,0.08032647520303726,-0.029416296631097794,0.026507973670959473,0.010020747780799866,0.10583239793777466,-1.8327025175094604,1.2336920499801636,0.9380245804786682,1.541280379880535,-0.08041310747291971,2.328301227584264
1687007597.667602,0.9991599321365356,0.022102661430835724,0.034515682607889175,0.12742722034454346,-0.20821413397789001,0.0617978610098362,-2.04921555519104,1.1422656774520874,1.4203722476959229,1.605327298635348,-0.022104462014723054,2.423678694545519
1687007597.685257,0.9947721362113953,-0.0622912161052227,0.08092490583658218,0.10511213541030884,-0.06377694010734558,-0.06471990793943405,-1.0618722438812256,0.7070229649543762,1.7296558618545532,1.651967780711533,0.06233156936990044,2.5042318865128252
1687007597.7471719,0.9818596839904785,-0.15483762323856354,0.10944035649299622,0.08028942346572876,-0.16263681650161743,-0.13528859615325928,-0.9351447820663452,0.47002822160720825,1.8446694612503052,1.6818004536008708,0.15546308860023308,2.5369014509568237
1687007597.762665,0.959959864616394,-0.2520826756954193,0.12219493836164474,0.04481619596481323,-0.12613698840141296,-0.055117249488830566,-0.775244951248169,0.43337228894233704,1.9619239568710327,1.697407142617284,0.2548318455578936,2.5610843430163106
1687007597.8390841,0.9282855987548828,-0.3494768440723419,0.1270911693572998,0.07919138669967651,0.033833444118499756,-0.03761349618434906,-0.5968912839889526,0.3037877380847931,1.9891536235809326,1.7068599557826907,0.3570126950364222,2.5831384840732023
1687007597.854823,0.888756513595581,-0.4405256509780884,0.12668444216251373,0.1344367265701294,0.09459364414215088,-0.06352820992469788,-0.1776820719242096,0.09272443503141403,1.9352390766143799,1.7123837709950762,0.4561841001509721,2.591013902034671
1687007597.966682,0.8440824151039124,-0.5220649242401123,0.1223648190498352,0.18168967962265015,0.1700751781463623,-0.08043361455202103,0.14805418252944946,-0.2244757115840912,1.833393931388855,1.7147612733530258,0.5492702366429343,2.5821972916622116
1687007597.98439,0.7971392273902893,-0.5922661423683167,0.1174309104681015,0.1236981749534607,0.07508468627929688,-0.09587014466524124,0.15663301944732666,-0.32603535056114197,1.6484986543655396,1.717059751342123,0.6338684087549902,2.5524503656039172
1687007598.087226,0.7519721984863281,-0.6501631140708923,0.10874747484922409,0.11477285623550415,0.15774661302566528,-0.07917582988739014,0.25528037548065186,-0.48095861077308655,1.4255177974700928,1.7144169750856577,0.7077991055774495,2.5235906990757124
1687007598.104711,0.711846649646759,-0.6966904401779175,0.08886516839265823,0.16449612379074097,0.05745387077331543,-0.07221770286560059,-0.10145356506109238,-0.6799941062927246,1.0796478986740112,1.6949913345317984,0.770773639036883,2.5112630281774404
1687007598.138478,0.6761914491653442,-0.7336618304252625,0.06712345033884048,0.07858449220657349,0.015064358711242676,-0.0006407573819160461,-0.003288649022579193,-0.6002678275108337,1.0827767848968506,1.6697391108346111,0.8236952451387766,2.4994646117064714
1687007598.141681,0.6396657228469849,-0.7669220566749573,0.05155940726399422,-0.02136439085006714,0.0832061767578125,-0.04235828295350075,-0.041264794766902924,-0.5037921667098999,0.9416835904121399,1.6512261155973058,0.8740310453263478,2.487913005560795
1687007598.161326,0.6010684370994568,-0.7988538146018982,0.023446576669812202,0.0012418031692504883,0.3176829218864441,-0.1426938772201538,0.12485262751579285,-0.8212000131607056,1.0856224298477173,1.6097847257549724,0.9253873570433946,2.505555678489372
1687007598.195584,0.5587249994277954,-0.8293428421020508,-0.004154195077717304,-0.012490808963775635,-0.12671208381652832,-0.2996329069137573,-0.4938662648200989,-1.4016894102096558,0.9980878233909607,1.5633613300183788,0.9779304852299804,2.493650175681093
1687007598.2585468,0.522274911403656,-0.852374792098999,-0.026199527084827423,-0.26588141918182373,0.4984470009803772,0.4360812306404114,0.9459773898124695,-0.9240108132362366,1.197845458984375,1.5206740977796267,1.0205099799237132,2.504641823971998
1687007598.3170362,0.4812608063220978,-0.8760676383972168,-0.029891852289438248,0.007630735635757446,0.0942530632019043,0.06201166287064552,-0.42034056782722473,0.4076806902885437,0.7700167894363403,1.5087644700503335,1.0676455006959296,2.504101777467113
1687007598.379874,0.4591933786869049,-0.8880481719970703,-0.022629620507359505,0.05238804221153259,-0.012251019477844238,0.030869483947753906,0.16343317925930023,0.22713017463684082,0.40732312202453613,1.5215549203392333,1.0930821706921445,2.5073415155502174
1687007598.476047,0.4422041177749634,-0.896543025970459,-0.025813695043325424,-0.09308302402496338,-0.03024536371231079,0.016460120677947998,-0.4839417338371277,-0.031884606927633286,0.21551164984703064,1.5124874330704325,1.111902543918081,2.527963748614879
1687007598.494865,0.4286288022994995,-0.9030436873435974,-0.02810019440948963,0.051763683557510376,-0.025545239448547363,0.029671967029571533,0.31005173921585083,-0.14089933037757874,0.31580662727355957,1.5053316618902417,1.1268033872488377,2.5305460344934065
1687007598.5922542,0.4164848327636719,-0.9085683822631836,-0.03231428936123848,-0.0002707839012145996,-0.00013846158981323242,0.010204371064901352,-0.2937660217285156,-0.18486341834068298,0.20614998042583466,1.4933633052340627,1.139844158819401,2.534868315867762
1687007598.610245,0.409490704536438,-0.9110631942749023,-0.04776283726096153,0.034204334020614624,-0.04319101572036743,0.029574457556009293,-0.11600414663553238,-0.20684248208999634,0.1050868108868599,1.4546813923777457,1.1458556598625964,2.5665274615510127
1687007598.681895,0.4058992266654968,-0.9120280742645264,-0.05874442309141159,0.008529514074325562,0.011011719703674316,0.004072248935699463,-0.1645655632019043,-0.23023621737957,0.020378312095999718,1.427067663161421,1.1482021147691497,2.585098148039765
1687007598.697503,0.4040566682815552,-0.912142276763916,-0.068810373544693,-0.004779934883117676,-0.00025707483291625977,0.06182199716567993,-0.10487248748540878,-0.24048984050750732,0.034136466681957245,1.402115767792577,1.148480779770824,2.5988531104494963
1687007598.770292,0.4027419090270996,-0.9119932651519775,-0.07789366692304611,0.0003342628479003906,-0.010248064994812012,0.03870922327041626,0.013091390021145344,-0.2442103624343872,0.016665399074554443,1.3797468105040496,1.1481172993627096,2.610098507474267
1687007598.785593,0.40085816383361816,-0.9125304818153381,-0.08124804496765137,-0.007166147232055664,0.008126676082611084,0.016154170036315918,-0.025466477498412132,-0.20219065248966217,0.021203691139817238,1.3708201204361357,1.149428864444684,2.608741538924084
1687007598.826611,0.40073850750923157,-0.9122532606124878,-0.08486959338188171,0.013339251279830933,-0.013039827346801758,0.014328114688396454,-0.07514632493257523,-0.16903731226921082,-0.04530569165945053,1.3620970821472131,1.148751517440935,2.609090572574706
1687007598.919032,0.40276995301246643,-0.9111278653144836,-0.08730919659137726,0.005829960107803345,-0.008504331111907959,0.02894442528486252,0.030320264399051666,-0.18963375687599182,-0.09333141148090363,1.3573271916486493,1.1460125392226421,2.6048720212889322
1687007598.935148,0.40585190057754517,-0.9098673462867737,-0.08617187291383743,0.012833952903747559,0.005860388278961182,-0.023599795997142792,0.06995271891355515,-0.1111488863825798,-0.06492054462432861,1.3615798760475724,1.1429642251834482,2.5927246441018488
1687007598.977793,0.408252477645874,-0.908926248550415,-0.0847538560628891,-0.011798620223999023,-0.0027101635932922363,0.009100854396820068,0.04017281159758568,-0.11032819002866745,-0.07024340331554413,1.366102369562724,1.1407016344044516,2.582473753337688
1687007599.070355,0.41111305356025696,-0.9073904156684875,-0.08734346926212311,0.007511824369430542,0.004298865795135498,-0.0053841471672058105,0.0682801678776741,-0.14549346268177032,-0.06952541321516037,1.3614529622635458,1.1370328290591538,2.578843181599151
1687007599.086986,0.4127218425273895,-0.9069638848304749,-0.08412647992372513,0.010297507047653198,-0.014514386653900146,-0.0055951401591300964,0.10517928749322891,-0.11458836495876312,-0.07739751785993576,1.369717581633335,1.13601907175274,2.5632702530945695
1687007599.157836,0.4146847724914551,-0.9060950875282288,-0.0838358998298645,0.007144451141357422,0.002561032772064209,-0.027125954627990723,0.03346607834100723,-0.09229663759469986,-0.036287833005189896,1.3713172300571734,1.1339609323943813,2.5560452724173706
1687007599.313561,0.4164392054080963,-0.9053019285202026,-0.08370616286993027,0.004596501588821411,0.008787035942077637,-0.014011017978191376,0.08410973101854324,-0.08920647948980331,-0.041886329650878906,1.3724350651765294,1.1320900012567112,2.5494785463938996
1687007599.321459,0.4177294373512268,-0.9047811031341553,-0.08290652185678482,0.010447442531585693,0.004054665565490723,0.004094958305358887,0.09835972636938095,-0.11525841057300568,-0.024804744869470596,1.3748729099100092,1.130865453628615,2.5406865707081097
1687007599.368144,0.4182664752006531,-0.9045395851135254,-0.08283352851867676,0.0059888362884521484,-0.009461939334869385,-0.03742092102766037,0.030611172318458557,-0.07308405637741089,-0.01642823964357376,1.3752860211064817,1.1302986797499768,2.5350509983622618
1687007599.381944,0.41837078332901,-0.904518723487854,-0.08253494650125504,0.013529270887374878,0.004066944122314453,-0.0033566951751708984,0.0478125736117363,-0.06618265807628632,0.01161012053489685,1.376020360651295,1.1302497615895617,2.530071727550564
1687007599.384985,0.4181656241416931,-0.9044333100318909,-0.08448699116706848,0.0025344491004943848,0.004988610744476318,-0.0016487836837768555,-0.00474757282063365,-0.04442436248064041,-0.0007771743694320321,1.3714381400676114,1.1300494783208128,2.5324821795714234
1687007599.457705,0.4187001883983612,-0.9040586948394775,-0.08584032952785492,0.00933942198753357,0.010061264038085938,-0.009725339710712433,-0.0009339706157334149,-0.06374967843294144,0.003867578227072954,1.3685821561882594,1.12917217825404,2.5324259376376506
1687007599.47398,0.41874414682388306,-0.9038763642311096,-0.08752765506505966,0.008151054382324219,0.006918787956237793,-0.000713832676410675,0.023683980107307434,-0.055462546646595,-0.042979221791028976,1.3647389203029765,1.1287458542872006,2.5334198758534665
1687007599.514358,0.4196438789367676,-0.9033161401748657,-0.08899037539958954,0.005237102508544922,-0.007771015167236328,-0.008314788341522217,-0.018986118957400322,-0.05405479669570923,-0.008128764107823372,1.3618303800488276,1.1274380793901733,2.533550158996828
1687007599.611318,0.4202936589717865,-0.9028711318969727,-0.09042824059724808,0.012369304895401001,0.0015343427658081055,0.006672859191894531,0.02978133037686348,-0.050140928477048874,-0.014366952702403069,1.3588721226011369,1.1264018048555564,2.5335440686408703
1687007599.618362,0.4212535321712494,-0.9024303555488586,-0.09036035090684891,0.012233376502990723,-0.004246950149536133,-0.002489320933818817,0.01559649221599102,-0.040086787194013596,-0.03846077248454094,1.3594947884917752,1.1253776594971734,2.5306994655379604
1687007599.669416,0.4224986135959625,-0.9019786715507507,-0.08904913812875748,0.008211225271224976,-0.0010823607444763184,-0.015244603157043457,0.03923466429114342,-0.00645621120929718,-0.02702961675822735,1.3630687970342934,1.1243304222104897,2.5255407856186105
1687007599.762903,0.4237461984157562,-0.9015175700187683,-0.08778174221515656,0.00240132212638855,0.001721799373626709,-0.007494039833545685,0.03296181187033653,-0.0033127041533589363,-0.028762204572558403,1.3665291635334698,1.1232636351418925,2.521494111914793
1687007599.771091,0.4251927137374878,-0.9009973406791687,-0.08611275255680084,0.018578708171844482,0.0007895827293395996,-0.006675846874713898,0.08091766387224197,-0.0013924760278314352,-0.021648433059453964,1.370972714350263,1.1220629769214365,2.516134256672581
1687007599.818019,0.42685359716415405,-0.9005203247070312,-0.08282353729009628,-0.0033000707626342773,-0.011619806289672852,-0.0054789260029792786,0.03825049474835396,0.02592090517282486,-0.027607455849647522,1.3791451294326436,1.120964656130879,2.5081814181396913
1687007599.912533,0.42765676975250244,-0.9003002643585205,-0.08105248212814331,0.002717435359954834,0.004837989807128906,-0.018861956894397736,0.030747881159186363,0.010504752397537231,-0.00884342286735773,1.3834909903366872,1.1204588868744758,2.503723338582011
1687007599.921166,0.42893746495246887,-0.8997735381126404,-0.08012787252664566,0.004442662000656128,8.469820022583008e-05,-0.0017812252044677734,0.05813125893473625,-0.03309794142842293,-0.045929204672575,1.3861193889239936,1.1192501910779595,2.5003379316542045
1687007599.971346,0.431476354598999,-0.8985838890075684,-0.07984722405672073,0.014370262622833252,0.004128694534301758,-0.018831320106983185,-0.018116241320967674,-0.008199249394237995,-0.06154525279998779,1.3878105518268724,1.1165315054811007,2.4963689059222416
1687007600.0633469,0.4362047612667084,-0.8961734771728516,-0.08123160153627396,0.013029217720031738,-0.007085859775543213,-0.002416960895061493,-0.08128535747528076,0.03170156106352806,-0.14073167741298676,1.3866817607046107,1.1110689268421652,2.4983778298845674
1687007600.0714211,0.4460850954055786,-0.8917346000671387,-0.07627258449792862,0.0175226628780365,0.13315916061401367,-0.08804922550916672,0.3026617765426636,0.27488014101982117,-0.3809637427330017,1.4014517690095698,1.1011636992008005,2.4883579725193585
1687007600.120195,0.4770655035972595,-0.8759884238243103,-0.07108337432146072,-0.00866648554801941,-0.015750527381896973,0.16288036108016968,-0.9977878332138062,0.2985585629940033,-1.0202692747116089,1.4228832591208311,1.0674812734582357,2.4818749549892587
1687007600.220212,0.5317816138267517,-0.839634895324707,-0.11055196821689606,-0.10705322027206421,0.3710373640060425,-0.07195836305618286,-0.32871365547180176,0.27363643050193787,-2.1974260807037354,1.3658260706357312,0.9966106268710923,2.562774816045457
1687007600.238791,0.6451619267463684,-0.7596105933189392,-0.0822073444724083,-0.1382649540901184,0.5462011098861694,0.059593915939331055,0.5486324429512024,1.152327299118042,-3.175387382507324,1.4440580405694472,0.8627141898997649,2.4994838703108337
1687007600.2659779,0.7638504505157471,-0.64236980676651,-0.0623994842171669,0.1337631344795227,0.5160269141197205,-0.29209262132644653,-0.4687986373901367,0.6033678650856018,-3.2539632320404053,1.4892866096385156,0.6975864337605313,2.496933601325022
1687007600.3940501,0.8597350716590881,-0.5090861916542053,-0.04107346013188362,0.28291940689086914,-0.04045909643173218,-0.04747318848967552,0.043649256229400635,0.26410549879074097,-3.496898651123047,1.523058068221576,0.5341227727092225,2.4874791497217736
1687007600.412597,0.9317798614501953,-0.36121246218681335,-0.03621939942240715,0.2922496199607849,-0.11296972632408142,-0.040303345769643784,0.5418134927749634,-0.17628449201583862,-3.105278968811035,1.5319446903184462,0.36956781500453817,2.471355290670103
1687007600.483762,0.973024845123291,-0.22745545208454132,-0.03856387734413147,0.21568083763122559,-0.03314948081970215,-0.16114306449890137,2.0611510276794434,-0.5501981973648071,-2.486104965209961,1.531184073499474,0.2294638471512999,2.406955666767061
1687007600.499095,0.9906911849975586,-0.12578509747982025,-0.05205123871564865,0.16899210214614868,-0.6061485409736633,0.0208471417427063,1.5651971101760864,-0.8186857104301453,-2.099287509918213,1.5183042656725716,0.12611917118684995,2.2921957182530783
1687007600.569308,0.994025468826294,-0.03436872363090515,-0.10359853506088257,-0.012244224548339844,0.015356216579675674,0.0003424137830734253,2.642613410949707,-1.3613429069519043,-1.9609689712524414,1.4669500278707917,0.03437549174236295,2.2045558831582586
1687007600.584688,0.9886962175369263,0.023999955505132675,-0.14799891412258148,0.18494874238967896,-0.5044382214546204,0.09967447817325592,1.5412681102752686,-1.157548427581787,-1.3509063720703125,1.422208604307599,-0.02400226010631961,2.065982756508076
1687007600.694092,0.9732083082199097,0.06890717148780823,-0.2193572074174881,-0.005312681198120117,0.11587671935558319,-0.005084216594696045,3.2906243801116943,-1.3924416303634644,-1.2336407899856567,1.349105050063474,-0.06896181873621647,1.9658712156989517
1687007600.711399,0.9508858323097229,0.06516454368829727,-0.302605003118515,0.039562225341796875,-0.32409095764160156,0.24895521998405457,3.31526780128479,-1.4276572465896606,-0.6389791965484619,1.262695397298943,-0.0652107549574487,1.7751196308424666
1687007600.7825089,0.9323427677154541,0.0357474721968174,-0.3598044514656067,-0.06883251667022705,-0.2323722541332245,0.09875720739364624,2.6125171184539795,-0.6454513072967529,-0.1641438603401184,1.2024914024288638,-0.03575508963738485,1.6305820950224046
1687007600.7976232,0.9251838326454163,-0.009121587499976158,-0.3794097900390625,0.16577386856079102,-0.007754663936793804,0.07110601663589478,2.124336004257202,-0.3187941312789917,-0.03329949826002121,1.1816210062868007,0.00912171439426738,1.517247254223173
1687007600.864299,0.9221268892288208,-0.01905912160873413,-0.3864179253578186,0.12348169088363647,-0.14620885252952576,-0.03138282895088196,0.1022491455078125,-0.07636348158121109,-0.09802735596895218,1.1739755571440726,0.019060276508605416,1.4734989940506211
1687007600.869046,0.9196918606758118,-0.03921505808830261,-0.39067769050598145,0.16374319791793823,0.14956659078598022,-0.029366135597229004,1.0393885374069214,-0.22018925845623016,0.4328252077102661,1.169101922451876,0.039225115459824364,1.4497888902947413
1687007600.962184,0.9132080674171448,-0.07563558220863342,-0.4004126787185669,0.042098939418792725,0.10307087004184723,0.07224202156066895,0.18481841683387756,-0.20611757040023804,0.3511107563972473,1.157573537829199,0.07570788674851432,1.4197341085886719
1687007600.9693189,0.9095589518547058,-0.08436128497123718,-0.40692245960235596,0.05140918493270874,0.2681381106376648,-0.013563930988311768,-0.06654023379087448,-0.17858083546161652,0.2482774555683136,1.150119694705512,0.0844616694745039,1.4357787096352659
1687007601.050307,0.905698299407959,-0.09570571780204773,-0.4129784107208252,0.026705384254455566,0.16926831007003784,0.02333003282546997,0.2999887466430664,-0.1164114773273468,0.1021314263343811,1.1429822879811122,0.09585242928318131,1.4323077061417389
1687007601.067738,0.9031738042831421,-0.10145528614521027,-0.4171138107776642,0.023843467235565186,0.07913165539503098,0.07714810967445374,0.0343131422996521,-0.08984696865081787,-0.07023834437131882,1.1381472690442174,0.1016301455221815,1.4217087588270838
1687007601.1039162,0.9029709696769714,-0.09463341534137726,-0.41915154457092285,0.014540135860443115,0.04080037772655487,0.015816092491149902,-0.0034588249400258064,0.003313950728625059,-0.11802809685468674,1.1362035184259922,0.0947752359328334,1.4229471648237504
1687007601.2026649,0.9043915867805481,-0.09129863977432251,-0.41682177782058716,0.0008665919303894043,-0.009775593876838684,0.0503515899181366,0.04865675047039986,0.05152178183197975,-0.08698229491710663,1.1389262384853232,0.09142595453579225,1.4177162714801876
1687007601.21961,0.9061902761459351,-0.08492138981819153,-0.4142555296421051,0.007231414318084717,-0.055398449301719666,0.03515103459358215,-0.22637596726417542,0.07325220108032227,-0.06189358979463577,1.1420209261282752,0.08502379198561517,1.4215007728091218
1687007601.254945,0.9087409973144531,-0.07982780039310455,-0.4096551835536957,-0.01268380880355835,-0.06342172622680664,0.009447753429412842,-0.14325885474681854,0.15215447545051575,-0.021603627130389214,1.1472821458266922,0.07991282971735655,1.4283212627073898
1687007601.348216,0.9121328592300415,-0.07594501972198486,-0.40279802680015564,-0.0011830329895019531,-0.05663861334323883,0.023525655269622803,-0.3584633469581604,0.1600266844034195,0.04556509107351303,1.154949615906192,0.07601821674711706,1.4413377374209817
1687007601.3551521,0.9148873090744019,-0.07309453934431076,-0.397037148475647,-0.00170975923538208,-0.05521664023399353,0.0007054805755615234,-0.4024563729763031,0.1893177181482315,0.1038527637720108,1.1613493905606707,0.07315978703838276,1.4594273225377892
1687007601.410538,0.9196915030479431,-0.06445412337779999,-0.3873157799243927,9.316205978393555e-05,-0.0695943757891655,0.024477124214172363,-1.083940863609314,0.3520708680152893,0.1389584243297577,1.1722025347462575,0.06449883079074697,1.494772125121048
1687007601.502358,0.9265012145042419,-0.05071975290775299,-0.3728580176830292,0.001370549201965332,0.005416367202997208,0.013589918613433838,-1.0838584899902344,0.41097670793533325,0.208499014377594,1.18819119945758,0.05074152340353026,1.5493168945880413
1687007601.52068,0.9359678030014038,-0.039463140070438385,-0.3498675227165222,0.04955184459686279,-0.09824744611978531,0.06713750958442688,-1.9449495077133179,0.664399266242981,0.3439399302005768,1.2130755231980095,0.039473391200359496,1.6184526358154911
1687007601.5528898,0.9469207525253296,-0.02095833234488964,-0.32078349590301514,0.01867079734802246,0.08152042329311371,0.05193901062011719,-1.8195106983184814,0.764974057674408,0.3673250079154968,1.2441653651092868,0.02095986672303312,1.720501902107387
1687007601.6525779,0.9588593244552612,-0.016835816204547882,-0.2833818793296814,0.0962706208229065,-0.04206313192844391,0.05424073338508606,-2.031743049621582,0.8210229277610779,0.6216282844543457,1.2834357120884639,0.01683661094533249,1.8141216662114907
1687007601.669441,0.9688593149185181,-0.023864910006523132,-0.24645943939685822,0.03573364019393921,0.04945385828614235,0.04534870386123657,-1.8642634153366089,0.8924684524536133,0.7235884666442871,1.3216986060889166,0.023867176045456944,1.9183826906395463
1687007601.703115,0.9772877097129822,-0.039878495037555695,-0.2081316113471985,0.07137280702590942,0.016242586076259613,0.01240721344947815,-1.607499122619629,0.813944399356842,0.8197537064552307,1.3609626018376475,0.03988907399418775,2.0130456138912587
1687007601.80332,0.9828353524208069,-0.06776398420333862,-0.17158949375152588,0.055464327335357666,0.022887833416461945,-0.00945591926574707,-1.4832080602645874,0.7757648825645447,0.8732475638389587,1.3979521902243854,0.06781595234450596,2.094269384898783
1687007601.82086,0.9849395155906677,-0.09897252172231674,-0.14176912605762482,-0.0162200927734375,0.026493236422538757,-0.019714519381523132,-0.8802015781402588,0.729748010635376,0.7632920145988464,1.4278412838782797,0.09913482194065888,2.160614708602026
1687007601.853428,0.9851394295692444,-0.12994734942913055,-0.11231207102537155,0.026457250118255615,-0.040371283888816833,-0.0654221698641777,-1.2413020133972168,0.6013644933700562,0.7207591533660889,1.4572801702576383,0.13031588619416412,2.212706612737905
1687007601.981293,0.9829015731811523,-0.158955380320549,-0.0929400697350502,-0.03433889150619507,0.06946253776550293,-0.061494044959545135,-0.7622264623641968,0.5640981793403625,0.6863831877708435,1.4765197932655014,0.15963249324835363,2.27047018568052
1687007601.989304,0.979413628578186,-0.18730150163173676,-0.07528044283390045,0.008333563804626465,-0.007064998149871826,-0.1144777461886406,-0.8406635522842407,0.38679057359695435,0.5895365476608276,1.4940843859441075,0.18841430106075072,2.312776381814019
1687007602.069944,0.9752517342567444,-0.2120455801486969,-0.06261890381574631,0.008787751197814941,0.08660300076007843,-0.06189275532960892,-0.4520267844200134,0.349179744720459,0.5540738105773926,1.5066764066292822,0.2136676712296877,2.346384693839307
1687007602.088351,0.9702178835868835,-0.23618747293949127,-0.05378568917512894,-0.02862846851348877,-0.01674230396747589,0.02668619155883789,-0.4777745306491852,0.36526408791542053,0.49441978335380554,1.5154163009446304,0.23844042945599497,2.3731876651828965
1687007602.157038,0.9647656679153442,-0.25932615995407104,-0.04446820542216301,0.06164735555648804,0.04049977660179138,-0.04114872217178345,-0.4367625415325165,0.18216048181056976,0.4749475419521332,1.5247366936752482,0.26232442272912254,2.3976641050458674
1687007602.173768,0.959665060043335,-0.2783699035644531,-0.0394112728536129,-0.007989645004272461,0.09305188059806824,0.06869298219680786,-0.07221369445323944,0.2949813902378082,0.3960684537887573,1.529751656098934,0.2820965127748639,2.4142225658617313
1687007602.245492,0.9553284049034119,-0.2938634157180786,-0.03149903565645218,0.06524056196212769,-0.0013484358787536621,0.019017457962036133,-0.6306910514831543,0.2528421878814697,0.23650288581848145,1.5378363216936446,0.29826622432062777,2.4345728413545173
1687007602.260407,0.9523702263832092,-0.30394482612609863,-0.0246744267642498,0.03409534692764282,0.04047125577926636,0.10568344593048096,-0.47200414538383484,0.41517695784568787,0.238927960395813,1.544893681723209,0.3088306708519085,2.4631482071700592
1687007602.336761,0.9493037462234497,-0.3141058683395386,-0.01264501828700304,0.05387002229690552,-0.007091701030731201,0.041407883167266846,-0.7986271977424622,0.49678465723991394,0.23737627267837524,1.5574768069985254,0.31951471023232225,2.498236901715705
1687007602.351342,0.945500910282135,-0.3256129324436188,-0.002109731547534466,0.030207157135009766,-0.008569866418838501,0.0343363881111145,-0.5536536574363708,0.4351974427700043,0.27042996883392334,1.568564993074072,0.33165991930555183,2.5365554627103615
1687007602.39676,0.9411252737045288,-0.337974488735199,0.007532023824751377,-0.023751556873321533,0.0133436918258667,-0.07390761375427246,-0.43051689863204956,0.2739713490009308,0.24682943522930145,1.5787993666989637,0.3447639097829125,2.56094710633287
1687007602.489907,0.9368720054626465,-0.3494814932346344,0.011557861231267452,-0.059079647064208984,-0.024938732385635376,-0.0686255693435669,-0.027589503675699234,0.06189541518688202,0.228372260928154,1.5831323498435517,0.357017634214677,2.5706188522407225
1687007602.506085,0.9324273467063904,-0.36118319630622864,0.011222181841731071,-0.07058048248291016,-0.03844451904296875,-0.050223469734191895,-0.01970166712999344,0.01799631305038929,0.3190733790397644,1.5828311946857159,0.3695364275528551,2.5714685387400613
1687007602.544523,0.9252691864967346,-0.3791717290878296,0.010292202234268188,-0.019553184509277344,-0.0012299120426177979,-0.08341217041015625,-0.1317889243364334,-0.006187054328620434,0.3940386474132538,1.5819193369108386,0.38890103570338647,2.5801958462265504
1687007602.637934,0.9163536429405212,-0.4001886248588562,0.012049694545567036,0.034253716468811035,-0.11862552165985107,0.03650379180908203,-0.0997147411108017,0.0785941481590271,0.5907958745956421,1.5839451801491222,0.4117226543095502,2.578549171265338
1687007602.653954,0.9025170803070068,-0.43039360642433167,0.014976061880588531,0.042993783950805664,-0.01835218071937561,0.0001912107691168785,0.00023435812909156084,0.10440897196531296,0.68507981300354,1.5873884643545562,0.44492879235107435,2.5849087011100553
1687007602.695078,0.8875229954719543,-0.4604700803756714,0.016451919451355934,0.06647193431854248,0.012426108121871948,-0.06170940399169922,-0.14286701381206512,-0.07136739045381546,0.6374843716621399,1.589331098286517,0.4785246900496904,2.589300440727563
1687007602.788038,0.8708775043487549,-0.4912683665752411,0.015095872804522514,0.023150205612182617,-0.029132694005966187,-0.01837635040283203,0.19873887300491333,-0.06527096778154373,0.7638493776321411,1.5881286850475733,0.5135453462047881,2.5811869260291633
1687007602.80492,0.8520976901054382,-0.5230937004089355,0.017401743680238724,-0.0014354586601257324,-0.041145920753479004,0.07105362415313721,0.14337725937366486,-0.03603363409638405,0.7453858852386475,1.5912157273255727,0.5504768518343701,2.567980933496032
1687007602.845491,0.8336844444274902,-0.5518747568130493,0.020120488479733467,-0.013341307640075684,0.09827667474746704,-0.04841017723083496,0.41376787424087524,-0.19613274931907654,0.5943539142608643,1.5949260616456735,0.5846106748176476,2.5553421552884608
1687007602.940597,0.8177168369293213,-0.5751497149467468,0.02328888699412346,-0.07906931638717651,0.08206182718276978,-0.0006142854690551758,0.37040355801582336,-0.022035080939531326,0.5714095234870911,1.5992690114690118,0.6127871178109365,2.5347176609074764
1687007602.9573421,0.8002513647079468,-0.5987577438354492,0.032969601452350616,0.007106423377990723,-0.02016925811767578,-0.04038525000214577,0.09878627210855484,0.013980621472001076,0.5626241564750671,1.611972099013131,0.6419492137477352,2.514083508862349
1687007602.994341,0.7854812145233154,-0.6178938150405884,0.03502718731760979,0.06423503160476685,0.08493471145629883,-0.0945669412612915,0.28814035654067993,-0.2268463671207428,0.427573561668396,1.615360087256514,0.6660611082805409,2.5009534195847705
1687007603.069347,0.7726134657859802,-0.6338049173355103,0.036880604922771454,0.02510082721710205,0.0650181770324707,-0.0935211181640625,0.3819754719734192,-0.28014299273490906,0.4645085036754608,1.6184949946408502,0.6864624805117192,2.4734621759972497
1687007603.1820889,0.7572216391563416,-0.6522617340087891,0.034213751554489136,0.04542136192321777,-0.07036411762237549,0.0017970837652683258,-0.153893381357193,-0.027380134910345078,0.47393953800201416,1.6159488924434835,0.7105644869199244,2.4676650982080313
1687007603.1899052,0.7419489026069641,-0.6695019602775574,0.035761814564466476,0.04973804950714111,-0.025490164756774902,0.07921326160430908,0.18572983145713806,-0.07594446837902069,0.4624095857143402,1.6189588854174215,0.7335380862629213,2.457896708865157
1687007603.274049,0.7264673709869385,-0.6861149668693542,0.03861759230494499,0.024173438549041748,-0.05961257219314575,-0.009915713220834732,0.04546380043029785,-0.012737009674310684,0.46606674790382385,1.6239043937805284,0.7561352363424565,2.44953556634526
1687007603.293406,0.7083247900009155,-0.7049185633659363,0.03696112707257271,0.004611670970916748,0.002983689308166504,0.009959697723388672,0.07456060498952866,-0.08472482860088348,0.5958164930343628,1.6229300860604372,0.7823083376988389,2.447965636689605
1687007603.357543,0.6876232624053955,-0.7251518368721008,0.03645632043480873,-0.07434201240539551,-0.14932942390441895,-0.04095757380127907,-0.3394983410835266,-0.02265612967312336,0.5494722127914429,1.6237646061102753,0.8112548539907662,2.4402076559144303
1687007603.373118,0.665467381477356,-0.7460469603538513,0.023821478709578514,0.009352624416351318,0.11167794466018677,0.033246517181396484,0.24836844205856323,-0.15300677716732025,0.7425442934036255,1.6065776621902983,0.8421056990970731,2.459326075271081
1687007603.446949,0.6388723850250244,-0.7691212892532349,0.017169371247291565,-0.013063609600067139,-0.1735668182373047,0.01591181755065918,-0.542175829410553,-0.20882466435432434,0.6107856035232544,1.597664351091512,0.8774650694596929,2.456259726282871
1687007603.462153,0.615821361541748,-0.7878732681274414,-0.004479529801756144,0.07457786798477173,0.12049949169158936,-0.009863615036010742,-0.1522194892168045,-0.2685244083404541,0.6149579286575317,1.563522381272065,0.9073479173386502,2.4833981074818876
1687007603.5345302,0.592976987361908,-0.8049684762954712,-0.020101595669984818,0.18540430068969727,0.2013918161392212,-0.1648043394088745,-0.10086824744939804,-0.24163329601287842,0.5170891284942627,1.5369098514979396,0.9356223458473221,2.498957854194434
1687007603.549041,0.5761667490005493,-0.816404402256012,-0.038938380777835846,0.10374975204467773,0.37052708864212036,-0.043886248022317886,-0.6260490417480469,-0.18918652832508087,0.33033695816993713,1.5033171411460708,0.9551569644812523,2.5281121034500753
1687007603.5942779,0.5595925450325012,-0.826225757598877,-0.06486143171787262,-0.061149001121520996,-0.10541480779647827,0.021145112812519073,-0.2550753951072693,0.008262548595666885,0.4408223330974579,1.4554029349295,0.9723746668400416,2.574628448494047
1687007603.723594,0.541573166847229,-0.8370909094810486,-0.07731637358665466,0.04587501287460327,0.07714194059371948,0.00859086960554123,-0.5179045796394348,-0.3396615982055664,0.2775059938430786,1.42899196317186,0.9919436992373989,2.60083436694179
1687007603.7421288,0.539743185043335,-0.8356677293777466,-0.10167044401168823,-0.09252333641052246,-0.04384893178939819,0.14083987474441528,0.07394120842218399,-0.45343485474586487,-0.03757406771183014,1.3846097948158589,0.9893474120161817,2.6324899613305828
1687007603.839912,0.5365249514579773,-0.8355023264884949,-0.11864575743675232,-0.01044774055480957,0.13558167219161987,0.08399315178394318,-0.10439711064100266,-0.38294899463653564,0.21055397391319275,1.353161341285119,0.9890463088963001,2.6417450817694266
1687007603.857788,0.5326175093650818,-0.8343167901039124,-0.14224717020988464,0.010656416416168213,0.0422634482383728,0.05879694223403931,-0.33683067560195923,-0.21292807161808014,0.10100331902503967,1.309815658483553,0.986892330499286,2.676730184708909
1687007603.9301271,0.5228419303894043,-0.8376020789146423,-0.15830031037330627,-0.09037739038467407,-0.001417696475982666,-0.10399816930294037,-0.19235976040363312,-0.2690533995628357,0.20339174568653107,1.276801149771167,0.9928788139817036,2.7012876080091743
1687007603.94551,0.511756420135498,-0.8409750461578369,-0.17568877339363098,-0.013663709163665771,0.05693256855010986,0.039626240730285645,-0.18644466996192932,-0.34912168979644775,0.18844467401504517,1.240097862008079,0.999082735462943,2.7259456303637
1687007603.948534,0.504271924495697,-0.841990053653717,-0.19173675775527954,-0.020537734031677246,-0.01492851972579956,0.05776461958885193,-0.04875551164150238,-0.3860307037830353,0.047432564198970795,1.2074527921352485,1.0009613776378703,2.743130371040628
1687007603.982563,0.4990386962890625,-0.8427450060844421,-0.20184488594532013,0.03541561961174011,-0.014661669731140137,-0.03330819308757782,-0.035159941762685776,-0.31716641783714294,0.015419838950037956,1.186444697994932,1.0023623057753417,2.746985748169801
1687007604.0777159,0.4953913688659668,-0.8439589142799377,-0.2057206630706787,0.04624989628791809,-0.016652166843414307,-0.04105961322784424,0.10107752680778503,-0.28768521547317505,0.01384417898952961,1.177196723607056,1.0046213353820266,2.7393231028910474
1687007604.094449,0.49392515420913696,-0.8433994650840759,-0.211460679769516,-0.0063152313232421875,0.006668269634246826,0.06096330285072327,0.05357738584280014,-0.2348334640264511,-0.031336214393377304,1.1662835177590314,1.0035792526002318,2.7365093999409456
1687007604.132553,0.49244746565818787,-0.8432633280754089,-0.21541213989257812,0.004760146141052246,-0.037107765674591064,-0.013652652502059937,0.01523563452064991,-0.16271071135997772,-0.01535491831600666,1.158443198774754,1.0033259170092201,2.7338759448990233
1687007604.227902,0.4921087324619293,-0.843426525592804,-0.21554721891880035,0.019793063402175903,-0.0045958757400512695,-0.008634820580482483,0.044940222054719925,-0.07198994606733322,-0.029251491650938988,1.1579601530412074,1.0036295729664257,2.726990891109048
1687007604.244841,0.49302637577056885,-0.8429482579231262,-0.21532200276851654,-1.4841556549072266e-05,-0.028572916984558105,-0.011011570692062378,0.02275617979466915,-0.008616656064987183,-0.03025377355515957,1.1590279453952228,1.0027400488968476,2.7244725430194268
1687007604.28297,0.49456581473350525,-0.8427095413208008,-0.21270975470542908,0.003465801477432251,0.0006532073020935059,-0.017224833369255066,0.06567799299955368,0.017154309898614883,-0.044577986001968384,1.1646189881102282,1.0022964278850863,2.7182684249118187
1687007604.3778071,0.4958997964859009,-0.8429892063140869,-0.2084532380104065,-0.003239274024963379,-0.008481860160827637,0.02553093433380127,0.12044829875230789,0.009318225085735321,-0.014603574760258198,1.1728678444111502,1.0028160782656605,2.7084080894862006
1687007604.394463,0.4972071647644043,-0.8427079916000366,-0.2064666748046875,0.007431507110595703,-0.00764918327331543,0.008712828159332275,0.09150306135416031,-0.003927006386220455,-0.041251763701438904,1.1772105192314168,1.002293553770854,2.7033887050087237
1687007604.466919,0.498860627412796,-0.8433703184127808,-0.19966170191764832,-0.008031129837036133,0.011964619159698486,-0.012511670589447021,0.11789410561323166,-0.015450682491064072,-0.03748565539717674,1.1900870002310435,1.0035250385873482,2.6881917223158958
1687007604.569776,0.5006527304649353,-0.8429792523384094,-0.19680708646774292,0.0036503076553344727,-0.019600212574005127,-0.01254338026046753,0.06217864155769348,-0.014911126345396042,-0.05634216591715813,1.1962514582704722,1.0027975961156135,2.680116509638388
1687007604.5872731,0.5019388794898987,-0.8424917459487915,-0.1956155002117157,-0.005478858947753906,0.006981372833251953,0.0015085339546203613,0.06534677743911743,-0.044741638004779816,-0.04966462031006813,1.1991834978264035,1.0018920614335836,2.674245499211854
1687007604.643561,0.5032361149787903,-0.8423939347267151,-0.19268079102039337,-0.0014661550521850586,-0.0029429197311401367,-0.01488444209098816,0.07871522754430771,-0.039943866431713104,-0.03019198775291443,1.2051320820876597,1.001710505379981,2.6644789388386063
1687007604.6586409,0.5042290091514587,-0.8421021699905396,-0.1913566142320633,0.0008826851844787598,0.0069427490234375,-0.02035897970199585,0.019501306116580963,0.011861277744174004,-0.02449968084692955,1.2080833551383003,1.001169257703458,2.660076553151311
1687007604.7348561,0.5047391057014465,-0.8418301343917847,-0.191208153963089,0.004400849342346191,0.009371578693389893,-0.015578851103782654,0.03414660692214966,-0.002496534027159214,-0.02772829867899418,1.2086758474198975,1.0006650733338427,2.6591920773352187
1687007604.7403522,0.5059049129486084,-0.8414981961250305,-0.18958188593387604,0.0026552677154541016,-0.009026825428009033,0.005576193332672119,0.03677359223365784,-0.03159334138035774,-0.022635068744421005,1.2122552071545405,1.0000503733223702,2.6539059807554026
1687007604.832479,0.5068452954292297,-0.8409961462020874,-0.18929751217365265,0.0007688403129577637,0.012108147144317627,-0.003359854221343994,0.07305867224931717,-0.03351978585124016,-0.026651713997125626,1.2133573307732948,0.9991218019070541,2.6498918458044876
1687007604.840386,0.5072196125984192,-0.8411592841148376,-0.1875620186328888,0.0014321208000183105,-0.008557021617889404,-0.023238062858581543,0.044402483850717545,-0.014685200527310371,-0.026661502197384834,1.2166058591145916,0.9994233341533466,2.644429909412906
1687007604.889313,0.5084623098373413,-0.8407730460166931,-0.18592168390750885,-0.0010312199592590332,0.01624906063079834,-0.004370629787445068,0.06875500828027725,-0.005063910037279129,-0.03293624520301819,1.2202437662582584,0.9987095801039844,2.6395689746686206
1687007604.9484181,0.5107325315475464,-0.8410524725914001,-0.17827816307544708,-0.006063401699066162,0.03343522548675537,-0.06439749896526337,0.2881860136985779,0.0012160013429820538,-0.12067754566669464,1.2349559067619786,0.9992258858333211,2.6209432374641897
1687007605.0763822,0.5210434794425964,-0.8392075300216675,-0.15570710599422455,-0.06631624698638916,0.15419459342956543,0.08188515901565552,0.5545322895050049,0.1395626962184906,-0.41233956813812256,1.2804067637783123,0.9958243013908252,2.5685034643424762
1687007605.131068,0.5471464991569519,-0.822892427444458,-0.15322837233543396,-0.013714492321014404,0.11871445178985596,0.09040802717208862,-0.28524866700172424,0.25977325439453125,-0.7467941045761108,1.2977412631710767,0.9664829284317444,2.560415111998392
1687007605.146412,0.6152130961418152,-0.7786698341369629,-0.12323404848575592,0.08096927404403687,0.4836866855621338,-0.09365428984165192,0.9932913780212402,-0.02565040998160839,-1.8245218992233276,1.373101582242816,0.8925429887575457,2.4767140305183477
1687007605.221591,0.6913070678710938,-0.7153295278549194,-0.10197130590677261,0.039115846157073975,-0.12832891941070557,-0.012011691927909851,-0.24815547466278076,0.3518749475479126,-2.705430746078491,1.4243472946644102,0.7970955921340835,2.424051051367388
1687007605.236724,0.7791523337364197,-0.6182265281677246,-0.1035257875919342,0.07819318771362305,0.20292800664901733,-0.02794383466243744,-0.1022096797823906,0.051704563200473785,-2.710103750228882,1.438700296998383,0.6664843756080758,2.4112349889470392
1687007605.2400122,0.8484557271003723,-0.5192806720733643,-0.10232590138912201,0.12043166160583496,-0.16886025667190552,-0.13459718227386475,0.19329772889614105,-0.2082710862159729,-2.8958046436309814,1.450773476022173,0.5460090505634914,2.374501059859755
1687007605.274354,0.9131501913070679,-0.38441792130470276,-0.13557122647762299,0.061016619205474854,0.17314472794532776,-0.15214835107326508,0.179443359375,-0.6578298807144165,-2.903662919998169,1.4234075244023623,0.3945772195608786,2.3719996899024642
1687007605.373335,0.9542196393013,-0.2531634569168091,-0.15929047763347626,0.022907495498657227,-0.1115674376487732,0.16510415077209473,0.6457193493843079,-0.4914332926273346,-2.7303571701049805,1.4053888112134096,0.25594884681364777,2.327324457773859
1687007605.3890018,0.9761182069778442,-0.13277201354503632,-0.17194485664367676,0.03170967102050781,-0.25963830947875977,-0.2053438425064087,0.5905349254608154,-0.5026029348373413,-2.6357409954071045,1.3964334262782931,0.13316523912286038,2.2726202457503404
1687007605.426373,0.9808835387229919,-0.02790023200213909,-0.19258515536785126,-0.05046361684799194,-0.13913775980472565,0.21921183168888092,2.113750457763672,-0.21491016447544098,-2.122931480407715,1.376923951548407,0.02790385356217256,2.186519491306674
1687007605.526116,0.9757055640220642,0.05256818234920502,-0.2126866579055786,0.23645275831222534,-0.3270890712738037,-0.18819212913513184,1.243727445602417,-0.7628722190856934,-1.8725019693374634,1.3561712669947623,-0.0525924233717993,2.098119457447666
1687007605.542595,0.9587700963020325,0.10353400558233261,-0.26465198397636414,0.0718085765838623,-0.1337311863899231,0.3178137242794037,3.013958692550659,-0.6003923416137695,-1.140505075454712,1.3014702014720656,-0.10371987064437083,1.9634973015307144
1687007605.574689,0.9430416226387024,0.11184711754322052,-0.3133097290992737,0.11431628465652466,-0.2237550914287567,-0.010100185871124268,1.3742998838424683,-0.90877366065979,-0.59941565990448,1.2500362395935898,-0.11208163917789372,1.8557455002318815
1687007605.637792,0.9258460998535156,0.10674723982810974,-0.3625107705593109,-0.03979867696762085,0.04448259621858597,0.12563344836235046,2.5907721519470215,-0.6410999298095703,-0.5765838623046875,1.1975995946294582,-0.10695101490548431,1.7471763069666888
1687007605.764307,0.9075532555580139,0.07599857449531555,-0.4130028784275055,-0.07997751235961914,0.05994194746017456,0.16797736287117004,3.313877582550049,-0.709129810333252,-0.5924572944641113,1.1437318038217053,-0.0760719217884994,1.601591734923989
1687007605.782909,0.8937303423881531,0.0033492392394691706,-0.4485921561717987,0.2677992582321167,0.15074925124645233,0.17365938425064087,6.358461856842041,-0.8604024052619934,-0.3132275640964508,1.105604050339908,-0.0033492454262902603,1.3877594747009865
1687007605.849537,0.8776114583015442,-0.14099042117595673,-0.4581703245639801,0.09809666872024536,-0.12474140524864197,0.11036157608032227,5.04273796081543,-0.4945208728313446,0.08890663832426071,1.0896528404025367,0.14146175694823793,1.1024918286868273
1687007605.855319,0.8683164119720459,-0.23034651577472687,-0.4392804801464081,0.029404044151306152,0.12275677919387817,0.037394583225250244,3.3960132598876953,-0.09263139963150024,0.2179977148771286,1.1024406020375572,0.23243376154127907,0.9358701478513881
1687007605.9427671,0.8622095584869385,-0.29742780327796936,-0.41003841161727905,0.0274541974067688,-0.11372023820877075,-0.010737866163253784,1.2740952968597412,0.02980015240609646,0.2630264461040497,1.1268854869969618,0.30199740859205604,0.8188851425833943
1687007605.9593,0.8620632886886597,-0.31315767765045166,-0.39847099781036377,0.019406497478485107,0.15600737929344177,-0.19590449333190918,0.6816546320915222,0.05644179508090019,0.16405658423900604,1.1378191088922456,0.3185161243452223,0.8053308108278011
1687007606.028728,0.8532251119613647,-0.367605984210968,-0.36996328830718994,0.06228703260421753,0.11302834749221802,-0.07927057147026062,3.420429229736328,-0.5182406902313232,0.05192318931221962,1.161659182480463,0.37643344048804644,0.6895167474429691
1687007606.043802,0.8392416834831238,-0.4379969537258148,-0.3222303092479706,0.07738453149795532,0.26305487751960754,-0.21155253052711487,4.57640266418457,-0.8605494499206543,0.2688760757446289,1.2041986458764455,0.4533693178390973,0.5077933277568704
1687007606.1251678,0.8210607767105103,-0.5162603259086609,-0.2435874193906784,-0.0343632698059082,-0.1581629514694214,0.07229232788085938,4.042456150054932,-0.8858782052993774,0.2617950737476349,1.2823936454972036,0.5424785685051965,0.24862126930557857
1687007606.1398358,0.8037938475608826,-0.566986620426178,-0.1801164448261261,0.04222977161407471,0.1494603157043457,-0.03866398334503174,3.6938109397888184,-0.8658691644668579,0.2680237889289856,1.3503549760311298,0.602842987502555,0.04698446883839146
1687007606.207961,0.7906765937805176,-0.5991911292076111,-0.12570156157016754,-0.05118966102600098,-0.1479097604751587,0.0885922759771347,1.8203575611114502,-0.5367284417152405,0.27878230810165405,1.4131360164800737,0.6424903784523628,-0.1233293063001354
1687007606.221362,0.7801560163497925,-0.6184594035148621,-0.09415246546268463,0.032511889934539795,0.027852773666381836,0.042944081127643585,1.5626226663589478,-0.4387471079826355,0.24573713541030884,1.450693018542092,0.6667806847181826,-0.22210359874253618
1687007606.2660909,0.7727442979812622,-0.6316000819206238,-0.06283317506313324,-0.013329386711120605,-0.030494093894958496,0.07061522454023361,1.2948956489562988,-0.385782927274704,0.1495627909898758,1.4896630913024798,0.6836153467895726,-0.31809128678533494
1687007606.327872,0.7674540877342224,-0.6394869089126587,-0.045506130903959274,0.009233593940734863,-0.04406106472015381,0.05586696043610573,0.544732928276062,-0.13908198475837708,0.14646194875240326,1.5115707496250856,0.6938306800200469,-0.373259354242029
1687007606.426858,0.7632761597633362,-0.6452491879463196,-0.0326063446700573,-0.002121865749359131,0.00105363130569458,0.07386618852615356,0.3491343855857849,-0.027824262157082558,0.10934939980506897,1.5281033486281246,0.7013494364403456,-0.4056331368900511
1687007606.444699,0.7606863379478455,-0.6486033797264099,-0.025884490460157394,0.02228790521621704,0.03709214925765991,0.02737993374466896,0.07692070305347443,0.0735660120844841,0.0342346727848053,1.5367816411936983,0.7057480482471825,-0.41716501295465724
1687007606.508995,0.7601114511489868,-0.6493557095527649,-0.023825330659747124,0.016728758811950684,0.021502375602722168,-0.0006802044808864594,-0.07580137252807617,0.07014642655849457,0.030198516324162483,1.5394620644662729,0.7067369518836977,-0.41387066186487403
1687007606.523477,0.7597205638885498,-0.6499361991882324,-0.020201144739985466,-0.0013279914855957031,0.010455489158630371,-0.019624175503849983,0.15565891563892365,-0.011207201518118382,0.008319985121488571,1.5442123620165042,0.7075004455552851,-0.41953676426134523
1687007606.565788,0.7604077458381653,-0.6492667198181152,-0.015267099253833294,0.022093594074249268,0.016347408294677734,-0.05243605375289917,0.2961976230144501,-0.050038840621709824,0.031704336404800415,1.5507215065729962,0.7066198945766808,-0.4318631767519874
1687007606.630022,0.7596710324287415,-0.6500954627990723,-0.01661684177815914,0.0011323094367980957,-0.05193096399307251,-0.00894153118133545,-0.0942004844546318,-0.02258671075105667,0.02972494252026081,1.5489260811938859,0.707710027205086,-0.43336556278444954
1687007606.72613,0.7583132386207581,-0.6517775654792786,-0.012134776450693607,0.009631216526031494,-0.0036179423332214355,-0.012279212474822998,0.17592717707157135,-0.10272779315710068,0.03456810116767883,1.5547953652091846,0.7099259002544714,-0.44891539823505505
1687007606.743233,0.7574140429496765,-0.6525750160217285,-0.02167615480720997,0.007737994194030762,0.03738647699356079,-0.011755762621760368,-0.1673647165298462,-0.003756564110517502,0.018351245671510696,1.5421855029064426,0.7109778718138658,-0.4336918422109625
1687007606.8104491,0.7567549347877502,-0.6534016728401184,-0.019704284146428108,0.017949044704437256,0.015523254871368408,0.013371946290135384,0.09140098094940186,-0.08267153054475784,0.008343087509274483,1.544764341687712,0.7120693531196527,-0.44180319275164653
1687007606.825284,0.7568652033805847,-0.6530919671058655,-0.025017771869897842,0.005753815174102783,0.020569443702697754,-0.011114953085780144,-0.0852593258023262,-0.04075799137353897,-0.01519093383103609,1.537753896299691,0.7116602535044109,-0.43543744916098215
1687007606.86726,0.7572391629219055,-0.6526292562484741,-0.025770755484700203,0.017510712146759033,0.007014632225036621,0.008726775646209717,-0.012128212489187717,-0.04981078580021858,-0.01058819331228733,1.536776939563839,0.7110494078039259,-0.43661630465234613
1687007606.9630408,0.7581236958503723,-0.6513603329658508,-0.03127539902925491,-0.0042479634284973145,0.01194077730178833,-0.0010883770883083344,-0.09364744275808334,-0.029843471944332123,-0.022886738181114197,1.5295660150585348,0.7093758894275995,-0.4275746754095842
1687007606.979198,0.7586509585380554,-0.6508162021636963,-0.02978634648025036,0.0066689252853393555,0.0013868212699890137,-0.0013415217399597168,0.09875893592834473,-0.07090586423873901,-0.011547396890819073,1.5315542283634953,0.7086589709853749,-0.43356411282822294
1687007607.015713,0.7591149806976318,-0.6501665115356445,-0.03206243738532066,0.0013677477836608887,-0.011317253112792969,0.014621738344430923,-0.10684819519519806,-0.01827896013855934,-0.017580123618245125,1.5285848151580765,0.7078035538985781,-0.43280023473017715
1687007607.1108541,0.7594413161277771,-0.6498063802719116,-0.03163589537143707,-0.0014150738716125488,0.011271834373474121,0.01712489128112793,0.07192691415548325,0.01375123392790556,0.003306051017716527,1.5291635963504115,0.7073297047515038,-0.43240098305201263
1687007607.126875,0.7593672275543213,-0.650006115436554,-0.029217610135674477,0.0021227002143859863,-0.01094365119934082,0.01888751983642578,-0.0594073124229908,0.046302430331707,-0.0031784800812602043,1.5323390402226422,0.7075924537945091,-0.4339584381626884
1687007607.1658149,0.7598379254341125,-0.649502694606781,-0.028161000460386276,0.004734456539154053,-0.001757800579071045,0.020821627229452133,-0.04390744864940643,0.06817470490932465,0.0005363634554669261,1.5337514303195812,0.7069301895685849,-0.4307152813248036
1687007607.260892,0.7591760754585266,-0.6504245400428772,-0.024493345990777016,0.0015205144882202148,-0.028164446353912354,0.015933271497488022,-0.14048662781715393,0.09519052505493164,0.01345788687467575,1.5385444503287597,0.7081432061290431,-0.43051856020287516
1687007607.275501,0.759357213973999,-0.6500781774520874,-0.027839548885822296,0.007503807544708252,0.020164906978607178,-0.0114212017506361,-0.1815144419670105,0.09781116247177124,-0.005419996101409197,1.5341507462562576,0.7076873222189844,-0.41426992227695625
1687007607.318013,0.7595030665397644,-0.6498490571975708,-0.029181061312556267,0.0026735663414001465,-0.0035933256149291992,-0.005044281482696533,-0.3074421286582947,0.1026182547211647,-0.016598481684923172,1.5323939592970812,0.707385860429995,-0.40338322449951636
1687007607.412504,0.7602108120918274,-0.6486815810203552,-0.03594342991709709,0.004407227039337158,0.0179290771484375,-0.025930877774953842,-0.24426184594631195,0.05952209606766701,-0.014531401917338371,1.5235506372362384,0.7058507908156096,-0.38340227104995867
1687007607.4284282,0.7609719038009644,-0.6476329565048218,-0.03864571452140808,0.005416154861450195,0.007511496543884277,-0.011723458766937256,-0.060593925416469574,0.0073288436979055405,-0.026330670341849327,1.5200552382568202,0.7044737838363954,-0.3760484183082648
1687007607.465702,0.7618722319602966,-0.6464322209358215,-0.04094705358147621,0.004210829734802246,-0.0003879666328430176,-0.0027845539152622223,-0.077870212495327,0.002362403552979231,-0.020351074635982513,1.517102683225603,0.7028989176168146,-0.3731181330082612
1687007607.561802,0.763107180595398,-0.644744336605072,-0.04440905526280403,0.01103222370147705,0.012557446956634521,0.0033782757818698883,-0.05477239191532135,0.030118046328425407,-0.016539493575692177,1.5126668452094865,0.7006887342045883,-0.3648833328049147
1687007607.5773091,0.7641410231590271,-0.6433038711547852,-0.04742015153169632,-0.0020865201950073242,-0.01877492666244507,0.006129983812570572,-0.32159170508384705,0.08990947157144547,-0.04320206493139267,1.5088189943393053,0.6988058485436023,-0.35546674977847886
1687007607.616293,0.7665991187095642,-0.6392274498939514,-0.060941968113183975,-0.0023474693298339844,-0.02724587917327881,0.013258349150419235,-0.9701436758041382,0.21110202372074127,-0.09131672233343124,1.4914666359335633,0.6934932705830887,-0.316706070572744
1687007607.68062,0.7737907767295837,-0.6221726536750793,-0.11895057559013367,-0.03456336259841919,-0.17543476819992065,0.05796128511428833,-3.8144750595092773,0.5933035612106323,-0.2180423140525818,1.4182658731854887,0.6715148317921366,-0.1716400309617042
1687007607.776639,0.7881578207015991,-0.5757278203964233,-0.21758851408958435,-0.0009263157844543457,-0.031892359256744385,0.12272472679615021,-4.930856704711914,1.106827974319458,-0.251822292804718,1.3014335147643794,0.6134940072346197,0.0951861129844869
1687007607.794354,0.812936007976532,-0.48565006256103516,-0.3213706612586975,-0.027215182781219482,-0.13132381439208984,0.17841121554374695,-7.07498025894165,1.6091488599777222,-0.23431836068630219,1.19433008290942,0.5071066633619727,0.4228381018693762
1687007607.825634,0.8466601371765137,-0.35213518142700195,-0.3989580571651459,0.0895581841468811,0.06960344314575195,0.14773747324943542,-6.5344648361206055,1.681718111038208,0.1325901448726654,1.13044160234326,0.3598514237216213,0.7778436342060658
1687007607.923142,0.8739196062088013,-0.2495347559452057,-0.41712936758995056,0.06148993968963623,0.018928661942481995,0.1332549750804901,-5.373444557189941,1.5536620616912842,0.3922439515590668,1.1254660637569136,0.2521997796278764,1.0530402765427869
1687007607.940312,0.9034882187843323,-0.14824225008487701,-0.40216103196144104,0.07839971780776978,-0.010189786553382874,0.0874028205871582,-5.853135585784912,1.584871530532837,0.412848562002182,1.1520076702585142,0.14879064256836874,1.3221353332713621
1687007608.017006,0.9282107353210449,-0.08033940941095352,-0.3632774353027344,0.062145769596099854,0.09980960935354233,0.09939208626747131,-4.118931770324707,1.4250657558441162,0.7200449109077454,1.1977483151685073,0.08042608421806821,1.5657349331307702
1687007608.0323858,0.9493346810340881,-0.05215955898165703,-0.30990833044052124,0.06629037857055664,-0.04397084191441536,0.02820071578025818,-3.8065526485443115,1.3350626230239868,0.7583072781562805,1.255255387560953,0.05218323849692072,1.7557207364216765
1687007608.105606,0.9647862911224365,-0.04351917281746864,-0.25941002368927,0.06292372941970825,0.11218369007110596,0.022120743989944458,-3.015343427658081,1.1375354528427124,1.029556393623352,1.3081303491095464,0.04353292060997466,1.9371872433182598
1687007608.11873,0.9749491214752197,-0.06286673247814178,-0.21335920691490173,0.012386202812194824,-0.00045727193355560303,0.046168744564056396,-2.3776018619537354,1.131491780281067,0.9996126294136047,1.355351424630968,0.06290821531635844,2.0730083487244944
1687007608.155384,0.9817588925361633,-0.09091826528310776,-0.16698384284973145,0.07741475105285645,-0.007348395884037018,0.02104884386062622,-2.545954465866089,1.0839043855667114,1.1138100624084473,1.402322190832869,0.09104399107030285,2.2050825490917556
1687007608.220437,0.9831758141517639,-0.1303686499595642,-0.12794317305088043,0.04091787338256836,0.03526057302951813,0.028684869408607483,-1.987516164779663,1.013460636138916,1.1510565280914307,1.4413909806310623,0.13074079717646225,2.3214383100081295
1687007608.344996,0.9797852635383606,-0.17567427456378937,-0.0957057848572731,0.06475520133972168,0.006118550896644592,0.05827605724334717,-1.854142427444458,0.9217362999916077,1.1350880861282349,1.473424864695026,0.17659065723064515,2.4277848666576234
1687007608.363081,0.9722130298614502,-0.22464261949062347,-0.06586030125617981,0.020340681076049805,-0.004346072673797607,0.13890421390533447,-1.2715860605239868,0.9509773254394531,1.1319912672042847,1.5031570010666213,0.22657626715014112,2.5059001949779924
1687007608.427685,0.960496723651886,-0.27539822459220886,-0.040027081966400146,0.05241227149963379,-0.003044217824935913,0.05920743942260742,-1.1253129243850708,0.8298968076705933,1.161719560623169,1.5291471104731371,0.279003933420271,2.5793912700185277
1687007608.441698,0.9440325498580933,-0.32948678731918335,-0.015534372068941593,0.04299759864807129,-0.009731411933898926,0.02613931894302368,-0.536281406879425,0.6687080264091492,1.167341947555542,1.5543424757950808,0.3357599556249208,2.625150295478347
1687007608.524627,0.9209731817245483,-0.3895209729671478,0.009053857997059822,0.11692970991134644,-0.14583370089530945,0.010202884674072266,-0.5092072486877441,0.5865352153778076,1.4006402492523193,1.5806267611658567,0.40011143215773093,2.6475148087922946
1687007608.539503,0.889533281326294,-0.45625510811805725,0.02371012605726719,0.15439695119857788,-0.1349925696849823,-0.14394927024841309,0.24206757545471191,0.1394834965467453,1.592103123664856,1.5974445854970212,0.47378218860965476,2.6488142134929094
1687007608.616749,0.8478128910064697,-0.5295257568359375,0.02856873907148838,0.1667441725730896,0.06983935832977295,-0.17738759517669678,0.860771119594574,-0.35881319642066956,1.8610835075378418,1.604480566637924,0.5580414086909711,2.625548869527183
1687007608.631279,0.7940807938575745,-0.6069949269294739,0.03151344135403633,0.012300431728363037,-0.1532895565032959,-0.15730679035186768,0.4040071368217468,-0.5588369369506836,1.8928956985473633,1.610460949597786,0.6522737400796589,2.570962568358399
1687007608.696037,0.7371347546577454,-0.6753811836242676,0.02219359576702118,0.06030476093292236,0.3011440634727478,-0.15500593185424805,1.0440932512283325,-0.9997249841690063,1.7239494323730469,1.6008951551033634,0.7414814455400047,2.527180192221961
1687007608.794872,0.6805707812309265,-0.7326501607894897,0.006873699836432934,0.11393910646438599,0.07105952501296997,-0.06327009201049805,0.024400947615504265,-1.2184576988220215,1.5230042934417725,1.580895887853838,0.822207666304192,2.4765737909679135
1687007608.8170838,0.6236444115638733,-0.7815061211585999,-0.017776863649487495,0.06263488531112671,0.2709317207336426,-0.3232264518737793,0.5728113055229187,-1.1215285062789917,1.4894912242889404,1.5422992350525557,0.8970762294246812,2.452186282010652
1687007608.8747802,0.5798236131668091,-0.8144255876541138,-0.022710349410772324,-0.016636967658996582,0.9609403610229492,0.4498192071914673,0.4784051775932312,-0.539916455745697,0.9260900020599365,1.5316486530647084,0.9517385825237922,2.4152215452770527
1687007608.8888988,0.5594781637191772,-0.8281493782997131,-0.03395290672779083,0.05844169855117798,-0.021109044551849365,-0.09498375654220581,-0.32215091586112976,-0.10205801576375961,0.13367170095443726,1.5101839261290109,0.9757978770295804,2.41677358577141
1687007608.9742641,0.5546084046363831,-0.8307254314422607,-0.04801206663250923,-0.17544269561767578,0.041784822940826416,0.06511729210615158,-0.41205188632011414,-0.01588096097111702,0.24589957296848297,1.484442311172562,0.9804095879903926,2.4528245229322927
1687007608.989087,0.5456503629684448,-0.8351140022277832,-0.06964641064405441,-0.048503756523132324,-0.0017544031143188477,-0.010263800621032715,-0.2491324245929718,-0.1391814947128296,0.14020371437072754,1.4438435256459174,0.9883399613470804,2.495297340882174
1687007609.0594301,0.5374377369880676,-0.8397023677825928,-0.07785053551197052,0.0667186975479126,-0.017414391040802002,0.08354217559099197,-0.20968097448349,-0.11448485404253006,0.1412627249956131,1.4269419320531396,0.9967348725340561,2.507248046481845
1687007609.07464,0.5318415760993958,-0.8422837853431702,-0.0877646952867508,0.004474282264709473,-0.03120565414428711,-0.09503548592329025,-0.04399994760751724,-0.17732417583465576,0.1170230284333229,1.4072498742645951,1.001506057938012,2.520291899449492
1687007609.152864,0.5249238610267639,-0.8460103869438171,-0.09338956326246262,0.001412808895111084,-0.0014628767967224121,0.047186076641082764,-0.10838879644870758,-0.09398028999567032,0.168036550283432,1.3947278751491687,1.0084573636262943,2.5277612002801386
1687007609.158862,0.5199397206306458,-0.8489574790000916,-0.0945199653506279,0.013599038124084473,0.016331076622009277,-0.035805217921733856,0.14610803127288818,-0.08398792892694473,0.10112928599119186,1.39096987186801,1.0140093647581119,2.5283825544473766
1687007609.2067208,0.5159595608711243,-0.8512836694717407,-0.09540402144193649,0.04145920276641846,-0.0035900473594665527,0.05289310961961746,0.10025393962860107,-0.12307390570640564,0.08117295056581497,1.3879554449573874,1.0184269218702175,2.524483165344685
1687007609.304003,0.5133477449417114,-0.8529520630836487,-0.0945889800786972,0.034610629081726074,0.01193326711654663,-0.037353694438934326,0.10101529210805893,-0.11586295068264008,0.012787703424692154,1.388581059325848,1.021614827896337,2.5180735208955216
1687007609.3127398,0.5119602680206299,-0.8540042638778687,-0.0925941914319992,-0.012082338333129883,-0.0162198543548584,0.02342623472213745,0.04666301980614662,-0.058885328471660614,0.04828697443008423,1.391868507955001,1.0236339308880282,2.508936307508692
1687007609.395313,0.5100104808807373,-0.8550145030021667,-0.09402016550302505,0.022658586502075195,-0.011242330074310303,0.0031999945640563965,0.0005588643252849579,-0.057547710835933685,0.026595860719680786,1.3884936299509318,1.0255787833912973,2.5092071297249716
1687007609.483173,0.5095488429069519,-0.8552910089492798,-0.09400739520788193,0.01358342170715332,-0.00765460729598999,0.014219291508197784,0.010758238844573498,-0.0657835379242897,-0.011334611102938652,1.388356341747007,1.026112197131708,2.5064687419888108
1687007609.501715,0.5100642442703247,-0.8550142645835876,-0.09373043477535248,0.011557459831237793,-0.004772841930389404,-0.011356770992279053,0.029525311663746834,-0.05098852515220642,-0.025324396789073944,1.3890618468773457,1.0255782982790755,2.502668124701023
1687007609.633655,0.5124393105506897,-0.853917121887207,-0.09072701632976532,-0.0017887353897094727,-0.010920464992523193,0.010450609028339386,0.07356192916631699,-0.06547550112009048,-0.05529627576470375,1.3955629710416786,1.023466504537806,2.491782139625653
1687007609.652381,0.5146710276603699,-0.8524426817893982,-0.09195419400930405,-0.008094429969787598,0.020350158214569092,0.00864129513502121,-0.010418418794870377,-0.013662279583513737,-0.05339963734149933,1.3939958670395494,1.0206397333891521,2.490972095130477
1687007609.726441,0.5162644386291504,-0.8516890406608582,-0.08998353779315948,0.02794027328491211,-0.010081708431243896,-0.003506958484649658,0.07208164781332016,-0.010014016181230545,-0.01865038089454174,1.3982325006394438,1.0191999536205492,2.486068866194148
1687007609.741688,0.5178160667419434,-0.8510147929191589,-0.08741132915019989,0.016378939151763916,-5.9545040130615234e-05,-0.02091073989868164,0.06945173442363739,-0.029734546318650246,-0.048515934497117996,1.4035652224784343,1.0179146933323424,2.479172691578465
1687007609.7450619,0.5206512212753296,-0.8494880199432373,-0.08539777994155884,0.015084922313690186,-0.003829360008239746,0.0014134645462036133,0.017298562452197075,-0.03316567465662956,-0.05922563746571541,1.408222820739514,1.0150141695135848,2.471919507227971
1687007609.807595,0.5232219099998474,-0.8478342294692993,-0.08611741662025452,-0.006315171718597412,0.015024662017822266,-0.01915287971496582,0.03528599813580513,-0.034752827137708664,-0.06378936767578125,1.4076682734481907,1.0118874805358176,2.4698089739990166
1687007609.8205261,0.5253821611404419,-0.8466809391975403,-0.0842922180891037,-0.0025244951248168945,0.002946138381958008,0.01622290164232254,0.038601987063884735,-0.004401670303195715,-0.04216263070702553,1.4117122536888962,1.0097162805333686,2.4638122849354334
1687007609.9020681,0.5277161598205566,-0.8450836539268494,-0.08572933077812195,0.02155447006225586,-0.0053803324699401855,0.005269885063171387,0.0013462721835821867,0.002186279743909836,-0.055308062583208084,1.409749737541011,1.006721591987219,2.465705988776008
1687007609.908046,0.5295854806900024,-0.8439115881919861,-0.08574800938367844,0.002412259578704834,-0.008978605270385742,-0.007620461285114288,-0.036655083298683167,-0.0043670497834682465,-0.04066067561507225,1.4102741023159728,1.0045331717083334,2.465345794134079
1687007609.991905,0.5305669903755188,-0.8431523442268372,-0.08713825047016144,-0.0065190792083740234,0.011578738689422607,0.009181201457977295,-0.009576726704835892,-0.004836564883589745,0.014156967401504517,1.4080134578686512,1.0031194599199045,2.46793882599738
1687007610.111895,0.5302265286445618,-0.8432325124740601,-0.08842609077692032,0.010026216506958008,0.0012981295585632324,0.017976336181163788,-0.025633547455072403,0.011942770332098007,0.0029939282685518265,1.405546721305453,1.0032686246045208,2.4706675466058687
1687007610.130825,0.5305318832397461,-0.842926561832428,-0.0895051658153534,0.007279455661773682,-0.002364814281463623,-0.02733130007982254,0.01160183921456337,-0.01289014145731926,-0.015586214140057564,1.4036617895153378,1.0026996942000694,2.472705154164338
1687007610.2043529,0.5306777358055115,-0.8428984880447388,-0.0888998731970787,0.00739288330078125,0.01515495777130127,0.004991896450519562,-0.0245079156011343,-0.016733258962631226,0.002070743590593338,1.4048161377752781,1.0026475099401548,2.4706966773503236
1687007610.2104402,0.5310350656509399,-0.8424965143203735,-0.09056278318166733,0.009858489036560059,-0.006441593170166016,0.004991650581359863,0.033242907375097275,-0.017547300085425377,-0.004848415032029152,1.4018812772082425,1.0019008372510407,2.4730696287194256
1687007610.2143002,0.5312513709068298,-0.8425716161727905,-0.0885745957493782,-0.0033887624740600586,0.0037499666213989258,-0.0028712227940559387,0.01810474693775177,0.009120618924498558,-0.0035599111579358578,1.405587765921531,1.0020403404649059,2.4683357989359846
1687007610.3523722,0.5315859317779541,-0.842373788356781,-0.08844830095767975,0.009536564350128174,-0.0006592273712158203,-0.00040353089570999146,0.005035993177443743,-0.009317688643932343,-0.010195311158895493,1.405921028953881,1.0016731385381583,2.4679604829299566
1687007610.361119,0.5327509641647339,-0.8416444063186646,-0.08838251978158951,0.0022832751274108887,0.006988465785980225,0.019733302295207977,0.04052053019404411,-0.025188442319631577,-0.04339061677455902,1.4063952799328647,1.000321082112832,2.4663903458842213
1687007610.412205,0.5356903672218323,-0.8398618102073669,-0.08756810426712036,0.014251649379730225,0.029208004474639893,0.011457383632659912,0.03529731184244156,0.0018898698035627604,-0.11922059953212738,1.4087617037790425,0.9970285444013869,2.4629445149182443
1687007610.427453,0.5469236373901367,-0.8333621621131897,-0.07988971471786499,0.03657251596450806,0.12642240524291992,-0.053761959075927734,0.428816020488739,0.0684005469083786,-0.4876558780670166,1.4257510608520247,0.9851629618504757,2.4434691741833316
1687007610.43052,0.5783141255378723,-0.8128394484519958,-0.06960652768611908,-0.04422593116760254,0.0473821759223938,0.04023343324661255,-0.9467517137527466,-0.05659607797861099,-1.1645007133483887,1.451011432651417,0.9490103231174696,2.4145954019775124
1687007610.465191,0.6535482406616211,-0.7494350671768188,-0.10593333095312119,0.054856300354003906,0.8134609460830688,0.003974206745624542,-0.22074969112873077,-0.06854390352964401,-2.522033929824829,1.4101043568988865,0.8472084288618177,2.475298532131003
1687007610.526392,0.748256266117096,-0.6569333672523499,-0.0924738422036171,0.05173158645629883,0.05474507808685303,0.08714865893125534,-0.2559163272380829,0.13100995123386383,-3.298264265060425,1.4478340327841046,0.716744056262841,2.4275539572930778
1687007610.588314,0.8404526710510254,-0.5314732789993286,-0.10571540892124176,0.09463649988174438,0.13035011291503906,-0.10447430610656738,-0.5270664691925049,-0.021580835804343224,-3.1090986728668213,1.4456695741501255,0.5603388408328374,2.4427140756530825
1687007610.650574,0.9098823070526123,-0.40000298619270325,-0.11005410552024841,0.1187889575958252,0.17380666732788086,-0.20758801698684692,0.6589953899383545,-0.39242973923683167,-2.929542303085327,1.4504268300616943,0.4115201071136992,2.4151072876764235
1687007610.744196,0.9521948099136353,-0.28387030959129333,-0.11288381367921829,0.12194764614105225,-0.12701839208602905,-0.04219114035367966,1.6234973669052124,-0.8064275979995728,-2.5672409534454346,1.4527958993146717,0.2878280754931325,2.322661259368609
1687007610.761699,0.9723076820373535,-0.19401666522026062,-0.1302897334098816,0.12888866662979126,-0.16000254452228546,-0.041905567049980164,3.408778190612793,-1.0824038982391357,-1.8047568798065186,1.4375893199241585,0.19525497541933343,2.1804767294314256
1687007610.795634,0.9757525324821472,-0.13677170872688293,-0.17088235914707184,0.16383498907089233,-0.23334550857543945,-0.020874738693237305,3.494581937789917,-1.8572235107421875,-1.6572209596633911,1.397425709336576,0.1372017604241257,1.9984996684650767
1687007610.924642,0.9625375866889954,-0.11853305995464325,-0.2438674122095108,0.12268275022506714,0.11082733422517776,0.21432651579380035,6.391852378845215,-2.3395159244537354,-0.9386323690414429,1.3226589061926508,0.11881239461902324,1.750165662405338
1687007610.941591,0.9298012852668762,-0.19354374706745148,-0.3130664527416229,0.24573594331741333,-0.2111041098833084,0.3526630997657776,6.511560440063477,-2.7336907386779785,-0.07794013619422913,1.246016562989361,0.19477290627806773,1.4140411048110937
1687007611.007073,0.8849284052848816,-0.30145418643951416,-0.3550032377243042,0.005071103572845459,0.027970880270004272,0.26514434814453125,5.810008525848389,-2.1697983741760254,0.26369914412498474,1.1892851258763826,0.3062174246885114,1.1299227281121467
1687007611.022537,0.8484604954719543,-0.41474902629852295,-0.32878297567367554,0.16049647331237793,-0.03984084725379944,0.06477552652359009,4.925802707672119,-1.6318023204803467,0.2826625108718872,1.2011073841024975,0.42766698493134514,0.8543580722535834
1687007611.097272,0.8227387070655823,-0.47824880480766296,-0.3072120249271393,-0.008148193359375,0.11547106504440308,-0.014687299728393555,3.689931631088257,-1.3782846927642822,-0.08843372017145157,1.2134276408302818,0.49865960298275747,0.6533768943432169
1687007611.111621,0.8052034378051758,-0.5304504036903381,-0.26508453488349915,0.1727476716041565,0.02729189395904541,-0.0973115861415863,3.575026750564575,-1.4926419258117676,-0.0369805172085762,1.2527574198562679,0.5591317923439754,0.4440469875670598
1687007611.188993,0.7880498766899109,-0.5702016353607178,-0.23205143213272095,-0.0016574263572692871,0.059825599193573,-0.04092821478843689,3.7055716514587402,-1.6219004392623901,-0.1869085729122162,1.2844271641571146,0.6067513140463997,0.23906476576365576
1687007611.1954842,0.7740422487258911,-0.6043477058410645,-0.18873929977416992,0.09041404724121094,-0.06819868087768555,0.03825724124908447,3.3344032764434814,-1.212619423866272,0.10751720517873764,1.3316275042708103,0.6489469015923767,0.03544692939163139
1687007611.279155,0.760330080986023,-0.6348986029624939,-0.13712099194526672,0.0035860538482666016,-0.11719191074371338,-0.018365979194641113,1.9294513463974,-0.6187930107116699,0.26462265849113464,1.392370183294139,0.6878772489829192,-0.1413367982319437
1687007611.378015,0.747116208076477,-0.6554312109947205,-0.11057891696691513,0.034500181674957275,-0.021143555641174316,0.020658954977989197,0.5606127977371216,-0.11169474571943283,0.412492036819458,1.4238554474434915,0.7147534491418146,-0.2139621298052525
1687007611.396702,0.7352169752120972,-0.6698221564292908,-0.10389669239521027,0.029675722122192383,0.06990760564804077,0.015456855297088623,0.17056059837341309,-0.0091300243511796,0.29112058877944946,1.430411551439614,0.7339692587213688,-0.22664934182962848
1687007611.456933,0.7279375195503235,-0.678817629814148,-0.09650914371013641,0.039015114307403564,0.09922772645950317,0.012860581278800964,0.22213482856750488,-0.029640890657901764,0.14501145482063293,1.4389861361318026,0.7461512772033599,-0.24057177224685034
1687007611.462675,0.7253262400627136,-0.6823282837867737,-0.09127117693424225,0.0327153205871582,0.10409635305404663,0.015160433948040009,0.15150554478168488,0.01490660198032856,0.04151921719312668,1.4456196035699207,0.7509427598756864,-0.25049566153121067
1687007611.5525088,0.7248809337615967,-0.6838463544845581,-0.08307916671037674,0.005450606346130371,0.06124192476272583,0.04401677846908569,0.22092825174331665,0.046318501234054565,-0.012717457488179207,1.4566834644345639,0.7530213792120704,-0.2658518694674347
1687007611.57041,0.7280831336975098,-0.6807469129562378,-0.08049101382493973,0.011556267738342285,0.03426247835159302,-0.005019128322601318,-0.22452107071876526,0.11842447519302368,-0.12357666343450546,1.4606914788166478,0.748781829262371,-0.2649153833217943
1687007611.672745,0.7330722212791443,-0.6753640174865723,-0.08055207878351212,0.01813328266143799,0.048334598541259766,0.02017313987016678,0.07450655102729797,0.09486038237810135,-0.10365954786539078,1.4613525343911575,0.7414581710214585,-0.25842603740586506
1687007611.680488,0.7367238998413086,-0.672217071056366,-0.07322704046964645,0.007493019104003906,-0.019234955310821533,-0.0076749250292778015,0.042654696851968765,0.14595118165016174,-0.08038325607776642,1.4717262282287045,0.7371993405049777,-0.2650101441275445
1687007611.915312,0.7401760816574097,-0.6690004467964172,-0.06766297668218613,0.0002263188362121582,-0.030905067920684814,0.01257883757352829,0.07299254089593887,0.13568876683712006,-0.04907206818461418,1.479634996625966,0.7328631242950479,-0.2671239356513274
1687007611.933007,0.7417956590652466,-0.6676806211471558,-0.0627850592136383,-0.011204779148101807,-0.07340818643569946,0.043162353336811066,-0.5202438831329346,0.34030911326408386,-0.05247312784194946,1.4863582788055067,0.7310888429348503,-0.2621870507573297
1687007611.9663901,0.7478996515274048,-0.6574921607971191,-0.09138058125972748,-0.025548458099365234,-0.07546383142471313,0.06850773096084595,-2.615831136703491,0.7127746939659119,-0.2541385293006897,1.449216000322079,0.7174854503365801,-0.16735512076950848
1687007611.9792008,0.7678945064544678,-0.6124277710914612,-0.1878049075603485,-0.06275510787963867,-0.15045076608657837,0.3649289906024933,-6.294205188751221,1.7785464525222778,-0.4538656771183014,1.3309335788072676,0.6591280137542395,0.11126264973184097
1687007611.981851,0.7958487272262573,-0.5388298034667969,-0.2762017846107483,0.12108254432678223,0.4485587477684021,0.09988659620285034,-3.2110962867736816,1.1549489498138428,-0.3212175667285919,1.2367491897284058,0.5690474215154623,0.41217310998269896
1687007611.993146,0.8200423717498779,-0.4989040195941925,-0.2804023325443268,-0.01627027988433838,-0.10238385200500488,0.3034737706184387,-2.0877645015716553,1.3303933143615723,-0.24630996584892273,1.241323110075761,0.5223337052590104,0.5231163039712354
1687007612.00239,0.8466522693634033,-0.4402778744697571,-0.29889070987701416,-0.03735649585723877,-0.2612602412700653,0.3682115077972412,-5.24376106262207,1.9019818305969238,-0.04400167614221573,1.231427818140413,0.4559081395566162,0.7119788296628135
1687007612.025599,0.8784070014953613,-0.34925591945648193,-0.3262234628200531,0.0864521861076355,0.007016479969024658,0.3152371942996979,-6.406301498413086,2.3128652572631836,0.3177778422832489,1.215202440968694,0.35677690625619896,1.0249810147210425
1687007612.0842319,0.904760479927063,-0.28297144174575806,-0.31833308935165405,0.15456581115722656,0.07993796467781067,0.1604657769203186,-4.8909735679626465,2.085469961166382,0.9391555190086365,1.2324811319751818,0.28689077527243684,1.3204953760217208
1687007612.243888,0.9172810912132263,-0.2776276171207428,-0.28551414608955383,0.13076889514923096,0.04216918349266052,0.080283522605896,-2.988476276397705,1.6717156171798706,1.3395313024520874,1.2690403133757595,0.28132376774797585,1.5306414539077797
1687007612.2622151,0.916519820690155,-0.3125510513782501,-0.24960659444332123,0.10961860418319702,0.14598605036735535,0.017810463905334473,-1.446030616760254,1.260135531425476,1.4194889068603516,1.3049031566627867,0.31787744523031936,1.6591970522688588
1687007612.3660831,0.9061332941055298,-0.3623195290565491,-0.21828192472457886,0.08080518245697021,0.14244034886360168,-0.0656687468290329,-1.016061544418335,1.0088087320327759,1.3298203945159912,1.3344063714193362,0.3707553081884872,1.7348120843312094
1687007612.383908,0.8892462849617004,-0.4084908366203308,-0.2058553844690323,0.20587706565856934,0.23347249627113342,-0.5441445112228394,-3.1403300762176514,0.8902384638786316,1.5865147113800049,1.3433092416910732,0.4208000594575504,1.821908674947831
1687007612.38756,0.871961772441864,-0.39460450410842896,-0.2897756099700928,0.3616502285003662,1.3096129894256592,-0.23857513070106506,-1.2513105869293213,-1.2180275917053223,0.6541252732276917,1.2499526032402029,0.4056373913858886,2.023532003110218
1687007612.447324,0.8551985025405884,-0.4439694881439209,-0.2674446403980255,0.19303452968597412,0.3988339304924011,-0.03345850110054016,4.249881267547607,-0.6091713905334473,-0.17596903443336487,1.2677036312618657,0.4600238573111426,1.913845669756909
1687007612.462264,0.8532989025115967,-0.4599461257457733,-0.24562327563762665,0.020587265491485596,-0.00836142897605896,0.021899044513702393,1.13404381275177,-0.9222337007522583,-0.6281911730766296,1.2905219637991836,0.4779345125217483,1.7677070357330746
1687007612.578861,0.8587118983268738,-0.4424728751182556,-0.2585187554359436,0.04991859197616577,0.17631375789642334,0.14597004652023315,1.6201121807098389,-0.9501937627792358,-0.8971707820892334,1.278372715680831,0.4583543189843459,1.6915624173426034
1687007612.595928,0.8688513040542603,-0.42104580998420715,-0.2604188621044159,0.05615180730819702,0.07337427139282227,0.12000760436058044,1.6981045007705688,-0.8011351227760315,-1.0755579471588135,1.2795893019319626,0.43459801333992554,1.5912524833586856
1687007612.6627898,0.881389856338501,-0.39616161584854126,-0.2573091387748718,0.0505254864692688,0.001447230577468872,0.11608916521072388,1.660280466079712,-0.6886783242225647,-1.1225547790527344,1.2867543174383433,0.40733264482743214,1.481407447185144
1687007612.67727,0.8955508470535278,-0.3638663589954376,-0.2561051547527313,0.020266354084014893,-0.04336020350456238,0.16198906302452087,1.1486811637878418,-0.44202524423599243,-1.1274770498275757,1.29225565264568,0.37241545079491695,1.3929918096578149
1687007612.746818,0.9107195734977722,-0.32556185126304626,-0.25416427850723267,-0.006224274635314941,-0.11111417412757874,0.1372668445110321,0.6694356203079224,-0.1593557447195053,-1.0779685974121094,1.2986402624562696,0.33160588728969503,1.3309034271956621
1687007612.761424,0.9257380366325378,-0.2852018177509308,-0.24833282828330994,-0.02954345941543579,-0.158584862947464,0.1145438551902771,0.31896889209747314,0.0823776125907898,-0.9384182691574097,1.308712673316713,0.28921696995710805,1.2921666701970504
1687007612.837379,0.9389957785606384,-0.24871493875980377,-0.23754525184631348,-0.03894084692001343,-0.19726896286010742,0.08402670919895172,0.033693429082632065,0.2746018171310425,-0.7035251259803772,1.3230168248090932,0.2513532749690624,1.2732046672939417
1687007612.852158,0.9493939876556396,-0.2221679836511612,-0.22201895713806152,-0.05730414390563965,-0.2252960354089737,0.023837938904762268,-0.14586098492145538,0.41279229521751404,-0.38552865386009216,1.3410712950339212,0.22403745603903408,1.2691048516928836
