Timestamp,gravityX,gravityY,gravityZ,accelerationX,accelerationY,accelerationZ,rotationRateX,rotationRateY,rotationRateZ,attitudeRoll,attitudePitch,attitudeYaw
1687012545.535207,0.9035941362380981,-0.28046533465385437,-0.3238160014152527,-0.0008689761161804199,-0.022650480270385742,0.022500693798065186,0.020163560286164284,0.06941275298595428,0.0488881915807724,1.2266894201464447,0.28427886791187057,-0.7652932694652759
1687012545.5522451,0.9042596817016602,-0.2855013906955719,-0.3174951374530792,0.0010288357734680176,-0.007497847080230713,0.0032251179218292236,0.00823867879807949,0.09382080286741257,0.08134247362613678,1.2331324745743475,0.2895295504322753,-0.7654597710272065
1687012545.592058,0.9044977426528931,-0.2904450595378876,-0.3122907280921936,0.0031255483627319336,0.003717184066772461,-0.010921001434326172,0.0010105043184012175,0.09525474160909653,0.09068071097135544,1.2383466389295672,0.29469192962821383,-0.7642533444505732
1687012545.686662,0.9045603275299072,-0.2944145202636719,-0.30836763978004456,0.001811683177947998,0.013973265886306763,-0.029660344123840332,-0.010934393852949142,0.08487382531166077,0.08870811015367508,1.2422483044135304,0.29884283505976705,-0.7625778250750435
1687012545.703405,0.9043840169906616,-0.29740020632743835,-0.306010901927948,0.0066266655921936035,0.025488615036010742,-0.0377543568611145,0.021955111995339394,0.055805955082178116,0.06868845969438553,1.2445251130990904,0.30196850558805227,-0.7613766334024165
1687012545.74104,0.9040291905403137,-0.29923373460769653,-0.3052709996700287,0.004250228404998779,0.04012429714202881,-0.0498010516166687,0.12653180956840515,0.014133787713944912,0.026018429547548294,1.245140456469024,0.3038895047089808,-0.7626983895143704
1687012545.841146,0.9033969640731812,-0.3015432059764862,-0.3048696219921112,0.007628917694091797,0.03356844186782837,-0.047669440507888794,0.36554527282714844,-0.07921036332845688,-0.026784464716911316,1.2453271636437897,0.3063107960106357,-0.7750474903263302
1687012545.848414,0.9022662043571472,-0.3030903935432434,-0.3066787123680115,0.002946138381958008,0.019261717796325684,-0.03426370024681091,0.3784990906715393,-0.13634057343006134,-0.05637691169977188,1.2431490081637109,0.30793391008170995,-0.7937771981384679
1687012545.894596,0.9003348350524902,-0.3054460287094116,-0.3099997043609619,-0.0012870430946350098,0.048396527767181396,-0.054639607667922974,0.4558413028717041,-0.2715687155723572,-0.09550008177757263,1.2391941375470217,0.3104068080559706,-0.8126250443738874
1687012545.989346,0.8971166610717773,-0.3098639249801636,-0.314906507730484,0.0038232803344726562,0.06517401337623596,-0.05882704257965088,0.9303063750267029,-0.44444745779037476,-0.22223599255084991,1.2332124933537323,0.31504990406241634,-0.8504666592977512
1687012546.005938,0.8932978510856628,-0.31429749727249146,-0.32130375504493713,0.007092773914337158,0.053921520709991455,-0.07371580600738525,1.0146632194519043,-0.553959846496582,-0.29650190472602844,1.2255216972592486,0.3197165481651212,-0.904154066512896
1687012546.040512,0.888882577419281,-0.3181076943874359,-0.32968971133232117,0.021166861057281494,0.0379868745803833,-0.03865748643875122,1.1270962953567505,-0.5861268639564514,-0.311889111995697,1.2156218932561225,0.3237328317675735,-0.9624333864026696
1687012546.138166,0.8836390972137451,-0.32303813099861145,-0.33886340260505676,0.03297168016433716,-0.0013179481029510498,-0.014865905046463013,0.9885903596878052,-0.5992730259895325,-0.27471843361854553,1.2046065383687625,0.3289379793191731,-1.0212304935911911
1687012546.155081,0.878024160861969,-0.3258231282234192,-0.3505895137786865,0.008969306945800781,-0.02276390790939331,0.020312994718551636,0.6592360734939575,-0.5351492166519165,-0.231984481215477,1.1908989645729908,0.33188222035883475,-1.0668883007469634
1687012546.1911979,0.8728553056716919,-0.3252423405647278,-0.363786906003952,0.00838547945022583,-0.009031921625137329,0.038622111082077026,0.4195006489753723,-0.4579086899757385,-0.2154754251241684,1.175910323268348,0.33126798574860716,-1.095816483273885
1687012546.286463,0.8686414361000061,-0.3240867555141449,-0.37473970651626587,0.003093242645263672,-0.026560217142105103,0.07537749409675598,0.38538822531700134,-0.3519532084465027,-0.196228489279747,1.1635097624991566,0.33004623043822234,-1.1207160197888186
1687012546.3022609,0.8666674494743347,-0.3204375207424164,-0.3823706805706024,0.004243195056915283,-0.05115976929664612,0.09263676404953003,-0.04281838238239288,-0.14405328035354614,-0.14153827726840973,1.155287432386939,0.3261913250663225,-1.1334161293200167
1687012546.374504,0.8678387999534607,-0.31025972962379456,-0.38806524872779846,0.0015763640403747559,-0.04075342416763306,0.09146490693092346,-0.48496919870376587,0.08447115123271942,-0.08446414023637772,1.1503043098254029,0.3154662285086141,-1.1224681869324846
1687012546.380034,0.8719884753227234,-0.2947910726070404,-0.3908124566078186,-0.010187327861785889,-0.01493176817893982,0.06546449661254883,-0.6418778896331787,0.1924588680267334,-0.09978383779525757,1.1494525021153346,0.2992368783454405,-1.0955145561979265
1687012546.432787,0.8781684041023254,-0.2772844731807709,-0.38978666067123413,-0.01229315996170044,0.014558643102645874,0.035904765129089355,-0.505489706993103,0.24012689292430878,-0.1645607054233551,1.153057444721528,0.28096659412340785,-1.0699948341899024
1687012546.55975,0.8853489756584167,-0.2602173089981079,-0.3852846026420593,-0.006381630897521973,-0.03391110897064209,0.03805553913116455,-0.5352227091789246,0.2932344675064087,-0.16423439979553223,1.1603363062539331,0.2632472488186995,-1.0504500165107273
1687012546.5671391,0.893459141254425,-0.24248318374156952,-0.37806448340415955,0.0014383196830749512,-0.04358857870101929,0.029660522937774658,-0.7281989455223083,0.4063551127910614,-0.07305948436260223,1.1704962909539596,0.24492461026974782,-1.0231429176114437
1687012546.648351,0.901663601398468,-0.22753259539604187,-0.3677385747432709,0.018395543098449707,-0.02812837064266205,0.010560810565948486,-0.7244597673416138,0.4393308758735657,0.040210284292697906,1.1835457789555508,0.22954306596317214,-0.9874794953719183
1687012546.665039,0.9083693623542786,-0.2202497273683548,-0.35546502470970154,0.004335224628448486,-0.02726307511329651,-0.0032691657543182373,-0.500817060470581,0.39744681119918823,0.10990121215581894,1.1977931832278415,0.22207047986461945,-0.9574051947905718
1687012546.734733,0.9130508899688721,-0.2186170071363449,-0.3443030118942261,-0.008464157581329346,0.00851874053478241,-0.026912808418273926,-0.16614742577075958,0.2543158531188965,0.09431419521570206,1.2101939538532605,0.22039696658472344,-0.9380548093677691
1687012546.7490392,0.9157012701034546,-0.2215665876865387,-0.335260272026062,-0.016348302364349365,0.038613706827163696,-0.053274333477020264,0.32416486740112305,0.10631990432739258,-0.0538431815803051,1.2198299254225426,0.22342068812403168,-0.9404332142659676
1687012546.824193,0.9178035259246826,-0.2244185209274292,-0.3275257349014282,-0.016039609909057617,0.05168907344341278,-0.04903072118759155,0.769904613494873,-0.03015582449734211,-0.2142847180366516,1.2280248343376792,0.22634629349325672,-0.971354841170978
1687012546.830039,0.919770359992981,-0.22538365423679352,-0.32128578424453735,0.004210233688354492,0.012416765093803406,-0.032336682081222534,0.5502178072929382,-0.023829396814107895,-0.20683473348617554,1.2347355740990174,0.22733680019647093,-1.0086817910002652
1687012546.882312,0.9218119382858276,-0.22389064729213715,-0.31644243001937866,0.026842176914215088,0.048277273774147034,-0.03576099872589111,0.4719368815422058,-0.02888238988816738,-0.21000660955905914,1.240117903258972,0.2258046347008128,-1.034528768865114
1687012546.979136,0.9234190583229065,-0.2214614301919937,-0.3134517967700958,0.0038117170333862305,0.04720605909824371,-0.009805679321289062,0.7812789082527161,-0.1290597766637802,-0.32542628049850464,1.2435536293317477,0.22331285665525585,-1.0697108070690333
1687012546.9949222,0.9248803853988647,-0.21727430820465088,-0.3120710253715515,0.0005347132682800293,-0.032893553376197815,-0.0012530386447906494,0.5127048492431641,-0.10489344596862793,-0.3004227578639984,1.2453743537892847,0.21902119361062172,-1.108180840827422
1687012547.031419,0.9265022277832031,-0.2100989818572998,-0.31217294931411743,0.0177573561668396,-0.064376100897789,-0.013327598571777344,-0.1036667674779892,-0.005634590983390808,-0.14330507814884186,1.2458059284700478,0.21167619619397593,-1.122470454439557
1687012547.129704,0.9276373386383057,-0.20185549557209015,-0.3142342269420624,0.006765007972717285,-0.04416193068027496,-0.016408532857894897,-0.4466762840747833,0.041233938187360764,-0.024375835433602333,1.2441815583332674,0.20325204037923103,-1.1094993313790906
1687012547.145441,0.9282581806182861,-0.19386763870716095,-0.31741446256637573,-0.0016683340072631836,-0.01908397674560547,-0.008482784032821655,-0.3481721580028534,0.0023646571207791567,-0.050601448863744736,1.241314229368129,0.19510306092461363,-1.0897897779435821
1687012547.1802192,0.9282398819923401,-0.18680766224861145,-0.3216731548309326,0.0007457137107849121,0.014307066798210144,-0.014035463333129883,-0.04114449396729469,-0.11439000815153122,-0.09775510430335999,1.2372063487678246,0.1879115924772077,-1.0784710808587694
1687012547.280189,0.9259216785430908,-0.1856231987476349,-0.32895737886428833,0.030468642711639404,0.06340035796165466,-0.012488573789596558,0.8534520268440247,-0.3560818135738373,-0.1968601793050766,1.229429410829295,0.18670604146551434,-1.0992684902766705
1687012547.295978,0.9210554957389832,-0.2068829983472824,-0.3299335837364197,0.06060338020324707,0.1569104790687561,-0.0538097620010376,3.0923774242401123,-0.5302101373672485,-0.19037285447120667,1.2268240788097375,0.20838794859618492,-1.1885185064736683
1687012547.332138,0.9113031029701233,-0.2683386504650116,-0.31228333711624146,0.007947266101837158,0.029660671949386597,0.13576963543891907,4.9225873947143555,-0.737299919128418,-0.085228331387043,1.2406594764103194,0.271668011608429,-1.3958561319480411
1687012547.4302669,0.9032554030418396,-0.3353055417537689,-0.26776817440986633,0.09799575805664062,-0.001303344964981079,0.27924275398254395,4.435595989227295,-0.3742086887359619,-0.005140621680766344,1.2826015301341886,0.3419295260417214,-1.6307410899396944
1687012547.446278,0.9015864729881287,-0.3799574077129364,-0.20681869983673096,-0.07842069864273071,-0.0018936991691589355,0.14172467589378357,2.7670581340789795,0.1256944090127945,0.04639320820569992,1.345303384236337,0.38975026637013477,-1.818271359775104
1687012547.4822788,0.9046639800071716,-0.39661407470703125,-0.15582218766212463,-0.08525174856185913,-0.016426056623458862,0.09019410610198975,1.2058219909667969,0.39580339193344116,-0.11123576760292053,1.4002268135530733,0.4078254607991116,-1.9224222174523067
1687012547.58127,0.9106953740119934,-0.395104318857193,-0.1205269917845726,0.005213558673858643,-0.01700514554977417,-0.06215132772922516,0.7627866268157959,0.4508715271949768,-0.18846185505390167,1.439214899891525,0.4061814004659859,-1.966401114277877
1687012547.596376,0.916504442691803,-0.3891267776489258,-0.09273611754179001,0.020797133445739746,-0.12428569793701172,-0.13915175199508667,-0.15382131934165955,0.44313910603523254,-0.15623706579208374,1.469954966063931,0.3996834577664235,-1.9873445359474322
1687012547.630358,0.9199118614196777,-0.38319987058639526,-0.08318807929754257,-0.002141416072845459,-0.0890749990940094,-0.11433703452348709,-0.3334890604019165,0.21241599321365356,-0.05805316939949989,1.4806111374033304,0.39325812695294865,-1.9721164437985828
1687012547.732924,0.9210783243179321,-0.3805345892906189,-0.08251162618398666,0.011233687400817871,-0.048634111881256104,-0.0355609655380249,-0.17581024765968323,0.06321389228105545,0.019974717870354652,1.48145325409293,0.39037429631702036,-1.956116246876241
1687012547.748779,0.9212320446968079,-0.37998348474502563,-0.08332950621843338,6.300210952758789e-05,0.021401971578598022,-0.061766378581523895,0.12605735659599304,-0.06987642496824265,-0.05192889645695686,1.4805874038256464,0.3897784360889311,-1.9569621993426587
1687012547.849698,0.9215477108955383,-0.379562109708786,-0.08174541592597961,-0.019341349601745605,0.08601352572441101,0.018604516983032227,0.2634565234184265,-0.15963932871818542,-0.15015919506549835,1.4823234043651237,0.38932294185905975,-1.9753501421576263
1687012547.8655338,0.9232098460197449,-0.3735681474208832,-0.0901700034737587,-0.016959726810455322,0.014406740665435791,-0.039667077362537384,0.196889728307724,-0.224824458360672,-0.1229865625500679,1.473435026731257,0.3828526906730802,-1.9813460739373605
1687012547.936781,0.9228672385215759,-0.3723313808441162,-0.09841398149728775,-0.005844593048095703,-0.001493692398071289,-0.14313268661499023,0.4978957176208496,-0.5068011283874512,-0.076345294713974,1.4645584535503333,0.3815197560179695,-2.0040421806144706
1687012547.951301,0.9213938117027283,-0.372094988822937,-0.11215401440858841,0.0659869909286499,-0.0007229745388031006,-0.010877653956413269,0.38264939188957214,-0.4349725544452667,-0.04212367162108421,1.4496700734101675,0.38126506941489197,-2.026529804292479
1687012548.0255032,0.9189151525497437,-0.3758409917354584,-0.1197434514760971,-0.024689137935638428,0.025529712438583374,0.047905027866363525,0.570563793182373,-0.31657159328460693,0.002848395612090826,1.4412169000398805,0.38530414642804556,-2.0551528145784275
1687012548.031673,0.9168350100517273,-0.37830159068107605,-0.12767742574214935,-0.054042041301727295,0.0049343109130859375,-0.05872398614883423,0.394377738237381,-0.42305612564086914,-0.03292224928736687,1.4324273188162568,0.38796085767991895,-2.0798568886240907
1687012548.118653,0.9147006869316101,-0.3795289397239685,-0.13885398209095,0.07399249076843262,0.021618783473968506,0.019118189811706543,0.7909489870071411,-0.48495057225227356,-0.040352337062358856,1.4201438700586246,0.3892870972242535,-2.1067271118181212
1687012548.134942,0.9127109050750732,-0.38203859329223633,-0.1449311226606369,0.007210850715637207,-0.049510419368743896,0.045398011803627014,0.7189205884933472,-0.4345190227031708,-0.10313749313354492,1.4133192076079475,0.3920012225066481,-2.153054417812454
1687012548.170095,0.9113510251045227,-0.3835468292236328,-0.14943575859069824,0.01305687427520752,-0.0274486243724823,0.07478970289230347,0.27692925930023193,-0.1624666303396225,0.03305789828300476,1.408270943787874,0.3936337857191635,-2.178397290715151
1687012548.267613,0.9097813367843628,-0.3866899907588959,-0.15089279413223267,-0.008322715759277344,0.03837764263153076,0.07906962931156158,0.10471053421497345,-0.07129083573818207,0.03001829795539379,1.4064364018389715,0.3970396566506233,-2.1851287577790357
1687012548.283884,0.9098957180976868,-0.3862510025501251,-0.1513272225856781,0.0026256442070007324,0.03572610020637512,0.07719999551773071,0.04211382195353508,-0.015824999660253525,-0.08034242689609528,1.4059920590871213,0.39656369073854697,-2.1908879651666178
1687012548.321101,0.9128192663192749,-0.38100743293762207,-0.1469489485025406,0.00022071599960327148,0.030253738164901733,0.04535587131977081,-0.026764046400785446,0.07856302708387375,-0.09325836598873138,1.411182146290819,0.39088568682741803,-2.1924382858599034
1687012548.420244,0.915617823600769,-0.37709489464759827,-0.1394403874874115,0.005768954753875732,-0.007991254329681396,0.022008702158927917,0.11443928629159927,0.10294479131698608,-0.06616608798503876,1.4196665101387325,0.38665760173888175,-2.1968885181395947
1687012548.43716,0.9185243248939514,-0.3725219964981079,-0.13243989646434784,0.0003446340560913086,-0.03877866268157959,-0.007879972457885742,-0.11415646970272064,0.13361775875091553,-0.07367241382598877,1.4275955865754646,0.3817251562451147,-2.197245548430083
1687012548.46931,0.9203769564628601,-0.369270920753479,-0.12862755358219147,0.012407958507537842,-0.02846464514732361,-0.027881845831871033,-0.10855815559625626,0.1062728613615036,-0.05443919450044632,1.4319403895027514,0.3782243717556712,-2.190945766340352
1687012548.568379,0.9210160970687866,-0.3685520887374878,-0.126090869307518,0.00403285026550293,-0.027154147624969482,-0.00453968346118927,-0.015650320798158646,0.08317446708679199,-0.031305111944675446,1.4347380670585197,0.3774509856285251,-2.1881538293496536
1687012548.583967,0.9214115738868713,-0.36866968870162964,-0.1228138878941536,-0.013544201850891113,-0.041333913803100586,0.0038563087582588196,-0.012929722666740417,0.12225750833749771,0.040088508278131485,1.4382885025543364,0.3775774984664913,-2.186932837864468
1687012548.621264,0.9200395941734314,-0.3739781677722931,-0.11690814793109894,-0.017192363739013672,-0.04844611883163452,0.02503490447998047,-0.0023511149920523167,0.17003434896469116,0.15327298641204834,1.4444050700209936,0.3832947428019789,-2.1853534098691285
1687012548.71989,0.915887176990509,-0.3868817985057831,-0.10711348056793213,-0.030053377151489258,-0.0867510437965393,0.03788428008556366,-0.018576689064502716,0.29084253311157227,0.3521392047405243,1.4543746696047715,0.39724766823574464,-2.183925332738354
1687012548.7361069,0.9076863527297974,-0.4097840189933777,-0.0904586911201477,-0.0048847198486328125,-0.06029355525970459,0.029469244182109833,0.12584583461284637,0.3861883878707886,0.6133614778518677,1.4714657741133896,0.4222172818066696,-2.18462358538938
1687012548.769853,0.8947480916976929,-0.44159650802612305,-0.06646844744682312,0.018154561519622803,-0.0858691930770874,0.04049796611070633,0.2391384243965149,0.5142877697944641,0.7785771489143372,1.4966452026721635,0.4573773178789266,-2.191964659032501
1687012548.873143,0.8765062093734741,-0.48011037707328796,-0.035086698830127716,-0.008815109729766846,-0.10831433534622192,-0.016457561403512955,0.0466398186981678,0.7632105350494385,1.0296462774276733,1.530787509940135,0.5007805436675983,-2.198988321413505
1687012548.890383,0.8472194671630859,-0.5312321782112122,0.0033539633732289076,0.11324483156204224,-0.01751953363418579,0.014422415755689144,0.37514227628707886,0.8123132586479187,1.2860976457595825,1.5747550954134295,0.5600542525548636,-2.2040766450325022
1687012548.923001,0.8101420998573303,-0.5837185382843018,0.05424177646636963,0.03839898109436035,-0.06702297925949097,0.07905899733304977,0.6273078918457031,0.8575232028961182,1.304388403892517,1.6376499592932063,0.6233009026588194,-2.2440293859727194
1687012549.0175881,0.765379011631012,-0.6350528597831726,0.10441729426383972,0.04942518472671509,-0.06021392345428467,0.053373828530311584,0.44735464453697205,0.9793551564216614,1.4272708892822266,1.706384878859809,0.6880769332394873,-2.2822616349698746
1687012549.034255,0.7102478742599487,-0.68617844581604,0.157185897231102,0.07710570096969604,-0.019128620624542236,-0.03755699098110199,0.4282092750072479,1.0445671081542969,1.4951019287109375,1.7885970824790727,0.7562224402746397,-2.3295640900887062
1687012549.0699959,0.646754264831543,-0.7327001094818115,0.21180056035518646,0.10223865509033203,-0.06217598915100098,0.032706260681152344,0.6096405982971191,1.1725655794143677,1.6012823581695557,1.8872717381050013,0.8222810147437889,-2.392840354227986
1687012549.1714978,0.5712313652038574,-0.7750793695449829,0.27008679509162903,0.10955482721328735,-0.05054330825805664,-0.014990419149398804,0.4957217276096344,1.2384310960769653,1.6386665105819702,2.0124604576830367,0.8868407066977846,-2.4789711936799446
1687012549.187245,0.48882001638412476,-0.8119254112243652,0.31911134719848633,0.10125258564949036,0.02025371789932251,-0.02489149570465088,0.4518483877182007,1.2312769889831543,1.5937374830245972,2.1491512245436937,0.9474429075563079,-2.5734502657180998
1687012549.225734,0.4053542912006378,-0.8382980227470398,0.364615261554718,0.1028854250907898,-0.01601099967956543,-0.029990077018737793,0.39902499318122864,1.1809003353118896,1.5157727003097534,2.3033338624184303,0.9941540577178346,-2.687421470026951
1687012549.316852,0.317775696516037,-0.8570874929428101,0.4054872393608093,0.14412319660186768,-0.027754545211791992,-0.02328506112098694,0.468875914812088,1.1841259002685547,1.566904902458191,2.476877192168014,1.0295893429343321,-2.8221160114649226
1687012549.332244,0.2251846343278885,-0.870532751083374,0.4375666677951813,0.0999649167060852,-0.007915794849395752,-0.022481858730316162,0.30470550060272217,1.1764687299728394,1.5475859642028809,2.666310188554344,1.0562838995394606,-2.972378450104551
1687012549.404982,0.13285331428050995,-0.8794317841529846,0.4571099877357483,0.07820622622966766,0.010977864265441895,-0.028505951166152954,0.06518878042697906,1.1600251197814941,1.4789702892303467,2.858747262309227,1.0746672083562534,-3.124924418842864
1687012549.4201,0.04579276964068413,-0.8825029134750366,0.4680721163749695,0.09287910163402557,0.061015546321868896,-0.05558133125305176,0.32200878858566284,0.9513258337974548,1.3789209127426147,3.0440702776052095,1.081157825246988,3.008107696176062
1687012549.49383,-0.032598305493593216,-0.8755422830581665,0.48204073309898376,0.07637576758861542,-0.0003886222839355469,-0.05697661638259888,0.23149634897708893,0.8176657557487488,1.317216396331787,-3.0740698346000546,1.066557061981235,2.86881951419679
1687012549.5876942,-0.10826732218265533,-0.8665899038314819,0.48713454604148865,0.08273938298225403,0.02757018804550171,0.03131324052810669,0.22102858126163483,0.9235304594039917,1.1779454946517944,-2.922893975669956,1.0483275997780932,2.745126734336124
1687012549.604835,-0.17835411429405212,-0.8568958044052124,0.4836518168449402,0.09868800640106201,0.05327653884887695,-0.032434284687042236,0.02996891736984253,0.885807454586029,1.0580240488052368,-2.788298994726191,1.0292173383059877,2.6423658562919363
1687012549.677114,-0.2429194301366806,-0.841786801815033,0.4820635914802551,0.07951302826404572,0.010442078113555908,0.07669800519943237,0.2596375048160553,0.8898918628692627,1.0179797410964966,-2.6748173608764065,1.0005847444246343,2.560255274399042
1687012549.683852,-0.30562445521354675,-0.8212701678276062,0.4817768335342407,0.07475900650024414,0.0486108660697937,-0.07960104942321777,0.178689643740654,0.8076733946800232,0.9316233992576599,-2.5762841612808094,0.9636337022562439,2.494448180144837
1687012549.76757,-0.3592282235622406,-0.805511474609375,0.47128134965896606,-0.02420985698699951,0.03157055377960205,-0.048613011837005615,0.06131525710225105,0.908374011516571,0.7374911904335022,-2.490305548276637,0.9365381219641296,2.4395898621931504
1687012549.7845469,-0.405473917722702,-0.8003628849983215,0.44159966707229614,-0.07142430543899536,0.03812521696090698,-0.10962945222854614,-0.806407630443573,0.8436191082000732,0.5545876622200012,-2.3988163576443697,0.9279002625881183,2.3816279708787227
1687012549.854106,-0.44111791253089905,-0.811593770980835,0.38305389881134033,-0.10494834184646606,0.02944362163543701,-0.00794723629951477,-1.3310385942459106,0.8109895586967468,0.426424503326416,-2.2858593717076303,0.9468749758332695,2.2898959224928244
1687012549.867787,-0.4717913568019867,-0.8356664776802063,0.2812016010284424,-0.11643490195274353,-0.07802975177764893,0.02237185835838318,-3.020613670349121,1.043616533279419,0.3479880690574646,-2.108291268878257,0.9893450761885654,2.129404569384092
1687012549.9112759,-0.49775293469429016,-0.8631035685539246,0.08540643751621246,-0.19636934995651245,0.06389403343200684,0.12035822868347168,-4.3836774826049805,1.226951241493225,0.45019441843032837,-1.7407255795269143,1.0413831500479545,1.7644672317902448
1687012550.010292,-0.5224123001098633,-0.8453794717788696,-0.11143956333398819,-0.13598912954330444,-0.011615097522735596,0.030964672565460205,-3.4106149673461914,1.3455569744110107,0.8561820983886719,-1.3606291166597375,1.007275149628568,1.3977209863667166
1687012550.017865,-0.5480541586875916,-0.7801000475883484,-0.30179545283317566,-0.13134336471557617,-0.019338369369506836,0.09470316767692566,-4.322049617767334,1.3683969974517822,1.0620290040969849,-1.0674409729071026,0.894825665387116,1.122067574597008
1687012550.06782,-0.5579662322998047,-0.6651514172554016,-0.4962330758571625,-0.10934633016586304,0.05899608135223389,0.050264447927474976,-3.94769549369812,1.507570743560791,1.1032403707504272,-0.8438906406633078,0.7276965916378696,0.9125376263410263
1687012550.157551,-0.5472406148910522,-0.5355181097984314,-0.643232524394989,-0.10537779331207275,0.044902265071868896,0.02557194232940674,-3.326263904571533,1.4284402132034302,0.963739812374115,-0.7049388308895059,0.5651211183110544,0.8053471792938279
1687012550.175111,-0.5177193880081177,-0.39797675609588623,-0.7573513984680176,-0.15081387758255005,0.10004889965057373,0.015758991241455078,-3.0934975147247314,1.3926198482513428,0.7266473174095154,-0.599628831473905,0.4093103508225651,0.7298081990211572
1687012550.2104402,-0.4682020843029022,-0.2669265866279602,-0.8423401713371277,-0.1467881202697754,0.029957592487335205,-0.018225014209747314,-2.871628522872925,1.5328603982925415,0.3624753952026367,-0.5073119595343449,0.27020249207134833,0.6724091800613523
1687012550.338966,-0.40280163288116455,-0.14691878855228424,-0.9034188985824585,-0.09986865520477295,0.020301371812820435,0.057944655418395996,-2.598196268081665,1.608518123626709,-0.15058191120624542,-0.4194087902557996,0.14745252621615926,0.6159790662344194
1687012550.3562012,-0.323042631149292,-0.039663854986429214,-0.9455528855323792,-0.00535699725151062,-0.0006956234574317932,-0.0030402541160583496,-2.2596652507781982,1.8111799955368042,-0.42978277802467346,-0.32921156955259634,0.03967426247184699,0.5561961090244585
1687012550.425946,-0.24047638475894928,0.06678032875061035,-0.9683550596237183,0.06664828956127167,-0.15061210095882416,-0.010145306587219238,-2.6967835426330566,1.7061705589294434,-1.0036474466323853,-0.2434109337396461,-0.06683006557014262,0.48813488108314107
1687012550.440696,-0.165377676486969,0.15507832169532776,-0.9739614725112915,0.1840697079896927,-0.032321348786354065,0.060234665870666504,-1.5185409784317017,1.6118669509887695,-1.167098045349121,-0.16819478304544053,-0.1557067308912118,0.41187957308224715
1687012550.5137482,-0.1023598313331604,0.23393554985523224,-0.9668487906455994,0.1650887429714203,-0.07962343096733093,-0.06534719467163086,-1.9025989770889282,1.4337594509124756,-1.4125170707702637,-0.10547663285153783,-0.23612359720516893,0.33712060309833536
1687012550.527991,-0.06724689155817032,0.29052093625068665,-0.9545027017593384,0.2241530418395996,0.021292418241500854,0.07805311679840088,-0.7189638614654541,1.087713360786438,-1.9640164375305176,-0.07033606212638611,-0.29477120318962263,0.24264231336439132
1687012550.604917,-0.04168936237692833,0.30999961495399475,-0.9498222470283508,0.32483145594596863,-0.19244587421417236,0.10723191499710083,-0.5070432424545288,1.1462280750274658,-1.7561553716659546,-0.043863598981231273,-0.31519261297384304,0.14397223783975271
1687012550.619168,-0.018417807295918465,0.3336634039878845,-0.9425123333930969,0.2803959548473358,-0.08709660172462463,0.10785657167434692,-0.44260355830192566,0.6105939745903015,-0.9496012926101685,-0.019538698282636113,-0.34018702059744643,0.0717829263818056
1687012550.660658,-0.017442094162106514,0.3321627080440521,-0.9430608153343201,0.13435494899749756,-0.12659627199172974,0.12201589345932007,0.03565973788499832,-0.0074683548882603645,-0.029455548152327538,-0.018493087294235395,-0.3385955336924417,0.04616988230688381
1687012550.756722,-0.016698600724339485,0.3434123992919922,-0.9390362501144409,0.06738830357789993,0.07071113586425781,0.08190429210662842,-0.1348404437303543,-0.0008404573891311884,0.03616607189178467,-0.017780826590526207,-0.35054786029121654,0.04902571915349643
1687012550.775536,-0.017321448773145676,0.34387263655662537,-0.9388565421104431,0.06737028062343597,-0.0045171380043029785,-0.035752832889556885,-0.0687626302242279,-0.05413110926747322,0.026218099519610405,-0.01844742403955376,-0.35103793246715953,0.04835615427448792
1687012550.881319,-0.021415337920188904,0.3477364480495453,-0.9373477101325989,0.0523754246532917,0.0317344069480896,0.05564910173416138,-0.04752933606505394,-0.10909733921289444,0.08359470218420029,-0.022842764560298292,-0.3551557956693396,0.05260928313082571
1687012550.897589,-0.023424057289958,0.3503372073173523,-0.9363306760787964,0.062303461134433746,0.007527172565460205,0.021535813808441162,-0.021568218246102333,-0.09745568037033081,0.049716632813215256,-0.025011646128555613,-0.3579310945514727,0.054826099422338674
1687012550.9638438,-0.02449834905564785,0.35314059257507324,-0.9352494478225708,0.048851385712623596,-0.04697299003601074,0.0751725435256958,-0.12354602664709091,-0.07145053148269653,0.13724228739738464,-0.026188466162150797,-0.3609258560569378,0.06039758960503012
1687012550.969701,-0.024354243651032448,0.35513433814048767,-0.9344980120658875,0.028977664187550545,0.013655334711074829,0.03923434019088745,-0.04708334431052208,-0.05625986307859421,0.14614078402519226,-0.02605541398390928,-0.3630577721051382,0.0685621369270421
1687012551.0576,-0.02482607401907444,0.3523154556751251,-0.9355519413948059,0.04731753468513489,0.06327292323112488,0.036900877952575684,0.3075673282146454,-0.13142164051532745,0.14897078275680542,-0.026530058652314514,-0.3600440309404148,0.07603281299483051
1687012551.0753899,-0.027557600289583206,0.3483258783817291,-0.9369683265686035,0.055450670421123505,-0.047315746545791626,-0.013974666595458984,-0.2104056030511856,-0.16647247970104218,0.30248019099235535,-0.029402977035837947,-0.35578452886668666,0.08820917137385208
1687012551.1105142,-0.03290918096899986,0.34928247332572937,-0.9364393949508667,0.02654627338051796,0.02435949444770813,-0.0195542573928833,0.21503256261348724,-0.2644828259944916,0.30867424607276917,-0.0351284286289038,-0.3568052257468993,0.10568491450812778
1687012551.2077289,-0.04151308164000511,0.33091604709625244,-0.942746639251709,0.04064333811402321,0.05160653591156006,-0.016664981842041016,0.6562902331352234,-0.34571173787117004,0.18778176605701447,-0.04400576019716166,-0.33727416213296735,0.11947816312240206
1687012551.225595,-0.05567474663257599,0.3042978048324585,-0.9509485363960266,0.059230051934719086,-0.023429274559020996,-0.02858942747116089,0.33266398310661316,-0.4218096137046814,0.3088192939758301,-0.05847978163321891,-0.30920120148282965,0.13353027634094605
1687012551.293292,-0.07758808881044388,0.27869513630867004,-0.9572403430938721,0.13540366291999817,0.13681691884994507,0.030101120471954346,1.1448591947555542,-0.7729241251945496,0.36627012491226196,-0.08087712295759965,-0.28243513847706014,0.1534952290050487
1687012551.2987618,-0.10994655638933182,0.2022838294506073,-0.9731356501579285,0.10890896618366241,-0.0191020667552948,0.010321319103240967,1.7244617938995361,-0.8029756546020508,0.5297500491142273,-0.1125046519707682,-0.20368940885061682,0.18516474447606215
1687012551.353797,-0.1483103185892105,0.13878385722637177,-0.9791542887687683,0.1107737123966217,-0.03770962357521057,0.06358116865158081,1.274472713470459,-0.8971987366676331,0.6326879262924194,-0.15032511522535427,-0.1392332841497218,0.2218350440220511
1687012551.44858,-0.18826605379581451,0.053161680698394775,-0.9806782007217407,0.15600897371768951,0.01788325607776642,-0.022465109825134277,2.5269877910614014,-1.0648353099822998,0.6024149656295776,-0.1896677839573264,-0.05318675471001453,0.26868174202106393
1687012551.46532,-0.24964679777622223,-0.07473606616258621,-0.9654486179351807,0.04507222771644592,-0.010621577501296997,0.035333871841430664,2.9062564373016357,-1.278633952140808,0.675622820854187,-0.2530385822856565,0.07480581658682592,0.32869177452301823
1687012551.503789,-0.3133428990840912,-0.23129062354564667,-0.921043336391449,0.20672976970672607,0.18311864137649536,0.013862550258636475,4.612442493438721,-1.4476358890533447,0.5518691539764404,-0.32792161034626083,0.23340406245674072,0.40542173884169425
1687012551.631534,-0.3893299698829651,-0.4376668334007263,-0.8104751110076904,-4.374980926513672e-05,-0.02385050058364868,0.11793971061706543,4.914636135101318,-1.320012092590332,0.8034100532531738,-0.44782270262243856,0.45300213513668125,0.5414076054378713
1687012551.647937,-0.4522828459739685,-0.5910125374794006,-0.6679403781890869,0.1146363914012909,0.09067684412002563,0.050234079360961914,4.4215593338012695,-1.2082360982894897,0.6666728854179382,-0.5952118949999183,0.6323134540176722,0.7085085771260528
1687012551.682497,-0.5035054087638855,-0.7098490595817566,-0.49254110455513,-0.064564049243927,0.09347027540206909,0.11673235893249512,4.875816345214844,-0.8227827548980713,0.6457231044769287,-0.7964055222888169,0.7892838790197345,0.9359741879457427
1687012551.783277,-0.5429611206054688,-0.7830182313919067,-0.3034398853778839,0.03305816650390625,-0.0026110410690307617,0.05151724815368652,3.909830331802368,-0.8732970952987671,0.5904353857040405,-1.061175372691868,0.8995035554393734,1.2325893948065723
1687012551.870256,-0.5742461681365967,-0.8071854114532471,-0.1367218941450119,-0.056430041790008545,-0.007191300392150879,0.06386114656925201,3.342254877090454,-0.5820609331130981,0.5032272338867188,-1.3370587129064735,0.9393684184440497,1.5310085621677991
1687012551.8878489,-0.5950037837028503,-0.8034184575080872,-0.022118717432022095,-0.014142334461212158,-0.05963391065597534,0.014779210090637207,1.9680496454238892,-0.39134305715560913,0.44524744153022766,-1.5336393577142933,0.9330144724555,1.7456535905988901
1687012551.892096,-0.609173059463501,-0.7897843718528748,0.07175225019454956,-0.026080727577209473,-0.03164184093475342,0.07085631787776947,2.1514720916748047,-0.4274488687515259,0.3599783182144165,-1.6880424188447718,0.9104574001589067,1.9125899632620065
1687012551.952163,-0.6227741837501526,-0.7679264545440674,0.1498040109872818,-0.09283244609832764,-0.13073986768722534,0.057837486267089844,1.1897528171539307,-0.1633690893650055,0.408513605594635,-1.8068547136535293,0.87559766591622,2.047654152382353
1687012551.965941,-0.637860894203186,-0.7462345957756042,0.1904396414756775,-0.043764352798461914,0.014667272567749023,0.01746128499507904,1.1309877634048462,-0.02215009555220604,0.3692423105239868,-1.8609313226839446,0.8423875743166155,2.11278796863136
1687012552.044914,-0.6508360505104065,-0.7254201173782349,0.22400476038455963,-0.057812631130218506,0.010667920112609863,0.06199061870574951,0.6757064461708069,0.021354859694838524,0.298404335975647,-1.9022769252601652,0.8116445938719484,2.1690553399053676
1687012552.050843,-0.6581250429153442,-0.7118420600891113,0.2452600747346878,0.007047712802886963,0.03401607275009155,-0.0233210027217865,0.5265030860900879,0.009097394533455372,0.08104033023118973,-1.9275181847707816,0.792117447744185,2.206356866363522
1687012552.171196,-0.6574968099594116,-0.7058196663856506,0.2636602818965912,-0.02940809726715088,0.040277063846588135,-0.06743225455284119,0.5375181436538696,0.015737276524305344,-0.16950306296348572,-1.9521697937460503,0.7835795962870835,2.2443947526719827
1687012552.2339458,-0.6477880477905273,-0.706932544708252,0.2839314341545105,0.004660606384277344,0.03382164239883423,-0.015834569931030273,0.6752195954322815,-0.07326893508434296,-0.30509623885154724,-1.9838857273508412,0.7851518154916365,2.2872851378074364
1687012552.250658,-0.6351444125175476,-0.7057068943977356,0.3139568269252777,0.07710015773773193,0.027743756771087646,0.000648796558380127,0.7093790173530579,-0.3146544098854065,-0.26851022243499756,-2.0298798009841375,0.7834203908925009,2.3395231725776062
1687012552.25427,-0.6156036257743835,-0.7002522349357605,0.36149483919143677,0.1353333592414856,0.07282620668411255,0.05496320128440857,1.021721363067627,-0.8672727942466736,-0.30133187770843506,-2.1017658648936206,0.7757507911242214,2.4023044321562255
1687012552.279463,-0.5836441516876221,-0.6887063980102539,0.43016597628593445,-0.14178913831710815,0.05127060413360596,-0.006658345460891724,1.1189478635787964,-1.1096588373184204,-0.3684690296649933,-2.2059478692183077,0.7597033660542841,2.47745372252892
1687012552.3444738,-0.5482813119888306,-0.6795793175697327,0.487400621175766,-0.32253772020339966,-0.09369027614593506,-0.040013015270233154,0.5718176364898682,-0.7203967571258545,-0.3924219012260437,-2.2974788754750004,0.7471890420597299,2.5415989855652
1687012552.4401,-0.5275400876998901,-0.6803086996078491,0.5088039040565491,-0.32400715351104736,-0.16151869297027588,-0.07569849491119385,0.12274479866027832,-0.08807513862848282,-0.2532462477684021,-2.338117348292999,0.7481837120421818,2.572845829531483
1687012552.4582,-0.5226508378982544,-0.6896722912788391,0.5011868476867676,-0.1435631513595581,-0.12240046262741089,-0.06535017490386963,-0.35907429456710815,0.12342113256454468,-0.06981422007083893,-2.3352333093917315,0.7610363610577291,2.573013762322238
1687012552.492284,-0.5258699655532837,-0.6970362067222595,0.4874435067176819,-0.011147797107696533,-0.0363926887512207,-0.06144872307777405,-0.4794263243675232,0.01779288239777088,0.09383842349052429,-2.3182910597836366,0.7712557862017708,2.5535549246122984
1687012552.5542831,-0.5252857208251953,-0.7140194177627563,0.4628725051879883,0.05661207437515259,0.025695502758026123,-0.11617770791053772,-1.0464091300964355,-0.053661152720451355,-0.14125871658325195,-2.293117136687122,0.7952224904431117,2.5172689641559947
1687012552.6484718,-0.5117389559745789,-0.7480379343032837,0.42256683111190796,0.027959048748016357,0.15224319696426392,-0.13461822271347046,-1.3332576751708984,-0.31408271193504333,-0.4318338632583618,-2.2610405752042606,0.845100695814486,2.4636338743722757
1687012552.666677,-0.47635555267333984,-0.7852151989936829,0.39562880992889404,0.022955983877182007,0.2797068953514099,-0.12481600046157837,-0.6544260382652283,-0.8554825782775879,-0.8480770587921143,-2.263879431280613,0.9030435452711325,2.4291726387885557
1687012552.702882,-0.41335639357566833,-0.8149899840354919,0.4061130881309509,0.10895884037017822,0.21347326040267944,-0.0971531867980957,-0.08327082544565201,-1.1655176877975464,-1.309869647026062,-2.3473557066832,0.9527118961310584,2.4689726185393326
1687012552.796081,-0.32164067029953003,-0.8460147380828857,0.4252132773399353,0.16211003065109253,0.17865639925003052,-0.08654451370239258,0.00814742036163807,-1.4529753923416138,-1.7265033721923828,-2.4939941361723674,1.0084655310224455,2.56571085608599
1687012552.802791,-0.2104843556880951,-0.8662048578262329,0.45319440960884094,0.15561378002166748,0.04693007469177246,0.028296560049057007,0.14971120655536652,-1.504431962966919,-1.9274051189422607,-2.7067905405259713,1.0475565854575313,2.7276072588694444
1687012552.89204,-0.09190168231725693,-0.880731999874115,0.4646126329898834,0.14103499054908752,0.02648407220840454,0.004778087139129639,-0.06032222881913185,-1.5038477182388306,-1.9588358402252197,-2.946310673727334,1.0774055906481197,2.916909316626341
1687012552.910647,0.032024774700403214,-0.8904011249542236,0.4540490210056305,0.08787879347801208,0.010670840740203857,0.02194887399673462,-0.23156370222568512,-1.5562528371810913,-2.011323928833008,3.071177724896273,1.0982256885923412,3.1296126228247156
1687012552.9424639,0.15272636711597443,-0.886184573173523,0.43743714690208435,0.09481695294380188,-0.061050355434417725,0.055635273456573486,-0.4230620861053467,-1.4369598627090454,-1.9268218278884888,2.8056850775075906,1.08904442496865,-2.938651273004979
1687012553.03581,0.26442620158195496,-0.8776623010635376,0.3997347950935364,0.09267526865005493,-0.07006114721298218,0.07569855451583862,-0.4706568121910095,-1.376907229423523,-1.7910526990890503,2.5571726783946147,1.0709627278409242,-2.737472726516064
1687012553.051621,0.36575251817703247,-0.8589383363723755,0.3583991527557373,0.07217469811439514,-0.06536281108856201,-0.007630109786987305,-0.670306384563446,-1.4328304529190063,-1.7220919132232666,2.3460403499921476,1.0331927543368065,-2.5730178429601387
1687012553.090169,0.4619440734386444,-0.8311247229576111,0.3095795512199402,0.08761647343635559,-0.020895540714263916,0.07958054542541504,-0.10184139758348465,-1.2625154256820679,-1.736467957496643,2.1612181578408802,0.9811271671463871,-2.436555264456633
1687012553.189204,0.5467565655708313,-0.795836865901947,0.2601940929889679,0.10209286212921143,-0.09532219171524048,-0.02211129665374756,-0.9384502172470093,-1.2631070613861084,-1.6177785396575928,2.0149677586541563,0.9203883984546413,-2.3330959811375234
1687012553.206986,0.6249996423721313,-0.7582612633705139,0.18551264703273773,0.0855867862701416,0.018698394298553467,0.06483826041221619,-0.6796945333480835,-1.095549464225769,-1.69904625415802,1.8593335216005324,0.8606420014557874,-2.2107257859349434
1687012553.248004,0.6939666271209717,-0.708240807056427,0.1296335756778717,0.1123228669166565,-0.08082151412963867,-0.0006206333637237549,-0.7416337132453918,-1.063576340675354,-1.5578678846359253,1.755468822908084,0.7870032392575003,-2.141651249053102
1687012553.305996,0.7504205703735352,-0.657651424407959,0.06605497747659683,0.05625039339065552,-0.02743762731552124,0.042602770030498505,-0.8238972425460815,-0.8725515604019165,-1.5200743675231934,1.6585939718590856,0.717696861880328,-2.0711729227017632
1687012553.370624,0.7988353967666626,-0.6014719605445862,0.00967587623745203,0.06700938940048218,-0.06698507070541382,0.03874015808105469,-0.6693590879440308,-0.8374431729316711,-1.408009648323059,1.5829082117568887,0.6453423556065957,-2.0185171270836237
1687012553.460618,0.8356407284736633,-0.548273503780365,-0.033176593482494354,0.046424031257629395,-0.11475133895874023,0.07741177082061768,-0.32733556628227234,-0.5930850505828857,-1.16248619556427,1.531115182138074,0.5802984139864092,-1.9924842836741201
1687012553.4796,0.8615630865097046,-0.5037713646888733,-0.06263774633407593,0.034631311893463135,-0.08657592535018921,0.06764256954193115,-0.40085065364837646,-0.38132885098457336,-0.9110957980155945,1.498221570355752,0.5279590790315675,-1.9745953127927773
1687012553.542434,0.8810769319534302,-0.4653100371360779,-0.08479345589876175,0.008830845355987549,-0.08550173044204712,0.04899626970291138,-0.34055233001708984,-0.254200279712677,-0.7768357992172241,1.4748533768322492,0.4839848405988412,-1.9562663955435575
1687012553.557198,0.8964526653289795,-0.43180832266807556,-0.09956974536180496,0.0007182955741882324,-0.07197582721710205,0.07591855525970459,-0.1665182113647461,-0.20006808638572693,-0.7133660912513733,1.4601788967375742,0.4464966891781931,-1.9505300792425109
1687012553.634005,0.9098612666130066,-0.3997938632965088,-0.1109827309846878,-0.006586849689483643,-0.059602439403533936,0.04833007603883743,-0.23578223586082458,-0.10819274932146072,-0.6642035245895386,1.4494182957811432,0.4112919276076652,-1.9415583775769842
1687012553.64823,0.9220048189163208,-0.3682142496109009,-0.11968806385993958,-0.0018846988677978516,-0.03252732753753662,0.052335746586322784,-0.2928048372268677,-0.08585983514785767,-0.6863718032836914,1.4417053813208967,0.3770875780598272,-1.932776662975341
1687012553.7306418,0.9330689907073975,-0.33523130416870117,-0.13039273023605347,0.008932292461395264,-0.09282350540161133,0.08014547824859619,-0.17643915116786957,-0.10852724313735962,-0.6170037984848022,1.4319494438989149,0.3418507360140582,-1.922662867123403
1687012553.736672,0.9412357211112976,-0.3095846176147461,-0.13502831757068634,-0.017102479934692383,-0.1198129653930664,0.027392804622650146,-0.08586802333593369,-0.05466463044285774,-0.46511900424957275,1.4283099352051989,0.3147561614874287,-1.9240049686844851
1687012553.7823539,0.9469707012176514,-0.29097726941108704,-0.13630411028862,-0.009119808673858643,-0.08283254504203796,-0.006121456623077393,-0.2162158191204071,0.08711797744035721,-0.2914747893810272,1.4278411913825726,0.29524815101886626,-1.9192466565181137
1687012553.8773808,0.9501264095306396,-0.2819693684577942,-0.13324007391929626,-0.0133894681930542,-0.06626668572425842,-0.03015105426311493,-0.06693951785564423,0.09308826178312302,-0.10552661120891571,1.4314708480506388,0.2858461367952196,-1.9119957327707628
1687012553.894823,0.95134437084198,-0.27883288264274597,-0.13113392889499664,-0.003987252712249756,-0.05945444107055664,0.005691349506378174,-0.03855927288532257,0.02757476270198822,-0.03571237623691559,1.4338188528657674,0.28257857417042254,-1.910150681587732
1687012553.931853,0.9512426257133484,-0.27922841906547546,-0.13103124499320984,0.0034083127975463867,-0.020286381244659424,0.005115672945976257,-0.03645994886755943,0.03979378938674927,-0.007342190016061068,1.4339103194591911,0.28299047117046344,-1.9080570697937698
1687012554.0325541,0.9513202905654907,-0.2799983620643616,-0.12880389392375946,-0.0055196285247802734,0.02307090163230896,0.014515534043312073,-0.014530416578054428,0.057416725903749466,-0.006790383253246546,1.4362198053140904,0.2837924024997047,-1.9071460171661991
1687012554.048987,0.9514122605323792,-0.2807110548019409,-0.12655463814735413,-0.004619717597961426,0.010935664176940918,0.008573591709136963,0.10951780527830124,0.029941778630018234,0.017901182174682617,1.4385549622610805,0.28453487326036947,-1.9072344010610907
1687012554.080246,0.9516295194625854,-0.28130993247032166,-0.12355472147464752,0.0020294189453125,0.010481715202331543,-0.006190769374370575,-0.03791851922869682,0.052390631288290024,0.0020295400172472,1.4416836833455928,0.28515890311324515,-1.9088547182365825
1687012554.187921,0.9519197344779968,-0.2808877229690552,-0.12227396667003632,0.011947393417358398,-0.013454288244247437,-0.007990360260009766,0.03406046703457832,-0.010303379036486149,-0.02526552975177765,1.4430459894238203,0.28471895769423805,-1.9106911754407385
1687012554.194555,0.9520708322525024,-0.28028184175491333,-0.1224871426820755,0.0002759099006652832,0.00603562593460083,-0.007105827331542969,0.008315909653902054,0.01155895460397005,-0.0033179540187120438,1.4428457752059392,0.2840877159276205,-1.9107519423335773
1687012554.232095,0.9518117904663086,-0.2809862494468689,-0.12288620322942734,-0.0009604096412658691,-0.013554155826568604,-0.0014730095863342285,0.0050074211321771145,-0.016944149509072304,0.016743304207921028,1.442398927796374,0.28482161357488606,-1.9100887541380571
1687012554.324168,0.9515438079833984,-0.2812977731227875,-0.12424123287200928,0.011957108974456787,0.007768750190734863,0.015491783618927002,-0.005642737727612257,-0.01978050358593464,0.01010391116142273,1.440962740263023,0.28514622243788823,-1.909139144175059
1687012554.343618,0.9512444734573364,-0.2821756899356842,-0.12454275786876678,0.004779696464538574,-0.004201233386993408,0.017151355743408203,-0.025252746418118477,0.0063595762476325035,0.011954941786825657,1.4406106930430476,0.28606120503704174,-1.909334062058467
1687012554.380064,0.9513679146766663,-0.28219693899154663,-0.12354706227779388,-0.004041314125061035,-0.013731986284255981,0.014080464839935303,-0.11640392243862152,0.02566678449511528,0.029880212619900703,1.441656497142393,0.28608334286097364,-1.905671498457854
1687012554.480942,0.9514415860176086,-0.28234922885894775,-0.12262808531522751,0.013234198093414307,0.004639297723770142,0.004677601158618927,0.03950183838605881,0.017676590010523796,0.0013377174036577344,1.4426163652817265,0.2862421103534854,-1.9044947561763634
1687012554.488604,0.9515835046768188,-0.28267061710357666,-0.12077347934246063,-0.012572944164276123,-0.020796209573745728,0.00869762897491455,-0.1174023374915123,0.030312402173876762,0.010804522782564163,1.4445528741701916,0.28657711977035255,-1.9050216034219085
1687012554.5331368,0.9515455365180969,-0.28257080912590027,-0.12130486965179443,0.006050288677215576,0.010247200727462769,-0.009844481945037842,-0.05787327513098717,0.006457314360886812,0.019440021365880966,1.4439983238028338,0.28647307816336126,-1.8981575941034587
1687012554.629579,0.9511628150939941,-0.2836986482143402,-0.1216728463768959,0.018212735652923584,0.01294669508934021,-0.0004280209541320801,0.008762123063206673,-0.013235341757535934,0.0037004738114774227,1.443567193957244,0.2876490375222981,-1.8968660938185857
1687012554.637655,0.9509437084197998,-0.2839779853820801,-0.12272876501083374,0.0044852495193481445,0.0039487481117248535,0.020723707973957062,-0.01251977402716875,-0.006648368202149868,0.002166692866012454,1.4424458433956502,0.2879403623994719,-1.8960712255077143
1687012554.684977,0.9511055946350098,-0.28360792994499207,-0.12233103066682816,-0.0005745291709899902,0.012276113033294678,0.01146058738231659,-0.04004811495542526,0.008846080861985683,-0.0018695275066420436,1.4428788019327687,0.28755445290493814,-1.8954068982503371
1687012554.7791572,0.9514874815940857,-0.28293952345848083,-0.12089978903532028,0.0021104812622070312,-0.004887014627456665,0.013279497623443604,0.007116733118891716,0.025605354458093643,-0.006248163525015116,1.4444096266755384,0.28685748567191827,-1.895220087764292
1687012554.7961059,0.9517585635185242,-0.28244301676750183,-0.1199234127998352,-0.0022346973419189453,-0.02065756916999817,0.0017745494842529297,-0.1271623820066452,0.03646119683980942,0.007380895782262087,1.4454549444854532,0.2863398608399815,-1.8916837389052013
1687012554.830981,0.9517217874526978,-0.282663494348526,-0.11969504505395889,-0.01619023084640503,-0.03088933229446411,-0.002634704113006592,-0.08974621444940567,0.020539134740829468,0.039635106921195984,1.4456863607992492,0.28656971035721135,-1.8864727323788855
1687012554.931351,0.9505021572113037,-0.28645870089530945,-0.12036244571208954,-0.018739402294158936,-0.06508854031562805,-0.022581949830055237,-0.028430696576833725,-0.011364026926457882,0.12446284294128418,1.4448363631245436,0.2905285961962053,-1.8817086715252251
1687012554.9390059,0.9473061561584473,-0.29627692699432373,-0.1217823401093483,-0.03678375482559204,-0.10307610034942627,-0.017057418823242188,0.27040496468544006,-0.1002495139837265,0.2741886377334595,1.4429411207896543,0.3007921840991225,-1.8859562758298791
1687012554.9840531,0.9405797719955444,-0.31721365451812744,-0.12118203938007355,-0.02071899175643921,-0.1455700695514679,-0.008532993495464325,0.24427132308483124,-0.05297183617949486,0.5264214873313904,1.4426645717797737,0.3227899633438806,-1.898161694239361
1687012555.08038,0.9298220276832581,-0.3492463231086731,-0.11600761860609055,0.007983028888702393,-0.10844102501869202,0.047755010426044464,0.5738084316253662,0.02489757351577282,0.7770464420318604,1.4466744441934065,0.3567666697796999,-1.9115489243460857
1687012555.088902,0.9134282469749451,-0.3949549198150635,-0.09828309714794159,0.014672398567199707,-0.1412695050239563,0.07814143598079681,0.7322041392326355,0.19289305806159973,1.0466551780700684,1.4636106521581864,0.40601877261836267,-1.9439857832573142
1687012555.129894,0.8903511762619019,-0.44946879148483276,-0.07247396558523178,0.02308565378189087,-0.10527974367141724,0.07192456722259521,0.5034819841384888,0.4145091474056244,1.2590051889419556,1.4895760932816235,0.466170584064023,-1.9685877740903905
1687012555.228948,0.8602837324142456,-0.5083860754966736,-0.03814960643649101,0.04816347360610962,-0.04344797134399414,0.08758801221847534,0.4934477210044861,0.6244494915008545,1.372945785522461,1.5264799847136996,0.5333095489141604,-1.9923392824013224
1687012555.246732,0.822727620601654,-0.5684230327606201,0.0038225094322115183,0.07970774173736572,-0.025601625442504883,0.06134772300720215,0.4248156249523163,0.7886785864830017,1.4714510440826416,1.5754424352389265,0.6045878499083523,-2.0170685433435596
1687012555.281888,0.777215838432312,-0.6271395683288574,0.05129953846335411,0.08846110105514526,0.013736188411712646,0.0422215536236763,0.5459272861480713,0.8846778273582458,1.5065439939498901,1.6367049626469605,0.6778753553635705,-2.0502978403894705
1687012555.379432,0.7241087555885315,-0.6819191575050354,0.10321167856454849,0.08407294750213623,0.0006142258644104004,0.02975332736968994,0.4199109971523285,1.0492537021636963,1.5281904935836792,1.7123787926011313,0.7503833238957484,-2.0923669154070543
1687012555.396113,0.6633609533309937,-0.7318825125694275,0.15588557720184326,0.10903894901275635,0.015360236167907715,0.010190978646278381,0.4583605229854584,1.1744494438171387,1.5247136354446411,1.8016022196349968,0.821080482575817,-2.1407304430437946
1687012555.464007,0.5949366688728333,-0.7749021649360657,0.21348820626735687,0.11101120710372925,-0.011642634868621826,0.005368590354919434,0.46879783272743225,1.2642062902450562,1.5315147638320923,1.9153263179640945,0.88656030665275,-2.2106856473026215
1687012555.559171,0.5196080803871155,-0.8120027780532837,0.265816867351532,0.12252742052078247,0.018027067184448242,-0.07319003343582153,0.4579489529132843,1.2195862531661987,1.485903024673462,2.0436585143262604,0.9475753791853937,-2.2929899840999015
1687012555.5768209,0.4413887560367584,-0.839719295501709,0.316303014755249,0.12256085872650146,0.010526061058044434,-0.018451541662216187,0.5636059045791626,1.2789722681045532,1.4513283967971802,2.1925822825250836,0.996766088095592,-2.3991856230046786
1687012555.643059,0.3556438386440277,-0.8602544069290161,0.3653484880924225,0.1622852087020874,-0.018285512924194336,-0.024238377809524536,0.4066872298717499,1.3728059530258179,1.489749789237976,2.369653797626802,1.0357683942680378,-2.528470861751124
1687012555.657589,0.2657572627067566,-0.8764799237251282,0.40144190192222595,0.14983105659484863,0.019180357456207275,-0.028212010860443115,0.34902095794677734,1.3392945528030396,1.4695587158203125,2.5568230675136485,1.068501271682158,-2.666450381890229
1687012555.733233,0.17544175684452057,-0.8826943635940552,0.43597137928009033,0.147129088640213,0.01060861349105835,0.0007503926753997803,0.5846342444419861,1.28737211227417,1.4443708658218384,2.7590054610621912,1.0815650312112661,-2.8232965284043754
1687012555.73914,0.08377566188573837,-0.8814074397087097,0.4648679196834564,0.14950069785118103,0.027312159538269043,0.017187654972076416,0.4111185669898987,1.2666960954666138,1.4254730939865112,2.963292533682407,1.0788336399337903,-2.982599263070677
1687012555.856989,-0.009055753238499165,-0.8749292492866516,0.48416632413864136,0.13162961602210999,0.0030266642570495605,0.030466854572296143,0.27898097038269043,1.3504678010940552,1.4058271646499634,-3.12289102765263,1.0652896835572614,-3.132119535430997
1687012555.875586,-0.10048921406269073,-0.8639277815818787,0.4934879243373871,0.13685092329978943,0.02991306781768799,-0.043872565031051636,0.3057219982147217,1.203343391418457,1.373351812362671,-2.9407086403010423,1.0430174725751697,3.014824025632484
1687012555.9762502,-0.18828436732292175,-0.8487876653671265,0.4940735399723053,0.10788579285144806,0.02568274736404419,-0.031869590282440186,0.059417176991701126,1.131311058998108,1.3392058610916138,-2.7774972820052817,1.0136881986108288,2.892521096384131
1687012555.994205,-0.26682615280151367,-0.8387312293052673,0.47469303011894226,0.06634098291397095,0.056825220584869385,-0.005683720111846924,-0.19072595238685608,1.0218017101287842,1.1534817218780518,-2.6295051789237527,0.9949490226567695,2.780981996712635
1687012556.03203,-0.33189326524734497,-0.8217281103134155,0.46326011419296265,0.11196830868721008,0.07192641496658325,-0.046176373958587646,0.34136489033699036,0.7878060340881348,0.9353606104850769,-2.519925019882438,0.9644368285605854,2.705160131835005
1687012556.036438,-0.3809078335762024,-0.802325427532196,0.45954644680023193,0.06662258505821228,0.025592029094696045,-0.005124568939208984,0.03684458136558533,0.6466338634490967,0.754001796245575,-2.4494896411242575,0.9311809940454945,2.660728102741775
1687012556.0395231,-0.4219873249530792,-0.7854025959968567,0.45284560322761536,-0.020929455757141113,0.09720081090927124,-0.0791274905204773,0.23691974580287933,0.5726802349090576,0.5783694982528687,-2.391453196397931,0.9033462363434854,2.628025669810272
1687012556.090757,-0.45377498865127563,-0.7734690308570862,0.4425314962863922,-0.08519601821899414,0.08543485403060913,-0.1096915602684021,0.040586717426776886,0.5688709020614624,0.43750038743019104,-2.3436509039319313,0.8842961478736671,2.6030950417449996
1687012556.1555982,-0.48111018538475037,-0.7641813158988953,0.42960456013679504,-0.13673347234725952,0.018743574619293213,-0.11478525400161743,-0.2603500783443451,0.5454941391944885,0.3786832094192505,-2.299699494232915,0.8697710796550466,2.581097636289097
1687012556.217314,-0.5049818158149719,-0.7595106363296509,0.41004475951194763,-0.1166459321975708,0.05130457878112793,-0.1208602786064148,-0.30964094400405884,0.39171847701072693,0.35620784759521484,-2.2528110988610566,0.862560452148704,2.550458773076838
1687012556.272687,-0.5220875144004822,-0.7588185667991638,0.38938280940055847,-0.07741504907608032,0.07563680410385132,-0.09313344955444336,-0.26334935426712036,0.2637743353843689,0.190096914768219,-2.21161626230156,0.8614972641577898,2.51750679015463
1687012556.37118,-0.5323052406311035,-0.7630760669708252,0.3665599226951599,-0.07645940780639648,-0.06433188915252686,-0.0491771399974823,-0.7709789872169495,0.4233117997646332,0.06829430907964706,-2.17384872450201,0.8680592406320169,2.4884652910365244
1687012556.388777,-0.5432814955711365,-0.7808271050453186,0.30847111344337463,-0.1252518892288208,-0.03174930810928345,-0.04626414179801941,-1.4668740034103394,0.5809856653213501,0.04044124484062195,-2.0871970411486207,0.8959886394310544,2.409990934664417
1687012556.419705,-0.5527510643005371,-0.7988964915275574,0.23712994158267975,-0.10783237218856812,-0.02669548988342285,-0.0063408613204956055,-1.3786970376968384,0.7134959697723389,0.034457989037036896,-1.9760497065137286,0.9254582966962502,2.308941119328152
1687012556.5766249,-0.5587636232376099,-0.8173350095748901,0.1405237466096878,-0.11282145977020264,0.06879979372024536,0.025369778275489807,-2.345660924911499,0.6625497341156006,-0.09670549631118774,-1.8171773217910099,0.9567703542066086,2.154794928623575
1687012556.5949001,-0.557917594909668,-0.8290389776229858,0.03771478310227394,-0.1024523377418518,-0.053407371044158936,-0.02749144658446312,-1.9460479021072388,0.7543874979019165,-0.10235864669084549,-1.638292843833557,0.9773869037829789,1.9820021819754021
1687012556.6992621,-0.5516883134841919,-0.8277052044868469,-0.10268323123455048,-0.19719773530960083,0.22621911764144897,0.010748989880084991,-3.8475091457366943,0.7676922082901001,-0.34009623527526855,-1.386776566003351,0.9750059309276286,1.7245955405255868
1687012556.707869,-0.534838855266571,-0.7939673662185669,-0.28907346725463867,-0.15650641918182373,-0.15317630767822266,0.02503529191017151,-4.75269889831543,0.8670946359634399,-0.18527916073799133,-1.075286045713539,0.9173071233046011,1.39379404692177
1687012556.713279,-0.5109490156173706,-0.6989501118659973,-0.500399649143219,-0.2196875810623169,0.1479247808456421,0.13490581512451172,-4.380785942077637,0.9814351797103882,-0.24699606001377106,-0.7958287420746732,0.7739284541471987,1.081057057033442
1687012556.821634,-0.4687749445438385,-0.6080214977264404,-0.6407495141029358,-0.09509831666946411,-0.2616378664970398,0.033815860748291016,-4.279635429382324,1.2096437215805054,-0.3188650608062744,-0.6316233886279501,0.6535661723175384,0.9183800409283221
1687012556.8383188,-0.41105687618255615,-0.402701735496521,-0.8178408145904541,-0.16738852858543396,0.027259260416030884,0.0788729190826416,-5.4384894371032715,1.4266546964645386,-0.5726820230484009,-0.46573528700860384,0.41446659778856354,0.7167473074921001
1687012556.905326,-0.34026795625686646,-0.26995500922203064,-0.9007452726364136,-0.07847893238067627,-0.007098793983459473,0.17874515056610107,-2.7517526149749756,1.3862477540969849,-0.757516086101532,-0.36119056579258985,0.2733463033969131,0.6123254269414319
1687012556.921057,-0.24749112129211426,-0.08854357898235321,-0.9648358225822449,-0.11511872708797455,-0.041369736194610596,0.16226929426193237,-4.908465385437012,2.171091079711914,-1.2967336177825928,-0.25109732218883757,0.08865968524994286,0.5026965233562878
1687012556.993658,-0.1404043585062027,0.08101395517587662,-0.986774206161499,0.10320344567298889,-0.058629296720027924,0.12704825401306152,-3.005784749984741,2.186800241470337,-1.820420503616333,-0.14133748505399246,-0.08110284063552743,0.38722508133101835
1687012557.008687,-0.041433852165937424,0.21982185542583466,-0.9746597409248352,0.3585420250892639,-0.12695685029029846,-0.034220874309539795,-2.8710999488830566,2.3108363151550293,-2.478731393814087,-0.0424855159508648,-0.22163185102523184,0.26817309822180013
1687012557.120743,0.012804225087165833,0.2949419617652893,-0.9554293751716614,0.5048196911811829,0.028605401515960693,0.3212435841560364,-0.007452444173395634,1.4795197248458862,-1.9885705709457397,0.013400737769998278,-0.299394763970353,0.14132511306934586
1687012557.13863,0.04607474058866501,0.29620930552482605,-0.954011082649231,0.3651953935623169,-0.29378318786621094,0.09982413053512573,-0.110194131731987,0.6295171976089478,-0.7719139456748962,0.04825831440377426,-0.3007214050527856,0.07035277731842049
1687012557.273112,0.057140935212373734,0.2976895868778229,-0.9529511332511902,0.14509905874729156,-0.1391507387161255,0.027398765087127686,-0.2664734423160553,0.15937212109565735,-0.05305681377649307,0.059890374800284404,-0.3022715967157063,0.05414041654047915
1687012557.290643,0.06048455461859703,0.29691460728645325,-0.9529865384101868,0.06744513660669327,0.10520026087760925,-0.017975986003875732,0.4325292408466339,-0.032550450414419174,-0.031252648681402206,0.06338341058358943,-0.3014599327793537,0.053410847187183544
1687012557.294282,0.058312926441431046,0.286944717168808,-0.9561706781387329,0.052191223949193954,0.045910537242889404,0.01786196231842041,0.09617647528648376,-0.10854464024305344,0.09706637263298035,0.06091045958610219,-0.2910359062400076,0.054371649690255215
1687012557.386026,0.05444103851914406,0.2836592197418213,-0.9573785066604614,0.05502551421523094,0.024018973112106323,0.004711329936981201,-0.030435392633080482,-0.12584666907787323,0.14242686331272125,0.056803522942103966,-0.2876079350695065,0.06135904647334521
1687012557.392174,0.05076814815402031,0.2793358266353607,-0.9588503837585449,0.02369474619626999,0.027091175317764282,0.04834318161010742,0.10961585491895676,-0.07235174626111984,0.04326479136943817,0.05289749801842658,-0.2831023196673017,0.06603687214714486
1687012557.408224,0.050501689314842224,0.27931907773017883,-0.9588693380355835,0.026677269488573074,0.034096479415893555,0.034598708152770996,0.07941516488790512,-0.05880140885710716,0.014721833169460297,0.0526193397508682,-0.2830848826703619,0.06722920556353205
1687012557.508122,0.05063151568174362,0.2808830440044403,-0.9584055542945862,0.029568679630756378,4.652142524719238e-05,0.03053385019302368,-0.04183030128479004,-0.0006302453111857176,0.015835966914892197,0.0527798424501213,-0.28471408300888673,0.06862501726036817
1687012557.5264812,0.05095841363072395,0.28206968307495117,-0.9580396413803101,0.018621668219566345,0.010426044464111328,0.02055490016937256,-0.037097908556461334,-0.009452586993575096,-0.016801273450255394,0.053140220945872736,-0.2859507065379514,0.06881713116404298
1687012557.593629,0.051760490983724594,0.2831636071205139,-0.9576738476753235,0.017926398664712906,-0.014578402042388916,0.015474200248718262,-0.008958151564002037,0.0018144480418413877,0.02101002261042595,0.05399560533798662,-0.2870911286955703,0.06898332235362803
1687012557.598129,0.05242311954498291,0.2900145351886749,-0.9555853605270386,0.02814329043030739,-0.008230477571487427,0.011051058769226074,-0.23527118563652039,-0.055848848074674606,0.1373165249824524,0.054804756465394774,-0.2942420228387352,0.07389112868548287
1687012557.750148,0.05095408111810684,0.2968039810657501,-0.9535780549049377,0.051295068114995956,0.006067752838134766,0.00010210275650024414,-0.08072789758443832,-0.18100214004516602,0.21808640658855438,0.05338385135582337,-0.3013440581901225,0.08418669633889188
1687012557.756865,0.04491158202290535,0.29709774255752563,-0.9537902474403381,0.06939201056957245,-0.022012293338775635,-0.00675046443939209,-0.05254353582859039,-0.3113263249397278,0.3374309837818146,0.04705272591909063,-0.3016517154443659,0.0990413999244147
1687012557.83739,0.029235893860459328,0.29030194878578186,-0.9564883708953857,0.09721369296312332,0.0019038617610931396,-0.007836520671844482,0.3070102632045746,-0.6258384585380554,0.5310951471328735,0.030556350940564077,-0.29454235138180485,0.12122987597539771
1687012557.855042,0.0011301760096102953,0.2704760730266571,-0.9627260565757751,0.15975850820541382,0.029450684785842896,-0.016491472721099854,0.7374337911605835,-0.974872887134552,0.6814728379249573,0.0011739326428609107,-0.2738875152190593,0.15345179208881032
1687012557.8586679,-0.04880372807383537,0.20110566914081573,-0.9783530831336975,0.17874759435653687,0.07558196783065796,0.01511150598526001,2.1696112155914307,-1.4055798053741455,0.6655709147453308,-0.04984224188779456,-0.20248652463394531,0.18829507157286893
1687012557.922354,-0.11550606787204742,0.0862804502248764,-0.9895524382591248,0.14111033082008362,0.01526680588722229,0.047795236110687256,2.5376651287078857,-1.4494270086288452,0.7863332033157349,-0.11619973406281382,-0.08638786213473301,0.23475280250872874
1687012557.936172,-0.19133055210113525,-0.05093879997730255,-0.9802029728889465,0.18681398034095764,0.04933665320277214,0.05855685472488403,3.474191427230835,-1.6812119483947754,0.745945155620575,-0.19277096917180075,0.05096085474516233,0.2945744806652531
1687012558.051108,-0.2750408947467804,-0.22614240646362305,-0.9344581961631775,0.04594546556472778,0.00945235788822174,0.05945819616317749,4.159199237823486,-1.4988003969192505,0.9144014716148376,-0.28624866690128414,0.2281156595152647,0.38360456800049564
1687012558.058888,-0.3555986285209656,-0.4158013164997101,-0.837053656578064,0.10575127601623535,0.13049253821372986,0.13397449254989624,5.247241973876953,-1.4852490425109863,0.9888120293617249,-0.40171969904385213,0.4288237222418631,0.5105269026121492
1687012558.263742,-0.4279613196849823,-0.5916105508804321,-0.6832613945007324,0.021284103393554688,-0.015612900257110596,0.10568571090698242,4.778714179992676,-0.9826937913894653,0.9859740138053894,-0.5595700873826548,0.6330550264401402,0.6999078548033102
1687012558.348388,-0.4829632639884949,-0.7112569808959961,-0.5107445120811462,-0.03044918179512024,0.05645662546157837,0.07725751399993896,4.643876075744629,-0.6865972876548767,0.8588118553161621,-0.7574482889161763,0.7912848204172307,0.9355551261981684
1687012558.368341,-0.5242419838905334,-0.7764604091644287,-0.34968507289886475,-0.12231862545013428,-0.010740518569946289,0.05096369981765747,3.4250597953796387,-0.4248027503490448,0.7055395841598511,-0.9825422940748628,0.8890293248316247,1.20038596855101
1687012558.3737369,-0.5547938942909241,-0.8044891357421875,-0.21213477849960327,0.00035053491592407227,-0.0014191865921020508,0.007376998662948608,3.0434770584106445,-0.41821354627609253,0.5697610378265381,-1.2055827783609427,0.9348148396161156,1.4564230931505842
1687012558.385621,-0.5796675682067871,-0.8098941445350647,-0.08975983411073685,-0.07084506750106812,-0.05776631832122803,0.043296754360198975,2.327394962310791,-0.3365819752216339,0.498004674911499,-1.4171693579560876,0.943971675067552,1.6950122100786524
1687012558.388304,-0.600439727306366,-0.7996695041656494,-0.0009103365591727197,-0.002816498279571533,0.01620703935623169,0.010569095611572266,1.8397103548049927,-0.26447662711143494,0.4413057863712311,-1.5692802115324351,0.9267446080000485,1.8663099896589437
1687012558.4294782,-0.615408182144165,-0.7848151922225952,0.07306095212697983,-0.05523085594177246,-0.01813274621963501,0.0062847137451171875,1.411453127861023,-0.3075312376022339,0.3528081178665161,-1.688962743129716,0.9023978943161393,1.9974670727675865
1687012558.441403,-0.6252735257148743,-0.7696669101715088,0.12901794910430908,-0.08091837167739868,0.008802711963653564,0.03281663358211517,1.0303627252578735,-0.3492203652858734,0.2809472978115082,-1.7742790215289366,0.8783192287934624,2.085615931146284
1687012558.443744,-0.6314289569854736,-0.7538449764251709,0.18170017004013062,-0.07450360059738159,0.014450013637542725,-0.017805591225624084,1.2075170278549194,-0.2343207746744156,0.16345159709453583,-1.8509865461894173,0.8538944581735151,2.1669773350419175
1687012558.4879751,-0.6339548826217651,-0.7415201663970947,0.21965673565864563,-0.06273090839385986,-0.006465733051300049,0.012444615364074707,0.5560780167579651,-0.16489623486995697,0.053410306572914124,-1.9043375656256216,0.8353332603654227,2.2246060436489237
1687012558.551997,-0.6333885788917542,-0.7329040169715881,0.24833615124225616,-0.01321786642074585,-0.004217624664306641,0.05392518639564514,0.8873418569564819,-0.08304593712091446,0.023369714617729187,-1.9444526364761237,0.8225806855990359,2.271088893464161
1687012558.648957,-0.6353510022163391,-0.7168903350830078,0.287049263715744,0.03697764873504639,-0.03410142660140991,0.053908318281173706,0.7461614012718201,-0.19975657761096954,0.2058289349079132,-1.9951431085818594,0.7993316901919845,2.3319003877794486
1687012558.665917,-0.6417798399925232,-0.6957407593727112,0.3225884735584259,-0.013051033020019531,0.05024820566177368,0.045468688011169434,0.823717474937439,-0.508836567401886,0.4265459477901459,-2.0365589901429497,0.769450654256557,2.3644517317784866
1687012558.733063,-0.6444715857505798,-0.6713293194770813,0.3660241365432739,-0.16702145338058472,0.03132975101470947,-0.10235217213630676,0.5401925444602966,-0.4129042625427246,0.18869522213935852,-2.0873120786074963,0.7360008665107932,2.4008127871857927
1687012558.829925,-0.6396743059158325,-0.6667710542678833,0.3824036419391632,-0.16130506992340088,-0.029655158519744873,-0.18582484126091003,0.05475500226020813,-0.046707633882761,-0.20823068916797638,-2.109603907480943,0.7298677033593441,2.418392383063607
1687012558.848582,-0.6278176307678223,-0.6794520020484924,0.37972337007522583,-0.12039703130722046,0.05527603626251221,-0.1776512861251831,-0.16479718685150146,-0.1395971029996872,-0.4004826247692108,-2.1147602505141783,0.7470155302728981,2.4225328549349383
1687012558.918212,-0.6087024211883545,-0.6942433714866638,0.38406670093536377,-0.03947561979293823,0.0685567855834961,-0.12292790412902832,-0.13664425909519196,-0.4449564814567566,-0.3900802433490753,-2.1336697775641706,0.7673681408300165,2.427789793443611
1687012558.92366,-0.5829970836639404,-0.712357759475708,0.3907185196876526,0.0023543834686279297,0.12300223112106323,-0.12034803628921509,-0.4213966727256775,-0.6593858003616333,-0.5292028784751892,-2.161233841829918,0.7928520408587293,2.4284224087651145
1687012559.007832,-0.5456985831260681,-0.7377128601074219,0.3974832594394684,0.019804418087005615,0.1268882155418396,-0.09860938787460327,-0.36442503333091736,-0.7376636266708374,-0.8188408017158508,-2.200325206723456,0.829676257594196,2.4349431996195983
1687012559.023985,-0.49178561568260193,-0.7723817229270935,0.4019622802734375,0.055689334869384766,0.13813477754592896,-0.11541751027107239,-0.6053906083106995,-0.9635031819343567,-1.1776728630065918,-2.2560289660658457,0.8825824765940238,2.4528022487807917
1687012559.095041,-0.41721487045288086,-0.8127653002738953,0.4066256284713745,0.06237173080444336,0.16153544187545776,-0.04879188537597656,-0.20600703358650208,-1.1462655067443848,-1.5126023292541504,-2.3433416988305713,0.9488830726542641,2.494952904466925
1687012559.1136398,-0.32591894268989563,-0.8456674218177795,0.42263898253440857,0.07971832156181335,0.07390826940536499,-0.026108771562576294,-0.2988288700580597,-1.2471460103988647,-1.7460399866104126,-2.4846910528753448,1.007814468406377,2.5958903832419473
1687012559.183166,-0.2236640751361847,-0.8772804737091064,0.42468008399009705,0.09292680025100708,0.07186061143875122,0.0022912919521331787,-0.19449499249458313,-1.29337739944458,-1.8176805973052979,-2.656841404216917,1.0701666252535245,2.722738124182773
1687012559.3119102,-0.11578147113323212,-0.8957407474517822,0.42923539876937866,0.07412499189376831,-0.021724402904510498,0.07363316416740417,-0.17275379598140717,-1.2558850049972534,-1.794520378112793,-2.878124228114698,1.110094572338534,2.89938467634124
1687012559.330751,-0.010369631461799145,-0.9057586193084717,0.42366668581962585,0.06342444568872452,0.0013703703880310059,-0.004492580890655518,-0.34204772114753723,-1.2693352699279785,-1.7718970775604248,-3.11712162003543,1.1331664147445901,3.096033515928492
1687012559.347034,0.09604283422231674,-0.906973123550415,0.41009193658828735,0.05137231945991516,0.0009673237800598145,0.04056107997894287,-0.1224086806178093,-1.261915922164917,-1.8020434379577637,2.911540562007418,1.1360410105596541,-2.9770385384132863
1687012559.3499532,0.2022700160741806,-0.8994576930999756,0.3873791992664337,0.0509037971496582,-0.011964976787567139,-0.01987135410308838,-0.5558855533599854,-1.2640888690948486,-1.8534998893737793,2.660382527784134,1.1185270085699675,-2.767507606643508
1687012559.365763,0.3115602433681488,-0.8860350251197815,0.3433249294757843,0.08098730444908142,0.00972282886505127,0.03861770033836365,-0.4223569631576538,-1.26539945602417,-1.9530231952667236,2.404660708093426,1.0887217645028275,-2.553850496013376
1687012559.423212,0.41828179359436035,-0.8563252091407776,0.30289870500564575,0.11779001355171204,-0.03629875183105469,-0.04691728949546814,-0.7561467289924622,-1.2942759990692139,-2.0246400833129883,2.197547051104592,1.0281114885895541,-2.3863525907719882
1687012559.486249,0.5185768008232117,-0.8197523951530457,0.24307282269001007,0.1343468427658081,-0.012431561946868896,0.11506620049476624,-0.2549404501914978,-1.1554181575775146,-1.9243981838226318,2.009116989613211,0.9609785112134198,-2.2398130667377485
1687012559.5449638,0.6010099649429321,-0.77336186170578,0.2017393708229065,0.13161033391952515,-0.09692329168319702,0.0006379187107086182,-0.5600709319114685,-1.0395427942276,-1.6384105682373047,1.8946459436050405,0.8841270224576091,-2.162700406799626
1687012559.6062741,0.6701947450637817,-0.729020357131958,0.1391703188419342,0.045106709003448486,-0.026823759078979492,0.016453981399536133,-0.8985942602157593,-0.9716376662254333,-1.6352745294570923,1.775542982117018,0.816889617446478,-2.0708989327224887
1687012559.699805,0.7330811619758606,-0.6755390167236328,0.07898854464292526,0.0647704005241394,-0.05055046081542969,0.0002808570861816406,-0.7123327851295471,-0.9605379700660706,-1.668293833732605,1.6781309322256281,0.7416954868535952,-1.9994321140058102
1687012559.719682,0.787908136844635,-0.6154823303222656,0.019551781937479973,0.058740973472595215,-0.08878707885742188,0.032739996910095215,-0.7976925373077393,-0.8897958397865295,-1.5742359161376953,1.595606034007169,0.6629977847372126,-1.9441281448671288
1687012559.7534199,0.8293235301971436,-0.5579372048377991,-0.030470868572592735,0.08895033597946167,-0.10899394750595093,0.06433004140853882,-0.4925495982170105,-0.6396207213401794,-1.2448641061782837,1.5340710111493503,0.5918980714922303,-1.904991009867403
1687012559.846138,0.8561941385269165,-0.5132527947425842,-0.059188149869441986,0.061499953269958496,-0.07491248846054077,0.06439131498336792,-0.24746686220169067,-0.32616502046585083,-0.8697060346603394,1.5017767776897182,0.5389706069575168,-1.8878618512435676
1687012559.8662128,0.8735007643699646,-0.48119446635246277,-0.07381395250558853,0.0287361741065979,-0.06204897165298462,0.09085798263549805,-0.1733521968126297,-0.16937389969825745,-0.6684859395027161,1.4864930214595165,0.5020167816500193,-1.8811938113314783
1687012559.932547,0.8891469240188599,-0.449550062417984,-0.0855715200304985,-0.01805323362350464,-0.04414805769920349,0.09924334287643433,-0.5158499479293823,-0.029638726264238358,-0.7351254224777222,1.4748517932340581,0.46626156145395364,-1.8644558455475164
1687012559.947777,0.9048746228218079,-0.414836585521698,-0.09545959532260895,-0.016660571098327637,0.011302649974822998,0.07267814874649048,-0.2798876166343689,-0.04881215840578079,-0.7416661977767944,1.4656902629162205,0.4277632058501019,-1.8451029541877217
1687012559.9888659,0.919533371925354,-0.379597544670105,-0.10180521011352539,-0.02657371759414673,-0.0759384036064148,0.07633821666240692,-0.12546132504940033,-0.0588342510163784,-0.754357099533081,1.4605313950427021,0.38936125260312876,-1.8420853933688133
1687012560.087676,0.9316283464431763,-0.3473808765411377,-0.10674768686294556,-0.016864001750946045,-0.1095283031463623,0.02177143096923828,-0.3426671624183655,0.014132899232208729,-0.6105021834373474,1.4567120259579454,0.3547765952131362,-1.8324990307825577
1687012560.103719,0.9408882260322571,-0.32024848461151123,-0.11031797528266907,0.01171785593032837,-0.07118520140647888,-0.030413858592510223,-0.22436095774173737,0.05243004113435745,-0.45146453380584717,1.4540804621395496,0.32599177548472213,-1.8173026273708794
1687012560.140804,0.9466096758842468,-0.3031403124332428,-0.10970942676067352,-0.004043698310852051,-0.1332152783870697,-0.008057966828346252,-0.05353605002164841,0.04068266227841377,-0.2859035134315491,1.4554138899795768,0.3079863006242986,-1.8169559286885297
1687012560.2036161,0.9502583742141724,-0.2915048599243164,-0.1096988320350647,-0.008775889873504639,-0.0730581283569336,-0.015560626983642578,-0.001858474570326507,0.001452169381082058,-0.2023797333240509,1.4558640165362011,0.2957996549529242,-1.814464074757985
1687012560.297488,0.9522165656089783,-0.2847669720649719,-0.11041347682476044,-0.028373360633850098,-0.08907333016395569,0.004151247441768646,-0.015527548268437386,-0.010411147959530354,-0.09802462160587311,1.455357688650793,0.28876331864560884,-1.8171008090325866
1687012560.317017,0.9526153802871704,-0.2827366292476654,-0.11217783391475677,-0.008157432079315186,-0.01390942931175232,-0.00717645138502121,-0.0927060917019844,-0.013301476836204529,-0.03667318448424339,1.4535784146141235,0.2866459421200066,-1.8108867951843992
1687012560.380433,0.9526262283325195,-0.28224843740463257,-0.11330930143594742,-0.014683783054351807,-0.034386664628982544,0.03503168374300003,0.001128038507886231,0.004620620980858803,-0.007946262136101723,1.4524084048382528,0.28613703683166986,-1.8121627029850298
1687012560.384928,0.9528326988220215,-0.2815454602241516,-0.11332200467586517,-0.00420910120010376,-0.009073436260223389,0.002054870128631592,-0.07574982941150665,0.02517516352236271,-0.008443806320428848,1.4524206797367645,0.28540432922451403,-1.8103073006246055
1687012560.441989,0.9531516432762146,-0.2809527814388275,-0.11210457980632782,-0.002010345458984375,0.005195975303649902,0.009153492748737335,0.0016446029767394066,0.011970767751336098,-0.015764370560646057,1.4537195636705942,0.28478672352661594,-1.8076085367428687
1687012560.5372849,0.9533478021621704,-0.28065216541290283,-0.11118561774492264,-0.0034577250480651855,-0.01884731650352478,0.0028023719787597656,-0.08915826678276062,0.024711864069104195,-0.010765351355075836,1.4546943277776339,0.2844735209003984,-1.8072275930520938
1687012560.5453858,0.9535083770751953,-0.28004464507102966,-0.11134029924869537,0.015836596488952637,-0.005477786064147949,-0.005450539290904999,0.013778142631053925,-0.014668743126094341,-0.001421650405973196,1.454553659476189,0.28384061336842986,-1.8050682960476614
1687012560.591961,0.9530333280563354,-0.28160765767097473,-0.11146553605794907,0.01800549030303955,0.00041872262954711914,0.015411436557769775,0.07892776280641556,-0.01717628724873066,0.015312189236283302,1.4543665982204805,0.28546914735931905,-1.806655008870587
1687012560.6854172,0.9526477456092834,-0.28303852677345276,-0.11113759130239487,0.004002034664154053,0.002765089273452759,0.012199580669403076,0.0739923045039177,-0.014028607867658138,0.02206556499004364,1.4546595056890648,0.28696071784743427,-1.8102153617733745
1687012560.693795,0.9522695541381836,-0.2846706509590149,-0.1102050393819809,-0.02905184030532837,-0.01624789834022522,-0.0036408305168151855,0.06974784284830093,-0.008014480583369732,0.042706262320280075,1.4555800499177936,0.2886628413404495,-1.8132503984208492
1687012560.74629,0.9510515928268433,-0.2891245186328888,-0.10912315547466278,-0.02340877056121826,-0.048735588788986206,-0.0144578218460083,0.23411215841770172,-0.055842455476522446,0.12936079502105713,1.4565564332439307,0.29331217494627543,-1.8208987549416764
1687012560.838622,0.9477260708808899,-0.29974302649497986,-0.10940422862768173,-0.016192317008972168,-0.08261168003082275,-0.013230733573436737,0.2887846529483795,-0.1056796982884407,0.2683297395706177,1.4558663872213617,0.30442328791947104,-1.8333539940014232
1687012560.857197,0.9426327347755432,-0.3150555491447449,-0.11037936061620712,0.05907630920410156,-0.03600341081619263,0.015317007899284363,0.11277414113283157,-0.056441403925418854,0.29325100779533386,1.4542302754697296,0.32051519622403685,-1.842244689714885
1687012560.890106,0.9383244514465332,-0.3276732861995697,-0.11035101860761642,-6.157159805297852e-05,0.03308716416358948,0.03457582741975784,0.16022901237010956,-0.03964005410671234,0.20356319844722748,1.453729727947767,0.3338398509416794,-1.848423761039064
1687012560.9865952,0.9352296590805054,-0.33653369545936584,-0.10995788872241974,-0.004107832908630371,0.04310715198516846,0.02261650562286377,-0.03191801905632019,0.00334931630641222,0.1639261096715927,1.4537604902066197,0.3432334366867716,-1.850538471925987
1687012560.9942842,0.9329918622970581,-0.34313684701919556,-0.10855104774236679,-0.016838908195495605,0.024472296237945557,0.0039061903953552246,0.07022672891616821,0.0038209622725844383,0.1304854452610016,1.4549698308249936,0.3502544800677997,-1.8520992116105004
1687012561.042264,0.9321431517601013,-0.34570151567459106,-0.10770116746425629,0.042710304260253906,0.04809406399726868,0.020069897174835205,-0.11966562271118164,0.02494240365922451,0.03689837455749512,1.4557649563180155,0.35298627774366304,-1.849257888322992
1687012561.1386151,0.9327704310417175,-0.3442077040672302,-0.10705345869064331,-0.01011723279953003,0.03692623972892761,-0.007280707359313965,-0.0419565811753273,0.03230497986078262,-0.029191629961133003,1.4565269370629563,0.3513947772910305,-1.846663117084045
1687012561.1565719,0.933053195476532,-0.3438553810119629,-0.10571232438087463,-0.021783113479614258,-0.06077718734741211,-0.011215806007385254,-0.06617993861436844,0.06995239853858948,0.10661953687667847,1.4579801898960958,0.35101957690398927,-1.8418829479062064
1687012561.2230592,0.9298068284988403,-0.35431215167045593,-0.0996101051568985,-0.021725773811340332,-0.10010984539985657,0.02142399549484253,0.2952852249145508,0.11350023001432419,0.3665613532066345,1.4640734660605108,0.36217838790785134,-1.8473013079455085
1687012561.321292,0.9208102822303772,-0.3806116580963135,-0.08510781079530716,-0.017932474613189697,-0.16922354698181152,0.04444307088851929,0.6416260600090027,0.15322890877723694,0.6622564792633057,1.4786310970139658,0.3904576603582832,-1.870299037709185
1687012561.328929,0.9067644476890564,-0.41671988368034363,-0.06420823931694031,0.022602558135986328,-0.13805916905403137,0.06756514310836792,0.49932044744491577,0.29464462399482727,0.8656572103500366,1.5001040519508766,0.42983396119424117,-1.8973491381500536
1687012561.408026,0.8856477737426758,-0.46320658922195435,-0.03267240524291992,0.025881648063659668,-0.10945573449134827,0.07913535833358765,0.7018157243728638,0.5366876721382141,1.1870672702789307,1.5339220804138607,0.4816099514219617,-1.9277766327173262
1687012561.425768,0.8523344397544861,-0.522743284702301,0.01629200018942356,0.03717660903930664,-0.12938690185546875,0.05269289016723633,0.7435831427574158,0.8497414588928223,1.559338927268982,1.5899085612734676,0.5500657242420482,-1.9709404663010415
1687012561.494637,0.800946056842804,-0.5935829877853394,0.0783880352973938,0.07699882984161377,-0.14149391651153564,0.037807583808898926,0.7977762222290039,1.1415818929672241,1.9373453855514526,1.6683549399929505,0.6355037242521658,-2.021718822570229
1687012561.509592,0.729755163192749,-0.6664636135101318,0.1525895744562149,0.1059991717338562,-0.12304133176803589,0.05212223529815674,0.9591449499130249,1.300253987312317,2.118218183517456,1.7769234414551394,0.7294552611665046,-2.0961560150735523
1687012561.583034,0.6411362290382385,-0.7312846779823303,0.23273834586143494,0.11913293600082397,-0.10987138748168945,0.027347713708877563,0.921806812286377,1.440832495689392,2.1950316429138184,1.9190132823368657,0.820203536944915,-2.2015052787994
1687012561.597828,0.537346601486206,-0.7840107679367065,0.31078198552131653,0.15769118070602417,-0.0849771499633789,0.03043493628501892,0.8123229146003723,1.6089725494384766,2.224893569946289,2.095155160319128,0.9011009433758695,-2.334462183931599
1687012561.672077,0.42300060391426086,-0.8256713151931763,0.373278945684433,0.14906659722328186,-0.00434565544128418,0.005932420492172241,0.4809943735599518,1.6549713611602783,2.095306396484375,2.2938329665148154,0.9713911452243258,-2.4804026216022406
1687012561.6870599,0.3050702214241028,-0.853768527507782,0.42191365361213684,0.20019400119781494,0.03984957933425903,-0.009300857782363892,0.3933801054954529,1.6726250648498535,1.9607741832733154,2.51555515375024,1.0231810097741003,-2.6453120800963354
1687012561.731168,0.1864236295223236,-0.8685093522071838,0.45927950739860535,0.2034689337015152,0.05607044696807861,0.004908055067062378,0.41915565729141235,1.6615796089172363,1.8663055896759033,2.756006578552994,1.0521869767499124,-2.828411280746867
1687012561.8605828,0.06773734092712402,-0.8719243407249451,0.4849326014518738,0.21760201454162598,0.05045217275619507,0.022254228591918945,0.3363443613052368,1.714361310005188,1.7683038711547852,3.00280662871351,1.0591187962482815,-3.0149853454978692
1687012561.878923,-0.04858332499861717,-0.8664477467536926,0.4968983232975006,0.19374018907546997,0.01796746253967285,-0.058971107006073,0.038696493953466415,1.6765625476837158,1.6594656705856323,-3.044129264754809,1.0480428949012377,3.0954889254901605
1687012561.942984,-0.15816181898117065,-0.857950747013092,0.48877954483032227,0.15630024671554565,0.060968875885009766,0.04443877935409546,0.14165093004703522,1.7051880359649658,1.5269198417663574,-2.828640938157075,1.031267383777409,2.94135241996761
1687012561.957838,-0.2585393488407135,-0.8414360284805298,0.47449246048927307,0.1399785280227661,0.029256343841552734,0.015329957008361816,-0.08862035721540451,1.663786768913269,1.3148871660232544,-2.642692256817818,0.9999353522736948,2.821542838318131
1687012562.033619,-0.3437454104423523,-0.8245019912719727,0.4494834542274475,0.17884373664855957,0.07207590341567993,0.08346018195152283,0.31216228008270264,1.4593944549560547,1.153504729270935,-2.4887140453607026,0.9693215019792017,2.728135331976017
1687012562.048596,-0.41469818353652954,-0.7973574995994568,0.4384591579437256,0.16773462295532227,-0.02863132953643799,-0.10996800661087036,-0.022244218736886978,1.0373785495758057,1.0392299890518188,-2.3840379319821605,0.9229039209763719,2.6753668640415063
1687012562.123746,-0.4681831896305084,-0.7813391089439392,0.41269055008888245,-0.01471167802810669,0.18156194686889648,-0.1864333152770996,-0.08710990101099014,0.7457422614097595,0.6558002233505249,-2.2932803560700954,0.8968086180123476,2.6173971695221763
1687012562.138177,-0.5033403038978577,-0.7674615383148193,0.3970538079738617,-0.06720113754272461,0.034291863441467285,-0.11740592122077942,-0.15476888418197632,0.7158833146095276,0.47705504298210144,-2.23869381873216,0.8748721724412594,2.593196178496789
1687012562.185199,-0.529244601726532,-0.7680522799491882,0.36054906249046326,-0.15462374687194824,0.20033389329910278,-0.19715800881385803,-0.49757182598114014,0.46868327260017395,0.2893697917461395,-2.168828794504343,0.8757941235967863,2.5403353966285005
1687012562.275776,-0.5426782965660095,-0.7702045440673828,0.3350902795791626,-0.12226933240890503,0.06718623638153076,-0.11902585625648499,-0.4618185758590698,0.30052655935287476,0.1427154242992401,-2.123966119932486,0.8791617931162515,2.5049458098364514
1687012562.291966,-0.5545324683189392,-0.7763599157333374,0.29959794878959656,-0.11587768793106079,-0.027854502201080322,-0.033744096755981445,-0.8667933940887451,0.4325929284095764,0.24930377304553986,-2.066139610475947,0.8888698838479251,2.4510400631633664
1687012562.33222,-0.5737922787666321,-0.7825835347175598,0.24150662124156952,-0.18034279346466064,-0.062173545360565186,-0.01924717426300049,-1.4263964891433716,0.6642303466796875,0.3315117061138153,-1.9691853434963706,0.8988049893645886,2.362017002274816
1687012562.427913,-0.5965412855148315,-0.7875489592552185,0.15461233258247375,-0.15147501230239868,-0.07329076528549194,-0.011286631226539612,-1.903985619544983,0.9293434023857117,0.4179145097732544,-1.8243973537279115,0.9068215384834564,2.228006171652889
1687012562.444861,-0.6141054034233093,-0.7884241342544556,0.035520151257514954,-0.1589658260345459,0.030459165573120117,-0.014661435037851334,-2.64042067527771,0.8973400592803955,0.26677584648132324,-1.6285724383498303,0.9082429002710998,2.036457092263449
1687012562.484441,-0.6213991641998291,-0.7760990858078003,-0.10739390552043915,-0.14300519227981567,-0.14379233121871948,0.024324998259544373,-3.4292707443237305,0.9597206711769104,0.27270597219467163,-1.3996608742867636,0.8884561544970078,1.8018312716854112
1687012562.5783901,-0.612690806388855,-0.7283010482788086,-0.3068998157978058,-0.14315325021743774,-0.11523526906967163,-0.008163660764694214,-5.145541667938232,0.9582086205482483,-0.017602216452360153,-1.106425060960278,0.8158393580830926,1.4806500597719179
1687012562.593917,-0.590293824672699,-0.6346439719200134,-0.4987785816192627,-0.19750213623046875,0.011734545230865479,0.022383898496627808,-4.079859256744385,1.2114547491073608,-0.019671227782964706,-0.8692316612511973,0.687547757941573,1.2105124976462427
1687012562.6322188,-0.5496982336044312,-0.5067126750946045,-0.6641340851783752,-0.11885035037994385,0.12301522493362427,0.10901927947998047,-4.903818130493164,1.1271086931228638,-0.44269824028015137,-0.6913995048432042,0.5313674009486282,1.0056686478686874
1687012562.72947,-0.4881490170955658,-0.35966598987579346,-0.7952049970626831,-0.14940893650054932,-0.0024403035640716553,0.10540086030960083,-4.254258632659912,1.6357649564743042,-0.5002722144126892,-0.5505524826088819,0.3679099114160623,0.8443417862280549
1687012562.746005,-0.4070192277431488,-0.19394896924495697,-0.8925912380218506,-0.1444791555404663,0.04278017580509186,0.10304045677185059,-4.2595038414001465,1.8098747730255127,-0.8653071522712708,-0.42783010836003177,0.19518596207731984,0.709328740724434
1687012562.783338,-0.30674147605895996,-0.015644637867808342,-0.9516642689704895,-0.09078043699264526,0.0061231739819049835,0.17789113521575928,-4.443049430847168,2.4184858798980713,-1.3877713680267334,-0.3118070072990761,0.015645276724020125,0.5781764845588456
1687012562.8781018,-0.18881946802139282,0.16994494199752808,-0.9671948552131653,0.1263042390346527,-0.07836169004440308,0.04556405544281006,-4.091458320617676,2.7163162231445312,-1.9533599615097046,-0.1927988774433114,-0.17077379331324485,0.44282794325621994
1687012562.893859,-0.08521176129579544,0.32463380694389343,-0.9419935345649719,0.32140257954597473,0.04098203778266907,0.1345747709274292,-3.093086004257202,2.786572217941284,-2.4269027709960938,-0.09021343327223245,-0.33062454241259465,0.3039317867315422
1687012562.9320478,-0.01938437670469284,0.41231611371040344,-0.9108346104621887,0.6452693939208984,-0.07148054242134094,0.03110438585281372,-0.9490680694580078,1.707340955734253,-2.094156265258789,-0.02127878124083253,-0.4249948830495854,0.16971032027301208
1687012563.029447,-0.00802567321807146,0.3876408040523529,-0.9217755794525146,0.2943721115589142,-0.04672896862030029,0.06992316246032715,1.4733630418777466,0.2538602650165558,-0.8144693374633789,-0.008706533662009835,-0.39807091666330763,0.09045187953399833
1687012563.045202,-0.011251220479607582,0.35053277015686035,-0.936482846736908,0.08937622606754303,-0.06978631019592285,0.11871862411499023,0.19774237275123596,0.07078703492879868,-0.013364329934120178,-0.012013758739129899,-0.35813991416291435,0.07443772922309241
1687012563.081578,-0.008415176533162594,0.34036341309547424,-0.9402562975883484,0.06591030210256577,0.023665517568588257,0.05748957395553589,0.24325212836265564,0.10504629462957382,-0.1539555937051773,-0.008949636006152752,-0.34730334987394545,0.06940690074931197
1687012563.237993,-0.009084873832762241,0.3208886981010437,-0.9470733404159546,0.056448161602020264,-0.004055202007293701,-0.00457155704498291,0.40162399411201477,-0.06060534343123436,-0.018670476973056793,-0.009592282258055826,-0.3266676729840411,0.06460009136362917
1687012563.2458339,-0.01058958936482668,0.31327584385871887,-0.9496031403541565,0.0488281212747097,0.038698673248291016,0.008135855197906494,0.11632245033979416,-0.013776673004031181,0.005319742485880852,-0.01115113244825988,-0.31864055538639496,0.06478229898712339
1687012563.2979898,-0.011681285686790943,0.3091379702091217,-0.9509454369544983,0.044289324432611465,0.010411590337753296,0.01619201898574829,0.014115165919065475,-0.018393972888588905,-0.019818300381302834,-0.01228324729275613,-0.31428648023913364,0.06424874431798219
1687012563.313006,-0.011179996654391289,0.3069861829280853,-0.9516482949256897,0.012293892912566662,0.016881614923477173,0.0029178261756896973,0.11374206840991974,-0.01622767001390457,-0.03689834848046303,-0.011747493455860597,-0.3120246734655982,0.06308343026929797
1687012563.3165998,-0.009557373821735382,0.3071003556251526,-0.9516291618347168,0.01701892912387848,-0.0241108238697052,0.003951549530029297,-0.10263705998659134,0.011285004206001759,-0.023007769137620926,-0.01004283306576288,-0.3121446433184268,0.06287647025977919
1687012563.352284,-0.007973289117217064,0.3096890151500702,-0.9508044719696045,0.007546047680079937,0.0504642128944397,-0.008515596389770508,0.15013304352760315,0.0066370777785778046,-0.0771917775273323,-0.008385638268157497,-0.31486595337741646,0.06115466503845718
1687012563.413783,-0.008770115673542023,0.3042072653770447,-0.9525654911994934,-0.0027655232697725296,-0.017082631587982178,-0.024241149425506592,0.052449192851781845,0.0030230791307985783,-0.06676337867975235,-0.009206577128992905,-0.3091061494895935,0.05663870069766775
1687012563.4736872,-0.009689747355878353,0.30292966961860657,-0.952963650226593,0.002869074232876301,-0.008374005556106567,-0.017922580242156982,0.06833641231060028,-0.008915605023503304,-0.021266793832182884,-0.010167663527427496,-0.3077652616842967,0.05448708540015502
1687012563.5703468,-0.011649807915091515,0.3004463315010071,-0.9537275433540344,0.0015942715108394623,-0.011780530214309692,0.0014876127243041992,-0.016605906188488007,-0.028466137126088142,-0.03306952491402626,-0.012214418979283872,-0.30516057449491135,0.05301960588272121
1687012563.578323,-0.013492971658706665,0.29888057708740234,-0.9541951417922974,-0.011149967089295387,-0.029959678649902344,-0.009321093559265137,0.006175616756081581,-0.03589653596282005,-0.030991792678833008,-0.014139741152135912,-0.30351939199726863,0.05176609565114824
1687012563.623065,-0.01553721446543932,0.3006434738636017,-0.9536100029945374,-0.015148205682635307,-0.0334467887878418,-0.014193892478942871,-0.15423540771007538,-0.05023001879453659,0.039366595447063446,-0.016291606517550412,-0.3053672605161387,0.05241712554809631
1687012563.71737,-0.01786629855632782,0.3094644546508789,-0.9507431387901306,0.008039643988013268,-0.0020913779735565186,-0.014512598514556885,-0.15438982844352722,-0.07967357337474823,0.03225841745734215,-0.01878971836367265,-0.31462979274568015,0.05394287308906493
1687012563.7356992,-0.022450556978583336,0.31304359436035156,-0.9494733810424805,0.025059817358851433,-0.04804423451423645,-0.01714038848876953,-0.21862167119979858,-0.16294503211975098,0.14417889714241028,-0.02364086784434464,-0.3183960232385975,0.05775145479212069
1687012563.770241,-0.029947929084300995,0.32412615418434143,-0.9455397129058838,0.05857342481613159,0.005112737417221069,0.01768326759338379,-0.09906500577926636,-0.3852826654911041,0.39273011684417725,-0.031662256341445705,-0.33008786041259713,0.07091611016232169
1687012563.867758,-0.0461462140083313,0.31574785709381104,-0.9477203488349915,0.12620909512043,0.0013602972030639648,0.016598522663116455,0.5672787427902222,-0.6963602304458618,0.6520835161209106,-0.048653378771990385,-0.32124473302018985,0.09856611248761094
1687012563.8851218,-0.07622823119163513,0.2636907994747162,-0.961590588092804,0.15980061888694763,0.07946410775184631,0.07276612520217896,1.8808870315551758,-1.0319716930389404,0.8787056803703308,-0.0791076339660083,-0.26684643469301195,0.14188128629887442
1687012563.920631,-0.12654606997966766,0.13338139653205872,-0.9829524159431458,0.18466681241989136,0.11599300801753998,0.07835036516189575,3.6988916397094727,-1.443372368812561,0.9663371443748474,-0.12803651993305568,-0.13378008120158297,0.20294709994267118
1687012564.0265589,-0.19970715045928955,-0.07727270573377609,-0.9768039584159851,0.12977612018585205,0.16589577496051788,0.12215918302536011,5.054669380187988,-1.5954077243804932,0.8954708576202393,-0.20167030212639458,0.07734981099346346,0.28602411011569684
1687012564.043027,-0.2852601706981659,-0.30574101209640503,-0.9083771705627441,0.09354877471923828,0.04686042666435242,0.09149789810180664,4.911558628082275,-1.5087807178497314,0.9332147836685181,-0.3042806280677456,0.31071661478005425,0.3951241553372128
1687012564.07099,-0.35903307795524597,-0.4842031002044678,-0.7978988289833069,0.007455378770828247,-0.02363985776901245,0.03897249698638916,4.091336250305176,-1.0739597082138062,0.9085120558738708,-0.42283163100728477,0.5054521577796428,0.5300667547553851
1687012564.133803,-0.41847914457321167,-0.5970214009284973,-0.6844272017478943,0.05281755328178406,-0.06369936466217041,0.011667132377624512,3.122897148132324,-0.8740547895431519,0.9201077818870544,-0.5487813734283562,0.6397830599283679,0.6758203274321871
1687012564.25717,-0.4709087908267975,-0.6743945479393005,-0.5687151551246643,-0.04908019304275513,0.025911331176757812,0.0005235671997070312,3.28731632232666,-0.6357966065406799,0.839118242263794,-0.6915956728597941,0.7401443943661414,0.838989118304641
1687012564.3264809,-0.5156302452087402,-0.7352836728096008,-0.4398674964904785,-0.017496585845947266,-0.00578993558883667,0.02108997106552124,3.1035523414611816,-0.5830239653587341,0.7953175902366638,-0.8645240087993478,0.8260851739675662,1.0406447811401982
1687012564.343744,-0.5545065999031067,-0.7710995078086853,-0.31293436884880066,-0.017118096351623535,-0.002841472625732422,0.04799598455429077,2.921778678894043,-0.44110244512557983,0.7429223656654358,-1.0570046092471204,0.8805662151279606,1.2590614832347147
1687012564.347951,-0.5875931978225708,-0.7852044105529785,-0.19541794061660767,-0.049537479877471924,-0.03086608648300171,0.04902505874633789,2.5177619457244873,-0.27132052183151245,0.7115333676338196,-1.2497297547091424,0.9030262026201953,1.4838077279795363
1687012564.406427,-0.6124057769775391,-0.7832608819007874,-0.10705974698066711,-0.04457670450210571,8.821487426757812e-05,-0.020381703972816467,1.908644437789917,-0.19976775348186493,0.5594709515571594,-1.3977269429016494,0.8998937987119839,1.6600031858762656
1687012564.411934,-0.6333608031272888,-0.773494303226471,-0.02367822267115116,-0.04628092050552368,-0.028172016143798828,-0.003131512552499771,1.8642044067382812,-0.23112958669662476,0.44896188378334045,-1.5334286823204448,0.8843360011366881,1.820355171140896
1687012564.463819,-0.6501910090446472,-0.7585316896438599,0.04337426647543907,-0.006058990955352783,-0.003126084804534912,-0.01378750428557396,1.3404098749160767,-0.2676204741001129,0.42249593138694763,-1.6374076683551821,0.8610568963607752,1.940397711474619
1687012564.526294,-0.6632223725318909,-0.7416777014732361,0.10025148838758469,0.04197603464126587,0.01886880397796631,0.056868210434913635,1.2469940185546875,-0.1888749897480011,0.30005943775177,-1.7208187737927008,0.8355680812546572,2.0357320738625324
1687012564.65378,-0.6701804399490356,-0.7288442850112915,0.1401582807302475,-0.05391019582748413,0.0645986795425415,-0.03891621530056,0.7662941217422485,-0.16083553433418274,0.11658401787281036,-1.7769600450382403,0.8166325065798017,2.1021423564847046
1687012564.673019,-0.6706522703170776,-0.7196656465530396,0.17974145710468292,0.024091601371765137,0.09758007526397705,0.041434645652770996,1.0393861532211304,-0.22039785981178284,-0.002686119172722101,-1.8326523674682171,0.8033206046789738,2.164258733328312
1687012564.734189,-0.6681423783302307,-0.7125412821769714,0.21417410671710968,-0.02726161479949951,-0.003813028335571289,0.012601971626281738,0.44668927788734436,-0.20619413256645203,-0.012033148668706417,-1.8809995396834895,0.7931135686017564,2.2155318594087317
1687012564.748958,-0.6630650162696838,-0.7098645567893982,0.23756374418735504,-0.038717031478881836,0.01946556568145752,0.00871296226978302,0.5235881209373474,-0.17166687548160553,-0.14326134324073792,-1.9148294866172844,0.7893059150881412,2.250263175795394
1687012564.858288,-0.6540562510490417,-0.7095853686332703,0.2621046006679535,0.0224493145942688,0.02603745460510254,0.05623945593833923,0.6149712204933167,-0.1390647441148758,-0.2370239794254303,-1.951937971727451,0.7889096184660592,2.292760138534006
1687012564.8754802,-0.6440871357917786,-0.7085947394371033,0.2881753444671631,-0.023072779178619385,-0.010933399200439453,0.015337198972702026,0.5248096585273743,-0.18588754534721375,-0.1944836527109146,-1.9914998911326327,0.787504686754678,2.337365197203174
1687012564.9448771,-0.6355398893356323,-0.7047641277313232,0.3152720630168915,-0.0462227463722229,-0.022317111492156982,-0.014582425355911255,0.6396471858024597,-0.2597673535346985,-0.09339970350265503,-2.031294753826143,0.7820905966791314,2.3788907507071824
1687012564.9601889,-0.630107581615448,-0.6953569054603577,0.3456054925918579,-0.09491372108459473,-0.048585355281829834,-0.01966249942779541,0.5493849515914917,-0.3109987676143646,0.0376846082508564,-2.0724767633637473,0.7689164010527595,2.417703758492475
1687012565.0339851,-0.6265323162078857,-0.6811453700065613,0.3788115084171295,-0.09005093574523926,-0.03536158800125122,-0.00471186637878418,0.7397407293319702,-0.30139070749282837,0.05947372317314148,-2.114603117259157,0.7493259230462753,2.45633481034765
1687012565.048681,-0.6236352920532227,-0.670071542263031,0.4025959074497223,-0.11978822946548462,-0.08330076932907104,-0.06710094213485718,0.21672651171684265,-0.16638654470443726,0.055196553468704224,-2.144046116089528,0.7343051336970342,2.4808648897224392
1687012565.1266,-0.6238447427749634,-0.666571855545044,0.4080442190170288,-0.1906694769859314,-0.027352213859558105,-0.13053256273269653,0.017755884677171707,-0.027684587985277176,0.037223946303129196,-2.1500342150056846,0.7296004241257626,2.4834400934227934
1687012565.141027,-0.6242577433586121,-0.6691882014274597,0.403099924325943,-0.10018384456634521,-0.008576691150665283,-0.13112729787826538,-0.2271425426006317,0.009876368567347527,0.003651205450296402,-2.1441616468955997,0.7331158256194835,2.474946179103639
1687012565.223849,-0.6254873871803284,-0.6725772619247437,0.39548081159591675,-0.0031899213790893555,-0.005889475345611572,-0.0437505841255188,-0.2737838327884674,-0.027383385226130486,0.045734211802482605,-2.134610907097085,0.7376859475147609,2.461410156597804
1687012565.229607,-0.6246107816696167,-0.6784884333610535,0.38667187094688416,0.029685795307159424,0.06371164321899414,-0.05073431134223938,-0.3812408745288849,-0.15818685293197632,-0.04030093923211098,-2.1251131361373408,0.7457030698942229,2.441385813115318
1687012565.3086119,-0.6155897974967957,-0.6907962560653687,0.37927553057670593,0.030689895153045654,0.09845006465911865,-0.08796995878219604,-0.4925541579723358,-0.2982487976551056,-0.2706198990345001,-2.1229825492607337,0.762589727125953,2.4224522636642773
1687012565.3247561,-0.5925101637840271,-0.7129877209663391,0.374940425157547,0.042583346366882324,0.14836668968200684,-0.11914214491844177,-0.45475080609321594,-0.5636649131774902,-0.6118220686912537,-2.134984972274977,0.7937500172192673,2.409378941140258
1687012565.358313,-0.5491970777511597,-0.7452858686447144,0.37806272506713867,0.07287877798080444,0.17796409130096436,-0.09130442142486572,-0.4914461076259613,-0.8044725060462952,-1.0744565725326538,-2.173688942005423,0.8409635191893043,2.415101123021584
1687012565.4545689,-0.4816509485244751,-0.7879863381385803,0.38352280855178833,0.11026731133460999,0.1781383752822876,-0.0933617353439331,-0.3706361949443817,-0.982244074344635,-1.5659579038619995,-2.243256954556266,0.9075315519615343,2.447724078646562
1687012565.462209,-0.3888055086135864,-0.8308877944946289,0.3980652391910553,0.12577444314956665,0.15065091848373413,-0.07370918989181519,-0.2036890685558319,-1.272128701210022,-1.9239287376403809,-2.367961731557154,0.9807013269500415,2.5326096223526107
1687012565.546433,-0.27734580636024475,-0.867699146270752,0.4125254154205322,0.11000269651412964,0.061607956886291504,0.04348331689834595,0.046631116420030594,-1.34652578830719,-2.0206570625305176,-2.5496918865472615,1.0505547904009076,2.668232339246757
1687012565.636672,-0.15913085639476776,-0.8896732330322266,0.4279707074165344,0.08640748262405396,0.03199195861816406,-0.0273817777633667,-0.28266075253486633,-1.4236611127853394,-2.0867395401000977,-2.7856071000660485,1.0966290528006373,2.8599353320504366
1687012565.655165,-0.032639794051647186,-0.9083113074302673,0.4170190393924713,0.04432803764939308,0.048814356327056885,-0.023250848054885864,-0.2212124764919281,-1.4419972896575928,-2.1885225772857666,-3.0634825792198175,1.1392291721521435,3.0885609767939073
1687012565.7906651,0.09958859533071518,-0.910300612449646,0.40178927779197693,0.053045064210891724,-0.029030323028564453,-0.054331451654434204,-0.6800726652145386,-1.5925030708312988,-2.2890515327453613,2.8986265272683633,1.1440096635593138,-2.922730211630746
1687012565.7983541,0.23427551984786987,-0.9012797474861145,0.36443111300468445,0.09943421185016632,-0.0032460689544677734,0.08497074246406555,-0.1561199575662613,-1.5314985513687134,-2.348814010620117,2.570258307907085,1.122714421876203,-2.6501170626687145
1687012565.80375,0.3652820587158203,-0.8763891458511353,0.31386420130729675,0.10377305746078491,-0.02860945463180542,-0.07979443669319153,-1.256912112236023,-1.6928318738937378,-2.425039052963257,2.280629103635738,1.0683127560739425,-2.4112241709194984
1687012565.873927,0.4892615079879761,-0.8375524878501892,0.24316413700580597,0.16575247049331665,-0.07593005895614624,0.14433273673057556,-0.38137200474739075,-1.3797000646591187,-2.351815938949585,2.0320429653430345,0.9927879892854796,-2.2138968131302046
1687012565.879014,0.5918959379196167,-0.7847530841827393,0.18390685319900513,0.17395788431167603,-0.11546969413757324,0.010276436805725098,-1.0682072639465332,-1.2247977256774902,-2.053835868835449,1.8720478608113351,0.9022976346039446,-2.094385462531839
1687012565.9668941,0.6760338544845581,-0.7299720048904419,0.10059227049350739,0.10221004486083984,-0.054787397384643555,0.04827236384153366,-1.1185601949691772,-1.0623499155044556,-1.9842283725738525,1.7185102003459491,0.818281020925042,-1.968818859086069
1687012565.983638,0.7466552257537842,-0.6642730832099915,0.03531910106539726,0.1035035252571106,-0.11018681526184082,0.02507508173584938,-0.8442044258117676,-0.9080826640129089,-1.8272398710250854,1.618064184116679,0.7265208955338371,-1.894148230121813
1687012566.050482,0.800728976726532,-0.5985873341560364,-0.022940296679735184,0.08948397636413574,-0.10385102033615112,0.044272005558013916,-0.6600193977355957,-0.7700551152229309,-1.5558350086212158,1.542154896292516,0.6417364464867759,-1.8401303528465878
1687012566.06535,0.8376240134239197,-0.5430071949958801,-0.05940714851021767,0.08580732345581055,-0.11266297101974487,0.08937537670135498,-0.031169623136520386,-0.49645400047302246,-1.1715517044067383,1.4999914806893793,0.5740141115566282,-1.822320989562737
1687012566.141446,0.8627794981002808,-0.49984294176101685,-0.0759514644742012,0.022566020488739014,-0.08177638053894043,0.024727635085582733,0.0582599900662899,-0.4060268998146057,-0.9425355792045593,1.4829915371345812,0.5234174360862291,-1.8307169825098588
1687012566.147063,0.8832714557647705,-0.4594237208366394,-0.09360215812921524,-0.013840913772583008,-0.09831550717353821,0.07561200857162476,-0.3451312184333801,-0.23227012157440186,-0.8676576614379883,1.465218229851571,0.4773462972517781,-1.8274827323787295
1687012566.201416,0.8991402387619019,-0.424560546875,-0.10627792775630951,-0.0014505386352539062,-0.005203157663345337,0.05033917725086212,0.18243107199668884,-0.24616003036499023,-0.7518598437309265,1.4531427142446067,0.43847645622190257,-1.826387672202292
1687012566.333427,0.9124314785003662,-0.39323991537094116,-0.1132747083902359,-0.016801655292510986,-0.14417460560798645,0.05863291025161743,-0.0416414849460125,-0.12906278669834137,-0.6156450510025024,1.447282292809153,0.4041527630090067,-1.8363559512954886
1687012566.352247,0.9224714636802673,-0.36822372674942017,-0.11600669473409653,-0.00892782211303711,-0.09596386551856995,0.04474806785583496,-0.09855594485998154,0.0016344182658940554,-0.5146094560623169,1.445696630222132,0.3770977995554573,-1.8387485404883264
1687012566.4104161,0.9302765727043152,-0.3474279046058655,-0.11781085282564163,-0.0054108500480651855,-0.10319465398788452,0.01365429162979126,-0.23641131818294525,0.06585831940174103,-0.3227211833000183,1.4448262277119897,0.3548267432581516,-1.8311279026269498
1687012566.424958,0.9347900748252869,-0.33546513319015503,-0.1167500838637352,-0.01506662368774414,-0.12046748399734497,-0.005106627941131592,-0.16350041329860687,0.10267110913991928,-0.1762380748987198,1.4465452705170767,0.34209893369248856,-1.8234255297473234
1687012566.574872,0.9372376203536987,-0.32920464873313904,-0.1149340346455574,-0.023617684841156006,-0.10245117545127869,0.014103896915912628,-0.34613609313964844,0.1791398823261261,-0.013072047382593155,1.4487749250451278,0.33546115147887695,-1.8089588457265842
1687012566.5818648,0.9375566244125366,-0.32968592643737793,-0.11088242381811142,-0.010661423206329346,-0.03267979621887207,-0.017520323395729065,-0.08725952357053757,0.12025178968906403,0.05733940005302429,1.4530757139395554,0.33597089779644784,-1.7970918460720229
1687012566.688044,0.9371438026428223,-0.3311542868614197,-0.10999234020709991,-0.015268862247467041,-0.07210496068000793,0.026892900466918945,-0.2583226263523102,0.07573812454938889,0.05408941209316254,1.4539611079432164,0.33752661067259904,-1.7879374658861984
1687012566.707675,0.9365200996398926,-0.33245986700057983,-0.11135786771774292,-0.019848346710205078,-0.056608736515045166,0.0059806108474731445,-0.5023630261421204,0.1413658708333969,0.09980031102895737,1.452445997436212,0.3389106087888637,-1.7671580350363238
1687012566.7115889,0.9351242780685425,-0.3363690674304962,-0.1113477572798729,-0.013203620910644531,-0.08523127436637878,0.0312085822224617,-0.7099568247795105,0.2977341413497925,0.22710905969142914,1.4522816571411985,0.343058619847906,-1.7360354012877803
1687012566.77254,0.9325775504112244,-0.34398511052131653,-0.10942298173904419,-0.01183176040649414,-0.05481860041618347,-0.002774953842163086,-0.995330810546875,0.3871075510978699,0.2960783839225769,1.4539964539403665,0.3511577282239912,-1.6879187952500472
1687012566.777873,0.929073691368103,-0.3536025285720825,-0.10856906324625015,0.026935160160064697,0.010707050561904907,-0.013531796634197235,-0.727725625038147,0.29387685656547546,0.3087429404258728,1.454466610589185,0.361419668043593,-1.6392381351612328
1687012566.873114,0.925897479057312,-0.36130642890930176,-0.11032575368881226,0.011343181133270264,0.028023958206176758,-0.005747929215431213,-0.42427992820739746,0.10157574713230133,0.18879948556423187,1.4522000185433506,0.3696685865236356,-1.6061935587297607
1687012566.880556,0.923322319984436,-0.36726370453834534,-0.11222019046545029,0.01034778356552124,0.03985586762428284,0.007788941264152527,-0.1862180083990097,0.007290173321962357,0.13320334255695343,1.4498499732022105,0.37606542155619904,-1.591766420945585
1687012566.986906,0.9214774966239929,-0.3708502948284149,-0.11553890258073807,-0.0015556812286376953,0.03961250185966492,0.030776262283325195,-0.16909532248973846,0.016031555831432343,0.0660695731639862,1.4460628668915292,0.37992443051907826,-1.5811529382264786
1687012567.0054731,0.9206324815750122,-0.3721442222595215,-0.11808624118566513,0.0017917156219482422,0.01624828577041626,0.03745878487825394,-0.3312857449054718,0.057346947491168976,0.0429215133190155,1.4432264610063692,0.3813181050989225,-1.5686827008410087
1687012567.0763679,0.9208970665931702,-0.3702835440635681,-0.12181396782398224,0.0003064870834350586,0.011869847774505615,0.05205070972442627,-0.5773857235908508,0.1481459140777588,0.030923372134566307,1.4392823221530138,0.37931425172387645,-1.5426907454869518
1687012567.0920892,0.9211431741714478,-0.369463711977005,-0.12244106829166412,0.01293879747390747,0.021609127521514893,0.007206626236438751,-0.31479424238204956,0.15671321749687195,0.03407668694853783,1.4386480301412636,0.37843183502654393,-1.5185308259785262
1687012567.1626601,0.9212889075279236,-0.369809091091156,-0.12028394639492035,0.007010161876678467,-0.010806173086166382,-0.00038261711597442627,-0.2007160484790802,0.13633409142494202,0.042729299515485764,1.4409701728721471,0.378803542731578,-1.505909222733098
1687012567.177116,0.920901894569397,-0.3718598783016205,-0.11687587946653366,0.027355492115020752,0.021746963262557983,-0.04021340608596802,-0.051076535135507584,0.1268528699874878,0.07573671638965607,1.4445566560637801,0.38101176121830743,-1.4973553327634521
1687012567.249103,0.9200648069381714,-0.3751814067363739,-0.11278043687343597,0.0007419586181640625,0.014372169971466064,-0.051861926913261414,0.01072846818715334,0.057169049978256226,0.051955290138721466,1.4488259893247701,0.38459248157653775,-1.4968101745206237
1687012567.263624,0.9202197194099426,-0.3740300238132477,-0.11531458050012589,0.004493534564971924,-0.01816663146018982,-0.020488694310188293,-0.22589229047298431,0.03161637485027313,-0.017132502049207687,1.4461341320741075,0.38335066989813005,-1.489957983886543
