Timestamp,gravityX,gravityY,gravityZ,accelerationX,accelerationY,accelerationZ,rotationRateX,rotationRateY,rotationRateZ,attitudeRoll,attitudePitch,attitudeYaw
1687016780.783527,0.0171116441488266,-0.04376915469765663,-0.9988951086997986,-0.007178165018558502,-0.022652361541986465,-0.006674289703369141,-0.0488555021584034,-0.014593973755836487,-0.005677909590303898,0.017128896032231136,0.04378314313051627,1.616779089009716
1687016780.8712258,0.016962915658950806,-0.04338238760828972,-0.9989145398139954,0.007695294916629791,-0.0016768276691436768,0.0005777478218078613,0.009459339082241058,0.0016864626668393612,-0.001943158800713718,0.01697971723903611,0.04339600680224451,1.616710380161367
1687016780.880362,0.016947563737630844,-0.04551642760634422,-0.9988198280334473,-0.0038097351789474487,-0.012192323803901672,-0.009389400482177734,0.043261732906103134,-0.0007807784713804722,0.02501715160906315,0.016965959673493996,0.045532158416350596,1.6172565529681941
1687016780.960784,0.01731756515800953,-0.046674445271492004,-0.9987600445747375,-0.0005023721605539322,-0.004991825670003891,0.005885899066925049,-0.003909152466803789,0.0019169151782989502,-0.00662053469568491,0.01733732836835472,0.046691409456089385,1.617546314863708
1687016780.974283,0.01670331507921219,-0.04568596929311752,-0.998816192150116,0.0027058739215135574,0.009766768664121628,-0.006417572498321533,-0.013548730872571468,-0.03344719856977463,-0.009523381479084492,0.016721552609518166,0.045701876686362705,1.617385683317486
1687016781.053514,0.014794592745602131,-0.0460641123354435,-0.9988289475440979,-0.01548122987151146,-0.0395987406373024,0.0006294846534729004,-0.05287962406873703,-0.022856876254081726,-0.013996027410030365,0.01481085602161434,0.046080416736378985,1.6167991451383885
1687016781.060683,0.01479523628950119,-0.043645866215229034,-0.9989374876022339,0.009054258465766907,0.022420883178710938,-0.011835157871246338,-0.0031935612205415964,-0.012276401743292809,-0.010952433571219444,0.01480988966929086,0.0436597368266444,1.6161118998464465
1687016781.1431088,0.014126546680927277,-0.043320514261722565,-0.998961329460144,-0.004345654509961605,-0.0032950937747955322,-0.01838785409927368,-0.0038316547870635986,6.149080581963062e-05,-0.01519471500068903,0.014140292101237193,0.0433340769229827,1.615846114762723
1687016781.1569161,0.014628810808062553,-0.04243985936045647,-0.9989919066429138,0.006199444644153118,0.0008901692926883698,-0.004578590393066406,-0.014005862176418304,0.010689101181924343,0.0018535767449066043,0.014642526345619071,0.04245261067055885,1.6153127807378387
1687016781.2339911,0.015123454853892326,-0.042265165597200394,-0.9989919662475586,0.004804532043635845,-0.011873029172420502,0.004790306091308594,-0.012978502549231052,0.018041111528873444,-0.008035672828555107,0.015137559315004616,0.04227776080614333,1.6150386745334804
1687016781.240954,0.0157399233430624,-0.041431453078985214,-0.9990173578262329,-0.005028244107961655,-0.003231033682823181,0.01665651798248291,-0.03241562843322754,0.01871267333626747,-0.008233078755438328,0.015754102509065563,0.04144331372755955,1.614914046311928
1687016781.291642,0.016413090750575066,-0.04117702692747116,-0.999017059803009,-0.009043088182806969,-0.0045077987015247345,-0.004721343517303467,0.0032076570205390453,0.02229471318423748,-0.001410659751854837,0.01642776222012637,0.04118867124790853,1.614856486055828
1687016781.352799,0.017250683158636093,-0.04030495136976242,-0.9990385174751282,0.003684382885694504,0.0010288208723068237,-0.006286799907684326,-0.017688127234578133,-0.00013993261381983757,-0.004355183802545071,0.0172655704094426,0.04031587352317746,1.6146963025735555
1687016781.4467459,0.01729201339185238,-0.03971392288804054,-0.9990614652633667,0.0007896609604358673,-0.010472245514392853,-0.007774472236633301,-0.030990127474069595,-0.006428277585655451,-0.0038342028856277466,0.01730652931563121,0.0397243709432051,1.6143075604146306
1687016781.46059,0.017482317984104156,-0.039412710815668106,-0.9990700483322144,0.00511595793068409,-0.0034797564148902893,0.0028389692306518555,-0.004325271584093571,0.007034445181488991,-0.011205100454390049,0.017496803867162982,0.039422921517089725,1.6141280008286762
1687016781.566109,0.016804516315460205,-0.03886530548334122,-0.9991031289100647,-0.005787663161754608,-0.01223638653755188,0.006442666053771973,-0.02533312886953354,-0.008241002447903156,-0.013645288534462452,0.016818015355954886,0.03887509570050456,1.613780101775157
1687016781.5809531,0.01644074358046055,-0.037147507071495056,-0.9991745352745056,-0.010276185348629951,0.008628826588392258,0.0008988380432128906,-0.016659479588270187,0.004276919644325972,0.0031725738663226366,0.01645284163881774,0.03715605732151903,1.6136345132789744
1687016781.655082,0.016883617267012596,-0.03670859336853027,-0.9991833567619324,0.014702083542943,-0.010853055864572525,0.0020673274993896484,-0.028640154749155045,-0.015876641497015953,-0.011507568880915642,0.016895807758059735,0.03671684383859345,1.6131653116692362
1687016781.661569,0.015266584232449532,-0.03564758226275444,-0.9992477893829346,-0.022377170622348785,-0.014752205461263657,-0.005024611949920654,-0.023933550342917442,-0.008841633796691895,-0.008892344310879707,0.015276888091051153,0.03565513502779755,1.612759781476864
1687016781.7795,0.015542016364634037,-0.03528227657079697,-0.9992565512657166,0.01503660622984171,0.01507963240146637,-0.007731974124908447,0.02360076829791069,-0.005732482764869928,0.003168712370097637,0.015552325912516995,0.0352896016748597,1.612702279609105
1687016781.7923489,0.014447878114879131,-0.03630218654870987,-0.9992364048957825,-0.0037819761782884598,0.008851613849401474,-0.02104252576828003,0.04801671579480171,-0.026810426265001297,0.010617440566420555,0.014457911168312545,0.03631016565512841,1.6128716556297047
1687016781.8618479,0.014172781258821487,-0.03660047426819801,-0.9992294907569885,0.0022609438747167587,-0.006063111126422882,-0.0029525160789489746,-0.02037791907787323,-0.0009503327310085297,0.005581070203334093,0.01418275890721303,0.036608651296503605,1.612986961159048
1687016781.87275,0.014419454149901867,-0.037024639546871185,-0.9992102980613708,0.01199351716786623,-0.006279811263084412,0.028125762939453125,-0.05343218892812729,0.00923084281384945,-0.0008287590462714434,0.014429848535681864,0.03703310358350575,1.6130122099198856
1687016781.991039,0.014477269724011421,-0.037726957350969315,-0.9991832375526428,-0.00010348204523324966,-0.01799815148115158,0.05098682641983032,-0.049873050302267075,0.05644460394978523,-0.007934605702757835,0.014488090215780364,0.0377359128298568,1.6131567389399275
1687016782.004081,0.014642291702330112,-0.038350846618413925,-0.9991570711135864,-0.02251581847667694,0.010732430964708328,0.024639248847961426,-0.04635097458958626,0.04063830152153969,-0.028747009113430977,0.014653595426545171,0.03836025465722122,1.613685441314518
1687016782.1093512,0.014311431907117367,-0.03916265070438385,-0.999130368232727,-0.00875722337514162,-0.0017766878008842468,-0.00956714153289795,0.007576883304864168,-0.024155786260962486,0.0027388781309127808,0.01432290911326556,0.03917266987767739,1.613932607022064
1687016782.122531,0.014736471697688103,-0.04032732546329498,-0.9990778565406799,0.012057970277965069,0.008100751787424088,-0.006583154201507568,0.01778114214539528,-0.017211150377988815,0.00848371535539627,0.01474900441569583,0.04033826469833496,1.6141165675876545
1687016782.197157,0.014443565160036087,-0.03988547995686531,-0.999099850654602,0.013296922668814659,-0.0038919933140277863,-0.02107226848602295,0.026160866022109985,0.0020460784435272217,0.006214569788426161,0.014455571119416685,0.039896064158173795,1.6138399199404256
1687016782.210223,0.013966538943350315,-0.04087013378739357,-0.9990668296813965,-0.012974709272384644,-0.011375971138477325,-0.005877017974853516,0.00636993907392025,-0.0007473998703062534,-0.004824232775717974,0.013978673612168303,0.04088151945778502,1.6141683501757358
1687016782.214507,0.014604512602090836,-0.04063175618648529,-0.9990674257278442,0.007947986014187336,0.008527256548404694,0.004987835884094238,0.025789443403482437,0.010836551897227764,4.828651435673237e-05,0.014617103767865838,0.04064294619095903,1.614247196875498
1687016782.2784219,0.014455989934504032,-0.04174581542611122,-0.9990236759185791,-0.00884074717760086,-0.015886642038822174,0.0065615177154541016,-0.013428089208900928,0.012224679812788963,0.00023031362798064947,0.014469107852885998,0.0417579503711056,1.6143491053724277
1687016782.283802,0.014889583922922611,-0.04067618027329445,-0.9990614056587219,0.00654902309179306,0.007518824189901352,0.004112124443054199,-0.020092027261853218,0.014347929507493973,-0.009684368968009949,0.014902468457277447,0.040687406414643724,1.6141636790404947
1687016782.3427448,0.01470996905118227,-0.04114499315619469,-0.9990448951721191,-0.011719238944351673,0.0009685903787612915,0.00836801528930664,-0.03249228373169899,0.013204812072217464,-0.014651764184236526,0.014722968447180457,0.0411566098079145,1.6141781062123082
1687016782.432451,0.015310447663068771,-0.032447509467601776,-0.9993561506271362,-0.019781265407800674,-0.03389771282672882,-0.015841543674468994,-0.2457410991191864,0.06333287060260773,0.021639665588736534,0.015319113041446205,0.03245320486311792,1.6142903080805615
1687016782.4387121,0.02026422694325447,-0.028094492852687836,-0.9993998408317566,0.042708806693553925,0.03526611626148224,-0.014439880847930908,-0.005772699601948261,0.042452357709407806,0.09305498749017715,0.020273617427474223,0.028098190657110386,1.6168886462665508
1687016782.49016,0.01641455478966236,-0.021891025826334953,-0.9996256232261658,-0.1318778097629547,0.1667884737253189,-0.01697593927383423,-0.0182801466435194,0.1042860746383667,-0.1353408843278885,0.016419227120023996,0.021892775058764705,1.6191305251019885
1687016782.582499,0.021868571639060974,-0.0034470967948436737,-0.9997549057006836,0.10938754677772522,0.08427289873361588,0.013930320739746094,-0.514596700668335,-0.06395059823989868,-0.2672646939754486,0.021870444537431324,0.0034471035929297595,1.6120218380588127
1687016782.597118,0.027316052466630936,0.012743903324007988,-0.9995456337928772,0.03803735226392746,0.06463341414928436,-0.015713155269622803,-0.09492427855730057,0.14287564158439636,-0.12424450367689133,0.02732166940740044,-0.012744248684743092,1.6055108448455448
1687016782.6760979,0.03993525356054306,0.022710012272000313,-0.9989441633224487,0.16322027146816254,-0.09366337954998016,-0.11766350269317627,-0.22697143256664276,0.23621827363967896,0.05570182949304581,0.03995618786539277,-0.022711964447976362,1.603004053520041
1687016782.688412,0.049081720411777496,0.03728938475251198,-0.9980984330177307,-0.0990084633231163,0.06538701057434082,0.03525358438491821,-0.31143954396247864,0.3784111738204956,-0.14220872521400452,0.04913564916697185,-0.03729803148686753,1.6047929964042953
1687016782.764673,0.05885365605354309,0.05741359665989876,-0.9966142177581787,-0.047729987651109695,-0.03097011148929596,-0.08492869138717651,-0.44213032722473145,0.2209017276763916,0.08214189112186432,0.058985094399980634,-0.05744518609100675,1.6055135770957025
1687016782.857182,0.07946546375751495,0.08136828243732452,-0.9935111403465271,-0.15026623010635376,-0.11064989119768143,0.11700057983398438,-0.8130841851234436,0.9107666015625,-0.16850942373275757,0.07981455549300122,-0.0814583369107552,1.6150027659161479
1687016782.871004,0.1135014221072197,0.10738414525985718,-0.9877176284790039,0.035424381494522095,0.10399587452411652,-0.038359642028808594,-0.13447462022304535,0.5514271855354309,0.029010696336627007,0.11441098937315224,-0.1075916076519037,1.6139588156205564
1687016782.943598,0.13924916088581085,0.12181973457336426,-0.982735812664032,-0.011548325419425964,0.04921605437994003,-0.0019443631172180176,-0.3523837924003601,0.5514549016952515,0.030333220958709717,0.14075837679389122,-0.1221230644510578,1.618348221827328
1687016782.9567862,0.158420130610466,0.12696944177150726,-0.9791740775108337,0.047253116965293884,0.06103411316871643,0.02418750524520874,0.052601706236600876,0.2248334437608719,-0.061163537204265594,0.1603996499364395,-0.12731309404053395,1.6187023940925924
1687016783.0326328,0.16318848729133606,0.12862354516983032,-0.9781745672225952,-0.023051738739013672,0.008232563734054565,0.021189093589782715,-0.05034269392490387,0.15450432896614075,-0.08948452770709991,0.16530721799912948,-0.12898086630171202,1.615108944071792
1687016783.04592,0.1658908724784851,0.1279456615447998,-0.9778088331222534,0.04414638876914978,-0.12461923062801361,0.04787719249725342,-0.17699864506721497,-0.007527719717472792,-0.09652671962976456,0.16805554355417207,-0.12829733547306624,1.6103308197110806
1687016783.1225739,0.16896632313728333,0.13183575868606567,-0.9767649173736572,-0.01828576624393463,0.041656672954559326,-0.016521155834197998,0.08809396624565125,0.20226696133613586,-0.04007216915488243,0.17129051568516945,-0.13222067184893016,1.607796520724444
1687016783.12886,0.17420944571495056,0.13264200091362,-0.9757341742515564,0.026413142681121826,-0.0313999205827713,0.029078900814056396,-0.16077820956707,0.00039580604061484337,-0.05054232105612755,0.1766802518337027,-0.13303406624198405,1.6063153176004892
1687016783.180873,0.17485196888446808,0.1368488371372223,-0.9750380516052246,0.008680775761604309,0.014823541045188904,0.005280971527099609,0.006452586036175489,0.023897670209407806,-0.04031364992260933,0.17744229859941218,-0.13727961567325533,1.6052077517431933
1687016783.309744,0.1718025952577591,0.13730694353580475,-0.975515604019165,-0.016986891627311707,0.053046464920043945,-0.02900099754333496,0.06772184371948242,-0.09931924194097519,-0.09163163602352142,0.17432699967906823,-0.13774209176720273,1.601825889429859
1687016783.3237,0.16565868258476257,0.1388857066631317,-0.9763544201850891,0.013311684131622314,-0.034179896116256714,0.0010126829147338867,-0.1225907951593399,-0.13555945456027985,-0.09899041801691055,0.16807002899696435,-0.13933612203239215,1.5972123600132724
1687016783.3988729,0.158624529838562,0.13742032647132874,-0.9777289628982544,-0.002527087926864624,-0.0007168203592300415,-0.0007714033126831055,0.1308269202709198,-0.11059799790382385,-0.08577913790941238,0.16083637668953,-0.13785656580709285,1.5920644714947736
1687016783.411977,0.15275436639785767,0.1381945163011551,-0.9785542488098145,0.0008253753185272217,-0.0007280707359313965,-0.015311717987060547,-0.07704439014196396,-0.09428746998310089,-0.09619735926389694,0.15485236439854733,-0.13863821023509953,1.5879803206594245
1687016783.416388,0.15000547468662262,0.1351926177740097,-0.9793984293937683,0.011691942811012268,-0.07173129916191101,0.02656334638595581,0.010277151130139828,-0.05575987324118614,-0.03398198261857033,0.15197978209808555,-0.13560786872000133,1.5845371218653452
1687016783.446974,0.14607514441013336,0.13970467448234558,-0.9793593287467957,-0.024798259139060974,0.0844469666481018,-0.030879318714141846,0.03602219745516777,-0.05743606761097908,-0.024541612714529037,0.1480622423508039,-0.1401631520543612,1.5836649456154126
1687016783.510046,0.1412964165210724,0.1339607536792755,-0.9808617830276489,-0.011688232421875,-0.05788043141365051,0.005550503730773926,0.04431651905179024,-0.10730873048305511,-0.02900187484920025,0.14306913579612351,-0.1343646935204507,1.581142853852505
1687016783.574585,0.139978289604187,0.13295868039131165,-0.9811870455741882,0.001058727502822876,0.04198335111141205,-0.007261991500854492,0.07141561061143875,0.031886886805295944,-0.02243744768202305,0.14170599457986982,-0.1333535691457723,1.5801420337415195
1687016783.633472,0.1394762545824051,0.13427864015102386,-0.9810788035392761,-0.015056073665618896,-0.009415954351425171,-0.010956048965454102,-0.07430227100849152,-0.013657605275511742,0.007310727145522833,0.14121987337720726,-0.1346854694984385,1.579944590458571
1687016783.7249188,0.13579347729682922,0.1321038454771042,-0.9818903803825378,0.015665292739868164,-0.0012749582529067993,-0.0007451176643371582,0.07656744122505188,-0.1250825822353363,-0.00487516587600112,0.1374262659938677,-0.13249112104704566,1.5794046574680773
1687016783.7390208,0.13237380981445312,0.1317613422870636,-0.9824032187461853,-0.043338775634765625,0.1132642924785614,-0.022769451141357422,0.09045477211475372,0.028191661462187767,-0.0010850882390514016,0.13393817477478503,-0.1321456057826728,1.5791352823794422
1687016783.77989,0.13199716806411743,0.12980589270591736,-0.9827141761779785,0.008963540196418762,-0.02571043372154236,-0.002484738826751709,-0.05400463193655014,-0.033569350838661194,0.014453457668423653,0.13351984252963328,-0.13017321892297443,1.5793634765699207
1687016783.880492,0.13290755450725555,0.12882490456104279,-0.9827205538749695,0.017193183302879333,-0.017084762454032898,-0.017019987106323242,0.051227468997240067,0.004891932010650635,0.019160795956850052,0.1344288387220194,-0.12918391237421525,1.5797714755641339
1687016783.8945432,0.13182559609413147,0.12953467667102814,-0.9827730059623718,0.001994013786315918,0.009549200534820557,0.0016328692436218262,-0.009320296347141266,-0.03574524447321892,-0.009211591444909573,0.13334044509521656,-0.1298996930395927,1.5800289315605227
1687016783.930262,0.12965728342533112,0.12792974710464478,-0.9832715392112732,-0.020816326141357422,-0.028320372104644775,0.010279655456542969,0.005931893363595009,-0.007942905649542809,-0.003236789256334305,0.13110675388589213,-0.12828129257535759,1.5792862457601564
1687016784.030478,0.130421444773674,0.12668925523757935,-0.9833311438560486,0.029536470770835876,-0.09528665244579315,0.015069425106048584,-0.05468311533331871,-0.03900974616408348,-0.004450059030205011,0.1318626544507277,-0.12703062375967167,1.5783826912436125
1687016784.044519,0.12948186695575714,0.12850050628185272,-0.9832202792167664,-0.009944483637809753,0.03156420588493347,-0.017344295978546143,0.041670892387628555,0.008958134800195694,-0.025038225576281548,0.13093814992141176,-0.12885679636379718,1.5780190308782458
1687016784.1103811,0.12805598974227905,0.12683944404125214,-0.9836226105690002,0.012767404317855835,0.009345263242721558,-0.007069528102874756,0.036020196974277496,-0.06787645816802979,-0.015085858292877674,0.12946000054365459,-0.12718203169562745,1.5770216128899952
1687016784.121869,0.12471427023410797,0.126988485455513,-0.9840326905250549,-0.012226447463035583,-0.025029242038726807,-0.004187524318695068,-0.05133894085884094,-0.05378114432096481,-0.004267565906047821,0.12606582531696273,-0.127332285675969,1.5764870753083993
1687016784.2049499,0.1250525265932083,0.1281691938638687,-0.9838366508483887,0.011712029576301575,0.03049170970916748,-0.018330097198486328,0.04781445115804672,0.021703314036130905,-0.0034502416383475065,0.12642903893563867,-0.12852273345475237,1.5765877387379736
1687016784.300792,0.12483803182840347,0.12837210297584534,-0.9838374257087708,-0.032186634838581085,0.007095441222190857,0.008678734302520752,-0.07190489768981934,0.02203834056854248,0.03891099616885185,0.12621438252777703,-0.12872732373478601,1.5774077659309402
1687016784.315465,0.1283739060163498,0.13262253999710083,-0.982818067073822,-0.004197850823402405,0.08649368584156036,-0.0375370979309082,0.0019985376857221127,0.09723784029483795,0.05624684318900108,0.12988285226570456,-0.1330144301641,1.57990605594895
1687016784.319735,0.13346882164478302,0.1360563337802887,-0.9816693663597107,-0.08041399717330933,-0.043481260538101196,0.08335399627685547,-0.18169549107551575,0.34574946761131287,0.03337495028972626,0.1351324751564466,-0.13647963151456016,1.5830508977451565
1687016784.34543,0.1509062796831131,0.1293252408504486,-0.9800521731376648,0.04750378429889679,-0.09058314561843872,0.059214770793914795,0.23229636251926422,0.07287000864744186,-0.06503564119338989,0.15277792269135979,-0.12968847019493163,1.5852403645883717
1687016784.407936,0.15837036073207855,0.13017216324806213,-0.9787614941596985,0.060440704226493835,0.21617183089256287,-0.008238017559051514,0.16929002106189728,0.10032648593187332,-0.060641758143901825,0.16041655816212944,-0.13054262371486752,1.5878707312550213
1687016784.471703,0.1560257226228714,0.1204967126250267,-0.9803757071495056,0.015910357236862183,-0.012494996190071106,-0.08642727136611938,0.2090904712677002,-0.20689915120601654,-0.023150775581598282,0.15782529773363652,-0.12079022780633063,1.5824885802987585
1687016784.566108,0.15513217449188232,0.11720980703830719,-0.9809158444404602,0.08359161019325256,0.206673264503479,0.057591259479522705,0.1609160155057907,-0.015695367008447647,-0.1684400588274002,0.15685125604683717,-0.11747985144841175,1.5762023006078305
1687016784.5806742,0.15246768295764923,0.11411421000957489,-0.9816983342170715,-0.09234802424907684,0.1117769107222557,-0.026526153087615967,0.14457565546035767,0.1297001838684082,-0.04341263696551323,0.1540791273201044,-0.11436334223641027,1.5760624877402478
1687016784.617241,0.1555861383676529,0.10294009000062943,-0.9824440479278564,0.014183193445205688,-0.17291688919067383,-0.0013511180877685547,0.10505972057580948,-0.011889621615409851,0.0515991635620594,0.15706203825158227,-0.10312276587211543,1.571815841100411
1687016784.715507,0.1576143205165863,0.09352348744869232,-0.9830620884895325,0.01117841899394989,-0.03222893178462982,-0.006180405616760254,0.20108914375305176,0.01766844652593136,-0.03380494937300682,0.15897698373307786,-0.09366036415219883,1.5706989441251054
1687016784.730802,0.15791723132133484,0.08314921706914902,-0.9839453101158142,0.06391507387161255,-0.11098124086856842,-0.006929934024810791,0.06767471134662628,-0.0932975709438324,0.24362292885780334,0.15913680481912085,-0.08324532938089638,1.571448148357608
1687016784.7686281,0.15295717120170593,0.07828732579946518,-0.9851269721984863,-0.07210083305835724,-0.04610653966665268,0.0051160454750061035,0.10983583331108093,-0.11725838482379913,0.020225126296281815,0.15403649430724414,-0.07836751595207989,1.573630985978868
1687016784.864701,0.1490999162197113,0.06818143278360367,-0.9864687323570251,0.08574813604354858,-0.13875332474708557,-0.011334002017974854,0.0268198661506176,-0.16329041123390198,0.052199169993400574,0.15000966749100392,-0.06823437121300387,1.5729315745162604
1687016784.8791509,0.14431127905845642,0.060134612023830414,-0.9877034425735474,-0.03334933519363403,0.06094389036297798,0.028459668159484863,0.34214356541633606,-0.026498835533857346,-0.03801234811544418,0.1450813436029304,-0.06017091428932747,1.571758359715838
1687016784.918319,0.139824777841568,0.04962002485990524,-0.988932192325592,-0.032280802726745605,-0.04011379927396774,-0.002217710018157959,0.06246547773480415,-0.13450831174850464,0.1265382468700409,0.14045861517677216,-0.04964041063650832,1.574307562115574
1687016785.014755,0.133026584982872,0.04141530022025108,-0.9902467727661133,-0.034531086683273315,0.020794779062271118,0.019864141941070557,0.29663482308387756,-0.08304644376039505,0.0556371808052063,0.13353734145038101,-0.04142715024149879,1.5760097324820979
1687016785.028702,0.12786221504211426,0.029493315145373344,-0.9913533329963684,0.040823712944984436,0.017671605572104454,-0.007242858409881592,0.16697320342063904,-0.11283133178949356,0.0621689110994339,0.1282693160747201,-0.029497591944932375,1.577032058763209
1687016785.068614,0.11998734623193741,0.018058938905596733,-0.9926111698150635,0.03945176303386688,-0.03125779330730438,0.03710579872131348,0.180047407746315,-0.20535388588905334,0.00047126319259405136,0.12029684726456477,-0.018059920858414295,1.5762051262442032
1687016785.165484,0.11450722068548203,0.008906477130949497,-0.9933825135231018,0.025675296783447266,0.020558243617415428,0.017033636569976807,0.21066586673259735,-0.10954036563634872,-0.04302242025732994,0.11476351660705283,-0.008906595019517287,1.5734504307970874
1687016785.179384,0.10974050313234329,0.00145132711622864,-0.9939591884613037,-0.009795419871807098,0.012739344500005245,0.027940571308135986,0.12877991795539856,-0.07203853130340576,0.01831011474132538,0.10996209118852558,-0.0014513276136919084,1.5724552334924256
1687016785.21882,0.10709985345602036,-0.007518660742789507,-0.9942198395729065,0.018403716385364532,-0.005649680271744728,-0.051770150661468506,0.158060222864151,-0.07648032903671265,0.03712907433509827,0.1073087063841259,0.007518731392441136,1.5714419691696906
1687016785.31442,0.10496259480714798,-0.011988921090960503,-0.9944038987159729,0.009295232594013214,-0.00874777976423502,0.022083401679992676,0.04779048264026642,-0.04337368905544281,-0.03501109778881073,0.10516387178694456,0.011989208084560802,1.5713562111444894
1687016785.328946,0.10302414000034332,-0.01346606481820345,-0.9945877194404602,-0.012005433440208435,0.0044481148943305016,0.010624706745147705,0.02045064978301525,-0.0303448848426342,-0.0007691042264923453,0.10321665493942027,0.013466472076723418,1.5708231167647595
1687016785.369142,0.10164958238601685,-0.015073862858116627,-0.9947060346603394,-0.006312653422355652,-0.0033129826188087463,0.003632485866546631,0.0317404568195343,-0.027734719216823578,-0.008534016087651253,0.10183706486177503,0.015074433788110847,1.5702061339096651
1687016785.4653192,0.10061270743608475,-0.014525070786476135,-0.9948196411132812,0.0006446391344070435,-0.007478110492229462,-0.05986785888671875,0.06105218082666397,-0.02025221474468708,0.012314938940107822,0.10079390359904422,0.01452558119609733,1.5688421705961675
1687016785.478901,0.10115168243646622,-0.017988475039601326,-0.9947083592414856,0.007002636790275574,-0.02893230877816677,0.019885361194610596,-0.0029969310853630304,0.021384533494710922,-0.013485897332429886,0.10134142807786947,0.017989445429331778,1.568794923018153
1687016785.5181742,0.10062526911497116,-0.016802581027150154,-0.9947825074195862,0.00427892804145813,0.021014001220464706,-0.02319234609603882,0.02084808051586151,-0.01979219727218151,0.012332316488027573,0.10081014158340695,0.01680337209693476,1.5683661914367506
1687016785.614469,0.10066398233175278,-0.01732681691646576,-0.9947695732116699,0.009290874004364014,0.02863357402384281,0.012469828128814697,0.00036934902891516685,0.0028668646700680256,-0.006415938027203083,0.10084995955133393,0.01732768309450457,1.5687048234117238
1687016785.628638,0.10090845823287964,-0.017692184075713158,-0.9947383999824524,0.002973400056362152,0.005149452015757561,-0.021130740642547607,0.021230466663837433,0.008467048406600952,0.005034123547375202,0.10109637354557391,0.017693106847558423,1.5685382511409982
1687016785.70404,0.10123129934072495,-0.019074156880378723,-0.9946800470352173,-0.0020949244499206543,-0.006926827132701874,-0.005426764488220215,0.028229476884007454,0.007774537894874811,0.0008104166481643915,0.1014235193445136,0.019075314104473898,1.5686175541800267
1687016785.7182698,0.10110624134540558,-0.019745616242289543,-0.9946796894073486,0.003889508545398712,-0.030898313969373703,0.006764650344848633,-0.023892182856798172,-0.006777506787329912,0.0008461696561425924,0.10129911250968092,0.019746898778047934,1.5685311429105722
1687016785.758239,0.10123426467180252,-0.019599158316850662,-0.9946695566177368,-0.00104503333568573,-0.001534273847937584,-0.0011342763900756836,0.01130357850342989,-0.007490257732570171,-0.008283479139208794,0.10142753354537287,0.01960041285929015,1.5682188419660514
1687016785.853538,0.10048700124025345,-0.018607331439852715,-0.9947643876075745,-0.0033342689275741577,0.009635156020522118,-0.002275407314300537,-0.020046398043632507,-0.010600652545690536,-0.023193253204226494,0.10067438047815083,0.018608405356040216,1.5678254948534378
1687016785.869425,0.09930212050676346,-0.01755155809223652,-0.9949025511741638,-0.0077493637800216675,-0.02639375999569893,-0.0019999146461486816,-0.01952180080115795,-0.00948327872902155,-0.0013504722155630589,0.09948142445867258,0.017552459341565758,1.5673411448273373
1687016785.973816,0.09935122728347778,-0.018078040331602097,-0.994888186454773,0.0013110116124153137,-0.003253750503063202,0.0006255507469177246,0.02018757164478302,0.000699673080816865,-0.0018682574154809117,0.0995317236038271,0.018079025289439145,1.5672089744668438
1687016785.981347,0.09932203590869904,-0.018240347504615784,-0.9948881268501282,0.002774536609649658,-0.005838027223944664,0.004745364189147949,-0.02463294006884098,0.0017169115599244833,-0.011270214803516865,0.09950267440668084,0.018241358925941763,1.5670846582596842
1687016786.063442,0.09921368211507797,-0.01747756451368332,-0.9949126243591309,-0.0001688748598098755,0.01560072973370552,-0.019445836544036865,0.015842581167817116,-0.005803588777780533,0.0014353273436427116,0.09939240838231149,0.01747845510909928,1.5669590726673563
1687016786.076888,0.09936883300542831,-0.01858234591782093,-0.9948771595954895,0.008968591690063477,-0.0028715208172798157,-0.004695594310760498,0.03740015998482704,0.0030521322041749954,0.00119244703091681,0.09955034018693562,0.018583414703403103,1.566915184462214
1687016786.152491,0.09931931644678116,-0.01858384720981121,-0.9948820471763611,-0.008926235139369965,-0.003953387960791588,0.0029234886169433594,-0.016507769003510475,-0.00047247298061847687,-0.005934105254709721,0.09950057391004895,0.018584917338973578,1.5669422009802172
1687016786.1669102,0.09874521940946579,-0.017636412754654884,-0.9949564337730408,-0.002157062292098999,-0.009539496153593063,0.0026773810386657715,-0.026108374819159508,-0.00666920468211174,-0.0007318865391425788,0.09892183764315356,0.017637327134966935,1.5666375651137303
1687016786.207829,0.09851519018411636,-0.017769521102309227,-0.9949768781661987,-0.0009199604392051697,-0.0036843419075012207,-0.0013609528541564941,0.02397272363305092,-0.0004060715436935425,0.000612743548117578,0.09869087566582108,0.017770456353320595,1.5664763085584565
1687016786.305515,0.0981941744685173,-0.017564568668603897,-0.9950122833251953,-0.0017891228199005127,0.0008867047727108002,0.0026264190673828125,-0.03565864637494087,-0.01608916185796261,-0.006881657987833023,0.09836788312635812,0.01756547168465806,1.56634490044706
1687016786.311699,0.09804379194974899,-0.017505431547760963,-0.9950281381607056,0.003762863576412201,-0.006389837712049484,-0.0037206411361694336,-0.004228465724736452,-0.010407395660877228,-0.003672415856271982,0.09821665249538583,0.017506326062506277,1.566103727599623
1687016786.360048,0.09752801805734634,-0.016764232888817787,-0.9950915575027466,-0.0005889162421226501,0.0027414020150899887,-0.013514339923858643,-0.0007422545459121466,0.0025353010278195143,-0.005334827583283186,0.09769706484231869,0.01676501909423147,1.5659602959208607
1687016786.455987,0.09759684652090073,-0.0163137037307024,-0.9950923323631287,0.010313332080841064,0.0077229999005794525,0.003621995449066162,-0.01636076159775257,-0.010956007055938244,-0.0025715981610119343,0.09776550170994583,0.016314426552384374,1.5657077191007691
1687016786.463994,0.09568112343549728,-0.007078786846250296,-0.9953868389129639,0.003409475088119507,0.019163744524121284,-0.0020038485527038574,-0.15440131723880768,-0.0036472277715802193,-0.009393751621246338,0.09583012668326625,0.007078846120858497,1.5658516761433903
1687016786.508088,0.09763556718826294,-0.0015007443726062775,-0.9952210783958435,0.050786688923835754,-0.03385387361049652,-0.01636028289794922,-0.0497894287109375,-0.05005680397152901,0.06050983443856239,0.0977914713068971,0.0015007449612386482,1.5668746054131197
1687016786.571815,0.09669381380081177,-0.0033998810686171055,-0.9953083395957947,-0.15244939923286438,-0.15785500407218933,0.03809404373168945,-0.1367388367652893,0.24982579052448273,-0.06602833420038223,0.09684569110914437,0.0033998875386611984,1.5706460663999753
1687016786.6641688,0.09918007999658585,0.007877767086029053,-0.9950383305549622,0.041719600558280945,-0.05492061749100685,-0.005922973155975342,-0.1824822723865509,-0.13005612790584564,0.06532569229602814,0.09934649982833249,-0.007877848612641998,1.5708586100997837
1687016786.679205,0.09619814902544022,0.017984949052333832,-0.9951996803283691,-0.03380494564771652,-0.014902675524353981,0.025106966495513916,-0.22981414198875427,0.00999037642031908,-0.05703224241733551,0.09636277243568257,-0.017985919544724466,1.572266767329851
1687016786.752078,0.0904565081000328,0.03450223430991173,-0.9953025579452515,0.010327808558940887,-0.09129545092582703,-0.04908519983291626,-0.23684751987457275,-0.1736728399991989,0.06600306928157806,0.09063443113015304,-0.034509084737929165,1.573411711100613
1687016786.765617,0.090627022087574,0.053140539675951004,-0.9944661259651184,0.043574050068855286,-0.011865507811307907,0.04655963182449341,-0.4791346490383148,-0.032322727143764496,0.02875037118792534,0.09088030522556192,-0.05316558140606408,1.5769729588263526
1687016786.8064919,0.08435159176588058,0.0703171119093895,-0.9939518570899963,-0.020478278398513794,-0.0537460595369339,-0.04230302572250366,-0.35708075761795044,-0.06044464558362961,-0.02442716248333454,0.08466200906417025,-0.07037518980082264,1.5787317862314663
1687016786.905312,0.1009880006313324,0.08891260623931885,-0.9909066557884216,0.04639666527509689,-0.02091943472623825,0.04261869192123413,-0.4957016408443451,0.3598175346851349,-0.11922837048768997,0.1015640821672862,-0.08903017472199395,1.5797997611084411
1687016786.912949,0.10556058585643768,0.123575858771801,-0.9867045879364014,-0.0016482099890708923,-0.007593788206577301,0.0007426738739013672,-0.683059811592102,0.02692355215549469,0.018973108381032944,0.1065775940594333,-0.12389256331020897,1.5819364134820226
1687016786.96025,0.10782083868980408,0.13098251819610596,-0.9855040311813354,0.03648154437541962,0.13549697399139404,-0.005264341831207275,0.3002457320690155,-0.05556253343820572,-0.040931567549705505,0.10897337315940525,-0.13135997444602923,1.5826915886086361
1687016787.0562692,0.10421250015497208,0.112886942923069,-0.9881276488304138,-0.022043906152248383,-0.0640740692615509,-0.017350196838378906,0.315798282623291,-0.027403954416513443,-0.0552222914993763,0.10507618248992995,-0.11312809113527786,1.578311092263415
1687016787.060845,0.10473623871803284,0.10980694741010666,-0.9884192943572998,0.008789166808128357,-0.028080865740776062,0.00183182954788208,-0.09255610406398773,0.02991916611790657,-0.06197952851653099,0.10556942437494649,-0.11002882380340603,1.574128424303727
1687016787.108181,0.10588248074054718,0.11757130920886993,-0.9874036312103271,-0.0017107054591178894,0.01571422815322876,-0.0024797916412353516,-0.11868322640657425,0.014654104597866535,-0.05656612291932106,0.10682502322706466,-0.11784387071589365,1.5721810126447988
1687016787.207998,0.10606370866298676,0.11515308916568756,-0.9876691102981567,0.0003511086106300354,-0.009180784225463867,-0.011720538139343262,0.1804753839969635,0.009867072105407715,-0.06099635735154152,0.10697792607836223,-0.11540911474015429,1.5676355168487506
1687016787.296749,0.10349772870540619,0.10561481863260269,-0.9890064597129822,0.009691990911960602,-0.050545834004879,0.019585072994232178,0.10205292701721191,-0.07238217443227768,-0.04829308018088341,0.1042686663969189,-0.10581215596158172,1.5626798556369244
1687016787.3111548,0.10040342807769775,0.10207975655794144,-0.9896963834762573,-0.012772180140018463,0.005921967327594757,-0.005268216133117676,0.0673309862613678,-0.05148284137248993,-0.05391820892691612,0.10110281893326908,-0.10225787721013306,1.5600939508759213
1687016787.385456,0.09372914582490921,0.0998021811246872,-0.9905828237533569,0.0025690868496894836,3.6075711250305176e-05,0.008557736873626709,0.0038019418716430664,-0.17595471441745758,-0.12717477977275848,0.09433932943881503,-0.09996861064499604,1.5561342824222255
1687016787.398862,0.08639402687549591,0.0954967513680458,-0.9916735291481018,0.016694366931915283,0.014076627790927887,-0.026911616325378418,0.16329902410507202,-0.14636442065238953,-0.03537401929497719,0.08690001667201369,-0.09564249738980785,1.5514743895301295
1687016787.4414039,0.07938013970851898,0.08643574267625809,-0.9930899739265442,-0.02251061052083969,-0.04551166296005249,0.01149207353591919,0.09308597445487976,-0.06286074966192245,-0.009937968105077744,0.07976289163908136,-0.08654373278630116,1.5489409210526714
1687016787.445838,0.08146054297685623,0.08903276920318604,-0.9926919937133789,-0.002084307372570038,0.013460524380207062,-0.0034170150756835938,-0.07460857927799225,0.05099213868379593,0.01691708154976368,0.08187678925419738,-0.08915081721697508,1.5506485933247818
1687016787.528829,0.08357749134302139,0.0937492772936821,-0.9920815825462341,0.007044479250907898,0.012055173516273499,-0.02456575632095337,-0.050858642905950546,0.02288859896361828,0.02530384249985218,0.08404611692458883,-0.09388714858822793,1.5516031571735163
1687016787.626186,0.08276639878749847,0.09403859078884125,-0.992122232913971,-0.0014828070998191833,0.016938596963882446,-0.03346675634384155,0.0686630979180336,-0.03486764058470726,0.005961369723081589,0.08323086791295123,-0.09417774716316274,1.5521780124425184
1687016787.6331081,0.08388210833072662,0.09605076909065247,-0.9918357133865356,-0.023854009807109833,0.012896992266178131,0.0045768022537231445,-0.09253621846437454,0.0916483923792839,0.0027933395467698574,0.08437180862014587,-0.09619907481757622,1.5525582632231838
1687016787.7157722,0.08426546305418015,0.09738060086965561,-0.9916735291481018,-0.011572569608688354,-0.028075166046619415,0.022862493991851807,-0.1244555413722992,0.007164673879742622,0.009573082439601421,0.08476935607881135,-0.09753517026910943,1.5535759323268974
1687016787.728894,0.08779788017272949,0.10199333727359772,-0.9909030795097351,0.0395367369055748,0.05839180946350098,-0.06679040193557739,0.07902483642101288,0.01987079344689846,0.004232046194374561,0.08837312257265165,-0.1021710057832453,1.5546166526011869
1687016787.8053432,0.08713781833648682,0.0991414412856102,-0.9912506937980652,-0.011164292693138123,-0.024937942624092102,-0.009313821792602539,-0.003792150877416134,0.013782540336251259,0.02083532325923443,0.08768155006348902,-0.09930457320843365,1.5543057813540138
1687016787.8196468,0.09016479551792145,0.09837787598371506,-0.9910560846328735,0.018172629177570343,-0.00035540759563446045,0.020230889320373535,0.05750591680407524,0.05026775971055031,-0.004058174788951874,0.09072872864017069,-0.09853725966892254,1.5546434460879557
1687016787.858654,0.09234251081943512,0.10197805613279343,-0.9904914498329163,0.004947550594806671,-0.020908094942569733,-0.02176135778427124,-0.11160312592983246,0.013811923563480377,-0.010286509990692139,0.09296028022130552,-0.10215564059965741,1.5550798166018913
1687016787.9235759,0.09216636419296265,0.10454749315977097,-0.9902399778366089,-0.0037264078855514526,0.011220954358577728,-0.017465710639953613,0.031470365822315216,-0.00660821795463562,-0.01196436770260334,0.0928074031601878,-0.10473888810721005,1.5544625634362632
1687016788.016031,0.09011170268058777,0.10286136716604233,-0.9906055927276611,0.012473158538341522,0.006132178008556366,0.005635499954223633,0.0281516220420599,-0.05784353241324425,-0.02116931788623333,0.09071660504803204,-0.10304362095541246,1.5538342908329499
1687016788.030326,0.08729204535484314,0.09969378262758255,-0.9911817312240601,0.01712387055158615,-0.034431926906108856,-0.02328360080718994,0.04299124330282211,-0.08619137108325958,-0.0052296994253993034,0.08784202287759287,-0.09985966567383484,1.5523506139745746
1687016788.105688,0.08504495769739151,0.10004060715436935,-0.9913421273231506,-0.02686317265033722,0.0024984702467918396,-0.007086217403411865,-0.010391241870820522,0.0256606824696064,-0.0183773934841156,0.08557816713687875,-0.10020823045617537,1.5516167680785617
1687016788.111902,0.08701612800359726,0.09910645335912704,-0.9912648797035217,0.006352417171001434,-0.006088867783546448,-0.001258254051208496,0.017448246479034424,0.009333640336990356,0.005867426283657551,0.08755847856918207,-0.09926941363706046,1.5516386486069473
1687016788.192237,0.08571799099445343,0.10199522227048874,-0.9910849332809448,-0.01770954579114914,-0.003545507788658142,0.0040397047996521,-0.08860131353139877,-0.015088522806763649,-0.0025966318789869547,0.08627434818186909,-0.10217290039513059,1.5516920443264512
1687016788.198262,0.08584733307361603,0.11234312504529953,-0.9899541735649109,-0.03189223259687424,-0.014305397868156433,0.03339594602584839,-0.31247738003730774,0.07254980504512787,-0.013600680977106094,0.08650209187889735,-0.11258079153775179,1.5524924319597642
1687016788.247383,0.0907730907201767,0.12014073133468628,-0.9885982275009155,0.008897341787815094,-0.00023714452981948853,-0.014636635780334473,-0.11074039340019226,0.09650174528360367,0.04873466491699219,0.09156325885488045,-0.12043163836416843,1.5539528289514797
1687016788.346746,0.1018376275897026,0.12917333841323853,-0.9863789081573486,-0.10208174586296082,0.09066005051136017,-0.22599291801452637,-0.007291234098374844,0.5003634691238403,0.0830039530992508,0.10287941438897207,-0.12953529050018003,1.5554848088521347
1687016788.361515,0.11183828115463257,0.1302877813577652,-0.9851483702659607,-0.0037907660007476807,-0.063667893409729,0.0997113585472107,-0.1968858391046524,0.0795799270272255,0.0018834042130038142,0.11304034589847137,-0.13065923354348363,1.5585285098150048
1687016788.398139,0.11980701237916946,0.1387392282485962,-0.9830552935600281,-0.012568220496177673,0.0623563677072525,-0.013023197650909424,-0.08026286959648132,0.2073463350534439,0.02086528390645981,0.12127404172189758,-0.13918822232675698,1.5603954653631185
1687016788.4995918,0.12358815968036652,0.13968195021152496,-0.9824535250663757,-0.009772822260856628,0.03294074535369873,0.011536777019500732,0.02124231867492199,0.05447635054588318,-0.003941328264772892,0.1251381030762849,-0.1401402126333773,1.5609338823824954
1687016788.5143728,0.12752501666545868,0.13727501034736633,-0.9822896718978882,0.02454410493373871,-0.024970293045043945,-0.015177369117736816,0.03168612718582153,0.03126814588904381,0.002409711480140686,0.12910217312674951,-0.13770984558542174,1.5607241724956475
1687016788.546876,0.12605351209640503,0.13824822008609772,-0.9823430776596069,0.03115782141685486,-0.05176138877868652,-0.023577332496643066,-0.07444635033607483,-0.11336742341518402,-0.00022921490017324686,0.12762181925795138,-0.13869243507855525,1.5603688585315714
1687016788.648522,0.12741497159004211,0.13983626663684845,-0.9819425940513611,0.01554463803768158,0.052378714084625244,-0.07137161493301392,0.10439033806324005,0.048315126448869705,0.012865016236901283,0.12903709129489638,-0.14029605998668965,1.5601406125419393
1687016788.6621552,0.13118350505828857,0.14028292894363403,-0.9813824892044067,-0.054279178380966187,-0.03482942283153534,-0.11770808696746826,-0.0025481884367763996,0.19046249985694885,0.0553114116191864,0.1328844173264357,-0.14074715934997448,1.5603573597902347
1687016788.7339911,0.1326245218515396,0.14265510439872742,-0.9808467030525208,-0.019404277205467224,-0.005051329731941223,0.06518203020095825,-0.05610080435872078,0.002800108166411519,0.014743209816515446,0.13439920001700215,-0.14314343712847447,1.562505519542458
1687016788.748283,0.13609376549720764,0.1358436644077301,-0.981338381767273,-0.009277939796447754,0.1500297635793686,-0.05068981647491455,0.34406399726867676,0.09285907447338104,-0.029494957998394966,0.1378028379870637,-0.1362649751036327,1.5618329800436235
1687016788.7890491,0.1311282217502594,0.12930642068386078,-0.9828963279724121,-0.0105227530002594,-0.02142678201198578,-0.007032811641693115,0.06272624433040619,-0.12329524755477905,0.0051825945265591145,0.13262688505232859,-0.12966949914533862,1.5597744125361936
1687016788.886214,0.1333451271057129,0.12018566578626633,-0.9837552905082703,0.0696730762720108,0.26718923449516296,0.02916550636291504,0.43350091576576233,-0.004105379804968834,-0.09189941734075546,0.1347259462881285,-0.12047690010239022,1.5543437770564856
1687016788.900389,0.12994825839996338,0.11483488976955414,-0.9848484396934509,-0.06293162703514099,0.12234774976968765,-0.007003366947174072,0.0653451532125473,0.07540950924158096,0.005217681638896465,0.13118962830990902,-0.11508878572696274,1.5551810076382666
1687016788.939569,0.1329793781042099,0.10039582848548889,-0.9860208630561829,0.03570656478404999,0.0427926629781723,-0.0012685656547546387,0.3786087930202484,0.01057991199195385,-0.011684070341289043,0.13405582292599488,-0.10056524905060923,1.551163849289778
1687016789.037794,0.1331644505262375,0.09177271276712418,-0.9868358373641968,-0.006012946367263794,0.031258903443813324,-0.0034442543983459473,-0.09996400773525238,0.008895284496247768,0.05314192920923233,0.134130620935429,-0.09190202698544148,1.5533653825202018
1687016789.052876,0.13381166756153107,0.0758647620677948,-0.988098680973053,0.06015808880329132,-0.1131267100572586,-0.0056299567222595215,0.2822950780391693,-0.06720401346683502,0.06296652555465698,0.13460451716035976,-0.07593772287665367,1.5539456465332502
1687016789.0873919,0.13298842310905457,0.06747312098741531,-0.9888182282447815,-0.04013866186141968,0.09417849779129028,-0.027737557888031006,0.35341155529022217,0.037084754556417465,0.08555153757333755,0.13369007375535213,-0.06752442480494406,1.5584907414339222
1687016789.186259,0.13105155527591705,0.05037165805697441,-0.9900950193405151,0.07539986073970795,-0.001436721533536911,0.012510240077972412,0.2668388783931732,-0.15212884545326233,0.0878319963812828,0.1315976426607379,-0.05039298224713918,1.5611207077971827
1687016789.201051,0.12466161698102951,0.040965545922517776,-0.9913532733917236,0.01082119345664978,0.08443118631839752,0.07327771186828613,0.22660572826862335,-0.09686017036437988,-0.010223126970231533,0.12509233917960477,-0.04097701281754081,1.563372907003487
1687016789.305603,0.120289146900177,0.03379303961992264,-0.9921635985374451,-0.017093926668167114,0.01157134398818016,-0.04993540048599243,0.0920381098985672,-0.06435540318489075,0.009640660136938095,0.1206503810761588,-0.03379947388203711,1.5625748156241632
1687016789.368931,0.11820211261510849,0.03131498768925667,-0.9924956560134888,0.011940129101276398,0.03251252695918083,0.01559746265411377,0.08324114978313446,-0.033118121325969696,0.026950806379318237,0.11853751478909574,-0.03132010965750742,1.5630314482937477
1687016789.383029,0.11690487712621689,0.02513778768479824,-0.992824912071228,0.007103331387042999,-0.01273239403963089,-0.0023838281631469727,0.09432598203420639,-0.03204149752855301,0.03216094896197319,0.11721002037013518,-0.02514043665914892,1.563311562346139
1687016789.38734,0.11546377837657928,0.023694874718785286,-0.9930290579795837,0.002150990068912506,0.003282662481069565,0.01486438512802124,0.018684130162000656,-0.03688117116689682,-0.00047049729619175196,0.1157545368554392,-0.023697091816790125,1.5639499729609663
1687016789.4173841,0.1138329729437828,0.02088279277086258,-0.9932804107666016,-0.0027031898498535156,-0.0018550790846347809,0.024072647094726562,0.06512908637523651,-0.012681379914283752,-0.00510113500058651,0.11410524958667326,-0.02088431003575213,1.5637322441921495
1687016789.4817228,0.11339996755123138,0.018275288864970207,-0.9933813214302063,-0.011059246957302094,-0.03235914930701256,-0.005138576030731201,-0.026899822056293488,0.0035209369380027056,-0.007740461267530918,0.11366349643870961,-0.01827630599951959,1.5636004837722326
1687016789.5451589,0.112594835460186,0.018562929704785347,-0.9934675693511963,-0.019027918577194214,-0.006706852465867996,0.007841348648071289,0.015863263979554176,-0.005632259417325258,0.004046557005494833,0.11285363539407944,-0.018563996658083056,1.5634048262129383
1687016789.697864,0.11204516142606735,0.018427247181534767,-0.9935322403907776,-0.0065763890743255615,0.004872919991612434,0.011293470859527588,0.0027082697488367558,-0.003985448740422726,-0.016575563699007034,0.11230008564070797,-0.01842828963592054,1.5630722368114625
1687016789.704812,0.11170896142721176,0.016659200191497803,-0.9936013221740723,-0.03164607286453247,-0.0357632040977478,-0.0019125938415527344,-0.01261986419558525,0.023800021037459373,-0.0019291770877316594,0.11195821328990126,-0.016659971610425185,1.5631209389782812
1687016789.844212,0.11175518482923508,0.017530696466565132,-0.9935811161994934,-0.005416668951511383,-0.01179339550435543,-0.009211182594299316,-0.02624685876071453,0.0011381178628653288,0.002361774444580078,0.11200640935984818,-0.01753159390623384,1.563225451138329
1687016789.851632,0.11189831793308258,0.0165521539747715,-0.9935817718505859,-0.002874240279197693,-0.005016513168811798,-0.006082475185394287,0.04420147463679314,0.009463958442211151,0.007648149039596319,0.11214858828262513,-0.016552909559350612,1.5633530054466163
1687016789.85729,0.11207316070795059,0.015567770227789879,-0.9935780167579651,-0.004162982106208801,-0.004627220332622528,0.011201918125152588,0.011149248108267784,0.005801845341920853,-0.0016863633645698428,0.11232278183311843,-0.015568399009761915,1.5637736873829067
1687016789.898581,0.11185573786497116,0.014498982578516006,-0.9936186671257019,0.0017764866352081299,-0.001452721655368805,-0.01352238655090332,0.01860836148262024,-0.012738281860947609,0.0010793959954753518,0.11210214376448353,-0.014499490997936461,1.5638124036440173
1687016789.908167,0.11216047406196594,0.013180077075958252,-0.9936026930809021,-0.006752729415893555,0.006229100748896599,0.0060538649559021,0.06372954696416855,0.01570037007331848,0.0046562207862734795,0.11240677985417026,-0.013180458412828644,1.5638717462384186
1687016789.910905,0.11249163746833801,0.0114643769338727,-0.993586540222168,-0.003955848515033722,0.006724096834659576,-0.015065193176269531,-0.00792590994387865,0.0007719334680587053,-0.0033009047619998455,0.11273769116455283,-0.011464628239927308,1.5638571873477494
1687016789.959542,0.1121283769607544,0.01138821430504322,-0.9936284422874451,0.015129953622817993,0.02147921547293663,-0.004158973693847656,0.04196188971400261,-0.025997363030910492,-0.0021908327471464872,0.11237199155205521,-0.011388460780332245,1.5636718278016857
1687016790.021009,0.1110554039478302,0.01123780570924282,-0.9937506914138794,0.00892447680234909,0.0024951035156846046,-0.017479777336120605,-0.008515622466802597,-0.021528223529458046,-0.005448477808386087,0.11129201708650481,-0.011238042185127415,1.5631101831134389
1687016790.0834188,0.1109762117266655,0.010005909018218517,-0.9937726855278015,0.002808600664138794,0.007907908409833908,0.012998759746551514,0.044458866119384766,-0.0015482124872505665,0.005302903242409229,0.11121086665633859,-0.010006075718454374,1.56337044144713
1687016790.1459599,0.11101361364126205,0.008972234092652798,-0.9937784075737,-0.011068522930145264,0.001647881232202053,0.007572352886199951,0.008131086826324463,0.015628909692168236,0.0007681389106437564,0.11124740551453358,-0.008972354193265803,1.5635412526997243
1687016790.234476,0.11020487546920776,0.00884956680238247,-0.9938694834709167,-0.011968761682510376,0.0002446705475449562,0.006839454174041748,-0.0048188441433012486,-0.012562869116663933,-0.00886058621108532,0.11043351960277205,-0.008849682725504973,1.56340680177037
1687016790.2504358,0.10957040637731552,0.008930535055696964,-0.9939389228820801,-0.0038117170333862305,0.0003925822675228119,-0.011538982391357422,-0.018319251015782356,-0.010787161998450756,0.005530403461307287,0.10979524115237183,-0.008930653676038073,1.5631213594366447
1687016790.35366,0.1094999611377716,0.008268659934401512,-0.9939523935317993,0.007565498352050781,-0.006117174401879311,-0.0038350820541381836,0.011881217360496521,-0.012197128497064114,-0.007223807740956545,0.1097237357426994,-0.008268754594204949,1.5630065351021345
1687016790.368268,0.1081245020031929,0.010476196184754372,-0.9940821528434753,-0.004059538245201111,-0.013833131641149521,-0.008435547351837158,-0.07672472298145294,-0.04341265931725502,-0.011127469129860401,0.1083422652829611,-0.010476387857406825,1.5627808907638268
1687016790.442882,0.1072797104716301,0.011177394539117813,-0.9941660761833191,-0.005442529916763306,-0.022362086921930313,-0.0004933476448059082,-0.007999412715435028,0.0078064072877168655,-5.650881212204695e-05,0.10749330282488447,-0.011177627596021521,1.5626366439684514
1687016790.4489741,0.10789640992879868,0.00893726572394371,-0.9941219687461853,-0.008027613162994385,-0.0012773573398590088,0.009106099605560303,0.06278333067893982,0.024703718721866608,0.012700299732387066,0.10811119952084962,-0.008937384693374085,1.563078241885973
1687016790.534353,0.10756642371416092,0.008848867379128933,-0.9941585063934326,-0.006873659789562225,-0.015608514659106731,0.008501827716827393,-0.04073099419474602,-0.0018653948791325092,-0.023239193484187126,0.10777918254093202,-0.008848983318968034,1.5626289200970978
1687016790.549613,0.10708501189947128,0.009154973551630974,-0.9942077398300171,-0.004271261394023895,0.004410086199641228,0.00488889217376709,-0.009538542479276657,-0.0010959189385175705,-0.009552409872412682,0.10729524610768536,-0.009155101890280475,1.5623904911245663
1687016790.590025,0.10632777214050293,0.0101399514824152,-0.9942794442176819,0.004954598844051361,0.004477965645492077,-0.016462743282318115,-0.017287809401750565,-0.02757786028087139,-0.009291153401136398,0.10653464682488899,-0.010140124854811212,1.5621973169394578
1687016790.686048,0.10527826100587845,0.011830948293209076,-0.9943724274635315,-0.0019762367010116577,-0.007436420768499374,-0.0005158782005310059,-0.06781046092510223,-0.021410156041383743,-0.013566724956035614,0.10548112557459174,-0.011831224628727658,1.5617854404191809
1687016790.702178,0.10490560531616211,0.01225275732576847,-0.9944067001342773,0.0003648102283477783,-0.02349848672747612,-0.010109901428222656,0.003528967499732971,-0.004954751115292311,0.00601603090763092,0.10510689994674102,-0.012253063921747156,1.5617833345995489
1687016790.737776,0.10431703925132751,0.013781116344034672,-0.9944486021995544,-0.010689087212085724,-0.006548450328409672,0.00043004751205444336,-0.044346679002046585,-0.020747030153870583,-0.010203419253230095,0.1045171337055486,-0.013781552172306198,1.5615256977764755
1687016790.834365,0.1033279076218605,0.015417039394378662,-0.9945278763771057,-0.0062819793820381165,-0.018590867519378662,0.006963789463043213,-0.050963301211595535,-0.008002739399671555,-0.009772785007953644,0.10352500798389826,-0.015417649748617188,1.5610758194776557
1687016790.849572,0.10330360382795334,0.016140585765242577,-0.9945188760757446,-0.005845703184604645,0.013400426134467125,-0.021411240100860596,0.04669414460659027,0.011629018932580948,0.009127468802034855,0.10350175894656309,-0.016141286292520853,1.5608881801032473
1687016790.923276,0.10337694734334946,0.015545351430773735,-0.9945207834243774,0.007401883602142334,-0.00683258194476366,0.009733796119689941,-0.04385922849178314,-0.015447426587343216,-0.015238524414598942,0.10357452576779146,-0.015545977309088342,1.5608954086667197
1687016790.939897,0.10281863063573837,0.016543075442314148,-0.994562566280365,0.003184191882610321,-0.0011469591408967972,-0.01082378625869751,0.0007905722595751286,-0.018958449363708496,-0.0026349148247390985,0.10301480944185559,-0.016543830467224883,1.5605677852425868
1687016790.977243,0.10219667851924896,0.018438544124364853,-0.9945933222770691,0.0013647451996803284,-0.04134198650717735,-0.010579407215118408,-0.09373508393764496,-0.017366856336593628,-0.010430586524307728,0.10239287936478136,-0.018439589222356598,1.5603389793877414
1687016791.107697,0.1008211225271225,0.022308645769953728,-0.9946544170379639,0.005181699991226196,0.007552802562713623,-0.013951480388641357,-0.16122879087924957,-0.0565456859767437,-0.026028253138065338,0.10101794380961726,-0.02231049670863193,1.5599325217865223
1687016791.114984,0.10119667649269104,0.02420170046389103,-0.9945720434188843,-0.004639036953449249,0.05358760431408882,0.0031474828720092773,0.09238506853580475,0.018215015530586243,0.019208531826734543,0.10139999981113244,-0.02420406416081775,1.5602470079490476
1687016791.1950278,0.10259772837162018,0.022143714129924774,-0.9944764375686646,-0.011640064418315887,-0.018557898700237274,-7.617473602294922e-05,0.018444044515490532,0.06980746239423752,0.011120445095002651,0.10280387896321885,-0.02214552348616453,1.5607564775338467
1687016791.2022328,0.1045779213309288,0.026482105255126953,-0.9941640496253967,0.005849957466125488,-0.027946947142481804,0.02224022150039673,-0.24499891698360443,0.02751806005835533,0.014381153509020805,0.10480637705441452,-0.026485200830034198,1.5609868521610546
1687016791.2844682,0.10249659419059753,0.04607505351305008,-0.9936656951904297,0.03136877715587616,-0.009820174425840378,0.009092390537261963,-0.4461698532104492,-0.13088436424732208,-0.0419127456843853,0.1027864615352085,-0.046091369880759674,1.561095183767041
1687016791.299646,0.0985184758901596,0.05598288029432297,-0.9935593008995056,-0.07157143205404282,-0.04672078788280487,0.012281835079193115,-0.26460519433021545,0.06683066487312317,-0.029897894710302353,0.09883404798231515,-0.05601216347916905,1.5626643574308465
1687016791.373211,0.09791054576635361,0.07254671305418015,-0.9925474524497986,0.049840331077575684,0.06397368758916855,-0.01933908462524414,-0.2873419225215912,-0.08223870396614075,0.03762096166610718,0.09832758426795721,-0.07261049739829827,1.5638310803067794
1687016791.378953,0.10013255476951599,0.08360030502080917,-0.9914557337760925,-0.0066114142537117004,0.04039262235164642,-0.005706131458282471,-0.10534092038869858,0.10011201351881027,0.04312857985496521,0.10065418754295762,-0.08369799161417617,1.5672349444493439
1687016791.428283,0.10434652864933014,0.08887328207492828,-0.9905621409416199,-0.012992136180400848,-0.00437009334564209,-0.04752379655838013,-0.055368613451719284,0.09170299023389816,0.06989381462335587,0.1049536527445935,-0.08899069160855835,1.5702080390804674
1687016791.526554,0.12023495137691498,0.0876297652721405,-0.98887038230896,-0.05482050031423569,-0.003904774785041809,0.0008485317230224609,0.0955943614244461,0.5027682185173035,-0.08350559324026108,0.12099427290900963,-0.08774230492036718,1.5702975399287435
1687016791.534416,0.13555966317653656,0.09897437691688538,-0.9858132004737854,0.021331235766410828,-0.03401769697666168,-0.0284537672996521,-0.410868763923645,0.1650172472000122,-0.0006622448563575745,0.13665346631413267,-0.0991366831031605,1.5695985583969787
1687016791.612998,0.14055584371089935,0.10838015377521515,-0.9841228723526001,0.054054781794548035,0.07469481974840164,0.0432964563369751,-0.0368276871740818,0.019219473004341125,-0.026319539174437523,0.1418640506313914,-0.10859345786694578,1.5702116619979178
1687016791.706224,0.13764417171478271,0.10423844307661057,-0.9849814176559448,-0.010477408766746521,0.04166610538959503,-0.0561562180519104,0.2797628343105316,-0.08130544424057007,-0.0372200533747673,0.13884378232585676,-0.10442814315080955,1.5677245470874162
1687016791.722043,0.132642924785614,0.08868660777807236,-0.9871882200241089,-0.00807015597820282,0.017026297748088837,-0.012125134468078613,0.3165539801120758,-0.08890877664089203,-0.05056149512529373,0.13356443285984596,-0.08880327816370488,1.562852566388751
1687016791.854882,0.12606625258922577,0.08629367500543594,-0.9882614612579346,-0.004453673958778381,-0.07869478315114975,0.02169346809387207,-0.22738410532474518,-0.10988959670066833,-0.015529274940490723,0.12687841763211527,-0.0864011347094069,1.5606809806472408
1687016791.870095,0.12238193303346634,0.08880183845758438,-0.9885023236274719,0.010506875813007355,0.016148120164871216,-0.0015336275100708008,0.08958444744348526,-0.09395075589418411,-0.06675038486719131,0.12317860739354228,-0.08891896404684042,1.558438359197133
1687016791.874662,0.11778510361909866,0.08968812227249146,-0.9889806509017944,-0.0012384504079818726,-0.01626281440258026,-0.010012269020080566,-0.07196001708507538,-0.05739150196313858,-0.02789599634706974,0.11853912604318022,-0.08980879915975207,1.556431511530181
1687016791.939121,0.11385433375835419,0.08655940741300583,-0.9897195100784302,-0.004128359258174896,-0.027797795832157135,0.011051297187805176,0.08455955237150192,-0.07378140091896057,-0.03325161337852478,0.11453352015016095,-0.08666786264714532,1.5539560102148124
1687016791.943826,0.1094302237033844,0.091089628636837,-0.9898119568824768,-0.015252955257892609,0.03030930459499359,-0.007075250148773193,-0.11252964287996292,-0.06774738430976868,-0.05539979040622711,0.11010942154629733,-0.09121607134985897,1.5531415585204211
1687016792.030882,0.1060071736574173,0.08874862641096115,-0.9903969764709473,0.009501881897449493,-0.08029524236917496,0.008081912994384766,-0.024137238040566444,-0.07792367041110992,-0.006515672896057367,0.10662907350684857,-0.08886554187910026,1.5499217395702487
1687016792.045497,0.10251288115978241,0.0858144760131836,-0.9910231828689575,0.010341137647628784,0.024994850158691406,-0.027256786823272705,0.19935035705566406,-0.08961433172225952,-0.0424082912504673,0.10307485616846705,-0.0859201500567085,1.5482946562879751
1687016792.1234732,0.09906783699989319,0.08380589634180069,-0.9915453195571899,-0.0005418211221694946,0.02155604213476181,-0.009187042713165283,0.013959991745650768,-0.05284886434674263,-0.02622026950120926,0.09958208355980812,-0.0839043114317933,1.5467139310234141
1687016792.129508,0.09701966494321823,0.07850233465433121,-0.9921817183494568,0.02032044529914856,-0.10023085027933121,0.026529252529144287,-0.007121368311345577,-0.06313221156597137,-0.0025572171434760094,0.09747428270926872,-0.07858319148941546,1.5448780168163028
1687016792.248046,0.09441112726926804,0.08323279023170471,-0.9920477867126465,-0.020955301821231842,0.05559167265892029,-0.00612109899520874,-0.019119087606668472,-0.007297533098608255,-0.019946327432990074,0.09488216086712435,-0.08332919535747728,1.545377629027825
1687016792.263713,0.09232120215892792,0.08179464191198349,-0.9923640489578247,0.008447855710983276,-0.02817525714635849,0.025078952312469482,-0.0641116350889206,-0.07980084419250488,-0.004041463136672974,0.09276457599206245,-0.08188612044247469,1.5452861795587929
1687016792.3335872,0.09146564453840256,0.08209159225225449,-0.9924187660217285,-0.007725387811660767,-0.013198144733905792,-0.019986629486083984,0.016955649480223656,0.017000261694192886,0.0009062237804755569,0.0919047262376171,-0.08218407402357363,1.5452066690869546
1687016792.3476958,0.09019459038972855,0.08170066773891449,-0.9925673604011536,-0.013793811202049255,0.014322899281978607,0.0036452412605285645,-0.001466589979827404,-0.01724204234778881,-0.004416236653923988,0.0906211110070336,-0.08179183488771447,1.5455097125492925
1687016792.488991,0.08988390862941742,0.07978586107492447,-0.9927513003349304,0.04269973188638687,-0.028394252061843872,0.02101057767868042,-0.014176792465150356,-0.07628273218870163,0.010805060155689716,0.09029401684538071,-0.07987075557422241,1.545274492124939
1687016792.5044951,0.0868927389383316,0.07960554212331772,-0.9930320382118225,-0.01606142520904541,-0.02687115967273712,0.0010734200477600098,0.03290722891688347,-0.025563890114426613,-0.004465305712074041,0.08728015123046064,-0.07968986353816664,1.5452621853570476
1687016792.542259,0.08450844138860703,0.07968667149543762,-0.9932312965393066,-0.01720190793275833,0.014429546892642975,-0.01093435287475586,-0.006620250642299652,-0.02088427171111107,-0.007497514132410288,0.08487992613908515,-0.0797712494224304,1.5454632347877808
1687016792.54608,0.08534009754657745,0.08028654754161835,-0.9931118488311768,0.0008263066411018372,0.0009817704558372498,-0.019156217575073242,-0.010120576247572899,0.0022684521973133087,0.013487596064805984,0.08572142351949293,-0.08037305096732159,1.5451605291804835
1687016792.565038,0.08527348935604095,0.08094291388988495,-0.993064284324646,-0.003165923058986664,-0.004053860902786255,-0.020683884620666504,-0.020587021484971046,0.006048365496098995,0.02015608362853527,0.08565892997952847,-0.08103155852477122,1.5461243673053382
1687016792.62976,0.08491040021181107,0.08411825448274612,-0.9928314685821533,-0.016581527888774872,0.021564118564128876,0.008364975452423096,-0.07879301905632019,0.005580803379416466,-0.0321054570376873,0.0853158722995431,-0.08421777599119937,1.5465268550417592
1687016792.6345801,0.0843123197555542,0.08532511442899704,-0.9927794337272644,0.0055619701743125916,-0.009733058512210846,0.0022094249725341797,-0.035041239112615585,-0.02022487297654152,0.010173225775361061,0.0847222327054826,-0.08542898904607538,1.545934813615111
1687016792.754842,0.08372040838003159,0.08292494714260101,-0.9930329322814941,0.008183300495147705,-0.048348523676395416,0.02252817153930664,0.031656209379434586,-0.01435917243361473,0.0023810826241970062,0.08410888496855927,-0.08302028521465005,1.5455156806415369
1687016792.874249,0.0816948413848877,0.08214576542377472,-0.9932663440704346,-0.0035240426659584045,-0.045402586460113525,0.0034592151641845703,-0.009745869785547256,-0.05749128386378288,0.0018302741227671504,0.08206395782869556,-0.08223842997515539,1.544934199450616
1687016792.8926291,0.0794384554028511,0.08323375880718231,-0.9933587908744812,-0.004822961986064911,-0.004467882215976715,-0.007358372211456299,-0.009967577643692493,-0.03856819123029709,-0.004964315332472324,0.07979973308540068,-0.08333016683224635,1.5444494256750996
1687016792.966634,0.0791148692369461,0.08677840232849121,-0.9930812120437622,-0.008359849452972412,0.040952928364276886,-0.03258401155471802,-0.03641325607895851,0.036767665296792984,-0.004147856496274471,0.07949815951894566,-0.08688768391533265,1.5446623612780503
1687016792.9816508,0.08005716651678085,0.08412560820579529,-0.9932339787483215,0.01604270190000534,-0.032810285687446594,0.020776093006134033,0.012083396315574646,-0.03033636324107647,0.0016646921867504716,0.08042865248160389,-0.08422515031087324,1.5440315524714412
1687016792.985733,0.07561519742012024,0.08899011462926865,-0.9931581616401672,-0.010521180927753448,-0.06199730187654495,0.037027180194854736,-0.25367122888565063,-0.08255410939455032,0.0028354180976748466,0.07598950520172858,-0.0891079873299995,1.5450841221987226
1687016793.020021,0.07520197331905365,0.10142312198877335,-0.9919970035552979,0.05567268282175064,-0.013898693025112152,-0.06079840660095215,-0.2701171934604645,-0.06696264445781708,0.05913630500435829,0.07566394410280351,-0.10159781724736457,1.5462238924016574
1687016793.111683,0.07965169847011566,0.1156780868768692,-0.9900879859924316,-0.06929095834493637,0.03278994560241699,0.01193857192993164,-0.07853483408689499,0.2809612452983856,0.02372565306723118,0.08027622742541066,-0.11593763914390383,1.5484798410179792
1687016793.11957,0.08951672911643982,0.10762761533260345,-0.9901530742645264,-0.04540354758501053,-0.06291934102773666,0.05660510063171387,0.12352003902196884,0.21913285553455353,0.00024675868917256594,0.09016185055429524,-0.10783649073851542,1.548998500887538
1687016793.171711,0.11022856831550598,0.10965434461832047,-0.987838864326477,0.03277682512998581,0.14748677611351013,-0.13981616497039795,0.06234870105981827,0.3938024044036865,0.021490195766091347,0.11112587611138725,-0.1098752922147585,1.5485878340121755
1687016793.264978,0.11258938908576965,0.11036007106304169,-0.9874939322471619,-0.03869105130434036,-0.0809716284275055,0.19705814123153687,-0.3172479569911957,0.08349450677633286,-0.042651575058698654,0.11352504111560614,-0.11058532873044657,1.5495416619523028
1687016793.2719932,0.11850441992282867,0.11390555649995804,-0.9863986372947693,-0.019535891711711884,0.25578439235687256,0.030008256435394287,0.29099223017692566,0.08122096955776215,-0.015584669075906277,0.11956543096247366,-0.11415331605435126,1.5498883665805034
1687016793.3865728,0.1197892352938652,0.10477577894926071,-0.9872550964355469,-0.03583535552024841,-0.010247565805912018,-0.047748565673828125,0.005207336042076349,0.11634832620620728,-0.0621110238134861,0.1207454073767209,-0.10496843312200667,1.5487454225812702
1687016793.4017959,0.12372284382581711,0.09916187822818756,-0.9873497486114502,0.05645296722650528,-0.06641650944948196,-0.01020878553390503,0.1905580759048462,-0.039818547666072845,0.04668356850743294,0.1246582617420679,-0.0993251157667588,1.5455199564534106
1687016793.4725761,0.12658865749835968,0.09193965792655945,-0.9876853823661804,-0.04676990211009979,-0.054937079548835754,0.00517195463180542,0.13133330643177032,0.12462436407804489,-0.04750385135412216,0.12747202405110108,-0.09206967881824782,1.5451685860832705
1687016793.485878,0.12697289884090424,0.08235200494527817,-0.9884817004203796,-0.04210348427295685,-0.013077087700366974,-0.02435094118118286,0.20865002274513245,-0.006217621732503176,0.12881553173065186,0.12775287778093386,-0.0824453709544724,1.5471508733681827
1687016793.596467,0.12785416841506958,0.07347530126571655,-0.9890676140785217,0.025679796934127808,0.059093065559864044,0.01609092950820923,0.11785874515771866,-0.021106289699673653,0.01531219482421875,0.12855447816941962,-0.07354157281029224,1.5486652296077985
1687016793.603514,0.1250758171081543,0.0688801184296608,-0.9897533059120178,-0.04737803339958191,0.0438975989818573,-0.017723500728607178,0.08655434846878052,-0.037485796958208084,0.044613491743803024,0.12570438336393905,-0.06893469816982764,1.5511686715977973
1687016793.684452,0.12530867755413055,0.06171542778611183,-0.9901964068412781,-0.03021588921546936,-0.012154880911111832,-0.0050885677337646484,0.12587414681911469,0.031048167496919632,0.10267452895641327,0.1258801819169124,-0.06175467328913949,1.5528223073704877
1687016793.699861,0.125414177775383,0.05068656802177429,-0.9908088445663452,0.04704068601131439,-0.058666910976171494,-0.037816643714904785,0.1905965358018875,-0.08176359534263611,0.05923764035105705,0.12590798875893877,-0.050708297637490164,1.55480817951933
1687016793.772416,0.12368548661470413,0.05001185089349747,-0.9910603761672974,-0.008283250033855438,0.001471303403377533,-0.011609852313995361,-0.02643221616744995,-0.0026891110464930534,0.044436659663915634,0.12415920949412457,-0.050032724204059804,1.556265106549404
1687016793.786152,0.12252162396907806,0.045095961540937424,-0.9914407730102539,0.009100712835788727,0.007394276559352875,0.019532203674316406,0.18970297276973724,-0.040555886924266815,0.042456261813640594,0.12295597716439702,-0.04511126146841295,1.559834986962546
1687016793.86135,0.11887431889772415,0.04134077578783035,-0.9920483231544495,-0.014885641634464264,0.013194143772125244,-0.007341325283050537,0.05595897138118744,-0.061352066695690155,0.04800356179475784,0.11925852389904569,-0.041352558654692055,1.5613723710313703
1687016793.8673549,0.11657848209142685,0.03589338809251785,-0.9925326704978943,-0.0023511648178100586,0.011210497468709946,0.004251420497894287,0.1410648226737976,-0.04115678369998932,0.02089977264404297,0.11691985785686382,-0.03590110045324613,1.562695929498161
1687016793.953219,0.11314068734645844,0.03356647118926048,-0.9930118322372437,0.008563436567783356,-0.012951843440532684,0.010147452354431152,0.0002495954977348447,-0.10418723523616791,-0.021603278815746307,0.11344767620010907,-0.033572775831354346,1.5619010556849666
1687016793.966465,0.11002127081155777,0.02773851528763771,-0.9935420751571655,0.001139029860496521,-0.05084032565355301,-0.024707436561584473,0.04543576017022133,-0.04525432363152504,0.0018424580339342356,0.11028706348355971,-0.027742074501850237,1.560362529724452
1687016794.0103788,0.1087903305888176,0.024808965623378754,-0.9937551021575928,0.008214086294174194,-0.0029736366122961044,-0.010227441787719727,0.08445422351360321,-0.02604237012565136,0.009810836054384708,0.10903977005324215,-0.024811511980065704,1.559708973700868
1687016794.106091,0.10768907517194748,0.021420244127511978,-0.9939538240432739,-0.004692234098911285,-0.002377275377511978,0.010708034038543701,0.06247013807296753,-0.016171274706721306,-0.01628514751791954,0.10792317154675297,-0.021421882797876126,1.5590556720927078
1687016794.121253,0.10752606391906738,0.016282280907034874,-0.9940689206123352,-0.00013468414545059204,0.0023334380239248276,-0.03921043872833252,0.12649928033351898,-0.0030843238346278667,0.024016868323087692,0.10774868587745032,-0.016283000579885024,1.558792260826026
1687016794.160223,0.10714541375637054,0.01338975504040718,-0.9941532015800476,0.006685175001621246,-0.00046556256711483,0.0038730502128601074,0.007358947768807411,-0.012153896503150463,-0.005996423307806253,0.10736114809262895,-0.013390155166242031,1.5585825891874763
1687016794.256027,0.10710833221673965,0.0120632853358984,-0.9941741824150085,0.004250332713127136,0.02059052139520645,0.002215564250946045,0.05817214772105217,0.011547882109880447,0.005254100542515516,0.10732202980665224,-0.012063578034951618,1.5587079322209083
1687016794.2710261,0.10705505311489105,0.00800353568047285,-0.9942208528518677,-0.0012200698256492615,-0.005272215232253075,0.002933681011199951,0.04823501035571098,-0.011185305193066597,-0.00014758901670575142,0.10726405152976923,-0.008003621527080163,1.5588268431556886
1687016794.375179,0.10658420622348785,0.00695790583267808,-0.9942793250083923,-0.008256547152996063,-0.008010764606297016,-0.019484102725982666,0.02653140015900135,-0.011057295836508274,0.0015652230940759182,0.10678964262733288,-0.006957962060309,1.558418719339843
1687016794.392774,0.10636581480503082,0.005404841620475054,-0.9943124055862427,-0.000362984836101532,-0.011218443512916565,0.0038644075393676758,0.026489144191145897,0.004988959990441799,0.0004119410878047347,0.10656896881130548,-0.005404867867302212,1.5584397469585125
1687016794.4951448,0.10637088865041733,0.004449385218322277,-0.994316577911377,-0.013261735439300537,0.003973464481532574,-0.007102489471435547,0.03520447015762329,0.009633246809244156,0.013284130021929741,0.10657357252439675,-0.004449399922508183,1.5585145454641773
1687016794.500073,0.1065564975142479,0.0019823401235044003,-0.9943046569824219,-0.0052838996052742004,-0.004240645095705986,0.00916677713394165,0.031190333887934685,0.012135908007621765,-0.001142812194302678,0.10675939060541755,-0.001982341491230573,1.5587538673910053
1687016794.585003,0.10666781663894653,0.0012871670769527555,-0.9942938685417175,0.00801725685596466,0.018686583265662193,0.0031287670135498047,0.011170863173902035,-0.008512556552886963,-0.004961052909493446,0.1068712272658423,-0.001287167375513166,1.5586470132117747
1687016794.600137,0.10615368187427521,0.0004077857593074441,-0.9943496584892273,-0.013914279639720917,-0.0017505642026662827,-0.001301586627960205,0.014178371988236904,0.007472535595297813,-0.009446748532354832,0.10635407934626195,-0.000407785774245543,1.5585227587644108
1687016794.6731849,0.1061275526881218,-0.00026509587769396603,-0.9943525195121765,0.004208773374557495,-0.0174503605812788,-0.006059467792510986,-0.012095487676560879,-0.006034839432686567,-0.008074687793850899,0.10632779418872666,0.00026509586649874344,1.5582467470036314
1687016794.685848,0.10555288940668106,0.0003871434601023793,-0.9944136142730713,0.00144176185131073,0.012247128412127495,-0.02600264549255371,0.028793178498744965,-0.009277060627937317,0.011520052328705788,0.10574988923235071,-0.00038714346061310257,1.558084364935456
1687016794.7599711,0.1058284267783165,-0.001775542157702148,-0.9943827986717224,-0.001290448009967804,-0.004831516183912754,0.009626388549804688,0.024651341140270233,0.008112404495477676,0.002887548878788948,0.10602713624621622,0.0017755431130751344,1.5584002378441388
