Timestamp,gravityX,gravityY,gravityZ,accelerationX,accelerationY,accelerationZ,rotationRateX,rotationRateY,rotationRateZ,attitudeRoll,attitudePitch,attitudeYaw
1687012506.080791,0.8256590962409973,-0.5075358748435974,-0.24636247754096985,0.02306532859802246,-0.015443921089172363,-0.15648487210273743,0.26394614577293396,0.05711827054619789,-0.029346292838454247,1.2808238537543046,0.532322542170565,-1.9822692004560616
1687012506.1437259,0.827307403087616,-0.5076833367347717,-0.24045775830745697,0.007073581218719482,-0.061210036277770996,-0.10062198340892792,0.08400530368089676,-0.011841531842947006,-0.06347523629665375,1.2879384753316705,0.5324937062404127,-1.9940464111291505
1687012506.206177,0.8286595940589905,-0.504534125328064,-0.24242234230041504,-0.0003057718276977539,-0.034558892250061035,-0.021905720233917236,-0.02275994047522545,-0.06300414353609085,-0.09321848303079605,1.286190579557621,0.5288422872305224,-1.9953721440259349
1687012506.298125,0.82950359582901,-0.501025915145874,-0.24677319824695587,0.002909243106842041,-0.05224251747131348,-0.019630104303359985,-0.02456609532237053,-0.09034602344036102,-0.06897599250078201,1.281639246742861,0.5247838351273283,-1.9938959569286157
1687012506.315778,0.8300078511238098,-0.4982227385044098,-0.2507210671901703,-0.00801694393157959,-0.03514820337295532,0.023090451955795288,0.05954589694738388,-0.10173866152763367,-0.032447610050439835,1.2774408772055947,0.521547785650473,-1.9949962251709272
1687012506.3835502,0.8272520303726196,-0.5032178163528442,-0.24985188245773315,0.0008729100227355957,-0.01921260356903076,0.03183424472808838,0.36087819933891296,-0.14857354760169983,0.06288363039493561,1.277481563099872,0.5273184177373247,-2.0083835983830998
1687012506.3970618,0.8231726288795471,-0.5121193528175354,-0.24519550800323486,-0.02019399404525757,-0.0263785719871521,0.0337086021900177,0.15592636168003082,-0.034999579191207886,0.12237785756587982,1.2812980573981008,0.5376504602158433,-2.023200503694315
1687012506.442843,0.8196845650672913,-0.5199539065361023,-0.24034354090690613,0.02447730302810669,0.01279759407043457,0.030794575810432434,0.31507837772369385,-0.05859563127160072,0.09703734517097473,1.285576169315086,0.5467969816365148,-2.03304475030964
1687012506.5381122,0.816473662853241,-0.52870774269104,-0.23203249275684357,0.011163175106048584,0.032690227031707764,-0.01021614670753479,0.49366453289985657,-0.09932592511177063,0.10180533677339554,1.2939077868544273,0.5570774196884514,-2.0542431121128826
1687012506.553823,0.8123984932899475,-0.5384066104888916,-0.22389034926891327,0.0014441609382629395,0.006531059741973877,-0.02562139928340912,0.6475158333778381,-0.16507573425769806,0.06657351553440094,1.3018800120912952,0.5685450942332285,-2.084377898063782
1687012506.591332,0.8088633418083191,-0.5477990508079529,-0.2136734127998352,-0.0013835430145263672,-0.018149375915527344,-0.08350682258605957,0.5983055233955383,-0.20801104605197906,0.08997484296560287,1.3125309350506298,0.5797311927396108,-2.1177468156278803
1687012506.688184,0.8040235638618469,-0.5580684542655945,-0.20519720017910004,0.02257561683654785,-0.05147445201873779,-0.11375734210014343,0.7554354071617126,-0.3528597354888916,0.08219894021749496,1.3209174381738977,0.5920562028993026,-2.1586414188220453
1687012506.703728,0.7971482276916504,-0.569054126739502,-0.20182177424430847,-0.001783907413482666,-0.07566022872924805,-0.11359268426895142,0.6471169590950012,-0.4398951232433319,0.12095659226179123,1.322827217123414,0.6053551005675598,-2.1970163248989785
1687012506.7413821,0.7874900698661804,-0.5813295841217041,-0.2047324776649475,0.009415507316589355,-0.06867963075637817,-0.12015774846076965,0.6860503554344177,-0.6550571322441101,0.12397429347038269,1.3164460342357291,0.6203618125817459,-2.231914862881683
1687012506.83785,0.7759397625923157,-0.5940633416175842,-0.21214622259140015,0.022674560546875,-0.13588660955429077,-0.09273967146873474,0.826267659664154,-0.8380236625671387,0.17113986611366272,1.3039130863518038,0.6361007305882029,-2.2740528114359013
1687012506.853698,0.7595043182373047,-0.6141911745071411,-0.2142951339483261,0.025835037231445312,-0.10358226299285889,-0.03860408067703247,1.2002272605895996,-0.8884342312812805,0.32488521933555603,1.295793830025565,0.6613606330894782,-2.3313508830746317
1687012506.890295,0.7388911247253418,-0.6397631168365479,-0.21152548491954803,0.03202861547470093,-0.04968994855880737,0.028404727578163147,1.0412814617156982,-0.8542101383209229,0.36237478256225586,1.2919790633581618,0.6941900259883964,-2.395922333484441
1687012507.021772,0.7179227471351624,-0.6625138521194458,-0.2136876881122589,0.033755719661712646,0.007408201694488525,0.039600104093551636,0.6176804304122925,-0.6778431534767151,0.43666690587997437,1.2814994637894401,0.7241698203410797,-2.4365614871190964
1687012507.036909,0.6970196962356567,-0.6837202906608582,-0.21607902646064758,0.03181636333465576,0.07417744398117065,0.0739738941192627,0.41644546389579773,-0.48250508308410645,0.4283502697944641,1.2701868344221396,0.7528486057791212,-2.4630478056789826
1687012507.10533,0.67827969789505,-0.7017826437950134,-0.2178024798631668,0.03735750913619995,0.13862645626068115,0.08946073055267334,0.2524261772632599,-0.3253762125968933,0.36235958337783813,1.2600866946664022,0.7778967339753915,-2.477473278206169
1687012507.1199589,0.6661303043365479,-0.7117859125137329,-0.2227807343006134,0.03614014387130737,0.20609444379806519,0.061632633209228516,-0.013963562436401844,-0.21301929652690887,0.1621055006980896,1.2480499513146581,0.7920375424508995,-2.477839172088781
1687012507.195075,0.6620517373085022,-0.7140912413597107,-0.22751060128211975,0.016353964805603027,0.16944408416748047,0.05479633808135986,0.02415759116411209,-0.11410416662693024,-0.013483572751283646,1.2397943907107554,0.7953251159484017,-2.477878332148703
1687012507.208274,0.6643440127372742,-0.7120531797409058,-0.22721615433692932,0.008614301681518555,0.13150203227996826,0.07308709621429443,0.03040931560099125,-0.00032628956250846386,-0.1485634297132492,1.2412520143456849,0.7924180986062254,-2.484095885010327
1687012507.286447,0.6710561513900757,-0.7051246166229248,-0.22909142076969147,-0.001424252986907959,0.0813148021697998,0.03455710411071777,-0.14851900935173035,0.11710207164287567,-0.16886091232299805,1.2418129745209896,0.7825988403284169,-2.4805885268110948
1687012507.293951,0.6797430515289307,-0.6967960596084595,-0.2289644479751587,0.0019585490226745605,0.03622782230377197,0.009604036808013916,-0.05209586024284363,0.12236198782920837,-0.22609271109104156,1.2458933556648142,0.770920878246571,-2.476868520279498
1687012507.344207,0.6894323229789734,-0.6890881061553955,-0.22324983775615692,0.03203362226486206,0.015458405017852783,-0.020127877593040466,0.20008490979671478,0.018730759620666504,-0.28981563448905945,1.2576348748123733,0.7602299845086422,-2.4883585042224547
1687012507.4403481,0.6986114978790283,-0.6814196109771729,-0.2181958705186844,-0.01852726936340332,-0.05504584312438965,-0.03313171863555908,0.044718749821186066,0.040691450238227844,-0.22458416223526,1.2680682476803427,0.7497005650491418,-2.5017172005801114
1687012507.456217,0.7049811482429504,-0.6763915419578552,-0.2132975310087204,0.00569683313369751,-0.0467987060546875,-0.019704192876815796,0.1551024317741394,0.04602025821805,-0.14181311428546906,1.276994595549451,0.7428523443065814,-2.5123750943257424
1687012507.492126,0.7078467607498169,-0.6746399998664856,-0.20931735634803772,-0.00379103422164917,-0.036099135875701904,-0.016802668571472168,0.05765119194984436,0.05395026504993439,-0.05309689790010452,1.28327994748063,0.7404768935078871,-2.518305135621626
1687012507.58622,0.7091991901397705,-0.6750481128692627,-0.20333832502365112,0.005919158458709717,-0.005127608776092529,-0.02835117280483246,0.22333642840385437,0.043764740228652954,-0.007593925576657057,1.2915713558873272,0.7410299432654124,-2.5266404054028184
1687012507.5946798,0.7092748284339905,-0.6783839464187622,-0.19163578748703003,0.01596003770828247,-0.028708338737487793,-0.0015557706356048584,0.3865847885608673,0.022563137114048004,0.00022305140737444162,1.3069115823021917,0.7455607818312473,-2.548248841784548
1687012507.645307,0.7085257768630981,-0.6827810406684875,-0.17832934856414795,0.01773148775100708,0.0011556744575500488,-0.020507991313934326,0.4608427584171295,0.004747121129184961,0.05235442891716957,1.3242270646375374,0.7515622732861985,-2.573291134561871
1687012507.7380319,0.7072210907936096,-0.6873306632041931,-0.16557501256465912,0.004982888698577881,-0.01642000675201416,-0.020170286297798157,0.226420059800148,0.019714973866939545,0.033598583191633224,1.3408179296094491,0.7578075805352649,-2.5961898152606384
1687012507.745817,0.7069844007492065,-0.6884500980377197,-0.16189347207546234,0.009522497653961182,-0.009196937084197998,-0.022036001086235046,0.0549716092646122,-0.006536071188747883,0.013128862716257572,1.345685897442562,0.759349928440445,-2.6029954100610357
1687012507.794826,0.7059059739112854,-0.689557671546936,-0.1618860960006714,0.0003470778465270996,-0.02702564001083374,-0.03916378319263458,-0.011986520141363144,0.002769013401120901,0.058165378868579865,1.345363453458537,0.7608780784341593,-2.602957773459261
1687012507.888053,0.7038182616233826,-0.6917067766189575,-0.16180671751499176,0.007653176784515381,-0.02104640007019043,-0.01893363893032074,0.05734381824731827,-0.05131179839372635,0.05645722895860672,1.3448244024348708,0.7638497855772494,-2.604860295152934
1687012507.896225,0.7016052007675171,-0.6928250193595886,-0.16656431555747986,0.007363855838775635,-0.025314629077911377,-0.0064551085233688354,-0.1466025710105896,-0.06425245106220245,0.03725476935505867,1.3377068030200743,0.7653993117951143,-2.5995456639564805
1687012507.9786959,0.6992555856704712,-0.6936091184616089,-0.1730545312166214,0.03167080879211426,-0.020959913730621338,-0.021830782294273376,0.08663637191057205,-0.13666442036628723,0.06594447791576385,1.3281871281970008,0.7664872773015617,-2.5927896072263263
1687012508.0991511,0.6956287026405334,-0.696552574634552,-0.17582763731479645,-0.025889933109283447,-0.041026771068573,-0.0020899325609207153,0.04594171419739723,-0.1472000628709793,0.07351803779602051,1.323221006297599,0.770581502676289,-2.5957083384544988
1687012508.1169171,0.691780686378479,-0.6990695595741272,-0.1809455007314682,0.001792311668395996,-0.028103291988372803,0.00986391305923462,0.010578220710158348,-0.21266677975654602,0.0741255059838295,1.3149630772168748,0.7740954296192988,-2.59783521805713
1687012508.19273,0.6861609220504761,-0.7024869322776794,-0.18893195688724518,0.00541311502456665,0.014620721340179443,0.036817073822021484,-0.1236044391989708,-0.12664127349853516,0.12568750977516174,1.3021080825460045,0.7788858321725896,-2.591302460268112
1687012508.2070541,0.6813004016876221,-0.7056330442428589,-0.19470903277397156,0.02306044101715088,0.06410789489746094,0.062003329396247864,-0.06062818318605423,-0.06546801328659058,0.08242464810609818,1.2924264111435728,0.7833161903572641,-2.583571495749345
1687012508.212379,0.6796268224716187,-0.7065544128417969,-0.19720099866390228,0.009215950965881348,0.061565399169921875,0.0510675311088562,-0.06745076179504395,-0.007432579528540373,0.03215561807155609,1.2883906753818883,0.7846173022537708,-2.5791388167452625
1687012508.2748652,0.6793612837791443,-0.7074203491210938,-0.19499874114990234,-0.0015201568603515625,0.021766722202301025,0.047751396894454956,0.020858867093920708,0.09055523574352264,0.047671858221292496,1.29127839194569,0.785841740082202,-2.57935640892784
1687012508.2871199,0.679029643535614,-0.7089638710021973,-0.19049690663814545,0.009050130844116211,-0.005162715911865234,0.015081822872161865,-0.0014782196376472712,0.09399532526731491,0.0375308096408844,1.2972843222719574,0.7880279441513525,-2.580515221340176
1687012508.3320231,0.679393470287323,-0.708501935005188,-0.1909172087907791,0.0044291019439697266,-0.031595051288604736,-0.005341380834579468,-0.2782430946826935,0.09333460032939911,0.014281878247857094,1.2968501372723629,0.7873731746948216,-2.5722679653651217
1687012508.425339,0.6803335547447205,-0.7033539414405823,-0.20600804686546326,0.0008034110069274902,-0.07051074504852295,-0.030655786395072937,-0.8790974020957947,0.09514687955379486,0.0013427106896415353,1.2767686156841302,0.7801048002095432,-2.536880030990461
1687012508.439427,0.6815406680107117,-0.6886419057846069,-0.2475370317697525,-0.0010445117950439453,-0.08629095554351807,-0.005346894264221191,-1.9538265466690063,0.24391692876815796,0.027117649093270302,1.2224089026689993,0.7596143955277098,-2.4477978737341717
1687012508.548884,0.6830658316612244,-0.6589359045028687,-0.3149993419647217,0.01252126693725586,-0.012145638465881348,-0.026828110218048096,-2.4334325790405273,0.2664989233016968,0.08626259118318558,1.1387045906051114,0.7194032595937989,-2.303451396279228
1687012508.565351,0.6867197155952454,-0.607204258441925,-0.3996484577655792,-0.0003795027732849121,-0.059818387031555176,0.039937764406204224,-3.8214492797851562,0.4370904564857483,0.04639793559908867,1.043741667875988,0.6525371487654933,-2.128102541023446
1687012508.633412,0.6991240978240967,-0.5092484354972839,-0.5018879771232605,0.027270495891571045,0.046754539012908936,0.0471455454826355,-4.586835861206055,0.6765657663345337,0.008647828362882137,0.9481701421024266,0.5343112802668994,-1.9068964692877366
1687012508.649148,0.7161767482757568,-0.39804455637931824,-0.5732812285423279,0.02773493528366089,0.08256915211677551,0.027260780334472656,-3.694802761077881,0.6213470101356506,0.002507843542844057,0.8957660865179867,0.40938428841117336,-1.7221470507657066
1687012508.7256699,0.7366476058959961,-0.2888849675655365,-0.6114701628684998,0.013062477111816406,0.010839313268661499,0.09084028005599976,-3.9319891929626465,0.7421656250953674,-0.08421580493450165,0.8779861441145749,0.2930619469665427,-1.57411764836983
1687012508.739461,0.7626762986183167,-0.15853288769721985,-0.6270503401756287,0.013675510883331299,0.07293109595775604,0.08513444662094116,-3.8063321113586426,0.8238492608070374,-0.17493964731693268,0.8826819429096848,0.15920456885604756,-1.4202233899656198
1687012508.779963,0.7872989177703857,-0.05031861737370491,-0.6145148873329163,0.04157376289367676,0.04789246618747711,0.11489629745483398,-2.879537582397461,0.7761296629905701,-0.09609276801347733,0.9080370799557846,0.0503398757275634,-1.2966001852113134
1687012508.877531,0.8156548738479614,0.04745576158165932,-0.5765891671180725,0.0338323712348938,-0.01579376310110092,0.08589702844619751,-3.761032819747925,1.0549863576889038,0.04821135103702545,0.9554522629603638,-0.04747359003101063,-1.1672735041101894
1687012508.892952,0.8451633453369141,0.1409260630607605,-0.5155956745147705,0.004507005214691162,-0.003154456615447998,0.03126639127731323,-3.3982882499694824,1.0824453830718994,0.2232460230588913,1.0230166331930972,-0.14139675428287163,-1.0131186974605277
1687012508.930731,0.8731755614280701,0.20642149448394775,-0.4415365755558014,0.05904477834701538,0.07250915467739105,0.010613083839416504,-2.98824405670166,0.9769451022148132,0.3723416328430176,1.1026249387748965,-0.2079162681879856,-0.8597244416998632
1687012509.029481,0.8981990814208984,0.24049337208271027,-0.36796924471855164,0.07023048400878906,-0.09172016382217407,-0.008617699146270752,-2.8535494804382324,0.9658422470092773,0.6856619119644165,1.1819777834367513,-0.24287411034600842,-0.7185385149604029
1687012509.044756,0.9224774241447449,0.2489885836839676,-0.2950252294540405,0.040001094341278076,-0.06298395991325378,0.006618887186050415,-2.570810079574585,0.8775777220726013,0.8722701072692871,1.261258143696759,-0.251635804602802,-0.5752079538842451
1687012509.080369,0.9449481964111328,0.2371029406785965,-0.22551028430461884,0.04685771465301514,-0.0324825793504715,-0.007094666361808777,-2.420804977416992,0.7523688673973083,1.042020320892334,1.336529815150587,-0.23938265784933385,-0.43593498798870833
1687012509.180052,0.9643872976303101,0.20907872915267944,-0.16199679672718048,-0.009141504764556885,-0.012850716710090637,0.022790804505348206,-2.351421594619751,0.8209187388420105,1.047600507736206,1.40437107750519,-0.21063277668223965,-0.3076674329210301
1687012509.195108,0.9802302122116089,0.16959616541862488,-0.1019115224480629,0.03710383176803589,-0.05967181921005249,0.04073898494243622,-1.9812355041503906,0.7987431287765503,1.243668794631958,1.467201587371605,-0.17041988419096638,-0.19171207021197254
1687012509.235343,0.9927067160606384,0.10781440138816833,-0.05393670126795769,0.14575135707855225,-0.04339178651571274,-0.0441620871424675,-1.678733468055725,0.5147014260292053,1.5571794509887695,1.516516730576543,-0.10802437130641532,-0.09074955533098769
1687012509.325083,0.9990296959877014,0.030304724350571632,-0.031957101076841354,0.030023038387298584,-0.09454420208930969,0.02661651372909546,-1.3661468029022217,0.27266404032707214,1.6779847145080566,1.5388190919946456,-0.030309364381500788,-0.014863374453027486
1687012509.339509,0.9984950423240662,-0.051558151841163635,-0.01869385689496994,0.016946852207183838,0.016218818724155426,-0.009672284126281738,-0.814482569694519,0.23958741128444672,1.699973464012146,1.5520764802868847,0.051581021835134924,0.04282965925015684
1687012509.447657,0.9906138181686401,-0.1363690048456192,-0.009366212412714958,0.06881910562515259,-0.03199644386768341,0.007092595100402832,-0.4892565608024597,0.22411444783210754,1.7420694828033447,1.5613416500256576,0.13679524525300452,0.07806181007372294
1687012509.464519,0.975827693939209,-0.21851180493831635,-0.0035742444451898336,0.01803821325302124,0.08672168850898743,0.004382908344268799,-0.42487502098083496,0.19537147879600525,1.6022114753723145,1.5671335609452037,0.22028916648413988,0.10395180407257075
1687012509.532356,0.9560744166374207,-0.2931222915649414,0.001150173251517117,0.036769330501556396,0.0876779556274414,-0.03220176696777344,-0.42811837792396545,0.20907548069953918,1.538812518119812,1.571999342716924,0.2974909536420673,0.12571340360178862
1687012509.5458279,0.9307169914245605,-0.36572834849357605,0.0029365401715040207,0.10964244604110718,-0.0075168609619140625,-0.06896138191223145,-0.346727579832077,0.11798118054866791,1.6236236095428467,1.573951453960947,0.3744152481903375,0.14571899871910202
1687012509.6253881,0.89774090051651,-0.44049733877182007,-0.004831856116652489,0.08175128698348999,0.11119744181632996,-0.11154699325561523,-0.4283171594142914,-0.08884132653474808,1.6005644798278809,1.565414139643763,0.4561525640537702,0.17308749211861627
1687012509.63976,0.8609319925308228,-0.5083378553390503,-0.019712602719664574,0.045211076736450195,0.08342641592025757,-0.14880549907684326,-0.2390405833721161,-0.3068428933620453,1.4932118654251099,1.5479035092363684,0.5332535424893688,0.18875537185787808
1687012509.680482,0.8214711546897888,-0.5685595870018005,-0.04387587308883667,0.0694589614868164,0.10838508605957031,-0.10784226655960083,-0.11417374014854431,-0.5460909008979797,1.4439716339111328,1.5174356929225825,0.6047538389070686,0.2051280114173614
1687012509.782213,0.7770482301712036,-0.6256037354469299,-0.06939516961574554,0.06592345237731934,0.07644003629684448,-0.09155457466840744,0.054823581129312515,-0.7337445616722107,1.411673665046692,1.4817264885764316,0.6759051878607063,0.2118883209525834
1687012509.7983642,0.7294616103172302,-0.6770996451377869,-0.0970664694905281,0.023330748081207275,0.19444888830184937,-0.02440875768661499,0.06260804831981659,-0.744793713092804,1.2478781938552856,1.4385075533039944,0.7438141530685056,0.2237671651575026
1687012509.86382,0.6857627034187317,-0.7184849381446838,-0.11622700095176697,0.07539141178131104,0.004678905010223389,0.000946827232837677,0.0016599607188254595,-0.6788616180419922,1.1424444913864136,1.4029060214115685,0.8016216352176758,0.2239692425229502
1687012509.877757,0.6402850151062012,-0.7569276690483093,-0.13075067102909088,0.023426532745361328,0.1587679386138916,0.03880119323730469,0.4895758330821991,-0.6300642490386963,1.075627326965332,1.3693588851196694,0.8585988851473433,0.22401723325931605
1687012509.919137,0.5979593992233276,-0.790130078792572,-0.1346806287765503,0.1599751114845276,0.05111652612686157,-0.07145033776760101,0.15916948020458221,-0.5240666270256042,0.9268920421600342,1.349259419696012,0.9110212305833084,0.2198873065265988
1687012510.017333,0.5575769543647766,-0.8184233903884888,-0.1388922929763794,0.03478449583053589,0.07847899198532104,0.0071021318435668945,0.4435046315193176,-0.5948351621627808,0.9084248542785645,1.3266651238397873,0.9586618670023999,0.2095775158716132
1687012510.033867,0.5176562070846558,-0.8442749381065369,-0.138679638504982,0.036619365215301514,0.05386960506439209,-0.029579058289527893,0.21845117211341858,-0.4590948522090912,0.8401910066604614,1.3090436480782823,1.0052108015812342,0.20170933831502344
1687012510.0709538,0.48332780599594116,-0.8642566800117493,-0.13947969675064087,-0.020742326974868774,0.11155593395233154,-0.14053434133529663,0.36560359597206116,-0.7391744256019592,0.5784714818000793,1.2898474015805392,1.0436709074509942,0.1889296020071176
1687012510.166759,0.4536381959915161,-0.8772477507591248,-0.15699900686740875,-0.000482708215713501,0.20937061309814453,-0.16940174996852875,0.14110217988491058,-0.94031822681427,0.45660823583602905,1.2376102918220053,1.0700983628308087,0.20329615219902472
1687012510.183897,0.4263688921928406,-0.8906950950622559,-0.15770888328552246,0.05611410737037659,-0.08777487277984619,0.33847975730895996,-0.14969201385974884,-0.40280476212501526,0.5482994318008423,1.216514624106105,1.0988718735749117,0.17981113980520927
1687012510.220865,0.4071701467037201,-0.8977433443069458,-0.16813480854034424,0.0835525393486023,0.09212511777877808,0.23315250873565674,0.03437631577253342,-0.20104482769966125,0.1867753565311432,1.1791890426259062,1.114619760754452,0.20637657975826115
1687012510.378804,0.4006675183773041,-0.8993263840675354,-0.17514978349208832,-0.008699774742126465,-0.014339268207550049,-0.1564541906118393,-0.3823918104171753,0.12813350558280945,0.1031249389052391,1.1586839055377267,1.118226612885068,0.2325067948529673
1687012510.4408631,0.3933177888393402,-0.8984308838844299,-0.19525101780891418,-0.04686698317527771,0.06849014759063721,0.04467727243900299,-0.3199755549430847,-0.01970149762928486,0.19782014191150665,1.1100164238500638,1.116182952270498,0.28549433574137495
1687012510.456297,0.3875335156917572,-0.8995106816291809,-0.2017376571893692,0.0048919618129730225,-0.18602997064590454,-0.004912123084068298,-0.45101675391197205,0.04857644811272621,0.09930010139942169,1.0908297996366008,1.1186482833968545,0.3082234885992527
1687012510.459906,0.3800627887248993,-0.9003269076347351,-0.21204714477062225,0.03169572353363037,0.08923065662384033,-0.01799437403678894,0.05693706497550011,-0.05513201281428337,0.20239846408367157,1.0618877923173111,1.1205200701040308,0.339704222729244
1687012510.526619,0.37347888946533203,-0.9010595679283142,-0.22046606242656708,0.009501457214355469,-0.04345947504043579,-0.04685264825820923,-0.372056245803833,-0.06874769181013107,0.13080209493637085,1.0375367830552393,1.1222064570643908,0.3646358401769291
1687012510.539983,0.36575931310653687,-0.9008529186248779,-0.23384596407413483,0.017938166856765747,0.02998816967010498,0.024327531456947327,-0.16603711247444153,-0.17598670721054077,0.09842205792665482,1.0019487655274502,1.1217301945373814,0.39655667660313004
1687012510.6135678,0.35802966356277466,-0.9024605751037598,-0.23954030871391296,-0.022443145513534546,0.014826416969299316,-0.01979808509349823,-0.07910212874412537,-0.13463003933429718,0.16577938199043274,0.9811444384135108,1.1254478304865745,0.41125134024051824
1687012510.627615,0.35132965445518494,-0.9025229811668396,-0.24903742969036102,0.008472591638565063,-0.019138336181640625,0.01684446632862091,-0.16719868779182434,-0.14167596399784088,0.08347520232200623,0.954160315157226,1.1255926323770256,0.4319925101535431
1687012510.672504,0.345064252614975,-0.9031868577003479,-0.2553117275238037,0.03434550762176514,-0.017406344413757324,-0.0066512227058410645,-0.12311845272779465,-0.10649347305297852,0.07706663012504578,0.933793114400076,1.127136833956279,0.44819373610664665
1687012510.768336,0.3431030809879303,-0.902309000492096,-0.2609953284263611,0.019750893115997314,0.002116858959197998,0.0018858611583709717,-0.11399126797914505,-0.07812069356441498,0.026407184079289436,0.9204881918814948,1.1250960851069416,0.45908315769884905
1687012510.785015,0.342485249042511,-0.9009213447570801,-0.26654180884361267,-0.006028950214385986,-0.0059236884117126465,0.029633820056915283,-0.1456059217453003,-0.057257749140262604,0.022085539996623993,0.9094541459890166,1.1218878675193993,0.4683466449483596
1687012510.821353,0.34157150983810425,-0.899648904800415,-0.2719568908214569,0.02289995551109314,0.01370847225189209,-0.013382494449615479,-0.12456490844488144,-0.03937559947371483,0.021174339577555656,0.8983809525221632,1.118964776764911,0.4788112979035272
1687012510.919207,0.34076905250549316,-0.8991413116455078,-0.2746295630931854,0.011480122804641724,0.006776869297027588,0.0016650557518005371,-0.03771239146590233,-0.037454038858413696,0.02684181183576584,0.8924614163469233,1.1178035532193769,0.48451006445330697
1687012510.934263,0.3407488763332367,-0.8977238535881042,-0.27925243973731995,2.5659799575805664e-05,-0.008419215679168701,0.026994138956069946,-0.08126408606767654,-0.049990251660346985,-0.035537075251340866,0.8842623499795143,1.1145755550383616,0.4915504024072495
1687012511.003931,0.3412475883960724,-0.8968644142150879,-0.2813970148563385,0.005523622035980225,0.002775728702545166,-0.012685626745223999,-0.03557653725147247,-0.06660500168800354,-0.01195724867284298,0.8812269239055739,1.1126286037760131,0.49145816398886677
1687012511.0182362,0.3413829207420349,-0.8965337872505188,-0.2822851836681366,0.005586683750152588,-0.018779873847961426,-0.011339724063873291,-0.03217088431119919,-0.060852304100990295,-0.014860360883176327,0.8798743760399956,1.1118816844624593,0.4897327302010439
1687012511.0933971,0.3411148190498352,-0.8961822390556335,-0.2837216854095459,0.006358325481414795,0.0023224353790283203,-0.009872674942016602,-0.0020319796167314053,-0.029084432870149612,0.0020754795987159014,0.8769941842554393,1.111088723714659,0.4908788669848523
1687012511.183749,0.3410346508026123,-0.8962029814720154,-0.2837526500225067,0.0033867359161376953,0.0015497207641601562,-0.0009611248970031738,0.013431176543235779,0.012679079547524452,0.011661594733595848,0.8768249453993435,1.1111353682349143,0.49040023926234527
1687012511.1885781,0.3413802981376648,-0.8966574668884277,-0.28189539909362793,0.006214916706085205,0.0023550987243652344,0.00516200065612793,0.08419868350028992,-0.015812482684850693,-0.01618182100355625,0.880549079313664,1.1121608734147468,0.48570981058517004
1687012511.271306,0.34262147545814514,-0.8967491388320923,-0.2800922095775604,0.006499648094177246,0.009969353675842285,-0.003751814365386963,0.0864301547408104,-0.022630440071225166,-0.05286353826522827,0.885476837430534,1.1123679686490529,0.4792888242567476
1687012511.2766829,0.3453371524810791,-0.8972518444061279,-0.2751021385192871,0.0051724910736083984,-0.0009566545486450195,-0.004896640777587891,0.07071031630039215,0.014605077914893627,-0.05969773977994919,0.89812036438909,1.113505332832323,0.46508643204502587
1687012511.367782,0.3490886688232422,-0.8965107798576355,-0.27277347445487976,0.005159348249435425,0.01784878969192505,0.0024945437908172607,0.06093384698033333,0.07179433107376099,-0.07070938497781754,0.9075080596007249,1.1118297222642861,0.45670633728394944
1687012511.3849769,0.3544486165046692,-0.8959165215492249,-0.2677682042121887,0.010480612516403198,0.0033841729164123535,-0.0020529627799987793,0.11312292516231537,0.03818453103303909,-0.13977833092212677,0.9238163518285382,1.110490113438445,0.4418551425046707
1687012511.459752,0.3631908893585205,-0.8941661715507507,-0.26183855533599854,0.01508978009223938,0.013779759407043457,0.008206874132156372,0.1465863436460495,-0.006501716561615467,-0.2631915807723999,0.946154986721814,1.1065653694193427,0.41742170935130374
1687012511.473648,0.37626025080680847,-0.8902672529220581,-0.2566174566745758,-0.002526700496673584,0.01477903127670288,-0.003010869026184082,0.03567385673522949,0.03689618036150932,-0.3326443135738373,0.9722388947362283,1.0979316657849492,0.3886770344998215
1687012511.510501,0.39560380578041077,-0.8823964595794678,-0.2547037601470947,-0.005024582147598267,0.07764798402786255,0.020023584365844727,0.07508810609579086,0.1783055067062378,-0.5451148748397827,0.9987669135789666,1.0809315024588693,0.36283300552173353
1687012511.612473,0.4318605661392212,-0.8690032362937927,-0.24151529371738434,0.007943451404571533,0.1894989013671875,0.01635660231113434,0.12356585264205933,0.3113177716732025,-0.9083779454231262,1.0608839562721564,1.0531842701788752,0.3047963327857724
1687012511.618195,0.4799693822860718,-0.8436614274978638,-0.2405509650707245,0.036433786153793335,0.13838499784469604,-0.026279494166374207,-0.35989734530448914,0.49671855568885803,-1.132920503616333,1.1062053283238524,1.004066950747848,0.27639938186381646
1687012511.6650429,0.5406852960586548,-0.8064858913421631,-0.2392483502626419,0.044046759605407715,0.26153361797332764,0.018606260418891907,-0.22187067568302155,0.5130968689918518,-1.466450810432434,1.154204447062704,0.9381842696859642,0.250116569972777
1687012511.76351,0.6089397072792053,-0.7544052004814148,-0.24508191645145416,0.019264578819274902,0.06876683235168457,-0.016621574759483337,-0.8384604454040527,0.5313790440559387,-1.772515892982483,1.1881596881266157,0.85474749313626,0.23942250179578897
1687012511.77862,0.6799746155738831,-0.6918691992759705,-0.2427992820739746,0.006487786769866943,0.13867712020874023,-0.009031832218170166,-0.0932680144906044,0.4987381100654602,-1.817149043083191,1.2278360300547788,0.7640747236867624,0.21752601921133355
1687012511.810926,0.7426634430885315,-0.624392569065094,-0.24204328656196594,0.007229745388031006,-0.04571235179901123,-0.07324910163879395,-0.6143580079078674,0.46413344144821167,-1.7566200494766235,1.2557393331225033,0.6743536201475582,0.2112069206922538
1687012511.940721,0.80192631483078,-0.5535796880722046,-0.2246410846710205,0.02487105131149292,0.15370792150497437,-0.010191664099693298,0.5301367044448853,0.32551538944244385,-1.879482388496399,1.2976700037208824,0.586656498853632,0.1743672669951117
1687012511.948893,0.8509408235549927,-0.4795191287994385,-0.2143855094909668,0.057720065116882324,-0.23279163241386414,-0.1072697639465332,-1.0954571962356567,0.4147469699382782,-1.6632291078567505,1.3239931884607314,0.5001066576806029,0.16465471490585457
1687012512.026918,0.8910856246948242,-0.403523713350296,-0.2076900750398636,0.02987384796142578,0.1222127377986908,0.010668575763702393,0.7914755940437317,0.23441262543201447,-1.6237820386886597,1.3418090936260185,0.41536478815927835,0.15194236717255435
1687012512.042299,0.9220447540283203,-0.34012094140052795,-0.18480059504508972,-0.020097732543945312,-0.06915026903152466,-0.011168062686920166,0.4055597484111786,0.18860501050949097,-1.5487772226333618,1.3729923786949,0.3470455072687502,0.10000538824091074
1687012512.113471,0.9482538104057312,-0.2713344097137451,-0.16490092873573303,0.04684805870056152,0.11271935701370239,-0.15422140061855316,0.7563650012016296,0.2173912078142166,-1.6313828229904175,1.398618587912102,0.2747791751494676,0.06443037469446469
1687012512.127954,0.9675899147987366,-0.2043893188238144,-0.14830678701400757,0.0511326789855957,-0.2935659885406494,0.08479969203472137,1.1432082653045654,0.05991121754050255,-1.5072901248931885,1.4187055542820644,0.20583981557594988,-0.019563658303940707
1687012512.2063498,0.9798570871353149,-0.13497394323349,-0.14718110859394073,0.062379300594329834,0.16050191223621368,-0.13463355600833893,0.814978301525116,-0.2926763892173767,-1.6449238061904907,1.4217042289932256,0.13538716724589253,-0.052375742689244185
1687012512.213296,0.9862203598022461,-0.07051503658294678,-0.1496557891368866,0.14427274465560913,-0.03387032449245453,0.015515744686126709,2.471859931945801,-0.2756173312664032,-1.4067984819412231,1.4201984592616457,0.07057360256527836,-0.16050871751705884
1687012512.260909,0.9847059845924377,-0.018157850950956345,-0.17327505350112915,0.0695694088935852,0.021423261612653732,0.10848619043827057,2.6747043132781982,-0.8191817402839661,-1.4967372417449951,1.3966132484030125,0.018158848612109132,-0.28527552995407696
1687012512.360859,0.9804381728172302,0.010978671722114086,-0.19652046263217926,0.12554925680160522,-0.13251490890979767,-0.014203399419784546,2.9326210021972656,-0.37012118101119995,-0.856296718120575,1.3729763124936951,-0.010978891841963864,-0.4425102601485112
1687012512.37745,0.97149258852005,0.01881544291973114,-0.23632200062274933,0.09451687335968018,0.10290394723415375,0.07700496912002563,3.857966661453247,-1.1955344676971436,-0.9519431591033936,1.3321743660023182,-0.018816553985106097,-0.600176823580177
1687012512.442824,0.95956951379776,-0.0019534414168447256,-0.2814648747444153,0.013391852378845215,-0.21073879301548004,0.2126476764678955,3.5546326637268066,-0.5757737755775452,-0.3793676793575287,1.285475406805388,0.0019534425951635796,-0.810266142201064
1687012512.45723,0.9497337937355042,-0.023079480975866318,-0.3122067153453827,0.027133822441101074,0.04494534060359001,-0.0487399697303772,2.159029722213745,-0.9159755110740662,-0.4241454601287842,1.2531937837756555,0.023081530668835965,-0.934426762044824
1687012512.499841,0.9323034882545471,-0.051045507192611694,-0.35805660486221313,-0.01355665922164917,-0.030466917902231216,0.19414663314819336,3.5273470878601074,-1.061315894126892,-0.3424484133720398,1.2041100333062909,0.05106770039573707,-1.08041213695082
1687012512.562273,0.9146873354911804,-0.10193667560815811,-0.3910958468914032,-0.0030205249786376953,-0.04404415190219879,0.0450417697429657,2.731520175933838,-1.0397002696990967,-0.12489578872919083,1.1667481258666266,0.10211404385253056,-1.2318156229438109
1687012512.66297,0.893858015537262,-0.15536309778690338,-0.4205711781978607,0.04544246196746826,0.04942131042480469,0.08707505464553833,3.407928466796875,-1.1025713682174683,-0.0809616819024086,1.1310159266254023,0.15599499839832165,-1.367370501003618
1687012512.678904,0.8718468546867371,-0.226724773645401,-0.43414169549942017,0.019556283950805664,-0.046071857213974,0.12089395523071289,3.107968807220459,-0.9290444850921631,0.03706462308764458,1.1087849703853598,0.22871355701334356,-1.5212603565723668
1687012512.744185,0.8529052734375,-0.29175448417663574,-0.43293410539627075,0.015472352504730225,-0.05017971992492676,0.04810738563537598,2.6826298236846924,-0.7353032231330872,0.11751551926136017,1.1010877898786202,0.296060605679383,-1.650703836696733
1687012512.757788,0.8377353549003601,-0.3511386513710022,-0.4182116687297821,0.009325742721557617,-0.06621977686882019,0.017302215099334717,2.111616373062134,-0.45459914207458496,0.22945697605609894,1.1077753726696082,0.3587869001427947,-1.761819830091698
1687012512.8340359,0.8246802687644958,-0.3990861475467682,-0.4007900655269623,-0.018024444580078125,-0.026252567768096924,-0.010190188884735107,1.8405125141143799,-0.3806736171245575,0.24368344247341156,1.1184157833451969,0.4105199610740309,-1.8467297932809044
1687012512.928448,0.812268853187561,-0.44449231028556824,-0.3776850402355194,0.03766101598739624,-0.020916074514389038,-0.026764512062072754,1.6158299446105957,-0.3182109594345093,0.27712783217430115,1.13555888924436,0.4606074207661795,-1.9275757261722721
1687012512.945413,0.8009061217308044,-0.48159459233283997,-0.355831503868103,0.03489404916763306,-0.022220104932785034,-0.029620766639709473,1.4234354496002197,-0.29337725043296814,0.24366553127765656,1.1527041647357275,0.502473290674142,-1.997451128966271
1687012513.014313,0.7896860241889954,-0.5164415836334229,-0.33118581771850586,-0.011899828910827637,-0.0030896663665771484,-0.036917269229888916,1.4399906396865845,-0.27480587363243103,0.28642430901527405,1.17368763786778,0.5426902237285423,-2.067335995613347
1687012513.0280108,0.7777944207191467,-0.5499557852745056,-0.30427706241607666,0.02408546209335327,-0.022874414920806885,-0.039305150508880615,1.180937647819519,-0.18989071249961853,0.3207317590713501,1.1978947530595812,0.5823113067322099,-2.1342565406808167
1687012513.11241,0.7671198844909668,-0.5743796825408936,-0.28568318486213684,0.016830801963806152,-0.00459975004196167,0.01023152470588684,0.7403104901313782,-0.21159902215003967,0.1843278408050537,1.214298188934871,0.6118461553233423,-2.1829147222610175
1687012513.126461,0.7603079080581665,-0.5874855518341064,-0.2771145701408386,0.008948564529418945,0.03192836046218872,-0.004928916692733765,0.4449654817581177,-0.20392414927482605,0.114996038377285,1.2212832834378438,0.6279481124850527,-2.2112287022646013
1687012513.228826,0.7551200985908508,-0.5972939133644104,-0.27024707198143005,-0.005623757839202881,0.027912259101867676,0.005323976278305054,0.523585855960846,-0.20963451266288757,0.0730409324169159,1.2271132961737412,0.6401227506633516,-2.2377339751328877
1687012513.246336,0.7515600919723511,-0.604152500629425,-0.26487189531326294,0.02576833963394165,0.01673489809036255,0.025003671646118164,0.18328766524791718,-0.0882984921336174,0.0450536385178566,1.2319588687958893,0.6487018975748714,-2.257185201101821
1687012513.312018,0.7497190237045288,-0.6062257885932922,-0.2653517425060272,0.015493929386138916,0.04206264019012451,0.012269467115402222,-0.02854428067803383,-0.009778647683560848,0.02901122346520424,1.230620306156709,0.6513062631070801,-2.258247638188391
1687012513.3247619,0.7492953538894653,-0.6079049110412598,-0.26269403100013733,0.007235348224639893,0.01601642370223999,0.02107107639312744,0.17618586122989655,0.0012983274646103382,0.025492122396826744,1.233597689767783,0.6534192676138685,-2.263315215405446
1687012513.4095879,0.7496494650840759,-0.6093568801879883,-0.25828269124031067,0.011581003665924072,0.009900093078613281,0.01566791534423828,0.03370106965303421,0.04478038102388382,0.03692267835140228,1.238995725943501,0.6552492366048666,-2.2695368154797397
1687012513.42418,0.7502996921539307,-0.6096197366714478,-0.255761981010437,0.01546257734298706,0.001404404640197754,0.005685627460479736,0.006161856465041637,0.05939820408821106,0.0025737571995705366,1.2422694306946958,0.6555807762239388,-2.269322523822222
1687012513.493657,0.7511745691299438,-0.6100993752479553,-0.25202298164367676,0.003845512866973877,0.009910166263580322,-0.012045681476593018,0.07139407843351364,0.03736312314867973,0.010668234899640083,1.247092358628066,0.6561859847984931,-2.27203158212141
1687012513.5082622,0.7517368197441101,-0.6104121208190918,-0.24957731366157532,0.007296442985534668,-0.016312122344970703,-0.019450455904006958,0.011901590041816235,0.023000959306955338,0.0012573563726618886,1.2502454438352122,0.6565807712839402,-2.2753392277600137
1687012513.552521,0.751798152923584,-0.6105254292488098,-0.24911533296108246,0.004396975040435791,-0.013375997543334961,-0.01107761263847351,0.037976112216711044,0.01053612306714058,0.013200235553085804,1.2508234253764683,0.656723812039182,-2.275681116283507
1687012513.648227,0.7513037323951721,-0.6112384796142578,-0.24885834753513336,0.008324623107910156,-0.017148971557617188,-0.01163974404335022,0.0064458828419446945,-0.016212932765483856,0.00506694195792079,1.250935144929682,0.6576244871093166,-2.2772356858028657
1687012513.6653361,0.7507991790771484,-0.6115632057189941,-0.2495816946029663,-0.003576338291168213,-0.01712942123413086,0.002511322498321533,-0.02391837164759636,-0.0171516090631485,0.014922302216291428,1.2498667621714314,0.6580348023576357,-2.2773531378898717
1687012513.700489,0.7498311996459961,-0.6121589541435242,-0.25102698802948,0.003952920436859131,-0.00733262300491333,0.0005996823310852051,-0.012447956949472427,-0.015537111088633537,0.029784871265292168,1.2477461361006275,0.6587880160312084,-2.274816037369018
1687012513.7996578,0.7487818002700806,-0.6133852005004883,-0.2511662542819977,0.0005315542221069336,-0.014254570007324219,0.010977625846862793,-0.03928019106388092,0.008873777464032173,0.02588094398379326,1.2471571083199726,0.6603396963985874,-2.274168214782174
1687012513.8168,0.7479089498519897,-0.6140375137329102,-0.25217100977897644,0.003876328468322754,0.0010767579078674316,0.0034374594688415527,-0.009190112352371216,0.01999984309077263,0.04672284051775932,1.2455984745962707,0.6611659664862669,-2.27030694132922
1687012513.848773,0.7462639212608337,-0.6172774434089661,-0.2491157501935959,0.006040096282958984,-0.0041672587394714355,0.010559797286987305,0.10382392257452011,0.00173721625469625,0.056626539677381516,1.2486103394559176,0.6652774674737183,-2.273986441932358
1687012513.946358,0.7443250417709351,-0.620236337184906,-0.24756211042404175,0.0004563331604003906,-0.004015922546386719,-0.0027888864278793335,0.007301690056920052,0.02118051052093506,0.09103690832853317,1.2497064068412442,0.669043989347364,-2.2745075481753854
1687012513.963412,0.7417958378791809,-0.6241875886917114,-0.24521204829216003,0.0018870234489440918,-0.0038642287254333496,-0.006100267171859741,0.050245869904756546,0.028772473335266113,0.115248903632164,1.251538974446049,0.6740912234133581,-2.274999587809424
1687012514.000729,0.7386507987976074,-0.6285932064056396,-0.24344536662101746,0.0004239082336425781,-0.012184381484985352,-0.00017648935317993164,-0.008593165315687656,0.03957194834947586,0.10150280594825745,1.2524265368584695,0.6797430299095389,-2.27428741785291
1687012514.098394,0.7362540364265442,-0.6308850049972534,-0.24477317929267883,0.002790093421936035,-0.008458197116851807,-0.012215346097946167,-0.16755463182926178,0.06820323318243027,0.10061576962471008,1.2498342096495756,0.682693361696779,-2.266209594377164
1687012514.113966,0.7336727976799011,-0.6324198842048645,-0.24853433668613434,0.015075981616973877,-0.03908884525299072,-0.014145731925964355,-0.32133960723876953,0.11594580858945847,0.13232263922691345,1.2441754362592843,0.6846732059810375,-2.2512802186397063
1687012514.156077,0.7300316095352173,-0.6329387426376343,-0.257764607667923,0.01003497838973999,-0.027919471263885498,-0.024111062288284302,-0.5679251551628113,0.17605212330818176,0.21559308469295502,1.2313741212713512,0.6853431684251964,-2.218897047237749
1687012514.248728,0.7251504063606262,-0.6330608129501343,-0.27090731263160706,0.0037007927894592285,-0.03568607568740845,-0.010678380727767944,-0.7401452660560608,0.19814473390579224,0.2059493064880371,1.2132643469879374,0.6855008385533897,-2.176766184124994
1687012514.2646918,0.7231186628341675,-0.6249557137489319,-0.2941592335700989,0.006907522678375244,-0.027235448360443115,-0.0253140926361084,-1.2942372560501099,0.31233182549476624,0.17906305193901062,1.1844481080546783,0.6750747655899432,-2.1094429591164503
1687012514.331671,0.7220532298088074,-0.6118963956832886,-0.3228342533111572,0.010963678359985352,-0.012386500835418701,0.013004481792449951,-1.2820961475372314,0.34739014506340027,0.21140466630458832,1.1503517539481707,0.6584560021767827,-2.0284603278839377
1687012514.345539,0.721257209777832,-0.5966416001319885,-0.3518618643283844,0.021128594875335693,-0.0367506742477417,0.0391177237033844,-1.5653938055038452,0.37063801288604736,0.20472052693367004,1.1169197574145384,0.6393097158592138,-1.9450945476998165
1687012514.3937988,0.7244892120361328,-0.5709714889526367,-0.38614362478256226,0.016416490077972412,-0.015057563781738281,0.01552283763885498,-1.7940367460250854,0.5335440635681152,0.18539036810398102,1.081108357175166,0.6076886911012894,-1.8445677124585078
1687012514.489118,0.7299841642379761,-0.5439220666885376,-0.41385024785995483,0.024349331855773926,-0.0022205710411071777,0.04377871751785278,-1.7195388078689575,0.5888391137123108,0.19444206357002258,1.0550476870134748,0.5751040027302022,-1.7487109731332904
1687012514.5061212,0.7386834025382996,-0.5096733570098877,-0.44111204147338867,0.022211313247680664,-0.05519169569015503,0.058497846126556396,-2.2591066360473633,0.7659257650375366,0.21524448692798615,1.032467820576915,0.5348051201273148,-1.6434820747626322
1687012514.539908,0.7527188658714294,-0.4625566303730011,-0.4684610068798065,0.009396612644195557,-0.019880473613739014,0.06659024953842163,-2.6284239292144775,0.9167972803115845,0.18795053660869598,1.0140987304948277,0.48087668778767856,-1.5198287152126622
1687012514.633278,0.771830677986145,-0.4028705656528473,-0.49190714955329895,0.002354443073272705,-0.017478525638580322,0.07827189564704895,-2.874964475631714,1.0104306936264038,0.14577585458755493,1.0033829975716106,0.41465104081007914,-1.3865170466933345
1687012514.6485848,0.7953922748565674,-0.3424747586250305,-0.500062108039856,0.014803588390350342,0.030600368976593018,0.05955612659454346,-2.4552040100097656,1.0970325469970703,0.14458389580249786,1.0095416654719247,0.34954968115953655,-1.2613570283253848
1687012514.695478,0.8213453888893127,-0.2843163013458252,-0.4945261478424072,0.0006760358810424805,-0.028534621000289917,0.07077425718307495,-2.814606189727783,1.1631436347961426,0.12863075733184814,1.028839427684206,0.2882932181263999,-1.143150212351942
1687012514.7882318,0.8480215668678284,-0.22204121947288513,-0.48120394349098206,-0.003981649875640869,0.033320531249046326,0.06892669200897217,-2.58526349067688,1.1814329624176025,0.16907945275306702,1.054659823369759,0.22390744815745564,-1.0142753678253185
1687012514.8059092,0.8729638457298279,-0.17945131659507751,-0.4535759687423706,6.616115570068359e-06,0.021858587861061096,0.029702037572860718,-1.9456255435943604,1.1180943250656128,0.23360256850719452,1.0916064190379007,0.18042868812458523,-0.9112342028444212
1687012514.839613,0.8936508297920227,-0.14797881245613098,-0.42366302013397217,-0.02814185619354248,-0.000779077410697937,0.07681551575660706,-1.8952895402908325,1.0176759958267212,0.21980567276477814,1.1280979311499841,0.14852427206074242,-0.8195593704153261
1687012514.937508,0.9130918383598328,-0.11922774463891983,-0.38993340730667114,-0.012899577617645264,0.011348120868206024,0.024225950241088867,-1.7711677551269531,1.008928894996643,0.1897873878479004,1.1671928701446803,0.11951204145008823,-0.7303454238144872
1687012514.95575,0.9301133155822754,-0.101387158036232,-0.35300108790397644,0.023652493953704834,0.026390232145786285,0.03419920802116394,-1.275809645652771,0.9424072504043579,0.2437150776386261,1.2080646015718388,0.10156166428029154,-0.6569879679192231
1687012514.992754,0.9443300366401672,-0.09150468558073044,-0.316018670797348,0.022863566875457764,-0.03909526765346527,0.02585744857788086,-1.6326980590820312,0.9391828775405884,0.3251382112503052,1.2478625553412643,0.09163286735145236,-0.5862988892395086
1687012515.088733,0.9566323161125183,-0.08353930711746216,-0.2790621519088745,0.020525217056274414,0.03533682972192764,0.0025117993354797363,-1.507066011428833,0.9010087847709656,0.3671417534351349,1.2869594675012777,0.0836367813014872,-0.5027239619451105
1687012515.107987,0.9662152528762817,-0.08653290569782257,-0.24277617037296295,0.017427384853363037,-0.04846157878637314,0.009759098291397095,-1.4411214590072632,0.9081037044525146,0.4992356300354004,1.3246273436189466,0.08664126075698021,-0.430615808513493
1687012515.140492,0.9739667177200317,-0.09534168988466263,-0.2056671679019928,0.024553239345550537,-0.03699777275323868,0.0064025819301605225,-1.8298313617706299,0.9295433163642883,0.6533898115158081,1.3626891097624574,0.09548672835671376,-0.34237432981658594
1687012515.2383041,0.9786633253097534,-0.11246618628501892,-0.171957328915596,0.026967108249664307,0.004876486957073212,-0.058999717235565186,-1.4124560356140137,0.7338910698890686,0.6978662014007568,1.3968654111779821,0.11270463424789402,-0.2554702982403099
1687012515.255876,0.9796106815338135,-0.13782952725887299,-0.14616984128952026,0.0394015908241272,-0.013705462217330933,0.026830807328224182,-1.386272668838501,0.7017980217933655,0.8245029449462891,1.422676963623448,0.1382696936117173,-0.18179593069921082
1687012515.2915869,0.9769455790519714,-0.1739168018102646,-0.12381455302238464,0.06716740131378174,-0.08995340764522552,-0.01871781051158905,-1.4944756031036377,0.6574322581291199,1.0543274879455566,1.4447320257768772,0.1748056970367354,-0.10486927089806292
1687012515.389272,0.9688919186592102,-0.22122220695018768,-0.11094604432582855,0.05636131763458252,-0.01957671344280243,-0.04103147238492966,-1.5453417301177979,0.483319491147995,1.2566146850585938,1.4567847268753262,0.22306754768401488,-0.018802618580830516
1687012515.406725,0.9549812078475952,-0.27451515197753906,-0.11248211562633514,0.06345134973526001,-0.06677815318107605,-0.03636741638183594,-1.5455541610717773,0.2216397523880005,1.3560737371444702,1.45355188574182,0.27808545914579935,0.06744761082919408
1687012515.440146,0.9336683750152588,-0.3352423906326294,-0.1259993314743042,0.044007956981658936,-0.08249741792678833,-0.011741742491722107,-1.1770199537277222,0.11263027042150497,1.6216031312942505,1.436655875263926,0.3418625109908009,0.1472407419132435
1687012515.534531,0.9016933441162109,-0.40954717993736267,-0.13863681256771088,0.03348726034164429,-0.014052003622055054,-0.06198577582836151,-0.5835148096084595,-0.011397848837077618,1.8174399137496948,1.4182393418941912,0.4219576569602398,0.21064782707854793
1687012515.549514,0.859467089176178,-0.4878433644771576,-0.15272484719753265,0.01391535997390747,-0.032954275608062744,-0.042633458971977234,-0.38183581829071045,-0.1880432814359665,1.849664330482483,1.3949348671487596,0.5096174598013239,0.24895625728783013
1687012515.59502,0.8106486797332764,-0.5607240200042725,-0.16863390803337097,0.025410890579223633,0.16784071922302246,-0.046682894229888916,0.06187021732330322,-0.30940869450569153,1.707471251487732,1.3656979880428657,0.5952599409676769,0.2787011587265297
1687012515.6886392,0.7595948576927185,-0.6268340945243835,-0.1734778732061386,0.08034038543701172,0.1174195408821106,-0.05468682944774628,0.4028860330581665,-0.3784467875957489,1.51021409034729,1.346265079889785,0.6774832886946627,0.28291532013212123
1687012515.7066622,0.7093132138252258,-0.6818050146102905,-0.17893224954605103,0.07816243171691895,0.1622890830039978,-0.08502954244613647,0.2745071053504944,-0.52086341381073,1.3290293216705322,1.3236905462423787,0.7502272331526199,0.28323146597462734
1687012515.7738008,0.6631235480308533,-0.7261185646057129,-0.18171174824237823,0.10762840509414673,0.18252414464950562,-0.10089631378650665,0.724721372127533,-0.589918315410614,1.0958248376846313,1.3033377622691429,0.812659820550084,0.27346630668103794
1687012515.872504,0.6148720383644104,-0.7674804329872131,-0.18140043318271637,0.0881766676902771,0.06322634220123291,-0.009761691093444824,0.1412295401096344,-0.37041202187538147,1.2159740924835205,1.2839132460181875,0.8749016477790323,0.267017740576609
1687012515.8894548,0.5663101673126221,-0.8042629361152649,-0.1801498532295227,0.11726832389831543,-0.004758000373840332,-0.1208145022392273,0.48421478271484375,-0.6065102219581604,1.1206729412078857,1.2628072751019346,0.9344341880190044,0.2654666177231135
1687012515.9543781,0.5125306248664856,-0.8399538993835449,-0.17829713225364685,-0.04815983772277832,0.0988803505897522,0.024061262607574463,0.6401770114898682,-0.5733038187026978,1.1695914268493652,1.2360149108364704,0.9971982539721586,0.2582652472850935
1687012515.968926,0.4562183618545532,-0.8746087551116943,-0.16408643126487732,-0.020900338888168335,-0.00039118528366088867,-0.06479543447494507,0.40228742361068726,-0.5847918391227722,1.2134188413619995,1.2255360788668759,1.064628220772876,0.2391911242326125
1687012516.044283,0.405605673789978,-0.9004051089286804,-0.15733544528484344,0.08302649855613708,0.36349421739578247,0.0036184340715408325,0.8688978552818298,-0.6275238990783691,0.8570590019226074,1.2007621491969709,1.120699822394586,0.23481402916463412
1687012516.050432,0.36685311794281006,-0.9184457063674927,-0.14790686964988708,0.06790030002593994,0.15257644653320312,0.2491031140089035,-0.10779374092817307,0.0222668144851923,0.5585118532180786,1.1875538655886266,1.1641328614174555,0.2307056532104492
1687012516.103054,0.35986602306365967,-0.9192324280738831,-0.15971316397190094,0.08521759510040283,-0.12224096059799194,-0.08491575717926025,-0.5425710082054138,0.12755301594734192,0.01650768145918846,1.1530995379161157,1.1661264853362305,0.2746897667291977
1687012516.2029738,0.3558190166950226,-0.9172510504722595,-0.17900647222995758,-0.04852229356765747,0.0544581413269043,-0.016641736030578613,0.02409709244966507,-0.10867327451705933,0.06988728046417236,1.104685433597689,1.161123211458501,0.32753821005894584
1687012516.2216148,0.35119712352752686,-0.9167793393135071,-0.19020043313503265,-0.0048989057540893555,-0.0005027055740356445,-0.023117482662200928,-0.6429868936538696,0.11798251420259476,0.138465017080307,1.0744425801247093,1.15994053397523,0.36263542948903593
1687012516.319319,0.34837576746940613,-0.9137237071990967,-0.20914876461029053,0.008389979600906372,-0.052798449993133545,0.08753617107868195,-0.26370805501937866,0.044974345713853836,0.07215616106987,1.0301166368241317,1.152355710575183,0.41309128379267746
1687012516.336039,0.3453083038330078,-0.9118911623954773,-0.22184796631336212,0.0151958167552948,0.023951828479766846,-0.04739336669445038,-0.18005138635635376,-0.06356304883956909,0.012383843772113323,0.9997374561023339,1.1478684662807948,0.44814543387764866
1687012516.435178,0.34504401683807373,-0.9105049967765808,-0.22787094116210938,0.018786519765853882,0.010617971420288086,0.012371018528938293,-0.15879397094249725,-0.057701077312231064,0.0004518834175541997,0.9871369491887168,1.1445036456735203,0.4578052056658443
1687012516.452341,0.34525614976882935,-0.9088800549507141,-0.2339557409286499,0.015263259410858154,-0.03963679075241089,-0.0356823205947876,-0.010659156367182732,-0.10686685144901276,-0.04862198606133461,0.9752424383112793,1.1405907414803333,0.46649765796195025
1687012516.5259109,0.3461461365222931,-0.9081854820251465,-0.23533400893211365,3.007054328918457e-05,0.03252929449081421,0.006696254014968872,-0.04928236082196236,-0.09183792024850845,-0.044056396931409836,0.9737092839433021,1.138928467389229,0.4638221840860472
1687012516.533037,0.34611740708351135,-0.9074820876121521,-0.23807382583618164,0.006681114435195923,-0.024631619453430176,-0.03368523716926575,-0.034350812435150146,-0.03995554894208908,0.00571542140096426,0.968277300698075,1.1372510447535793,0.4657065988826735
1687012516.618717,0.3456151485443115,-0.9069333672523499,-0.24087773263454437,0.013225823640823364,0.002941727638244629,0.002276003360748291,-0.056170448660850525,-0.04304472357034683,-0.00698226410895586,0.9621178550761282,1.1359465817543384,0.4705932752554514
1687012516.635082,0.34486979246139526,-0.9061106443405151,-0.24500712752342224,0.002969592809677124,0.012372851371765137,-0.015262067317962646,-0.04981738701462746,-0.0100391935557127,0.02988121286034584,0.9531021396806179,1.13399774801764,0.47881651060657443
1687012516.709921,0.3444303870201111,-0.9054375290870667,-0.24809379875659943,0.0032563507556915283,0.005642056465148926,-0.019026562571525574,-0.053566765040159225,-0.038394223898649216,0.021221010014414787,0.946574607286573,1.1324093184399926,0.4858709498510842
1687012516.716021,0.3429834842681885,-0.9050152897834778,-0.2516140937805176,0.012607336044311523,0.010423004627227783,-0.0005831718444824219,-0.04089992865920067,-0.008094286546111107,0.03454753756523132,0.9378714190666144,1.13141560413956,0.49468167664651974
1687012516.798857,0.3422173857688904,-0.9050342440605164,-0.2525874078273773,0.004843801259994507,-0.020365536212921143,-0.012610375881195068,-0.042866095900535583,-0.017063191160559654,-0.0003765593282878399,0.9349609720009439,1.1314602072172326,0.49672304524765526
1687012516.8149629,0.3421112596988678,-0.9045776128768921,-0.2543604075908661,-0.0013672411441802979,0.005789220333099365,-0.010715305805206299,0.014976521022617817,-0.028541769832372665,0.011063314974308014,0.9314669190509405,1.1303879396037957,0.49918993462323785
1687012516.885498,0.3409557640552521,-0.9049508571624756,-0.25458431243896484,0.014192581176757812,0.006757497787475586,-0.010262489318847656,0.008177470415830612,-0.007883897051215172,0.03509141877293587,0.9294244062288712,1.1312641850195457,0.5002232738103314
1687012516.8989902,0.34010371565818787,-0.9047739505767822,-0.25634634494781494,0.003768324851989746,0.004856407642364502,-0.006989896297454834,-0.006522690877318382,-0.02657058648765087,0.012177249416708946,0.9249123747132016,1.1308486596106686,0.5039142656204461
1687012516.975315,0.33954161405563354,-0.9047518968582153,-0.25716862082481384,0.006176799535751343,0.008511602878570557,-0.012454241514205933,0.014034605585038662,-0.037766341120004654,0.006445327773690224,0.922576418021974,1.1307968474180015,0.5051190250947458
1687012516.9893441,0.33879968523979187,-0.90509033203125,-0.2569553852081299,0.008795499801635742,0.010421931743621826,-0.014483243227005005,0.011874337680637836,-0.00949377752840519,0.01666201278567314,0.9219226777932746,1.131592173306427,0.5042618104855616
1687012517.0682049,0.3389784097671509,-0.9046258330345154,-0.25835174322128296,0.008799910545349121,-0.023657798767089844,-0.01716095209121704,-0.04090756177902222,-0.0176660418510437,-0.01655612885951996,0.9195656678404286,1.1305009727334778,0.5058029811278866
1687012517.162524,0.3393602967262268,-0.9044769406318665,-0.25837233662605286,0.001246422529220581,0.005734145641326904,0.006068199872970581,-0.0011528257746249437,-0.008252833038568497,-0.00675469683483243,0.9200700038660542,1.1301517633173743,0.5045714433297589
1687012517.178832,0.34001073241233826,-0.9039733409881592,-0.2592773735523224,0.005234628915786743,0.0073212385177612305,-0.006530731916427612,0.018775254487991333,0.014235253445804119,-0.009507340379059315,0.9193074008071312,1.1289724978811886,0.5051238650855807
1687012517.252954,0.34027180075645447,-0.904171884059906,-0.2582406997680664,4.500150680541992e-05,-0.0037717819213867188,-0.0020589828491210938,-0.010791515931487083,0.012908555567264557,-0.004329223185777664,0.9216077888177957,1.1294371586820966,0.503118724515587
1687012517.267129,0.34061935544013977,-0.9040898084640503,-0.2580697536468506,0.0047785937786102295,0.01596730947494507,-0.002535104751586914,0.028526106849312782,0.03813410550355911,0.015967193990945816,0.9224180953015987,1.1292450653857535,0.503305030312014
1687012517.334618,0.3403823673725128,-0.9045965671539307,-0.2566028833389282,-0.0034072399139404297,0.014826059341430664,0.004726052284240723,0.02463909052312374,0.037658996880054474,0.014928360469639301,0.9248251973100722,1.130432292061197,0.5031364245389158
1687012517.348405,0.34175410866737366,-0.9040443301200867,-0.25672537088394165,0.01362311840057373,0.008582353591918945,0.0025749802589416504,0.006396836135536432,0.011260946281254292,-0.05086403340101242,0.9265282209571154,1.1291386518753057,0.5024664518408151
1687012517.4274879,0.34494489431381226,-0.9033918380737305,-0.2547471225261688,0.002268850803375244,-0.002797067165374756,-0.013090401887893677,0.053137801587581635,-0.013674052432179451,-0.08086907118558884,0.9346859708326399,1.127614515618023,0.49325915120822106
1687012517.434197,0.3498275876045227,-0.9014937877655029,-0.2548128366470337,-0.013417065143585205,0.013310253620147705,-0.003915190696716309,0.04711750149726868,0.017927104607224464,-0.10903339087963104,0.9412661229693432,1.1232087289118657,0.4854728483252671
1687012517.5201058,0.3551506996154785,-0.9010987281799316,-0.24877524375915527,0.03486397862434387,-0.04070425033569336,-0.019199669361114502,0.05432477220892906,0.01774112693965435,-0.14500704407691956,0.9597496347493889,1.1222967239866257,0.4660070104309671
1687012517.53643,0.3633021116256714,-0.8968302607536316,-0.2524024248123169,0.002832561731338501,0.03660082817077637,-0.009285807609558105,-0.14557036757469177,0.061035867780447006,-0.20235535502433777,0.9636057782276791,1.1125514071323628,0.46387457634074547
1687012517.572401,0.3732468783855438,-0.8917592167854309,-0.2558361291885376,0.0026381313800811768,-0.048975586891174316,-0.015358328819274902,-0.06629232317209244,0.01599782332777977,-0.22117352485656738,0.9699131786016693,1.1012180647352812,0.4586590017852145
1687012517.668221,0.3833557069301605,-0.887261688709259,-0.2565252482891083,-0.006005793809890747,0.03832364082336426,0.006311565637588501,0.03771543502807617,0.006961450912058353,-0.26494675874710083,0.9810714356106293,1.0913743546358121,0.4463517064814456
1687012517.685526,0.40286239981651306,-0.8795519471168518,-0.25316089391708374,0.015091150999069214,0.08989429473876953,0.008196204900741577,-0.1558818519115448,0.10998877137899399,-0.5212813019752502,1.0097519709080651,1.0749196764743632,0.416617760075139
1687012517.721122,0.4392598271369934,-0.8608989119529724,-0.2567177414894104,0.048685818910598755,0.21948039531707764,-0.016963928937911987,-0.023789072409272194,0.1838155835866928,-0.9809732437133789,1.0419021132017507,1.0370338814616913,0.38871979913607324
1687012517.820276,0.4890250861644745,-0.8360949754714966,-0.24859528243541718,0.0116768479347229,0.06335943937301636,0.012038230895996094,-0.12111939489841461,0.3476960361003876,-1.1844950914382935,1.1004920662284547,0.9901257923992097,0.33484752607713786
1687012517.837321,0.5454338192939758,-0.799746036529541,-0.2508150041103363,-0.043328166007995605,0.11601501703262329,0.020132631063461304,-0.39254388213157654,0.37993964552879333,-1.3952957391738892,1.1397855395425842,0.926872020995092,0.30954892082910135
1687012517.8705912,0.6087291836738586,-0.7527942657470703,-0.2504984438419342,0.002812504768371582,0.09460645914077759,0.019251525402069092,-0.15862873196601868,0.4007815420627594,-1.5673916339874268,1.1804066698012787,0.852296796061901,0.2836544056032221
1687012517.9346251,0.6717996597290039,-0.7006504535675049,-0.24036186933517456,0.007216393947601318,0.06672418117523193,-0.005182594060897827,0.027179613709449768,0.4412591755390167,-1.6423581838607788,1.227200341513718,0.7763087580384505,0.24786214491442052
1687012518.0284262,0.732413113117218,-0.6423712968826294,-0.22567684948444366,-0.004172205924987793,0.02652662992477417,0.025435760617256165,-0.163168802857399,0.5109564661979675,-1.6615551710128784,1.271899620209121,0.6975883598818855,0.2160149297234491
1687012518.037102,0.7897477746009827,-0.5772517323493958,-0.2075546681880951,0.004273831844329834,0.16140401363372803,0.015919506549835205,-0.06944959610700607,0.6876609921455383,-1.7394200563430786,1.3137967593973692,0.6153590394973053,0.19804268262361494
1687012518.12112,0.844170093536377,-0.5035014748573303,-0.1840188354253769,0.014685988426208496,0.03897827863693237,-0.018160149455070496,-0.21865087747573853,0.6941493153572083,-1.8431323766708374,1.3561660779015514,0.52764670338775,0.1826427939572279
1687012518.138037,0.8945988416671753,-0.41910889744758606,-0.1550501137971878,0.05060678720474243,0.05608707666397095,-0.010553598403930664,0.19827023148536682,0.6747392416000366,-1.9585163593292236,1.3991831149150642,0.4324636229881229,0.16058040741395996
1687012518.204212,0.9353281259536743,-0.33283039927482605,-0.11993807554244995,0.08597308397293091,-0.031763046979904175,-0.05599575489759445,0.495928019285202,0.5530370473861694,-1.9849833250045776,1.4432612991435247,0.3393035100249285,0.1273446989056664
1687012518.218777,0.9655337929725647,-0.24504779279232025,-0.08772718161344528,0.15273702144622803,-0.04251931607723236,-0.0964006781578064,0.5462347269058228,0.4262523651123047,-1.822153091430664,1.4801863852563564,0.24756899384732373,0.09026567624744947
1687012518.262121,0.9844666123390198,-0.16173793375492096,-0.06831131130456924,0.1110076904296875,-0.21312472224235535,-0.015413708984851837,0.9602437019348145,0.13795773684978485,-1.6698168516159058,1.501518211862324,0.1624515257694394,0.037166666817002494
1687012518.3233309,0.9939786195755005,-0.09249000251293182,-0.058753181248903275,0.07889723777770996,0.01653178036212921,-0.10579758882522583,0.6066457629203796,-0.028812527656555176,-1.3933873176574707,1.511755926478606,0.09262237847786876,0.00142699168909098
1687012518.421815,0.9975079894065857,-0.0311988927423954,-0.06328248232603073,0.06351202726364136,-0.13541179895401,0.008259288966655731,1.3598207235336304,-0.18708276748657227,-1.1588202714920044,1.5074406496748722,0.031203956104590567,-0.06015541500896804
1687012518.438261,0.9967621564865112,0.019074508920311928,-0.07811042666435242,0.025271475315093994,-0.025132227689027786,-0.0021050572395324707,1.4763758182525635,-0.4484248757362366,-1.0968226194381714,1.4925919914223138,-0.019075665176761035,-0.12769921435678336
1687012518.4714432,0.9934673309326172,0.05922260135412216,-0.09754686057567596,0.06382942199707031,-0.13011491298675537,-0.03334307670593262,1.0215955972671509,-0.34761208295822144,-0.7346770167350769,1.4729217663394643,-0.05925727505155593,-0.1951470112824228
1687012518.570627,0.9870286583900452,0.0914129838347435,-0.13197778165340424,-0.03506338596343994,0.03732544183731079,0.10696858167648315,2.37287974357605,-0.6523557305335999,-0.8622332811355591,1.4378725452469103,-0.09154077670277636,-0.27640507555193927
1687012518.585844,0.9788208603858948,0.1102074459195137,-0.17252255976200104,0.06266772747039795,-0.007271632552146912,-0.09345340728759766,2.2318263053894043,-0.7518799901008606,-0.669456422328949,1.3963327281146363,-0.1104317626733998,-0.3988941477669619
1687012518.622641,0.9666726589202881,0.11152563244104385,-0.23044750094413757,-0.004316151142120361,-0.12930211424827576,0.10032051801681519,2.910461664199829,-0.6485016942024231,-0.4115510582923889,1.336771864801841,-0.11175813169474112,-0.5478707108579634
1687012518.7195458,0.9555011987686157,0.10176680237054825,-0.27687716484069824,0.048267662525177,0.02329424023628235,-0.012337923049926758,1.7026499509811401,-0.9905823469161987,-0.38876357674598694,1.2887495539750244,-0.10194328567287,-0.646790800081902
1687012518.735558,0.94228595495224,0.08108408749103546,-0.3248426020145416,0.02211529016494751,-0.08776741474866867,0.04211246967315674,2.489365339279175,-0.5452490448951721,-0.16966019570827484,1.2388161270916698,-0.08117320390942162,-0.7652323060352957
1687012518.7706208,0.9291084408760071,0.051188353449106216,-0.3662472665309906,0.06469637155532837,0.12962831556797028,-0.0249728262424469,2.290247678756714,-1.0170551538467407,-0.242444708943367,1.1953067139858644,-0.05121073410065098,-0.8656198811291921
1687012518.8708382,0.9103912115097046,0.0009437555563636124,-0.4137476682662964,-0.00513303279876709,-0.09045178443193436,0.08525639772415161,3.2079174518585205,-0.8216504454612732,-0.07359211146831512,1.1442293892600994,-0.0009437557090256072,-1.0104938841763973
1687012518.887526,0.8919507265090942,-0.055442892014980316,-0.4487203359603882,0.049959003925323486,0.10811623930931091,0.026616454124450684,2.640038251876831,-0.9502154588699341,-0.053660620003938675,1.1046897593759597,0.05547133569956334,-1.1314605520740872
1687012518.9535189,0.8696734309196472,-0.12264235317707062,-0.4781494438648224,0.014008760452270508,-0.007270976901054382,0.0534820556640625,3.205312490463257,-0.9592426419258118,-0.022502101957798004,1.0681040496587173,0.12295189965036805,-1.268770042753459
1687012518.967688,0.8471767902374268,-0.19961386919021606,-0.4923877716064453,0.03919088840484619,0.06040796637535095,0.06826969981193542,3.175898551940918,-0.9177699089050293,-0.001412861980497837,1.0443074842245117,0.20096383921654387,-1.4085597123225602
1687012519.010186,0.8272234201431274,-0.27072280645370483,-0.4923519790172577,0.019761323928833008,-0.04420331120491028,0.05483672022819519,2.5670199394226074,-0.7272637486457825,0.044158753007650375,1.033923893841249,0.274143786087877,-1.5347846459446102
1687012519.105161,0.8103775978088379,-0.3345909118652344,-0.4809752106666565,-0.004438936710357666,-0.0010566413402557373,0.01729106903076172,2.3833529949188232,-0.564017117023468,0.13926835358142853,1.0351552437205864,0.34117107882285397,-1.6427249938858643
1687012519.12156,0.7957077026367188,-0.3929820656776428,-0.4608842134475708,0.0558699369430542,-0.03412666916847229,0.015007108449935913,2.0351357460021973,-0.451886385679245,0.19789984822273254,1.0458016525179397,0.4038723157538457,-1.7390466523316561
1687012519.19662,0.7817524671554565,-0.44501030445098877,-0.4368396997451782,-0.011702418327331543,0.03740230202674866,-0.005405783653259277,1.8195003271102905,-0.3221915662288666,0.21872708201408386,1.0612254588307461,0.46118577807985817,-1.8240122390167832
1687012519.288089,0.7709301114082336,-0.4878920614719391,-0.4094243049621582,0.011418521404266357,-0.023231595754623413,-0.018615245819091797,1.4476503133773804,-0.25115591287612915,0.17777547240257263,1.0825962182708055,0.5096732502692818,-1.9017309778223648
1687012519.3054361,0.7626978754997253,-0.5182734131813049,-0.38689106702804565,0.019879579544067383,-0.0007085204124450684,-0.02257859706878662,1.0127580165863037,-0.23865114152431488,0.09756498783826828,1.1013524601389417,0.5448308160187304,-1.9619953032580435
1687012519.372978,0.756859540939331,-0.5372405648231506,-0.3722046911716461,0.016379594802856445,-0.0017151236534118652,-0.0067473649978637695,0.7360106110572815,-0.1901399791240692,0.04331393167376518,1.11375022960482,0.5671620160201805,-2.005724405107312
1687012519.3871589,0.753215491771698,-0.5474758744239807,-0.3646048307418823,0.014271080493927002,0.020422041416168213,-0.02634066343307495,0.33722832798957825,-0.1728890836238861,-0.003000571858137846,1.1199782498036557,0.5793449064222695,-2.032844095487922
1687012519.46612,0.7502672672271729,-0.5531601905822754,-0.3620951771736145,0.013740360736846924,0.015776097774505615,0.02901098132133484,0.4125027358531952,-0.15216216444969177,-0.02348906733095646,1.1211478508787234,0.5861528860583778,-2.0514398757307064
1687012519.47898,0.7486599683761597,-0.5573530197143555,-0.3589789867401123,0.026211857795715332,0.010569572448730469,0.013916701078414917,0.12902101874351501,-0.1093517541885376,-0.030867822468280792,1.1236865517148868,0.591194323365666,-2.066376638342542
1687012519.553011,0.7478605508804321,-0.5578194260597229,-0.3599196970462799,0.015124678611755371,0.0007515549659729004,0.01951134204864502,0.08680184185504913,-0.025594718754291534,0.010220224969089031,1.1222480720713472,0.5917561235332667,-2.069599876710313
1687012519.566756,0.7473700046539307,-0.5608307123184204,-0.356239914894104,0.01128166913986206,0.0029847025871276855,0.0004049539566040039,0.14493118226528168,-0.03981279954314232,0.016092227771878242,1.12599605797384,0.5953888412260813,-2.0776205638493073
1687012519.679517,0.7471950650215149,-0.5620651245117188,-0.3546580970287323,0.005032718181610107,0.00171661376953125,0.004850327968597412,0.0036934171803295612,-0.018327660858631134,0.017626941204071045,1.1276314506722327,0.5968805321984133,-2.080876676978616
1687012519.6861901,0.7463939785957336,-0.5636773705482483,-0.3537849187850952,0.006550908088684082,0.009844481945037842,-0.005345970392227173,0.1133105456829071,-0.04272550344467163,0.009566618129611015,1.128170582008748,0.5988311515193239,-2.084072008096469
1687012519.773806,0.7457034587860107,-0.5655337572097778,-0.3522753417491913,6.979703903198242e-05,-0.009234249591827393,0.002986401319503784,0.03204476460814476,-0.022902438417077065,0.005006954073905945,1.1294659877302755,0.6010802698912476,-2.0889448546878957
1687012519.790915,0.7458310127258301,-0.5648139119148254,-0.353159099817276,0.009555280208587646,0.014795660972595215,-0.004918932914733887,0.019918549805879593,-0.007649006322026253,0.012146023102104664,1.1285636914140316,0.6002077306883711,-2.088300353151341
1687012519.820162,0.74437415599823,-0.5691512227058411,-0.34924769401550293,0.002009451389312744,0.018034279346466064,-0.0037644505500793457,0.25255298614501953,-0.050828967243433,0.01253078319132328,1.132104838634805,0.6054732207817909,-2.0974737345796215
1687012519.9197822,0.7445459961891174,-0.5687873959541321,-0.34947413206100464,0.008841454982757568,0.00972062349319458,-0.006177783012390137,-0.07226087152957916,-0.007338126190006733,-0.002444170881062746,1.131944333527679,0.6050308012310625,-2.0993926274096673
1687012519.935586,0.7444541454315186,-0.5688320994377136,-0.34959718585014343,0.00542372465133667,-2.980232238769531e-07,-0.003186047077178955,0.05426644906401634,-0.02071971260011196,0.00966988317668438,1.1317614529634592,0.6050851098929894,-2.100469211127276
1687012520.0037432,0.7443050146102905,-0.5691269040107727,-0.34943461418151855,0.004626810550689697,-0.002436816692352295,-0.0006631016731262207,0.017331067472696304,-0.018328726291656494,0.0016869244864210486,1.1318633183715554,0.6054436141760733,-2.102403167444072
1687012520.017837,0.7441087961196899,-0.568970263004303,-0.3501070439815521,0.0009778141975402832,-0.005874037742614746,-0.0023862719535827637,-0.07190120965242386,0.010682685300707817,0.020676661282777786,1.1310217689537079,0.605253163246661,-2.10119013693549
1687012520.063523,0.7434122562408447,-0.5696994662284851,-0.3504008948802948,0.008083045482635498,0.018811404705047607,0.012861192226409912,0.0707184374332428,-0.017650064080953598,0.016070324927568436,1.1303373915658443,0.6061401209588845,-2.100155056481275
1687012520.159142,0.7426825165748596,-0.5708803534507751,-0.3500262200832367,0.0006188750267028809,-0.011333942413330078,-0.005518853664398193,-0.030606010928750038,0.009226646274328232,0.026692409068346024,1.1303712325380735,0.6075777158146377,-2.100861459573515
1687012520.176332,0.7426031827926636,-0.5698509216308594,-0.35186684131622314,-0.000537872314453125,-0.01514047384262085,0.010619252920150757,-0.19483160972595215,0.033694084733724594,0.018223555758595467,1.128303958159829,0.6063244189554251,-2.0955535132624368
1687012520.209316,0.7429826855659485,-0.5656476020812988,-0.3577982485294342,0.008360028266906738,-0.011073589324951172,-0.005513548851013184,-0.39483213424682617,0.09050881117582321,0.03558224067091942,1.122001055420314,0.6012183254913719,-2.0785715980536876
1687012520.3059568,0.7438997030258179,-0.5588181018829346,-0.36651811003685,0.0038266777992248535,-0.02873682975769043,-0.013273179531097412,-0.676498532295227,0.16424614191055298,0.04797426238656044,1.1130071338780492,0.5929599377844637,-2.050429492990521
1687012520.3233209,0.7459555864334106,-0.5438632369041443,-0.3843994736671448,0.00175553560256958,-0.029684007167816162,-0.009231537580490112,-1.118364930152893,0.2478078007698059,0.08604554086923599,1.0949746968806262,0.5750339136286622,-1.9998443311394187
1687012520.393883,0.7470924854278564,-0.5290115475654602,-0.4024917483329773,0.020333051681518555,-0.012797534465789795,-0.012501537799835205,-0.9193897247314453,0.19717906415462494,0.15137708187103271,1.076635832086824,0.5574353277725757,-1.944900818782018
1687012520.409981,0.7476083040237427,-0.5123284459114075,-0.42261263728141785,0.003383457660675049,-0.01969975233078003,0.009557187557220459,-1.2613152265548706,0.27029454708099365,0.17303331196308136,1.056292887870508,0.5378939240203165,-1.8839112770119288
1687012520.450454,0.7486220598220825,-0.4924721419811249,-0.4438876509666443,0.009251415729522705,-0.016728878021240234,-0.001958906650543213,-1.1952574253082275,0.21331684291362762,0.1429939866065979,1.035584485069351,0.51492793194149,-1.8193829389439469
1687012520.545613,0.749976634979248,-0.47039535641670227,-0.46504101157188416,0.004631459712982178,0.012173950672149658,0.010527431964874268,-1.0432838201522827,0.1676187664270401,0.10954061895608902,1.0157471562746325,0.4897387347228655,-1.7589348776817584
1687012520.552479,0.7504684925079346,-0.4544800817966461,-0.47983846068382263,0.015171706676483154,-0.027484029531478882,0.017237722873687744,-0.8687756061553955,0.1168711706995964,0.12168696522712708,1.0019193929253685,0.47178844363294475,-1.7144322558636003
1687012520.6046991,0.7532652616500854,-0.42928996682167053,-0.4982987940311432,0.0038605928421020508,-0.06994703412055969,0.0262223482131958,-1.68417489528656,0.3264728784561157,0.10460325330495834,0.9863663990911588,0.44370646914345657,-1.6555071649308875
1687012520.698172,0.7608879208564758,-0.3867165148258209,-0.5210565328598022,0.023276448249816895,0.02125328779220581,0.002883315086364746,-1.788265585899353,0.4475492238998413,0.17992717027664185,0.9703442876854551,0.39706843217107923,-1.5664507274573782
1687012520.790139,0.7699728608131409,-0.3450580835342407,-0.5367277264595032,0.024842143058776855,-0.0421183705329895,0.036544620990753174,-2.182877540588379,0.5478752851486206,0.20928046107292175,0.9620370945499648,0.3523006837537637,-1.4783170834982169
1687012520.806394,0.7842814922332764,-0.2794508934020996,-0.5539041757583618,0.023610413074493408,-0.015135318040847778,0.06664514541625977,-3.0842154026031494,0.7897723913192749,0.2486741989850998,0.9558834984479765,0.283222156922985,-1.3549335155396591
1687012520.9074779,0.8033961653709412,-0.20922091603279114,-0.5574775338172913,0.05054664611816406,-0.017051607370376587,0.06823492050170898,-2.9056167602539062,0.8609623312950134,0.3836155831813812,0.9641752643931387,0.21077818235476126,-1.2211100143512146
1687012520.9246821,0.8262609243392944,-0.14554613828659058,-0.5441591739654541,0.032824158668518066,-0.06166820228099823,0.1022799015045166,-3.2530221939086914,1.1195937395095825,0.5480097532272339,0.9884128733494767,0.14606496973482463,-1.082759251351591
1687012520.9953089,0.8539273738861084,-0.07769812643527985,-0.5145592093467712,0.0692446231842041,-0.03257711976766586,0.08604657649993896,-3.7901012897491455,1.1907113790512085,0.7668174505233765,1.0284822298011547,0.0777765204409034,-0.9123961062748657
1687012521.001703,0.8793478608131409,-0.029724612832069397,-0.47525128722190857,0.027497172355651855,0.01011708751320839,0.07032877206802368,-3.0058887004852295,1.049523949623108,0.9447972178459167,1.0753079195769937,0.02972899208473091,-0.7419158290236169
1687012521.087257,0.9017915725708008,-0.01350769866257906,-0.4319598972797394,0.030169367790222168,-0.028438683599233627,0.03733712434768677,-2.568532705307007,1.043791651725769,1.0337202548980713,1.1240878602739168,0.013508109426381833,-0.6009339342990504
1687012521.102979,0.9217438697814941,-0.01102952379733324,-0.38764241337776184,-0.026190340518951416,0.03970080986618996,0.023659229278564453,-2.1840505599975586,1.0054360628128052,1.056715488433838,1.172698115405169,0.011029747820240597,-0.46935418024746406
1687012521.178945,0.938727855682373,-0.025263460353016853,-0.34373238682746887,0.024910449981689453,0.021067315712571144,0.025708675384521484,-1.4953806400299072,0.9444035291671753,1.0359139442443848,1.2197908943662366,0.02526614797779365,-0.36577921445691053
1687012521.185347,0.9508025646209717,-0.051392458379268646,-0.3055052161216736,0.03389286994934082,-0.006163664162158966,-0.004477083683013916,-1.3921496868133545,0.7951213717460632,1.0320017337799072,1.2599027906652875,0.051415109093718527,-0.28242815071791905
1687012521.18991,0.9581200480461121,-0.08137277513742447,-0.2745620012283325,0.028436899185180664,0.016461901366710663,0.0034438371658325195,-1.1512573957443237,0.699837327003479,1.006479263305664,1.2917119630398137,0.08146284417310909,-0.20676542182533936
1687012521.232512,0.9619361758232117,-0.11629550904035568,-0.24729302525520325,0.030800461769104004,0.014122702181339264,-0.003424137830734253,-0.8867127895355225,0.6466667652130127,1.0156219005584717,1.3191667994177463,0.11655926224578887,-0.1461076179712935
1687012521.2971091,0.9620435237884521,-0.1525295525789261,-0.22629015147686005,0.027214407920837402,0.02752956748008728,-0.04318013787269592,-0.8046467900276184,0.4775065779685974,0.9356602430343628,1.339777581373361,0.15312726582228253,-0.0919261848371939
1687012521.356018,0.9595527648925781,-0.18679143488407135,-0.21063554286956787,0.0013999342918395996,0.04155831038951874,0.023242294788360596,-0.7702606916427612,0.47278034687042236,0.906434178352356,1.3547093635127667,0.1878950695015728,-0.04161846792539057
1687012521.4446359,0.9548538327217102,-0.22316312789916992,-0.1960923969745636,0.023188650608062744,0.0346255898475647,-0.0297071635723114,-0.37538671493530273,0.3488318920135498,0.8640934228897095,1.3682486477600329,0.2250582354200216,-0.004372193494963497
1687012521.4620109,0.9469763040542603,-0.26165899634361267,-0.1864679455757141,0.009017229080200195,-0.046293824911117554,0.02058960497379303,-0.5295320153236389,0.30128157138824463,0.9012353420257568,1.3763748447103838,0.2647406724721684,0.02366854904125909
1687012521.501271,0.935990571975708,-0.30054914951324463,-0.18328110873699188,0.008009672164916992,-0.05076918005943298,0.027946650981903076,-0.882556676864624,0.307515949010849,1.080633521080017,1.3774279044569988,0.3052683691732974,0.07095905393094777
1687012521.597434,0.9206642508506775,-0.3453367054462433,-0.18198825418949127,0.035375118255615234,-0.11819472908973694,0.026470676064491272,-0.8648713827133179,0.35890626907348633,1.1933183670043945,1.3756415686283388,0.35259753311148606,0.1273580432250668
1687012521.6051989,0.8999044299125671,-0.39717888832092285,-0.18005827069282532,0.06875395774841309,-0.06151553988456726,0.00793910026550293,-0.43468037247657776,0.25640103220939636,1.3848010301589966,1.37331808999279,0.40844081679830146,0.176467041335679
1687012521.6551418,0.8703802227973938,-0.45914149284362793,-0.17784041166305542,0.023845791816711426,-0.03875270485877991,-0.026581570506095886,-0.10442701727151871,0.11252578347921371,1.5336270332336426,1.3692456113285827,0.47702857051414466,0.20550655038562873
1687012521.7492661,0.8324120044708252,-0.5259755849838257,-0.17447033524513245,-0.01264888048171997,-0.0001932382583618164,-0.07044851779937744,0.03407342731952667,0.1135595291852951,1.6448293924331665,1.364190978696987,0.5538617486249395,0.22774930037509336
1687012521.7574,0.7843708992004395,-0.5961471199989319,-0.17137980461120605,0.0820995569229126,-0.019056737422943115,-0.17589499056339264,0.2539958953857422,-0.24616624414920807,1.7530356645584106,1.3556835962053213,0.6386936884783707,0.2391778393754813
1687012521.807423,0.7265196442604065,-0.6655022501945496,-0.17110206186771393,0.05143439769744873,0.14934319257736206,-0.09005212783813477,0.6765239238739014,-0.4090239405632019,1.7968668937683105,1.3395018811478872,0.72816648121298,0.23606931535449394
1687012521.899512,0.6600859761238098,-0.7331370115280151,-0.16369667649269104,0.09816902875900269,0.10404765605926514,-0.22027552127838135,0.5444450378417969,-0.5482370257377625,1.7793782949447632,1.327707539015456,0.8229232202197142,0.22198868824461712
1687012521.9074259,0.591575562953949,-0.7884536981582642,-0.1684606969356537,0.060798704624176025,0.32129067182540894,-0.0898858904838562,0.5363815426826477,-0.7295247912406921,1.4878201484680176,1.2933734626943283,0.908291002845853,0.2225475636664326
1687012521.9867182,0.5289890170097351,-0.833073616027832,-0.16173729300498962,0.012423276901245117,0.0687304139137268,-0.07321755588054657,0.4615206718444824,-0.7176622152328491,1.2662311792373657,1.2740745845785209,0.9846410823923966,0.20114706007269176
1687012522.0024471,0.4751538932323456,-0.8641324639320374,-0.16584227979183197,0.07535263895988464,0.1752135157585144,-0.05663089454174042,0.43777942657470703,-0.7754157185554504,1.0558849573135376,1.2349872071443113,1.0434240063329607,0.20313913275369286
1687012522.0428061,0.4310884475708008,-0.8883839249610901,-0.15791358053684235,0.1292906105518341,0.14055073261260986,0.13488805294036865,0.527222752571106,-0.4418724477291107,0.7013350129127502,1.219662753260627,1.0938130460362212,0.18453299015612212
1687012522.139503,0.4077186584472656,-0.8996706604957581,-0.15607093274593353,0.004283905029296875,0.08567535877227783,0.25421541929244995,-0.3037804067134857,0.15125195682048798,0.21439020335674286,1.2052129768166862,1.119014587518487,0.19201748716073486
1687012522.156116,0.4002189636230469,-0.9010673761367798,-0.1670399159193039,0.007160216569900513,-0.02643805742263794,-0.2622814178466797,-0.12705861032009125,-0.04037091135978699,0.21798260509967804,1.175404954455015,1.1222245166846567,0.2351822135051365
1687012522.191194,0.38883066177368164,-0.9047267436981201,-0.17401222884655,-0.01320505142211914,0.05609399080276489,0.1116495132446289,-0.08687590062618256,-0.020779365673661232,0.2388213872909546,1.1500008397823067,1.1307378409158728,0.26157166593329656
1687012522.352406,0.3801306188106537,-0.9086018800735474,-0.17304126918315887,0.009090602397918701,-0.11845189332962036,0.04498946666717529,-0.11684347689151764,-0.014201004058122635,0.19235999882221222,1.143613825680805,1.1399243675375723,0.26457438216284973
1687012522.417877,0.3724242150783539,-0.909943163394928,-0.18249273300170898,0.025753885507583618,0.022873520851135254,-0.02109009027481079,-0.05123671889305115,0.05511291325092316,0.17296919226646423,1.1151701415807795,1.1431470067891845,0.2970732920834198
1687012522.432431,0.36540547013282776,-0.9129709005355835,-0.18155735731124878,0.003079026937484741,0.026633620262145996,-0.01076442003250122,-0.13005487620830536,0.05254686623811722,0.13908347487449646,1.1096595084209082,1.1505068761793165,0.3074133054234109
1687012522.437125,0.3615075349807739,-0.9127476811408997,-0.1902734488248825,0.015445590019226074,-0.026919066905975342,0.015606045722961426,-0.09427140653133392,-0.06557062268257141,0.08421701937913895,1.0863046734018473,1.1499601998219549,0.33234331020798646
1687012522.4484239,0.35794052481651306,-0.913272500038147,-0.19445300102233887,0.02122509479522705,0.04378098249435425,-0.015385866165161133,0.05294618383049965,-0.14195479452610016,0.028622468933463097,1.0731463235199439,1.151246752918668,0.3414473943852089
1687012522.4612942,0.3551831841468811,-0.9140446186065674,-0.19587521255016327,-0.007328629493713379,-0.012468934059143066,-0.024415940046310425,-0.09893393516540527,-0.08896756172180176,0.06568055599927902,1.0668201537991544,1.1531462349543198,0.3413115608049019
1687012522.52022,0.35255181789398193,-0.9137218594551086,-0.20203819870948792,0.02092227339744568,0.017100274562835693,-0.016543954610824585,-0.08651796728372574,-0.03426268324255943,0.06099811568856239,1.0504108606785125,1.1523512427343732,0.35578395443382577
1687012522.5854259,0.3487398028373718,-0.9148297905921936,-0.20363488793373108,-0.01071178913116455,0.007236957550048828,0.011953920125961304,-0.03113740123808384,-0.026748044416308403,0.07512479275465012,1.0422869422647711,1.155086265176206,0.3627734074396933
1687012522.646889,0.3470640182495117,-0.9146907925605774,-0.20709288120269775,0.015088081359863281,0.005480587482452393,-0.01870673894882202,0.007542883977293968,-0.03135717660188675,0.04543453827500343,1.0328073002487628,1.154742119265874,0.3718529527945531
1687012522.739073,0.34560003876686096,-0.91507488489151,-0.20784221589565277,0.009288877248764038,-0.0036872029304504395,0.0029776841402053833,-0.05637107416987419,-0.014320846647024155,0.014397326856851578,1.0293515336806924,1.1556936313125463,0.37414486438515376
1687012522.756353,0.34544047713279724,-0.9143877625465393,-0.2111067920923233,0.0007051825523376465,-0.0022382140159606934,-0.007307529449462891,-0.05746021866798401,-0.01559632271528244,-0.0013657906092703342,1.0222379281956888,1.1539929789107444,0.38154189074175804
1687012522.793038,0.34474512934684753,-0.914373517036438,-0.2123018056154251,-0.0006441473960876465,0.0026303529739379883,-0.011559903621673584,-0.014214166440069675,0.0046664271503686905,0.01938416250050068,1.018823810815567,1.1539578164549842,0.38474795818536817
1687012522.8868299,0.3445797860622406,-0.9140039086341858,-0.21415279805660248,0.0109957754611969,0.0004145503044128418,-0.00798468291759491,-0.03499077260494232,0.01830589585006237,0.00341271935030818,1.0147252409454175,1.1530459425476418,0.3896632592727721
1687012522.901871,0.34486570954322815,-0.9136479496955872,-0.21520908176898956,0.006025373935699463,-0.009859621524810791,-0.007309854030609131,-0.02521967887878418,-0.00421548169106245,-0.01647876389324665,1.0128895607080546,1.1521694198760664,0.3923316023309321
1687012522.941598,0.3459663689136505,-0.9128620624542236,-0.21677234768867493,0.000133514404296875,0.007649600505828857,-0.010339528322219849,-0.02983773499727249,0.009187409654259682,-0.013655479997396469,1.0110684070550988,1.15024027843548,0.39451407941907496
1687012523.037133,0.3468911647796631,-0.9123439192771912,-0.217474564909935,0.0022299587726593018,-0.006830334663391113,-0.0024503767490386963,-0.02769055962562561,0.002919393591582775,-0.020065242424607277,1.0108142884631501,1.148972924231893,0.39522376488331995
1687012523.053365,0.3472330868244171,-0.9120508432388306,-0.218157097697258,0.0075185298919677734,-0.009976685047149658,-0.009626150131225586,-0.02730373665690422,0.0012831476051360369,-0.013284901157021523,1.0098469966269426,1.1482577596830257,0.3962858139269383
1687012523.125592,0.34745126962661743,-0.9114091992378235,-0.22047899663448334,0.0009221434593200684,0.011171102523803711,-0.012629598379135132,-0.06444151699542999,0.016312431544065475,0.011030425317585468,1.005351262037661,1.1466956969135065,0.4016544771119477
1687012523.140609,0.3476037085056305,-0.9109641313552856,-0.2220718413591385,-0.0020684897899627686,0.0024559497833251953,0.011256426572799683,-0.009121802635490894,-0.011174321174621582,-0.010397102683782578,1.0022887574869381,1.1456153943968506,0.4050340824436151
1687012523.181294,0.34779611229896545,-0.9103814363479614,-0.22415100038051605,0.004788786172866821,0.00819021463394165,-0.015412062406539917,-0.003975643310695887,-0.023586515337228775,8.529925253242254e-05,0.9983045669727904,1.1442049703396213,0.4080682795448972
1687012523.2477741,0.34756308794021606,-0.9103575944900513,-0.224608913064003,0.0005204379558563232,0.008242607116699219,0.006972759962081909,-0.03742703050374985,0.010142507962882519,0.015353932976722717,0.9970693876791709,1.1441473119645043,0.40907677337786136
1687012523.343293,0.3469754457473755,-0.9100084900856018,-0.22691960632801056,-0.0033627450466156006,-0.003916621208190918,0.0015167593955993652,-0.04909979924559593,-0.006721959449350834,0.018628090620040894,0.991618996829869,1.1433045123000987,0.4151870721536871
1687012523.3630052,0.3469654321670532,-0.9096984267234802,-0.2281748205423355,0.013813376426696777,-0.0020905137062072754,0.0007730722427368164,0.0053219846449792385,-0.002721980446949601,-0.007502712309360504,0.9890761187024789,1.1425572062303608,0.4180547140560369
1687012523.4567661,0.34750300645828247,-0.9099143743515015,-0.22648927569389343,0.0027624964714050293,0.005968570709228516,0.004260271787643433,0.04201217740774155,-0.009254803881049156,-0.03876875713467598,0.9931833781645352,1.1430775979661896,0.41298456932770555
1687012523.4747639,0.3493098318576813,-0.9098856449127197,-0.22380951046943665,0.007120192050933838,0.023487389087677002,-0.006232008337974548,0.10027757287025452,-0.020960548892617226,-0.020205257460474968,1.000973103799453,1.1430083114082434,0.4033929879306744
1687012523.544764,0.3508101999759674,-0.9096122980117798,-0.22257070243358612,-0.0012618303298950195,-0.00045233964920043945,-0.009042501449584961,-0.05109308660030365,-0.010895488783717155,-0.04830273985862732,1.005432024140604,1.1423499283483391,0.3980909342383268
1687012523.557754,0.3535900413990021,-0.9075931310653687,-0.2263823002576828,0.0043659210205078125,0.03129607439041138,0.004092186689376831,-0.016448291018605232,-0.003951028920710087,-0.08250052481889725,1.0013132914019693,1.137515365429814,0.4021707868045051
1687012523.673501,0.3580355942249298,-0.90568608045578,-0.22703136503696442,0.026836872100830078,-0.035048723220825195,-0.0023540258407592773,-0.05010811612010002,0.025042006745934486,-0.11201107501983643,1.0056779856321543,1.1329951911623566,0.397575298786949
1687012523.689073,0.36342793703079224,-0.9049138426780701,-0.22147461771965027,-0.02483546733856201,0.025214195251464844,-0.0033636540174484253,0.23255304992198944,0.0563797764480114,-0.12231139093637466,1.023490426669207,1.131177200532387,0.3795948290206515
1687012523.75666,0.37202030420303345,-0.9023101329803467,-0.21780066192150116,0.013172566890716553,-0.0044585466384887695,-0.03355740010738373,-0.17024283111095428,-0.04819874092936516,-0.22301343083381653,1.0411413229112525,1.1250986100657299,0.3609530789333292
1687012523.770117,0.38534069061279297,-0.8917136788368225,-0.23740054666996002,0.018040627241134644,0.017415761947631836,0.035252124071121216,-0.5180836915969849,0.03235930949449539,-0.3385469317436218,1.0186373700828253,1.1011175021825326,0.3838621503353292
1687012523.845278,0.4129933714866638,-0.8752558827400208,-0.2517211437225342,0.03070172667503357,0.10305440425872803,0.020947158336639404,-0.23640231788158417,0.18830984830856323,-0.6912868618965149,1.0234178325032925,1.065964591010844,0.3844292329739351
1687012523.8617082,0.4551313519477844,-0.8568775057792664,-0.242108553647995,0.02033257484436035,0.2672015428543091,-0.04089626669883728,0.3837999403476715,0.1727985292673111,-1.1494594812393188,1.0819141758224509,1.0291818484352793,0.3270480744921761
1687012523.90149,0.5110102891921997,-0.8268730640411377,-0.23483906686306,0.016455531120300293,0.01007014513015747,-0.08413064479827881,-0.42795127630233765,0.24941200017929077,-1.3389922380447388,1.1400221155739656,0.9735246535260883,0.27139778937048453
1687012523.998643,0.5708543062210083,-0.7830504179000854,-0.2468957006931305,-0.009498655796051025,0.18911731243133545,-0.011328816413879395,-0.15184681117534637,0.2715695798397064,-1.5080894231796265,1.1625884915684603,0.8995552943812314,0.2580400059938574
1687012524.00722,0.6353839635848999,-0.7334309220314026,-0.24159158766269684,0.017249763011932373,-0.012021958827972412,0.11775121092796326,-0.3834819495677948,0.5245295763015747,-1.6027685403823853,1.2074489852297712,0.8233555705606598,0.2257058274305476
1687012524.088315,0.7010586261749268,-0.6710756421089172,-0.2411934733390808,0.007529020309448242,0.1860445737838745,-0.009462714195251465,-0.2694862484931946,0.534656822681427,-1.8334563970565796,1.23943931988898,0.7356587179615802,0.21712716147845448
1687012524.104743,0.7689340710639954,-0.5983403921127319,-0.22523152828216553,0.01935023069381714,0.056912779808044434,0.012188315391540527,-0.2008494734764099,0.572872519493103,-2.064516544342041,1.2858530910483723,0.6414281728554073,0.1879646943596032
1687012524.1445289,0.8355138897895813,-0.5072783827781677,-0.21115218102931976,0.05364632606506348,0.13922113180160522,-0.05114641785621643,-0.2316485196352005,0.5777580738067627,-2.3113057613372803,1.3232580570355597,0.5320237356890292,0.173339136243854
1687012524.157141,0.8947497606277466,-0.40731874108314514,-0.18306860327720642,0.05042529106140137,-0.025557786226272583,0.010247543454170227,0.4666377305984497,0.5359378457069397,-2.397186040878296,1.3689786236504724,0.4195163006831927,0.1308366019073708
1687012524.20252,0.9403387308120728,-0.30289044976234436,-0.15498477220535278,0.056823015213012695,-0.05439406633377075,-0.06907527148723602,0.16200107336044312,0.48979610204696655,-2.2496988773345947,1.4074468595325667,0.30772410278387813,0.0943786818629316
1687012524.26314,0.971049427986145,-0.20220166444778442,-0.12719085812568665,0.12654578685760498,0.05637344717979431,-0.14351534843444824,1.325853705406189,0.19695234298706055,-2.234052896499634,1.4405548872488774,0.2036055054637475,0.04723947597998369
1687012524.322256,0.987689733505249,-0.1107194647192955,-0.110498808324337,0.10931026935577393,-0.255811870098114,-0.028646104037761688,0.5298377275466919,0.21177248656749725,-1.7333731651306152,1.4593835747335628,0.11094693390657939,-0.02117141735190422
1687012524.383953,0.9935120344161987,-0.03539881482720375,-0.10807688534259796,0.10592937469482422,-0.03874361515045166,-0.058610133826732635,1.8512980937957764,-0.2025172859430313,-1.5423163175582886,1.4624397443448434,0.03540621127537999,-0.07739954124394789
1687012524.477586,0.9924392104148865,0.019419247284531593,-0.12119092047214508,0.10683441162109375,-0.13552334904670715,0.004323787987232208,1.9979348182678223,-0.46141189336776733,-1.213057041168213,1.449283733674974,-0.01942046739354823,-0.18886927326797107
1687012524.4941149,0.9870781898498535,0.06013438478112221,-0.1485283225774765,0.0008215904235839844,-0.14189095795154572,-0.011994123458862305,1.7848902940750122,-0.40435922145843506,-0.9368135929107666,1.42144410435551,-0.060170686593250866,-0.28881527026561454
1687012524.5325232,0.9784191250801086,0.08225654810667038,-0.18955141305923462,0.026188969612121582,0.05232599377632141,0.03757387399673462,3.916940450668335,-0.8305302858352661,-0.850690484046936,1.3794345840278681,-0.08234959221401951,-0.42459638343695816
1687012524.6277308,0.9686241745948792,0.07045184075832367,-0.23833517730236053,0.043308138847351074,-0.30316361784935,0.07143449783325195,2.774606466293335,-0.7088098526000977,-0.40085452795028687,1.3295336979528323,-0.07051025158585915,-0.6155908500538042
1687012524.6452122,0.9549047946929932,0.057227399200201035,-0.2913449704647064,0.013112783432006836,0.17177653312683105,0.10659152269363403,3.6421680450439453,-1.1754783391952515,-0.5537430644035339,1.2746638534120744,-0.05725868341277455,-0.7451734715362661
1687012524.683447,0.9405947923660278,0.002189524471759796,-0.3395243287086487,0.06741607189178467,-0.2033156156539917,0.049851417541503906,3.7004599571228027,-0.8144023418426514,-0.041708286851644516,1.2243843522976783,-0.002189526124068221,-0.9480622756422009
1687012524.8094969,0.9230700135231018,-0.051953088492155075,-0.38110703229904175,0.017374873161315918,0.11382748186588287,0.03773847222328186,3.362480878829956,-1.1637412309646606,-0.11939463019371033,1.1792454178483647,0.05197649007777553,-1.0944247418662565
1687012524.826514,0.9010844826698303,-0.1302807480096817,-0.41361045837402344,0.0649799108505249,-0.009794935584068298,0.08766746520996094,4.071907997131348,-1.1098014116287231,0.1006273552775383,1.14047162582743,0.13065213414739163,-1.2760201853726905
1687012524.893759,0.8764976263046265,-0.21095110476016998,-0.43272581696510315,-0.01649707555770874,0.03680253028869629,0.14140498638153076,3.539367437362671,-1.0394940376281738,0.03670203313231468,1.1122023737804196,0.21254785932027065,-1.4425571900335667
1687012524.9069839,0.8576709628105164,-0.2823677361011505,-0.42973124980926514,0.07035326957702637,-0.0819510817527771,0.006238758563995361,2.505457878112793,-0.6669214367866516,0.15415655076503754,1.1063135460902882,0.2862613900403227,-1.5829717010166113
1687012524.985014,0.8428747653961182,-0.33726829290390015,-0.41929957270622253,0.0065209269523620605,0.0009341239929199219,-0.022747546434402466,2.220731735229492,-0.5617323517799377,0.10007954388856888,1.109179829655337,0.34401366731642913,-1.6916270792769565
1687012524.990428,0.8307675719261169,-0.3825325071811676,-0.40434402227401733,0.014035224914550781,-0.021108239889144897,-0.0014330148696899414,1.7736316919326782,-0.424282431602478,0.10024498403072357,1.1178360237509541,0.3925357261571557,-1.7845774939331227
1687012525.076429,0.8205947875976562,-0.419465571641922,-0.38816583156585693,0.005210757255554199,0.016007989645004272,-0.013414978981018066,1.681284785270691,-0.47404396533966064,0.04499904438853264,1.1289566700689233,0.43285652371940536,-1.8665257111423996
1687012525.092952,0.8106705546379089,-0.4515523910522461,-0.3727112412452698,0.04580521583557129,-0.024659156799316406,-0.0122222900390625,1.508017897605896,-0.4421170949935913,0.07208897918462753,1.1398584091522892,0.46850443985847995,-1.9448989208855945
1687012525.167018,0.8017064929008484,-0.4794054627418518,-0.35698333382606506,0.004918873310089111,-0.04392522573471069,0.019611477851867676,1.2010570764541626,-0.3752772808074951,0.061618171632289886,1.1518750153655253,0.4999771232541234,-2.0151535743782563
1687012525.1735091,0.7943547964096069,-0.5005266666412354,-0.34419965744018555,0.033571720123291016,-0.028892219066619873,0.03420206904411316,0.7952133417129517,-0.22544018924236298,0.09540409594774246,1.1619104793384956,0.5242070391114518,-2.066715293387628
1687012525.2220712,0.788840115070343,-0.5141840577125549,-0.3366689682006836,0.013375401496887207,-0.013922631740570068,0.0657796859741211,0.3065018355846405,-0.0512971505522728,0.14316928386688232,1.1674106200165337,0.540056044820563,-2.092292697370666
1687012525.322161,0.7847715020179749,-0.5259104371070862,-0.32795101404190063,0.02885758876800537,0.019089818000793457,0.015359431505203247,0.24789392948150635,0.05500611662864685,0.1713322103023529,1.17496020446953,0.5537851948845782,-2.1044402432739484
1687012525.338608,0.7821803689002991,-0.5351642370223999,-0.31905025243759155,0.0011295080184936523,0.0443500280380249,0.017399191856384277,0.2218569964170456,0.08832492679357529,0.10243836790323257,1.1834994306741198,0.5647021346032763,-2.113494540167106
1687012525.370349,0.7813670635223389,-0.5416663289070129,-0.30994024872779846,0.021214604377746582,0.049356818199157715,-0.017009824514389038,0.36948123574256897,0.0018077013082802296,0.022955793887376785,1.1931690244428108,0.5724181582744128,-2.1268213194636303
1687012525.4692101,0.7812014222145081,-0.5465592741966248,-0.30165743827819824,0.00033843517303466797,0.010853826999664307,-0.019158631563186646,0.21305716037750244,-0.018077323213219643,-0.026260819286108017,1.2022902038667196,0.5782499936125708,-2.1451011390749963
1687012525.485054,0.7822840213775635,-0.5457906723022461,-0.30024027824401855,0.015674293041229248,0.010146141052246094,-0.02252894639968872,0.01696927472949028,0.005238651763647795,-0.028858134523034096,1.204333373252236,0.5773324413649389,-2.149650664909739
1687012525.521031,0.7830153703689575,-0.5448712706565857,-0.30000370740890503,0.014118969440460205,0.009928703308105469,-0.02064451575279236,0.08489342033863068,-0.04234360158443451,-0.04323793947696686,1.204909265951098,0.5762356056219269,-2.153907396777793
1687012525.621597,0.7836995124816895,-0.5436954498291016,-0.30035027861595154,0.011924147605895996,-0.010061264038085938,0.010311216115951538,-0.026089688763022423,0.01466056052595377,-0.014178391546010971,1.2048153007258753,0.5748339330442224,-2.156376065259252
1687012525.6368752,0.784321129322052,-0.5419127345085144,-0.3019452691078186,-0.0029948949813842773,0.012249648571014404,0.016453266143798828,-0.00340293045155704,-0.001490268623456359,-0.0273894015699625,1.2033079008710843,0.5727113431694739,-2.1537297290689623
1687012525.6711211,0.78510981798172,-0.5419859886169434,-0.2997559607028961,0.002060532569885254,0.0024199485778808594,0.01244819164276123,0.12024963647127151,-0.020100438967347145,-0.023826690390706062,1.2060762471063118,0.5727984694622752,-2.158618289497195
1687012525.7701259,0.7858397960662842,-0.5421879291534424,-0.29746896028518677,-0.00860297679901123,-0.014315247535705566,0.02746465802192688,0.020082997158169746,0.011185934767127037,-0.01686665415763855,1.2089288699230172,0.5730388216814365,-2.163947568029593
1687012525.7864928,0.7866891622543335,-0.5418638586997986,-0.2958102524280548,0.0027852654457092285,-0.009253084659576416,0.021869182586669922,0.011106504127383232,0.03555137291550636,-0.007926087826490402,1.2111323852263858,0.5726531777460443,-2.164564601075604
1687012525.82268,0.7873833775520325,-0.5429254770278931,-0.2919921576976776,-6.031990051269531e-05,-0.004712522029876709,0.014297395944595337,0.06553539633750916,0.05568087473511696,-0.004671173170208931,1.2156789727900421,0.5739167908632481,-2.1675653291363686
1687012525.920289,0.7883132696151733,-0.5439721941947937,-0.2875007092952728,-0.0010512471199035645,-0.011325716972351074,0.016107827425003052,-0.014791716821491718,0.08034752309322357,0.008504883386194706,1.2210830250358677,0.5751637140039992,-2.1701665229047133
1687012525.937045,0.7896844744682312,-0.5427093505859375,-0.2861205041408539,-0.0033533573150634766,-0.0003661513328552246,0.015933126211166382,-0.1464335024356842,0.11622881889343262,-0.009208666160702705,1.2231861627870597,0.5736594541246102,-2.164621182518445
1687012526.003281,0.7913181185722351,-0.5416952967643738,-0.283517062664032,0.015307188034057617,0.02002781629562378,-0.010931849479675293,0.04857531562447548,0.05726812034845352,-0.022001825273036957,1.2267602131498783,0.5724526272894517,-2.1616924045348496
1687012526.09929,0.7929269671440125,-0.5410148501396179,-0.2803027629852295,-0.000583946704864502,-0.010864973068237305,-0.0045941174030303955,-0.06817518174648285,0.05710584297776222,-0.05194853991270065,1.231003443092176,0.5716433118446396,-2.1646787006337886
1687012526.107448,0.7955499887466431,-0.5369631052017212,-0.2806612551212311,0.0035375356674194336,0.024389922618865967,-0.02077615261077881,-0.009640542790293694,0.04440807178616524,-0.05805443599820137,1.2316390735738942,0.5668330852988769,-2.1605036579556027
1687012526.186347,0.7970377206802368,-0.5361067652702332,-0.27806559205055237,0.014500916004180908,0.0023085474967956543,-0.0031081438064575195,0.08697996288537979,-0.006171839311718941,-0.06761777400970459,1.235125162914977,0.5658182670647245,-2.165843481998304
1687012526.193283,0.799058735370636,-0.5332451462745667,-0.27776744961738586,0.00016605854034423828,0.00521475076675415,8.797645568847656e-05,0.03391599282622337,0.008010913617908955,-0.07573729753494263,1.2362448665761985,0.5624320141377066,-2.1688129459256174
1687012526.273597,0.8007026314735413,-0.5316035747528076,-0.27617549896240234,-0.0013251900672912598,-0.006863832473754883,0.02178090810775757,0.03892925754189491,0.037163738161325455,-0.032612789422273636,1.2386574473026515,0.5604927296870088,-2.1724535064387616
1687012526.287544,0.8023298978805542,-0.5300158858299255,-0.27449941635131836,0.0029373764991760254,0.009355485439300537,0.015801846981048584,-0.020251063629984856,0.05595642328262329,-0.045378655195236206,1.2411516908667009,0.5586192911494293,-2.172854454479365
