Timestamp,gravityX,gravityY,gravityZ,accelerationX,accelerationY,accelerationZ,rotationRateX,rotationRateY,rotationRateZ,attitudeRoll,attitudePitch,attitudeYaw
1687014252.709457,0.9557507038116455,-0.26844650506973267,-0.12032191455364227,0.004469752311706543,0.020597875118255615,-0.020699813961982727,0.037459056824445724,-0.0831582173705101,-0.0367935448884964,1.4455625866099264,0.2717799749017007,0.013331618761192768
1687014252.8309379,0.9558305740356445,-0.2663247287273407,-0.12433504313230515,-0.008030891418457031,0.026944786310195923,-0.011696994304656982,0.13545797765254974,-0.10893512517213821,-0.05643968656659126,1.441442036966716,0.26957803990087453,0.008741917582111354
1687014252.832107,0.955941915512085,-0.26323169469833374,-0.1299384981393814,-0.011163532733917236,0.021166205406188965,0.011972859501838684,0.08917369693517685,-0.1348080039024353,-0.0771544799208641,1.435697118932589,0.2663705135755603,0.0029786385140693583
1687014252.919609,0.9561178684234619,-0.2605361044406891,-0.13401424884796143,0.05068767070770264,0.09879282116889954,0.015499278903007507,0.763403594493866,-0.2370026409626007,-0.10800600051879883,1.4315385799691944,0.26357742782290033,-0.01610795931497732
1687014252.924662,0.955696702003479,-0.2614181637763977,-0.13529327511787415,0.03989344835281372,0.03746485710144043,-0.02431356906890869,0.8319896459579468,-0.25011587142944336,-0.11373154073953629,1.4301657239170187,0.26449117605796063,-0.06057843327906588
1687014253.010706,0.9557716250419617,-0.25945478677749634,-0.13850513100624084,0.05275791883468628,0.03344154357910156,0.013032212853431702,0.7292449474334717,-0.3496493101119995,-0.1772579848766327,1.4268836768576978,0.2624576117815864,-0.10270965335910141
1687014253.015986,0.9556540846824646,-0.25544822216033936,-0.14653174579143524,-0.0376853346824646,0.031128674745559692,0.007554769515991211,0.563809335231781,-0.3631804585456848,-0.15506811439990997,1.4186499218757536,0.25831126517495195,-0.13541008540882082
1687014253.101141,0.9548910856246948,-0.25339725613594055,-0.15483184158802032,-0.1005515456199646,0.007822215557098389,0.06303507089614868,0.502679169178009,-0.2833520472049713,-0.11428167670965195,1.4100492702535925,0.25619052438029866,-0.16524774551235263
1687014253.106672,0.9543139934539795,-0.25115111470222473,-0.16188935935497284,-0.02932608127593994,-0.03637036681175232,0.07601295411586761,0.04349884018301964,-0.17596139013767242,-0.06654531508684158,1.4027565552219672,0.2538692907319043,-0.1783809400373399
1687014253.192313,0.9539074301719666,-0.24892747402191162,-0.1676175594329834,0.11210203170776367,-0.006718337535858154,0.05508406460285187,0.1984419971704483,-0.10641977190971375,-0.07927628606557846,1.396855254547803,0.25157271394505487,-0.1851218581561454
1687014253.197895,0.9545621275901794,-0.2438725382089615,-0.1712820827960968,0.22301965951919556,-0.056008532643318176,-0.016797661781311035,-0.21042868494987488,-0.2105253040790558,-0.15956726670265198,1.3932504752922574,0.2463569523620855,-0.18708083612185086
1687014253.250966,0.953170120716095,-0.23764236271381378,-0.18706394731998444,-0.08241206407546997,0.08799934387207031,-0.06491965055465698,0.13533280789852142,-0.2716396152973175,-0.023730739951133728,1.3770047659329552,0.23993796526987043,-0.18314899903824486
1687014253.33656,0.9503389000892639,-0.24128055572509766,-0.19656957685947418,-0.1408144235610962,0.03881160914897919,0.03641338646411896,0.16112063825130463,-0.27547207474708557,0.011786107905209064,1.366831093896594,0.24368517393801714,-0.19369038913947068
1687014253.3411021,0.9493163824081421,-0.24118441343307495,-0.20156539976596832,0.05727541446685791,0.004139035940170288,0.03219294548034668,0.22704941034317017,-0.09169329702854156,-0.08180776238441467,1.3615765674107905,0.24358610208037512,-0.20070871528641973
1687014253.437614,0.9489753842353821,-0.23629283905029297,-0.20883390307426453,0.10928279161453247,0.009196192026138306,0.029314309358596802,0.6587162613868713,-0.30690625309944153,-0.1898297667503357,1.354186391952179,0.2385488736477864,-0.22421640384375235
1687014253.5209389,0.9486708045005798,-0.23725171387195587,-0.20913036167621613,-0.05540591478347778,-0.02504695951938629,0.02880200743675232,0.49751684069633484,-0.09979382902383804,-0.0689685270190239,1.3538209877506038,0.23953581547441544,-0.2578697950938031
1687014253.5267801,0.9485902190208435,-0.2389409840106964,-0.20756661891937256,-0.11327826976776123,-0.051815345883369446,0.043885618448257446,0.35563793778419495,-0.00447867251932621,-0.06292741000652313,1.3553757464197072,0.2412751028806476,-0.27846062830848084
1687014253.610821,0.9490698575973511,-0.24162264168262482,-0.20220059156417847,-0.010013401508331299,-0.06456032395362854,0.043844908475875854,0.5597299933433533,-0.03812096640467644,-0.03051421046257019,1.360883487839436,0.2440376847330376,-0.3019085570890246
1687014253.616893,0.9491580128669739,-0.2473863959312439,-0.19467699527740479,0.030425727367401123,-0.07451309263706207,-0.06257086992263794,0.6111811399459839,0.03672397881746292,0.0371541827917099,1.368497028124097,0.24998186681579315,-0.33097350807338594
1687014253.761086,0.9473814368247986,-0.2574217617511749,-0.1902698129415512,-0.024041593074798584,-0.06716325879096985,-0.03719288110733032,0.4976405203342438,-0.052193108946084976,0.1154729574918747,1.37259551612406,0.26035308583868905,-0.36072475803403553
1687014253.768559,0.945658266544342,-0.26544269919395447,-0.18780504167079926,-0.04361969232559204,-0.0771477222442627,-0.033309996128082275,0.03296120464801788,-0.0024038043338805437,0.1028328612446785,1.3747500187706232,0.2686630556237313,-0.37109024698982496
1687014253.884372,0.9440752267837524,-0.2721308767795563,-0.18619005382061005,-0.01751577854156494,-0.013849407434463501,-0.008573055267333984,0.16216020286083221,0.003386440686881542,0.13323551416397095,1.3760757262875476,0.2756067877395737,-0.37503665658969076
1687014253.890938,0.9421948790550232,-0.27936282753944397,-0.18500052392482758,-0.0006055831909179688,-0.028147608041763306,0.004290759563446045,-0.02308719791471958,0.026122024282813072,0.12333979457616806,1.376912268056265,0.28313044648928504,-0.3778835872426032
1687014253.89219,0.9415653944015503,-0.2835085391998291,-0.18187272548675537,0.017525911331176758,-0.006225407123565674,-0.010037019848823547,-0.08034262806177139,0.0878053680062294,0.06623703241348267,1.3799863137354587,0.28745080693706593,-0.37272775791256824
1687014253.970588,0.9411630630493164,-0.28577783703804016,-0.18039751052856445,-0.015915870666503906,0.006633490324020386,0.006493210792541504,0.016252752393484116,0.053274013102054596,0.012173064984381199,1.3814181513064439,0.2898180187653358,-0.37106821054675027
1687014253.975544,0.9422627687454224,-0.2842090427875519,-0.17710483074188232,0.011869311332702637,-0.0070050060749053955,-0.054523468017578125,0.03234468027949333,0.03728288784623146,-0.0312688834965229,1.385006989450377,0.2881813457361973,-0.3698077864723426
1687014254.065082,0.9424266815185547,-0.2852535545825958,-0.17453476786613464,0.0056018829345703125,0.02939411997795105,-0.04383367300033569,0.588918149471283,-0.0567033477127552,-0.014718204736709595,1.3876739059566625,0.28927096370536287,-0.3853836809460287
1687014254.067332,0.941408634185791,-0.2894590497016907,-0.17309854924678802,0.052121520042419434,0.022582799196243286,-0.05325023829936981,0.922529399394989,-0.3521139621734619,-0.07797307521104813,1.3889556033911068,0.29366164557145985,-0.4226411990058497
1687014254.151623,0.9392684102058411,-0.2970121502876282,-0.17192669212818146,-0.017973244190216064,0.0746457576751709,-0.06836861371994019,1.7374366521835327,-0.41393062472343445,-0.06254284828901291,1.3897572617190375,0.30156207017838926,-0.49131378235167006
1687014254.158777,0.9359748959541321,-0.3110823631286621,-0.1648593693971634,0.023711323738098145,0.08352801203727722,0.0041386038064956665,2.497725009918213,-0.5336444973945618,-0.08370120078325272,1.396448123250197,0.3163316882365812,-0.6030988918576433
1687014254.2422628,0.9323387742042542,-0.32712677121162415,-0.15405352413654327,0.04336923360824585,0.004708528518676758,0.02287381887435913,2.202227830886841,-0.679735004901886,-0.12373949587345123,1.4070424796760248,0.33326144176339034,-0.7258466636812887
1687014254.2497869,0.9293155074119568,-0.3390173316001892,-0.146423801779747,-0.029321610927581787,0.05148068070411682,0.01603752374649048,2.5227932929992676,-0.669376015663147,-0.18140405416488647,1.4145201726334733,0.34587218610635984,-0.8545013414656629
1687014254.304307,0.9275801181793213,-0.3441433012485504,-0.14546628296375275,0.009706199169158936,-0.06489905714988708,0.0799299031496048,1.0503804683685303,-0.5563412308692932,-0.12364954501390457,1.415239881937853,0.35132619947426746,-0.9448298108159623
1687014254.394145,0.9260551929473877,-0.34630998969078064,-0.1499704122543335,0.004791975021362305,0.03536638617515564,0.08960670232772827,1.2506189346313477,-0.4645090103149414,-0.1855887472629547,1.4102447663655402,0.3536348325883483,-1.0067674511774511
1687014254.402001,0.9270706176757812,-0.344672292470932,-0.1474483609199524,0.021308839321136475,-0.04111570119857788,0.10624970495700836,0.592567503452301,-0.22446119785308838,-0.18327566981315613,1.4130698289685033,0.35188965425416385,-1.0571006574874222
1687014254.451075,0.9292407631874084,-0.33933505415916443,-0.14616258442401886,-0.05381351709365845,-0.01808685064315796,0.10070675611495972,0.39606401324272156,-0.012049330398440361,-0.167726531624794,1.4147821094525708,0.3462099070659594,-1.083491401091917
1687014254.54003,0.9310085773468018,-0.3369687497615814,-0.14026741683483124,0.007589995861053467,-0.04422628879547119,0.057351306080818176,0.24588003754615784,0.08140010386705399,-0.036914385855197906,1.4212592093508227,0.3436955043758567,-1.0980175101316307
1687014254.543034,0.93156498670578,-0.33932268619537354,-0.13056273758411407,0.00941389799118042,-0.08168256282806396,0.020287588238716125,0.19082850217819214,0.13217486441135406,0.03522132337093353,1.4315491586992979,0.3461967575298234,-1.1130962833719527
1687014254.634351,0.9316287040710449,-0.34134748578071594,-0.1246996521949768,-0.012683391571044922,-0.05025407671928406,0.004140079021453857,-0.43941766023635864,0.20427720248699188,0.08608923107385635,1.4377359746986251,0.348350101746783,-1.1071503755614152
1687014254.6377459,0.9299169182777405,-0.3459850549697876,-0.12469448149204254,0.005233168601989746,0.030463844537734985,-0.041504137217998505,-0.2582929730415344,0.09683366119861603,0.17710769176483154,1.4374993932160618,0.35328847399346414,-1.0819004442012607
1687014254.690933,0.9276407361030579,-0.35292738676071167,-0.12216789275407791,0.008714914321899414,0.008505970239639282,-0.01706846058368683,-0.05954538285732269,0.046379003673791885,0.1295132040977478,1.439852478924868,0.36069799100395467,-1.0773741997259185
1687014254.785602,0.9257623553276062,-0.35793325304985046,-0.12185201793909073,0.0230749249458313,0.06261467933654785,-0.006214849650859833,0.11740711331367493,0.0006116931326687336,0.06391116231679916,1.4399252021566158,0.36605354694617503,-1.0764532902387707
1687014254.793068,0.92511385679245,-0.35991185903549194,-0.12094517052173615,0.012340307235717773,0.03312963247299194,-0.0254017636179924,-0.003966899588704109,-0.009719064459204674,0.02210126258432865,1.44079817202757,0.36817341198180764,-1.0783721888654854
1687014254.842552,0.9260664582252502,-0.35758596658706665,-0.12055379152297974,-0.004694998264312744,0.02077871561050415,-0.003179602324962616,0.15359139442443848,-0.01948709413409233,-0.04504861310124397,1.4413459514967097,0.36568167195371676,-1.0835086646199796
1687014254.935018,0.9266724586486816,-0.3558521866798401,-0.12102705240249634,-0.0033630728721618652,0.0048542320728302,-0.00020390748977661133,0.017963122576475143,-0.010702657513320446,-0.03537101671099663,1.440927487100473,0.3638257762999209,-1.0870565727631694
1687014254.939738,0.927435040473938,-0.3534819483757019,-0.12212634086608887,0.0019320249557495117,-0.016024917364120483,0.010722041130065918,0.003303707577288151,-0.029793618246912956,-0.04493875429034233,1.439867797495826,0.36129075908187275,-1.0871869187779735
1687014254.990848,0.9278627634048462,-0.3521248698234558,-0.1227949932217598,-0.009253203868865967,-0.017137795686721802,0.011894233524799347,0.09367620944976807,-0.03612688183784485,-0.014591903425753117,1.439219172254572,0.35984040739673867,-1.090962649355983
1687014255.0858579,0.9279473423957825,-0.35194113850593567,-0.12268401682376862,0.0027167797088623047,-0.03070354461669922,0.010638833045959473,0.011380631476640701,-0.009291892871260643,-0.011311421170830727,1.4393485615855601,0.35964411650433425,-1.0942772564731738
1687014255.089293,0.9274452328681946,-0.35310232639312744,-0.12314267456531525,0.02816694974899292,-0.009171843528747559,-0.0028643012046813965,-0.0699339285492897,-0.002930666320025921,0.043374061584472656,1.4387922174911694,0.36088495493837786,-1.0898205428829093
1687014255.141004,0.9264209866523743,-0.3560081720352173,-0.12248516082763672,-0.016386747360229492,-0.010828405618667603,0.01854240894317627,-0.004483330994844437,0.00957624800503254,0.04277198761701584,1.4393454369902479,0.36399270883795226,-1.0909177573524838
1687014255.266347,0.9257953763008118,-0.35746076703071594,-0.12298252433538437,-0.010756313800811768,0.032295942306518555,0.012203812599182129,-0.07472455501556396,0.025400040671229362,0.007006532046943903,1.438729686104438,0.36554759284081645,-1.0865398202976497
1687014255.271795,0.9261826276779175,-0.35670897364616394,-0.12224848568439484,0.00416111946105957,-0.008937448263168335,0.019343301653862,-0.12042635679244995,0.049881771206855774,-0.012820834293961525,1.439563153628782,0.36474274526468076,-1.082748462894707
1687014255.384604,0.9270046353340149,-0.3548651337623596,-0.12138018012046814,0.011410892009735107,0.007849723100662231,-0.009875833988189697,-0.035052649676799774,0.03746149688959122,-0.019048701971769333,1.440598972121309,0.3627698178757169,-1.077835570593004
1687014255.389882,0.9273625016212463,-0.35464417934417725,-0.11927495896816254,-0.0006350874900817871,-0.01490849256515503,-0.009799078106880188,-0.07631774991750717,0.04034179449081421,0.009798457846045494,1.4428811832494723,0.36253349727305717,-1.0765553602568996
1687014255.4720678,0.9275298118591309,-0.35413360595703125,-0.11948955059051514,-0.0028625130653381348,-0.004081696271896362,-0.007158271968364716,-0.032049842178821564,0.018288513645529747,-0.0021984840277582407,1.4426764147623896,0.3619874737418611,-1.0723493445118455
1687014255.480557,0.9274492263793945,-0.3542942404747009,-0.11963987350463867,-0.0019273161888122559,-0.017974436283111572,0.012324929237365723,-0.08600455522537231,0.021955687552690506,-0.00369924190454185,1.4425059693959144,0.3621592516526059,-1.0701449615574095
1687014255.565545,0.9275228381156921,-0.3538551330566406,-0.12036720663309097,0.0071086883544921875,-0.0008812546730041504,0.01035146415233612,-0.06731168925762177,0.035314369946718216,0.003247680142521858,1.441744778899216,0.3616897173686305,-1.0651024500833293
1687014255.56953,0.9273635149002075,-0.3546208143234253,-0.11933539807796478,0.00919044017791748,-0.007775425910949707,0.006923981010913849,-0.06071748584508896,0.0355217382311821,0.022690020501613617,1.442817205872814,0.36250850186215944,-1.062144284601488
1687014255.653837,0.9272153377532959,-0.35528862476348877,-0.11849840730428696,0.00021386146545410156,0.010714620351791382,-0.015336334705352783,-0.044122666120529175,0.022814467549324036,0.02100776880979538,1.4436850660634823,0.36322283170181224,-1.058772532109697
1687014255.6634002,0.9268827438354492,-0.3563881516456604,-0.11779666692018509,0.012463629245758057,-0.0069236159324646,-0.004136204719543457,-0.030926523730158806,0.006010541692376137,0.02649041824042797,1.4443849284371997,0.36439936827619,-1.0584624167188943
1687014255.743195,0.9266623854637146,-0.3564436733722687,-0.11935204267501831,0.0022622346878051758,0.023191720247268677,-0.009187877178192139,-0.014472715556621552,0.004514644388109446,-0.0010043226648122072,1.4427037584264173,0.3644587660622758,-1.0548563377278857
1687014255.7518868,0.9267228841781616,-0.35619503259658813,-0.11962417513132095,-0.01000523567199707,0.020074397325515747,-0.0028122812509536743,0.043489255011081696,-0.00600297749042511,-0.01706777885556221,1.4424231843473172,0.36419267097833924,-1.0562695045585666
1687014255.834768,0.9272185564041138,-0.3545438349246979,-0.12068457901477814,0.014721930027008057,0.005071729421615601,0.0036802738904953003,0.03063604049384594,-0.03390731289982796,-0.032492008060216904,1.4413663048184533,0.3624261731085898,-1.0571448444954046
1687014255.839823,0.9276774525642395,-0.3534758985042572,-0.12028807401657104,0.006007790565490723,-0.005975395441055298,0.0036500245332717896,0.0935102105140686,-0.03211686760187149,-0.031678080558776855,1.4418499407788183,0.3612842812961306,-1.0621316118137025
1687014255.8933349,0.9279735684394836,-0.3525850474834442,-0.12061947584152222,-0.003885984420776367,-0.0066221654415130615,0.005904018878936768,0.022074244916439056,-0.028353823348879814,-0.020230814814567566,1.4415394250529319,0.36033211367038404,-1.064785476890402
1687014255.985256,0.9282602667808533,-0.35155215859413147,-0.12142500281333923,-0.0055460333824157715,-0.002711176872253418,0.009028851985931396,-0.00866365060210228,-0.020752273499965668,-0.03620385378599167,1.4407256326585365,0.3592285741413956,-1.065704790140559
1687014255.989647,0.9285563230514526,-0.35080987215042114,-0.12130860239267349,0.006487071514129639,-0.005452364683151245,0.01588571071624756,0.06265154480934143,-0.00920853577554226,-0.02213703840970993,1.4408898835809179,0.3584358032625472,-1.067359032573521
1687014256.041294,0.9289105534553528,-0.3501548171043396,-0.12048588693141937,-0.012666046619415283,-0.020145505666732788,0.012331664562225342,0.004351794719696045,0.020655974745750427,-0.013481032103300095,1.4418098024272215,0.35773636582236534,-1.0694055040245616
1687014256.13264,0.9291620850563049,-0.34997478127479553,-0.1190611943602562,0.0019445419311523438,-0.016983836889266968,0.008984386920928955,-0.0013310358626767993,0.018439870327711105,-0.00037122261710464954,1.4433525770294529,0.35754418052701564,-1.0698556234216094
1687014256.143859,0.9290313124656677,-0.35067468881607056,-0.11801758408546448,0.005676388740539551,-0.018816888332366943,0.0030121803283691406,-0.020802782848477364,0.01994233764708042,0.020594311878085136,1.4444401651146905,0.35829143174598105,-1.0687517561123356
1687014256.2262921,0.9286134839057922,-0.3520910441875458,-0.11708558350801468,-0.001458883285522461,-0.012258321046829224,0.0017902851104736328,-0.03631334379315376,0.025287212803959846,0.030356863513588905,1.4453717391294034,0.3598042782491272,-1.0674139175638109
1687014256.2350101,0.9281598329544067,-0.3534381687641144,-0.11662349104881287,0.0032672882080078125,-0.0005657970905303955,0.008591338992118835,-0.05474543571472168,0.03161603584885597,0.025825893506407738,1.4458011661476606,0.36124395660486763,-1.064409616425662
1687014256.282638,0.928007185459137,-0.3540452718734741,-0.11599491536617279,-0.0025310516357421875,0.0030778348445892334,0.00420910120010376,-0.08086612075567245,0.04087025672197342,0.01580728217959404,1.446447679373383,0.36189301360656956,-1.0605818415912418
1687014256.376749,0.9281576871871948,-0.3539547622203827,-0.11506309360265732,0.01950472593307495,0.0020870864391326904,0.007870197296142578,-0.032198671251535416,0.024649562314152718,-0.0003487189533188939,1.447456260666604,0.3617962518791542,-1.0572618337980837
1687014256.387248,0.9284429550170898,-0.3534161150455475,-0.11441574990749359,0.015435338020324707,-0.0030445456504821777,-0.0017035752534866333,-0.04901746287941933,0.01739165000617504,-0.009309124201536179,1.4481805256727298,0.36122036530245727,-1.0550191208366777
1687014256.434897,0.9287614822387695,-0.3526700735092163,-0.11413034796714783,0.005595088005065918,0.0005277395248413086,-0.013158366084098816,-0.018829692155122757,0.0019965367391705513,-0.004878622479736805,1.44852487643764,0.3604229753756821,-1.0536528126968623
1687014256.523001,0.928757905960083,-0.3522912561893463,-0.11532479524612427,0.0037525296211242676,0.001690000295639038,-0.010575354099273682,-0.02412649616599083,-0.025206677615642548,0.006922443397343159,1.4472576623985034,0.3600181735732312,-1.0517730916007577
1687014256.532521,0.9287375807762146,-0.3518753945827484,-0.11674763262271881,0.00891488790512085,-0.0022048354148864746,0.006640322506427765,-0.017446711659431458,-0.020694393664598465,-0.008834215812385082,1.4457465286300812,0.35957386492972115,-1.0520373319260703
1687014256.583315,0.9288219213485718,-0.35118362307548523,-0.11815216392278671,0.0034595727920532227,0.009264647960662842,0.00027811527252197266,0.00805873703211546,-0.011096716858446598,-0.0018759085796773434,1.4442693976274512,0.3588349502743256,-1.0500848493517563
1687014256.7064118,0.9286839365959167,-0.3513137698173523,-0.11884744465351105,-0.001300513744354248,-0.016209453344345093,0.0025450587272644043,-0.0071403225883841515,-0.02588684856891632,0.006466776132583618,1.4435141164570522,0.3589739383722084,-1.0517528983661661
1687014256.717691,0.9281715154647827,-0.35204967856407166,-0.12065970152616501,0.01372307538986206,-0.005723148584365845,-0.007544517517089844,-0.009824566543102264,-0.027892297133803368,0.051894910633563995,1.4415240677982064,0.3597600725925701,-1.0490899639733833
1687014256.795516,0.9267495274543762,-0.3555864095687866,-0.12121658772230148,0.008614122867584229,-0.012592911720275879,-0.011336371302604675,0.08626995980739594,-0.061204005032777786,0.06164507567882538,1.440737079487123,0.363541405570056,-1.0521832640294808
1687014256.805769,0.9256055951118469,-0.3572532534599304,-0.12499827146530151,-0.000755012035369873,-0.011963695287704468,-0.004274085164070129,0.0041313739493489265,-0.11809906363487244,0.029845401644706726,1.4365635476910532,0.36532541580717587,-1.0538249644960915
1687014256.8830628,0.9242425560951233,-0.35919952392578125,-0.12942634522914886,0.005734741687774658,0.009376555681228638,-0.001966997981071472,0.02097191847860813,-0.10846792161464691,0.02261325716972351,1.431666024658615,0.3674100463320498,-1.0548080842181664
1687014256.893107,0.9235880374908447,-0.35967013239860535,-0.13275021314620972,-0.0048105716705322266,0.006490170955657959,0.03150826692581177,0.03742239624261856,-0.05927880480885506,-0.01267569325864315,1.428040896959965,0.3679143544041025,-1.0567939681819678
1687014256.9747338,0.9237208366394043,-0.35879406332969666,-0.1341891586780548,-0.01863044500350952,0.020659267902374268,0.018451333045959473,0.08875264972448349,-0.029661614447832108,-0.03467453271150589,1.4265352268101865,0.36697562585131366,-1.0591144539557555
1687014256.984949,0.9244165420532227,-0.3580392599105835,-0.13138554990291595,-0.03192991018295288,-0.012703567743301392,0.033134281635284424,0.05279012396931648,0.05371823161840439,-0.017077431082725525,1.4296138216324945,0.36616708857158625,-1.0657605736599438
1687014257.0358691,0.9252563118934631,-0.35720327496528625,-0.12769731879234314,-0.007714807987213135,0.014567136764526367,0.023312032222747803,0.10853931307792664,0.07217935472726822,-0.04080486297607422,1.433649810808883,0.36527189675183547,-1.0677444400146239
1687014257.0963821,0.9264392852783203,-0.3561318516731262,-0.1219852864742279,-0.0017260909080505371,-0.02449864149093628,0.005209863185882568,0.0019404799677431583,0.09735564142465591,-0.015522211790084839,1.4398783370352946,0.36412506569723446,-1.0714089935871272
1687014257.184661,0.9275681972503662,-0.35486549139022827,-0.11699463427066803,0.012876749038696289,-0.029045671224594116,-0.0039006471633911133,0.02981432154774666,0.07946931570768356,-0.02838108502328396,1.4453283865643785,0.36277019406012123,-1.0742110873740338
1687014257.1909208,0.9278892278671265,-0.3547530770301819,-0.11476920545101166,0.027585625648498535,-0.014906376600265503,-0.028815865516662598,0.02604244276881218,0.011461944319307804,-0.0017956143710762262,1.4477328820520967,0.36264995497925834,-1.073611488192058
1687014257.244195,0.9273435473442078,-0.3563201427459717,-0.11432325094938278,0.02793288230895996,-0.030642718076705933,-0.020381204783916473,0.14257065951824188,-0.07793451100587845,0.040165819227695465,1.4481348742977613,0.3643265501524318,-1.0777207785894052
1687014257.334196,0.9261341094970703,-0.3587784767150879,-0.11642073094844818,0.004713118076324463,-0.012864619493484497,-0.020831942558288574,0.07845211774110794,-0.11307359486818314,0.02387739159166813,1.445746126509374,0.3669589105149556,-1.086753172072101
1687014257.34029,0.9253230690956116,-0.35923609137535095,-0.12135401368141174,0.0009770989418029785,0.037946999073028564,0.004593834280967712,0.11915414035320282,-0.10551021993160248,-0.022754892706871033,1.4403928392686913,0.36744920177384555,-1.0888528901396632
1687014257.454792,0.9250782132148743,-0.35904815793037415,-0.12375298887491226,-0.009093105792999268,0.0004360973834991455,0.021000385284423828,0.02098003961145878,-0.07082600891590118,-0.021971989423036575,1.437810178538195,0.3672478618439249,-1.0936801337160882
1687014257.467139,0.9253580570220947,-0.3578757643699646,-0.12504911422729492,-0.003635704517364502,0.0448417067527771,-0.0012630075216293335,0.22202739119529724,-0.06496226042509079,-0.027943862602114677,1.4364741172729913,0.3659919855191766,-1.0991516346634038
1687014257.549838,0.9252861738204956,-0.35888800024986267,-0.1226586103439331,0.00560683012008667,0.014725983142852783,0.0020532608032226562,0.29735466837882996,-0.05336090549826622,-0.02412215806543827,1.4390018508453035,0.3670762597106916,-1.1141845646722492
1687014257.56252,0.9259157776832581,-0.35762813687324524,-0.12158307433128357,-0.00034803152084350586,-0.010688573122024536,-0.006071880459785461,0.13415999710559845,-0.046638377010822296,-0.051988277584314346,1.4402321704816385,0.3657268095017303,-1.1264147118957442
1687014257.6342258,0.9265440702438354,-0.3553074896335602,-0.12358380854129791,-0.0064847469329833984,-0.01308545470237732,-0.011120691895484924,0.03549950569868088,-0.06348065286874771,-0.02777821198105812,1.4381975069568491,0.3632430163623989,-1.129127243115747
1687014257.639323,0.9260256886482239,-0.3559688627719879,-0.12554946541786194,0.002639472484588623,-0.007281899452209473,-0.0067899227142333984,0.1274850070476532,-0.08026353269815445,0.0037775826640427113,1.4360391929482215,0.3639506274205638,-1.133807353791704
1687014257.727562,0.9252285957336426,-0.3573307991027832,-0.12754088640213013,0.0034365057945251465,0.009064197540283203,-0.011222407221794128,0.169850155711174,-0.09016410261392593,0.012747975066304207,1.4338116717433116,0.365408429599773,-1.1407852076340783
1687014257.737953,0.9245466589927673,-0.3585014045238495,-0.12919168174266815,-0.0009930729866027832,-0.0025368332862854004,-0.0460706502199173,0.02107875607907772,-0.08219201862812042,-0.005260253790766001,1.4319601337626668,0.36666209898850033,-1.145159069402345
1687014257.81825,0.9244142174720764,-0.35811272263526917,-0.1312013864517212,0.01825857162475586,0.018711477518081665,-0.07439541816711426,0.3216148912906647,-0.14600668847560883,-0.041198547929525375,1.4298087539074762,0.36624578089329785,-1.1557217665700066
1687014257.8237538,0.9237896800041199,-0.3585388958454132,-0.13439765572547913,0.015404164791107178,0.0037415027618408203,-0.042207494378089905,0.40712282061576843,-0.2368389368057251,-0.05074378103017807,1.426324800781753,0.3667022572591794,-1.1738294226172683
1687014257.9073992,0.9224357604980469,-0.3602798581123352,-0.1389632225036621,-0.0151633620262146,0.019505321979522705,-0.01721036434173584,0.6119869947433472,-0.33170580863952637,-0.024716977030038834,1.4212725686730725,0.3685678906938337,-1.200823755208301
1687014257.99691,0.9187853336334229,-0.3677992522716522,-0.14337877929210663,0.0016250014305114746,0.001237332820892334,-0.1584247499704361,1.0424708127975464,-0.5687617659568787,0.1871059238910675,1.4159923535915784,0.3766412591134811,-1.2399922093569247
1687014258.006926,0.9102540612220764,-0.3868861198425293,-0.14750200510025024,0.01197195053100586,-0.00968983769416809,-0.0670669674873352,1.5529118776321411,-0.6718259453773499,0.1464468389749527,1.410147863080349,0.3972523406258816,-1.3135313605001124
1687014258.091358,0.8980538249015808,-0.41198408603668213,-0.15417076647281647,0.007112860679626465,-0.09317338466644287,-0.2505685091018677,2.3072433471679688,-1.1670986413955688,0.35085996985435486,1.4007815131335535,0.42463046603445354,-1.4091849851463116
1687014258.101393,0.8784220814704895,-0.45419764518737793,-0.14858980476856232,0.10218387842178345,-0.2022353708744049,-0.20536819100379944,2.800482988357544,-1.3028372526168823,0.7485287189483643,1.4032272073490006,0.4714713828724034,-1.5505310809826627
1687014258.1763558,0.8452692031860352,-0.5142067074775696,-0.14529861509799957,0.04006117582321167,-0.22041243314743042,-0.09434057772159576,2.337526321411133,-1.326643466949463,1.1596766710281372,1.4005637461499834,0.5400824533026571,-1.6865303284073871
1687014258.186518,0.7984861135482788,-0.5861576199531555,-0.1372556984424591,0.10312521457672119,-0.1439601182937622,-0.023220881819725037,2.0561459064483643,-1.1520978212356567,1.574711561203003,1.4005650599045059,0.6263081602342175,-1.799990032559167
1687014258.268307,0.740231454372406,-0.6617408394813538,-0.11898179352283478,0.16940611600875854,-0.15472644567489624,-0.011389210820198059,2.014188289642334,-1.101455569267273,1.7514832019805908,1.4114235835101854,0.7231383670373374,-1.9069941659200838
1687014258.274104,0.6600046157836914,-0.7480177879333496,-0.06973810493946075,0.12451082468032837,-0.07861185073852539,0.10492491722106934,2.052841901779175,-0.4964182376861572,2.521730899810791,1.465523882882153,0.8450702829697151,-2.039143950214282
1687014258.357131,0.5563699007034302,-0.8305379748344421,-0.025675414130091667,0.1978721022605896,-0.15704131126403809,0.1438853144645691,0.9504052996635437,-0.13048125803470612,2.6828598976135254,1.5246809427774444,0.9800729154634196,-2.1373364627043148
1687014258.477734,0.4372805058956146,-0.8993210196495056,0.0027429726906120777,0.36244794726371765,0.09065103530883789,0.062305331230163574,0.7321676015853882,-0.10401751846075058,2.82143235206604,1.5770690430875516,1.1182143659829844,-2.197841895106623
1687014258.48955,0.30137571692466736,-0.9514199495315552,0.063030906021595,0.2511450946331024,0.005771756172180176,0.12871110439300537,1.7482342720031738,0.22283561527729034,3.1075971126556396,1.7769684802417882,1.257815259032918,-2.412616794430553
1687014258.53704,0.1516568660736084,-0.9803187847137451,0.12639455497264862,0.24601778388023376,-0.013898253440856934,0.033639684319496155,0.7144148945808411,0.3459148406982422,3.0679495334625244,2.2655884075332833,1.3720698127964484,-2.9004704045894263
1687014258.54041,-0.0033266767859458923,-0.9879920482635498,0.1544695794582367,0.28491243720054626,-0.02795344591140747,0.09029674530029297,0.581176221370697,0.399809330701828,3.0936412811279297,-3.1200598530688053,1.4156701062687693,2.4886416213228926
1687014258.5438352,-0.15733292698860168,-0.9739301800727844,0.16342192888259888,0.2508388161659241,-0.1027301549911499,-0.04803486168384552,0.07381187379360199,0.3181479275226593,3.168144702911377,-2.375175559276001,1.3419563959242151,1.7546930246655004
1687014258.5959358,-0.30192166566848755,-0.9348130822181702,0.18699635565280914,-0.015354186296463013,-0.17010623216629028,0.009292811155319214,0.08140862733125687,0.32726597785949707,2.791891098022461,-2.125325175144323,1.2077323455115718,1.4968121349194818
1687014258.652673,-0.4430643916130066,-0.8802999258041382,0.16960462927818298,0.16749075055122375,-0.21956872940063477,0.054760679602622986,0.20243629813194275,0.1612267643213272,3.287912368774414,-1.9363869455201408,1.0764940857271308,1.3059818450195442
1687014258.720401,-0.5769743323326111,-0.7996535897254944,0.1662972867488861,-0.0019593238830566406,-0.1543717384338379,0.09363627433776855,-0.30703476071357727,0.2990579605102539,3.239849090576172,-1.8514138410239929,0.9267180920634108,1.218977824641201
1687014258.775391,-0.7016541957855225,-0.693415641784668,0.16387851536273956,0.023111164569854736,-0.13763904571533203,-0.010207191109657288,0.7067257165908813,0.3012174963951111,3.2389538288116455,-1.8002434308435284,0.7662187162947499,1.1703478711976298
1687014258.927377,-0.8044089674949646,-0.5749629139900208,0.14947868883609772,0.19054800271987915,-0.24435776472091675,0.009304389357566833,-0.6965411901473999,0.42905837297439575,3.030313730239868,-1.7545249394456022,0.6125588008525764,1.131604133763724
1687014258.9401898,-0.8836644887924194,-0.4544191360473633,0.11242912709712982,0.1595739722251892,-0.072512686252594,0.04188310354948044,-0.5901255011558533,0.4927225708961487,2.843891143798828,-1.6973469640877217,0.4717200121949752,1.0641353454603542
1687014259.022886,-0.9377608895301819,-0.3386220932006836,0.07706747204065323,0.25404518842697144,-0.1681680977344513,0.008793823421001434,-1.0159566402435303,0.39472898840904236,2.407266616821289,-1.6527944852324292,0.34545208903699026,1.0123147321214634
1687014259.027944,-0.970383882522583,-0.23712173104286194,0.04613664001226425,0.4283459186553955,0.05209358036518097,0.01047360897064209,-0.6582016348838806,0.2983669340610504,2.0584876537323,-1.6183052797029578,0.23940200794411162,0.9578744068738032
1687014259.03216,-0.9893018007278442,-0.14436104893684387,0.02102249301970005,0.31564152240753174,0.017331570386886597,0.04700124263763428,-0.5087143778800964,0.6000967621803284,1.7858688831329346,-1.59204295747562,0.14486723188577522,0.9289498924567997
1687014259.0740309,-0.998063862323761,-0.06135394424200058,-0.01021384447813034,0.3354966640472412,0.06045360118150711,0.03354460000991821,-0.9888854026794434,0.46389147639274597,1.5707112550735474,-1.5605630260044416,0.061392503790896634,0.8833695752779473
1687014259.198215,-0.9993913173675537,0.018085846677422523,-0.029835447669029236,0.19290322065353394,0.06321289390325546,0.0908554196357727,0.1498485803604126,0.4008939564228058,1.5672918558120728,-1.5409515710115815,-0.01808683225722236,0.8672771732115151
1687014259.2114348,-0.9947216510772705,0.09015363454818726,-0.04900214448571205,0.10937619209289551,-0.0019426345825195312,0.08473831415176392,0.005644271150231361,0.37261998653411865,1.402214765548706,-1.5215739505552184,-0.09027620454503003,0.8804871027552064
1687014259.2871141,-0.9856562614440918,0.1563575267791748,-0.0635138750076294,-0.1367497444152832,-0.08877643942832947,0.11156386882066727,-0.984002411365509,0.4375759959220886,1.306036114692688,-1.5064471332361593,-0.15700173863078445,0.8549767000776562
1687014259.294392,-0.971674919128418,0.2247830331325531,-0.0729416161775589,-0.004231512546539307,-0.09795205295085907,-0.034434378147125244,0.18013125658035278,0.1964864879846573,1.4221205711364746,-1.495868938362894,-0.22672036171839946,0.837480081636373
1687014259.3794909,-0.9506317973136902,0.2974493205547333,-0.08844922482967377,-0.04324948787689209,-0.17106083035469055,0.031152546405792236,0.0318341962993145,0.33474022150039673,1.626565933227539,-1.478020857751124,-0.30201992189166593,0.8557358847011414
1687014259.394028,-0.9219812750816345,0.37559014558792114,-0.09424759447574615,0.056823134422302246,-0.17168700695037842,-0.010870099067687988,-0.8093448877334595,0.15952348709106445,1.6300015449523926,-1.4689272766539778,-0.38503347221182527,0.8420846257655176
1687014259.471997,-0.8875251412391663,0.4516583979129791,-0.09112595021724701,0.14767217636108398,-0.1094801127910614,0.005188465118408203,0.0694991946220398,0.12752294540405273,1.7532230615615845,-1.4684806428677415,-0.4686232557617679,0.8279221808226823
1687014259.477283,-0.8443024754524231,0.5263950228691101,-0.10030900686979294,0.22009575366973877,-0.09472388029098511,0.009854957461357117,0.22412757575511932,0.024324746802449226,1.7542580366134644,-1.4525436733192414,-0.5543550559064395,0.8529217447436406
1687014259.5576038,-0.7987027764320374,0.5925057530403137,-0.10493327677249908,0.13886690139770508,0.026390671730041504,0.027937471866607666,0.28404584527015686,-0.040883373469114304,1.5685917139053345,-1.4401648605203792,-0.6341658298049697,0.878653060099473
1687014259.570982,-0.7524975538253784,0.6480279564857483,-0.11750387400388718,0.12081414461135864,0.007214844226837158,0.01205039769411087,0.4582945704460144,0.07604847848415375,1.4098438024520874,-1.4158954095537801,-0.7049922867057558,0.9139335531646186
1687014259.613326,-0.7082274556159973,0.6930689811706543,-0.13442204892635345,0.16890549659729004,0.09304851293563843,-0.051963984966278076,0.35498884320259094,0.033795300871133804,1.2156891822814941,-1.383226774011073,-0.7657377503580483,0.9564379010048806
1687014259.7379088,-0.6692129969596863,0.7292771935462952,-0.1425093710422516,0.09603172540664673,0.07872146368026733,-0.06632240116596222,0.015487226657569408,0.027812598273158073,0.976267397403717,-1.3609797577277323,-0.817264964628308,0.985148805109579
1687014259.745053,-0.6405778527259827,0.7549702525138855,-0.14028513431549072,0.01977396011352539,0.16292214393615723,-0.1254008412361145,-0.0699668675661087,-0.07094522565603256,0.5694237351417542,-1.3552021630017648,-0.8556087825662128,0.9924145573354118
1687014259.8281689,-0.6271569728851318,0.7659925818443298,-0.14117194712162018,0.040380239486694336,0.1759324073791504,-0.08355937898159027,0.20980246365070343,-0.14210596680641174,0.18979252874851227,-1.349388360732733,-0.8725839109012073,1.009333661594808
1687014259.841604,-0.6279608607292175,0.7654412388801575,-0.14058701694011688,0.06179875135421753,0.1280369758605957,-0.060279592871665955,0.08992443978786469,-0.1678658127784729,-0.17793981730937958,-1.3505494914569176,-0.8717267701309013,1.0160362468221058
1687014259.920908,-0.6378040909767151,0.7568336129188538,-0.14285919070243835,0.026918411254882812,0.004503488540649414,0.05046732723712921,0.27759090065956116,-0.06178785488009453,-0.2506718933582306,-1.350447220063579,-0.8584549826948991,1.025927056910526
1687014259.926394,-0.645451009273529,0.7490419149398804,-0.149430051445961,0.052295982837677,-0.06436485052108765,0.07481461763381958,-0.041363805532455444,0.0527549646794796,-0.16645759344100952,-1.3432917886149902,-0.8466148103746086,1.0348222463698475
1687014260.008136,-0.6514875292778015,0.7436482310295105,-0.1501711905002594,-0.02214229106903076,-0.033336341381073,0.021524429321289062,0.07808194309473038,0.06184575706720352,-0.15364718437194824,-1.3442482673799871,-0.8385106659028139,1.0297261714560721
1687014260.021538,-0.6546664834022522,0.7400296926498413,-0.15416856110095978,-0.05167818069458008,0.000280916690826416,-0.01125192642211914,-0.0954420417547226,0.07868332415819168,-0.08804894238710403,-1.3395184061428538,-0.833114539544201,1.0308211098143851
1687014260.06432,-0.6583823561668396,0.7370007038116455,-0.1528482288122177,-0.0240822434425354,0.003111541271209717,-0.021208688616752625,0.049077633768320084,0.04367988929152489,-0.08206687867641449,-1.342680049308437,-0.8286219838772613,1.0237834329368196
1687014260.1591868,-0.6602585911750793,0.7345221042633057,-0.15663906931877136,-0.02399134635925293,-0.016138434410095215,-0.012962326407432556,-0.12609648704528809,0.08053208887577057,-0.058312419801950455,-1.3378636300430433,-0.8249621641548673,1.024764615167262
1687014260.174083,-0.6623854041099548,0.732999861240387,-0.15478073060512543,0.003938019275665283,-0.0031108856201171875,-0.020100250840187073,0.05392733961343765,0.04064512997865677,-0.046212613582611084,-1.341243524361134,-0.8227215913145774,1.0160562213947617
1687014260.213701,-0.664498507976532,0.7297478914260864,-0.16096457839012146,0.009576022624969482,0.008853673934936523,0.004073813557624817,0.038027290254831314,0.013448307290673256,-0.0724981501698494,-1.3331394555661815,-0.8179531627818057,1.023870667692102
1687014260.30884,-0.6686840653419495,0.7265854477882385,-0.1579085737466812,-0.007463395595550537,-0.0009233355522155762,0.01905365288257599,-0.022235119715332985,-0.038115549832582474,-0.1227138414978981,-1.3388964861288652,-0.8133391427281728,1.0175267145760656
1687014260.32403,-0.6730095148086548,0.7225456833839417,-0.15806975960731506,0.023854732513427734,0.00946420431137085,0.010502040386199951,-0.07524680346250534,-0.010581129230558872,-0.13369080424308777,-1.3401075446924342,-0.8074775661625823,1.0174448752014684
1687014260.364254,-0.6817075610160828,0.7150437831878662,-0.15487763285636902,0.02690708637237549,0.06376469135284424,-0.0053548663854599,0.06727465242147446,-0.05625513941049576,-0.33077123761177063,-1.3473976963502772,-0.7966867550398683,1.0105195022253415
1687014260.4905071,-0.695700466632843,0.7021868228912354,-0.15144142508506775,0.11438637971878052,0.0787883996963501,-0.08593951165676117,-0.18204985558986664,-0.062057990580797195,-0.47124794125556946,-1.3564581537542435,-0.7784643145054341,1.0018190813927272
1687014260.5051842,-0.7166175842285156,0.68387770652771,-0.1370055377483368,0.09610360860824585,0.145696759223938,-0.07538150250911713,-0.3816303014755249,-0.08851321041584015,-0.7652379274368286,-1.3818922476594162,-0.7530643483762277,0.9704521379550276
1687014260.5788321,-0.7470199465751648,0.6532815098762512,-0.12322529405355453,0.1244155764579773,0.07711082696914673,-0.053074710071086884,-0.31243205070495605,-0.06450881063938141,-0.9992144703865051,-1.4073127145493456,-0.7119106425204965,0.9393925213886765
1687014260.5927758,-0.7818946838378906,0.6131706237792969,-0.1125277727842331,0.09265512228012085,0.07394784688949585,0.0004367828369140625,-0.23421524465084076,0.0016876102890819311,-1.2050459384918213,-1.427860978392054,-0.6600681025769466,0.908602948593639
1687014260.672226,-0.8194143772125244,0.5631402134895325,-0.10692650824785233,0.09681910276412964,0.020310044288635254,-0.010703444480895996,-0.25075480341911316,-0.01873084530234337,-1.3454902172088623,-1.4410381432487291,-0.5981809708859529,0.8866713159912166
1687014260.6792111,-0.855400800704956,0.508220374584198,-0.10000881552696228,0.05622154474258423,-0.015742957592010498,-0.0018435269594192505,-0.2720774710178375,0.0014184534084051847,-1.374682903289795,-1.4544101346271996,-0.533117173938042,0.8612853325570675
1687014260.787533,-0.8886617422103882,0.4490896165370941,-0.09272988140583038,0.06857806444168091,-0.04325166344642639,-0.003415703773498535,-0.12353350967168808,-0.12334149330854416,-1.378172755241394,-1.4668248171988965,-0.4657461573520133,0.8414605980762806
1687014260.794477,-0.916968047618866,0.3902982175350189,-0.08268659561872482,0.05841696262359619,-0.0703977644443512,0.011733293533325195,-0.30472174286842346,-0.13734377920627594,-1.2779169082641602,-1.4808656397220639,-0.40095547993526304,0.8232578867248375
1687014260.879606,-0.9396079778671265,0.33492511510849,-0.07044283300638199,0.02023535966873169,-0.08829736709594727,-0.0027840733528137207,-0.1648675799369812,-0.17485040426254272,-1.1697566509246826,-1.4959658663198472,-0.34152574179342776,0.8044443902870089
1687014260.894062,-0.9580926299095154,0.27973201870918274,-0.061713311821222305,-0.01099306344985962,-0.1259082555770874,0.04997938871383667,0.11343784630298615,-0.11862698942422867,-0.9572951197624207,-1.5064725131018977,-0.28351498568612504,0.8016458113017432
1687014260.971209,-0.9696807861328125,0.23883678019046783,-0.05173241347074509,0.004379212856292725,-0.0701662003993988,0.00017303228378295898,-0.11892756819725037,-0.24554623663425446,-0.7544140219688416,-1.5174969138204344,-0.24116778382125287,0.7951840066114243
1687014260.9782119,-0.977898895740509,0.20464329421520233,-0.042835794389247894,-0.025503814220428467,-0.0702439546585083,0.03216993808746338,0.1504601389169693,-0.1267728954553604,-0.6582950949668884,-1.5270204031808305,-0.20609928189854632,0.7975050425311025
1687014261.059618,-0.9840421676635742,0.1742309331893921,-0.03611768037080765,0.008837759494781494,-0.05835577845573425,0.034790221601724625,0.13804306089878082,-0.13693569600582123,-0.5966287851333618,-1.5341094080033146,-0.17512470414858636,0.8040902236286497
1687014261.075355,-0.9889488816261292,0.14435957372188568,-0.033768896013498306,0.052806973457336426,0.007587343454360962,0.04272586479783058,-0.021871641278266907,0.00849420577287674,-0.5948626399040222,-1.5366633389932667,-0.1448657364052284,0.8041373161873347
1687014261.147469,-0.9929143190383911,0.11373856663703918,-0.03441686928272247,0.07404541969299316,0.0005801916122436523,0.01645732671022415,0.06497643887996674,0.01603068597614765,-0.6749001145362854,-1.5361477243358077,-0.11398523627891033,0.8031991252243513
1687014261.162013,-0.9962881207466125,0.07752810418605804,-0.037407901138067245,0.12553012371063232,0.01892261952161789,0.0016413964331150055,0.3306858241558075,0.03018875978887081,-0.7586230635643005,-1.533266682248109,-0.07760598248787022,0.8116692761366427
1687014261.203068,-0.998635470867157,0.03675547242164612,-0.0371001772582531,-0.017279505729675293,0.03412153199315071,0.038366734981536865,0.5675671100616455,0.014782994985580444,-0.9222104549407959,-1.5336625342738492,-0.03676375420572899,0.8361818438617924
1687014261.268506,-0.9992759823799133,-0.010561470873653889,-0.036552250385284424,0.19738084077835083,-0.07890088111162186,-0.0035935640335083008,0.009829562157392502,-0.14331449568271637,-0.8205706477165222,-1.5342338935159467,0.010561666820759362,0.8441282968186195
1687014261.359797,-0.9977935552597046,-0.055736880749464035,-0.03607255592942238,0.12247323989868164,0.02070261538028717,-0.06484895944595337,0.17184686660766602,-0.011478348635137081,-0.9985519647598267,-1.5346597404877553,0.05576577969222275,0.8472479826382813
1687014261.375977,-0.9939925670623779,-0.10595717281103134,-0.02742144465446472,-0.07865452766418457,0.03450018912553787,-0.017164647579193115,0.2931252419948578,-0.07394944876432419,-1.11355459690094,-1.5432161498116594,0.1061564415143819,0.8603459307617859
1687014261.446768,-0.9854660630226135,-0.1684790998697281,-0.021710004657506943,0.2295762300491333,0.03156192600727081,-0.03805863857269287,0.12288128584623337,-0.2650577127933502,-1.3635671138763428,-1.5487696994915703,0.16928650209843052,0.865568211898687
1687014261.460526,-0.9713191390037537,-0.23769055306911469,-0.006512973923236132,-0.004449963569641113,0.04457525908946991,-0.009356081485748291,0.3619363307952881,-0.118171326816082,-1.615814208984375,-1.5640911397224666,0.2399875688325398,0.8808665490979666
1687014261.504087,-0.9474222660064697,-0.3198651671409607,0.008786049671471119,0.20996510982513428,0.034983545541763306,0.02728581428527832,0.4408271312713623,-0.389524906873703,-1.7468222379684448,-1.5800696973644954,0.3255871650328343,0.8977829248340141
1687014261.599987,-0.912268340587616,-0.40900230407714844,0.02198699861764908,0.271689236164093,-0.026163160800933838,0.039734840393066406,0.18489032983779907,0.023818301036953926,-2.0936522483825684,-1.5948931198173266,0.4213604765550769,0.9216884127742295
1687014261.615963,-0.8667698502540588,-0.49753621220588684,0.034174226224422455,-0.1722620725631714,-0.01728019118309021,0.056493520736694336,0.33592933416366577,0.020993132144212723,-2.082434892654419,-1.6102030193856232,0.5207561582945893,0.9339867494411032
1687014261.6538649,-0.8080565333366394,-0.5875905156135559,0.0422138050198555,0.23609614372253418,-0.10142016410827637,0.0053021907806396484,0.33823519945144653,-0.17996181547641754,-2.1247482299804688,-1.6229900323303696,0.6280778358994451,0.9629501028287011
1687014261.754504,-0.741791307926178,-0.6693167090415955,0.041960809379816055,0.02156132459640503,-0.12902313470840454,0.05246066674590111,-0.505620539188385,0.19714917242527008,-2.2124245166778564,-1.6273029763479163,0.7332887703584325,0.9718264373765304
1687014261.762766,-0.6675772666931152,-0.7442176938056946,0.021918397396802902,-0.20472180843353271,-0.043639302253723145,0.03389834985136986,0.0525440014898777,0.4168097972869873,-2.098677396774292,-1.6036172855637647,0.839362892780425,0.9500563096292309
1687014261.804328,-0.5902835726737976,-0.8068268895149231,0.024407509714365005,-0.03424328565597534,-0.1558501124382019,0.10539913177490234,0.09241897612810135,0.006193500943481922,-1.8936402797698975,-1.6121215703648748,0.9387612981606607,0.9730071404828786
1687014261.89973,-0.5121254324913025,-0.8588990569114685,0.0044741155579686165,0.030146121978759766,-0.11307060718536377,0.003231644630432129,-0.3257751166820526,0.3605853319168091,-1.8217564821243286,-1.5795324714169827,1.0331160960418526,0.955435619444272
1687014261.915297,-0.4381408989429474,-0.8988885283470154,-0.005649549420922995,0.03111279010772705,-0.07417970895767212,0.004520476330071688,0.01403984148055315,-0.05597728490829468,-1.5887031555175781,-1.5579026752964773,1.1172263108692266,0.9355492770998455
1687014261.954793,-0.36260730028152466,-0.9319416880607605,0.0010190056636929512,-0.028963714838027954,0.006740093231201172,0.07599222660064697,0.05595604330301285,0.13241562247276306,-1.6845332384109497,-1.573606537612671,1.199731237481188,0.9555582385486205
1687014262.110269,-0.2832368016242981,-0.9590058326721191,-0.009197039529681206,-0.004635423421859741,-0.029550015926361084,0.018459200859069824,-0.1822817325592041,0.2867150902748108,-1.6908628940582275,-1.538336530364628,1.2834730346850354,0.933455810262751
1687014262.126652,-0.19391387701034546,-0.9807739853858948,-0.021906806156039238,-0.05674217641353607,0.008712828159332275,0.07442760467529297,-0.19591756165027618,0.34793785214424133,-1.9146571159362793,-1.4583014498993265,1.3743889470392536,0.8645289884475689
1687014262.2328038,-0.10322608053684235,-0.9942328929901123,-0.02907608635723591,0.06221053749322891,-0.034194231033325195,0.014992296695709229,0.016636379063129425,0.534336268901825,-1.8072599172592163,-1.29623615374011,1.4633469759963165,0.7237929895029874
1687014262.293937,-0.01313069835305214,-0.9993412494659424,-0.03382927551865578,0.030357934534549713,-0.013460755348205566,0.03550780192017555,-0.2865884006023407,0.3737694025039673,-1.8185350894927979,-0.37024583378796483,1.5344967882546234,-0.17944202443705698
1687014262.3096042,0.08200018107891083,-0.9957104325294495,-0.04286026209592819,0.06420961022377014,0.09840196371078491,0.036070164293050766,0.07855678349733353,0.43830087780952454,-1.9974228143692017,1.0891658803029063,1.4781396473031667,-1.6212602380879553
1687014262.313116,0.1842108815908432,-0.9824149012565613,-0.030451137572526932,-0.007376715540885925,-0.025870561599731445,-0.0053001027554273605,0.1627155989408493,0.31301724910736084,-2.08475923538208,1.406971973174018,1.38298332894163,-1.924599178100626
1687014262.341617,0.2882206439971924,-0.9574292898178101,-0.016055632382631302,0.1119106113910675,0.01332235336303711,0.022159220650792122,0.3054114580154419,0.3738158047199249,-2.1961987018585205,1.515147799108336,1.2779610468023923,-2.0156107256867632
1687014262.4118772,0.390150249004364,-0.9205902218818665,-0.017220329493284225,-0.02575504779815674,-0.08244627714157104,0.020607829093933105,-0.5910258293151855,0.29398515820503235,-2.233752489089966,1.5266872685700539,1.1695891738541908,-2.016598616735511
1687014262.426039,0.48979368805885315,-0.8712838888168335,-0.03109106980264187,0.16045966744422913,-0.081795334815979,-0.08841568231582642,-0.3797071576118469,0.34018638730049133,-2.0721025466918945,1.5074034898570339,1.0578122835683808,-1.9666812051062985
1687014262.429686,0.5748624205589294,-0.8172757625579834,-0.039919689297676086,-0.03988921642303467,-0.11274737119674683,-0.0008364319801330566,-0.4355448782444,0.4776701331138611,-1.9341243505477905,1.501465461314042,0.9566675383546447,-1.944150277202323
1687014262.464242,0.6435215473175049,-0.7637930512428284,-0.05000218376517296,0.08517724275588989,-0.16182029247283936,-0.02963334321975708,-0.6910013556480408,0.1739245355129242,-1.5986794233322144,1.4932512638650364,0.8691693421577168,-1.9123395454147476
1687014262.524788,0.7005175352096558,-0.7100156545639038,-0.07178278267383575,0.04389774799346924,-0.13097238540649414,-0.11147516220808029,-1.3184014558792114,0.5337059497833252,-1.3769975900650024,1.4686816712555746,0.7895204753063422,-1.8460144038375539
1687014262.586803,0.7477100491523743,-0.6566690802574158,-0.09856756031513214,-0.031035184860229492,-0.03307396173477173,-0.003727257251739502,-0.957673192024231,0.457331120967865,-1.3675317764282227,1.439726175504203,0.7163935904026462,-1.7775872466737637
1687014262.648983,0.7899124026298523,-0.6031714677810669,-0.11055606603622437,0.10451209545135498,-0.05571824312210083,-0.06878042221069336,-0.7451051473617554,0.04172024875879288,-1.1880251169204712,1.431739708994581,0.6474714021771991,-1.7334001311530753
1687014262.743077,0.8254042863845825,-0.5525462627410889,-0.11575990170240402,-0.030879199504852295,-0.03358954191207886,0.03478159010410309,-0.41925153136253357,0.4164762794971466,-1.1583342552185059,1.4314588250216451,0.5854161006100137,-1.7147572104700965
1687014262.759584,0.8544464707374573,-0.5044131278991699,-0.1244540736079216,0.029083251953125,-0.08582735061645508,0.03425943851470947,-1.3171699047088623,0.32810524106025696,-0.9657260775566101,1.426158827102406,0.5287021238336618,-1.6718918595755474
1687014262.794065,0.8781142234802246,-0.4596068859100342,-0.13295480608940125,0.01721048355102539,-0.024676531553268433,0.030003845691680908,-0.7010612487792969,0.40362459421157837,-0.809322714805603,1.4205282208994732,0.4775525149617125,-1.6219277407650075
1687014262.8922381,0.8966748714447021,-0.4222177267074585,-0.13306501507759094,0.007896602153778076,-0.08785301446914673,-0.0036994069814682007,-0.948735773563385,0.4080415368080139,-0.6507658958435059,1.423473206231131,0.43589041851606275,-1.5822275864638353
1687014262.898979,0.9108149409294128,-0.3910765051841736,-0.13219374418258667,0.018887817859649658,-0.06548166275024414,-0.06214207410812378,-0.7841358184814453,0.3673522174358368,-0.48403090238571167,1.4266648697061481,0.40180097738526144,-1.5404993458807374
1687014262.948554,0.9208983778953552,-0.3659949004650116,-0.13414232432842255,-0.02995288372039795,-0.06878900527954102,-0.06887578964233398,-0.7650060057640076,0.20740731060504913,-0.4062483012676239,1.4261490144960247,0.37470165882688566,-1.5008014172779365
1687014263.076037,0.9287429451942444,-0.3457755446434021,-0.13370120525360107,0.027723848819732666,-0.0686379075050354,-0.07714463770389557,-0.46699288487434387,0.2172965109348297,-0.2329878807067871,1.4278193014233953,0.35306519729290203,-1.4719361190935205
1687014263.092063,0.9319413900375366,-0.3362724184989929,-0.13566932082176208,-0.05507981777191162,-0.029068738222122192,-0.04877883195877075,-0.26930901408195496,0.07771269232034683,-0.15161021053791046,1.4262347379478377,0.3429560101252235,-1.4549383219547594
1687014263.160325,0.9345906376838684,-0.32870009541511536,-0.1360030323266983,0.03470879793167114,-0.03983020782470703,-0.010588064789772034,-0.29309430718421936,0.00218819547444582,-0.10165996104478836,1.4262891730879161,0.334926853388678,-1.4432528086053675
1687014263.176238,0.9354878067970276,-0.32409825921058655,-0.14079298079013824,-0.02508753538131714,0.0050980448722839355,-0.034728750586509705,-0.21754935383796692,0.003230024129152298,-0.06630123406648636,1.4214152609577275,0.33005837917434877,-1.4290831223332996
1687014263.248108,0.9356331825256348,-0.3237369954586029,-0.14065971970558167,0.01344841718673706,0.04079324007034302,-0.0031848102807998657,0.23315799236297607,-0.0008572177030146122,0.021566567942500114,1.4215774077481,0.3296765305826394,-1.431419529690026
1687014263.262449,0.9358888864517212,-0.32321897149086,-0.14014814794063568,0.005517363548278809,-0.05342894792556763,0.022060468792915344,-0.14652808010578156,0.01123220194131136,-0.026671936735510826,1.4221521486431932,0.32912908511383693,-1.4334219739482967
1687014263.3077111,0.9365417957305908,-0.3200523257255554,-0.14302387833595276,-0.030703842639923096,0.0014183521270751953,-0.033520206809043884,-0.1968240588903427,0.005312172695994377,-0.008767969906330109,1.4192522905284364,0.3257847314710088,-1.423622892422809
1687014263.401833,0.9364450573921204,-0.32010817527770996,-0.1435314416885376,0.019807934761047363,0.003824084997177124,-0.0010607093572616577,0.21881215274333954,-0.03409675136208534,-0.024372030049562454,1.4187072589925986,0.3258436799588009,-1.4249520236221964
1687014263.417496,0.9365361332893372,-0.3194567561149597,-0.14438700675964355,-0.002743959426879883,-0.025834381580352783,0.0022515058517456055,-0.02642928808927536,-0.041872382164001465,0.0006040269508957863,1.4178293789461465,0.32515614221845274,-1.4284616560719696
1687014263.484482,0.9361899495124817,-0.32128575444221497,-0.14256079494953156,0.02517467737197876,0.012234270572662354,-0.014833495020866394,0.3574914336204529,-0.07587171345949173,0.026737825945019722,1.4196796051775977,0.3270869049921532,-1.4383093014915964
1687014263.489725,0.9349880218505859,-0.3253491222858429,-0.14122824370861053,-0.03415483236312866,-0.007734954357147217,-0.01648646593093872,0.18298012018203735,-0.023599904030561447,0.029438339173793793,1.4208814090737993,0.3313809286456492,-1.4521405712939202
1687014263.582109,0.9342910647392273,-0.32757511734962463,-0.14069342613220215,0.02638697624206543,0.03311106562614441,-0.019493207335472107,0.42037373781204224,-0.10884831100702286,0.013331606052815914,1.4213309420529128,0.3337359347042762,-1.4656053095348631
1687014263.597786,0.9330735206604004,-0.3317926824092865,-0.13888019323349,-0.01812589168548584,-0.012582957744598389,-0.06259675323963165,0.4914376735687256,-0.17130236327648163,0.00390501506626606,1.423039436667543,0.33820326348276836,-1.4909854143831793
1687014263.632866,0.9309801459312439,-0.33766546845436096,-0.13877323269844055,-0.0061907172203063965,0.022724062204360962,-0.051137566566467285,0.9414058923721313,-0.260158896446228,0.03855067864060402,1.4228244277095148,0.34443558926235446,-1.5262672423434336
1687014263.6949081,0.9275543689727783,-0.3475736975669861,-0.13724340498447418,0.010418832302093506,-0.028433412313461304,-0.08059097826480865,0.8780798316001892,-0.384173721075058,0.08518049865961075,1.4238994782335195,0.3549822135963769,-1.576035120563623
1687014263.7935328,0.9219186305999756,-0.36119890213012695,-0.14000554382801056,-0.038785576820373535,-0.013312846422195435,-0.11625047028064728,1.164233922958374,-0.5276923775672913,0.2034517526626587,1.420084648783477,0.36955326810859607,-1.6264758793505647
1687014263.810246,0.913479208946228,-0.3827515244483948,-0.1380472183227539,0.13609659671783447,-0.05793753266334534,0.028687596321105957,1.4456783533096313,-0.5154551267623901,0.31497594714164734,1.4208088075373946,0.3927727736489613,-1.6968648419329089
1687014263.878701,0.9039523005485535,-0.4046687185764313,-0.13825173676013947,-0.01943075656890869,-0.09652140736579895,-0.03539317846298218,1.3016278743743896,-0.5931174159049988,0.28043755888938904,1.4190309461072346,0.41661654360205946,-1.7662472114512178
1687014263.891461,0.8923854231834412,-0.4313368499279022,-0.1326533555984497,-0.05302995443344116,-0.08895730972290039,0.021905124187469482,1.461012840270996,-0.4332423806190491,0.5909654498100281,1.4232266470133352,0.4459740282604093,-1.8365697291502463
1687014263.933975,0.873653769493103,-0.4714949131011963,-0.12009024620056152,0.10953110456466675,-0.09529274702072144,-0.003826320171356201,1.4500833749771118,-0.5138946175575256,0.6935765743255615,1.4341948942908098,0.4909851859213242,-1.913094738151839
1687014264.031157,0.85512375831604,-0.506115734577179,-0.1122949868440628,-0.01662278175354004,-0.137270987033844,-0.004007391631603241,0.9791878461837769,-0.41732075810432434,0.7108669281005859,1.4402233196377554,0.5306751194061776,-1.9726355842858654
1687014264.047748,0.8286901116371155,-0.5523976683616638,-0.0901644378900528,0.0918574333190918,-0.07333475351333618,0.03291356563568115,1.7168686389923096,-0.28465768694877625,1.1885589361190796,1.4624190790509095,0.5852378184622148,-2.0449195448502318
1687014264.085813,0.7899986505508423,-0.6108947396278381,-0.05205753818154335,0.0015358328819274902,-0.10375064611434937,-0.024541497230529785,1.453281283378601,-0.06554833054542542,1.4238970279693604,1.5049957254427564,0.6571901997832011,-2.137149746509532
1687014264.180317,0.7383654117584229,-0.6743897199630737,0.0038866582326591015,0.19721204042434692,-0.02803337574005127,0.14242994785308838,2.227259635925293,0.13276103138923645,1.9061640501022339,1.576060146184638,0.7401378498136627,-2.243450011285954
1687014264.196381,0.6686310172080994,-0.7388174533843994,0.08415165543556213,0.05196535587310791,-0.11085289716720581,0.017914414405822754,1.2352029085159302,0.34391748905181885,1.9030615091323853,1.6959946934919767,0.831313937709836,-2.3968874041515
1687014264.2330441,0.5894588232040405,-0.7969717383384705,0.13181114196777344,0.11116379499435425,-0.037149786949157715,0.13515673577785492,1.0477936267852783,0.7044008374214172,2.2372992038726807,1.790791006564868,0.922264949762339,-2.4859513997639318
1687014264.36011,0.4821745753288269,-0.854234516620636,0.1943999081850052,0.26172199845314026,-0.1278974413871765,-0.01640605926513672,0.3314740061759949,0.864708662033081,2.5893900394439697,1.954035312162715,1.0240766374261732,-2.6354362680550447
1687014264.3777041,0.3513449430465698,-0.9085018634796143,0.22623226046562195,0.20793551206588745,-0.014807343482971191,0.17170177400112152,0.8454275727272034,1.1367155313491821,2.979043960571289,2.1428738705201,1.1396849526710182,-2.7895866885383196
1687014264.4470959,0.20548227429389954,-0.9436958432197571,0.2592591643333435,0.20470455288887024,-0.09802168607711792,-0.02579963207244873,-0.4413772523403168,1.0030643939971924,2.8229880332946777,2.4713957107522067,1.233629924394556,-3.0887935288881314
1687014264.461263,0.05193517729640007,-0.9643552899360657,0.2594645023345947,0.1573239266872406,-0.12985247373580933,0.0011862516403198242,0.4514869153499603,0.7786634564399719,3.0844430923461914,2.9440404207005333,1.3029959298640776,2.7509541865780345
1687014264.536426,-0.10354594886302948,-0.959940493106842,0.2603701651096344,0.10282885283231735,-0.10538238286972046,0.014532208442687988,-0.3422200381755829,0.5648486018180847,3.129624128341675,-2.7630814602836473,1.2867898099969237,2.1863847160587366
1687014264.551365,-0.26345095038414,-0.9313834309577942,0.25123411417007446,0.1748889982700348,-0.20954680442810059,0.03929328918457031,-0.30468493700027466,0.6494511365890503,3.19803524017334,-2.3324624232136117,1.1981947182986714,1.7708548240429252
1687014264.627517,-0.4144115447998047,-0.8863165974617004,0.2066548615694046,-0.1262531578540802,-0.10739690065383911,-0.016270846128463745,-0.7988004684448242,0.7253424525260925,3.0783591270446777,-2.0333798707066095,1.0893294400668296,1.4732392816295126
1687014264.641574,-0.550118625164032,-0.8136999607086182,0.18778197467327118,0.11534988880157471,-0.025274157524108887,0.04625740647315979,0.609078586101532,0.47660520672798157,2.9268383979797363,-1.8997427970044611,0.9504892324172788,1.352495503072555
1687014264.683477,-0.6601917147636414,-0.7276200652122498,0.18632256984710693,0.13678479194641113,-0.20371544361114502,0.07750201225280762,-0.45489785075187683,0.4728989899158478,2.727846145629883,-1.8458670254783434,0.814846154255511,1.3153747613210585
1687014264.81199,-0.7546793818473816,-0.6380751132965088,0.15270580351352692,0.12993896007537842,-0.03686690330505371,-0.011363521218299866,-0.23994103074073792,0.4821074604988098,2.448596954345703,-1.7704459297076953,0.6919957199689286,1.239390523354949
1687014264.82941,-0.8231654167175293,-0.5530977845191956,0.12838047742843628,0.10389667749404907,0.04299640655517578,0.144156813621521,-0.18359577655792236,0.6074269413948059,1.9063963890075684,-1.7255094907232436,0.5860779669339633,1.2032736075245527
1687014264.895823,-0.8725224137306213,-0.4789653420448303,0.09642140567302704,0.29894447326660156,-0.12413844466209412,-0.026047810912132263,-0.2103201150894165,0.5262491703033447,1.7370258569717407,-1.6808585446268722,0.4994756760875888,1.1818822120054175
1687014264.910523,-0.9126335382461548,-0.40245598554611206,0.07162083685398102,0.13954687118530273,-0.05117267370223999,0.035572297871112823,-0.254517138004303,0.4298765957355499,1.668259859085083,-1.649112919213485,0.41419811319062566,1.1549451709462648
1687014264.9860458,-0.9433236122131348,-0.32939210534095764,0.04051411896944046,0.26920562982559204,-0.16363468766212463,0.08508110046386719,-0.6144337058067322,0.6059744954109192,1.6447463035583496,-1.6137182230496914,0.33565966970793215,1.130521991980431
1687014265.0022001,-0.9683778882026672,-0.24948817491531372,0.0001748210343066603,0.24216634035110474,-0.10375285148620605,0.11983561515808105,-0.6255338788032532,0.7948704361915588,1.756044864654541,-1.5709768565691808,0.2521516811596497,1.0964479839350851
1687014265.110848,-0.9864670634269714,-0.15913239121437073,-0.0394916906952858,0.28761452436447144,-0.14560094475746155,0.06045734882354736,-0.5966864228248596,0.6269656419754028,1.9614416360855103,-1.5307842304938954,0.15981178695733111,1.0666831918337298
1687014265.129324,-0.9955406188964844,-0.056724391877651215,-0.07537561655044556,0.21960055828094482,-0.04093192517757416,0.054074399173259735,-0.443279892206192,0.6528584361076355,2.065215587615967,-1.4952272567997065,0.05675485689902624,1.0375746176653275
1687014265.1952372,-0.9938055872917175,0.04713623970746994,-0.10064168274402618,0.18261778354644775,-0.12283515930175781,0.03444916009902954,-0.3131808042526245,0.4037303030490875,2.065882682800293,-1.4698714091642282,-0.047153710212270716,1.038639999025534
1687014265.208739,-0.9815751314163208,0.14837881922721863,-0.12039072811603546,0.09821337461471558,-0.0843530148267746,-0.002564474940299988,-0.487806499004364,0.4475660026073456,2.1048336029052734,-1.4487553058831817,-0.14892874257969474,1.0271835978756907
1687014265.286608,-0.9590888619422913,0.2506439685821533,-0.1316298544406891,0.08369195461273193,-0.016986161470413208,0.023277267813682556,0.003241034457460046,0.27310001850128174,2.081899642944336,-1.4344037392040654,-0.25334540132248506,1.0250562337744116
1687014265.301738,-0.9266298413276672,0.34542569518089294,-0.14845289289951324,0.14841634035110474,-0.08379855751991272,-0.009475469589233398,-0.34778907895088196,0.3500131070613861,2.0128297805786133,-1.411938914801318,-0.35269236147848554,1.038493589632533
1687014265.375875,-0.8865478038787842,0.4347745180130005,-0.15812624990940094,0.09853827953338623,0.07302257418632507,-0.01289418339729309,0.05759948119521141,0.3100109100341797,1.8378486633300781,-1.3942906444946497,-0.449787886711566,1.0419418532964921
1687014265.3816729,-0.8447073101997375,0.5066393613815308,-0.17258581519126892,0.07978427410125732,0.012037277221679688,-6.733834743499756e-05,0.005084785632789135,0.37306052446365356,1.562127947807312,-1.369255829649637,-0.5312824007675064,1.0618936948307172
1687014265.476809,-0.8042060136795044,0.5627560615539551,-0.191201850771904,0.13217848539352417,0.12088334560394287,-0.005361840128898621,0.41789838671684265,0.23597601056098938,1.252136468887329,-1.3373776874223609,-0.5977161630327051,1.0885140498708608
1687014265.4840798,-0.7708861827850342,0.6040835976600647,-0.20203334093093872,0.1073729395866394,0.03606832027435303,-0.012673020362854004,-0.05520172417163849,0.09056838601827621,0.962128758430481,-1.314481578356182,-0.6486154586620911,1.1145301393791325
1687014265.523222,-0.744685173034668,0.6331769227981567,-0.2110235095024109,0.0656079649925232,0.09208846092224121,0.016321450471878052,0.48246750235557556,-0.024294987320899963,0.6980063915252686,-1.2946627828215156,-0.6856508631221124,1.1431007051659299
1687014265.6188722,-0.7266376614570618,0.6487982273101807,-0.22596098482608795,0.04930001497268677,0.050054192543029785,0.02652868628501892,0.44343113899230957,-0.0356467142701149,0.4820091426372528,-1.269307871437567,-0.7060041135501175,1.1864582450691639
1687014265.6373591,-0.7139286398887634,0.6583964824676514,-0.23836898803710938,0.03970378637313843,0.06758606433868408,0.043254926800727844,0.3122555613517761,0.13426721096038818,0.29325881600379944,-1.2485506978586842,-0.7186863422050949,1.2152017328722797
1687014265.672905,-0.7043722867965698,0.6643999218940735,-0.24986475706100464,0.12292081117630005,0.06622135639190674,-0.06715178489685059,0.1532498449087143,0.08117107301950455,0.1684301793575287,-1.2299104212169225,-0.7266906474402756,1.2319301143642845
1687014265.7686749,-0.7013550400733948,0.6645597219467163,-0.2578016519546509,0.0254974365234375,0.03858053684234619,-0.037837326526641846,0.2672453224658966,-0.009797538630664349,0.039025384932756424,-1.2185497381833175,-0.7269044543323038,1.2488407209366736
1687014265.7858028,-0.7014860510826111,0.6629474759101868,-0.2615685760974884,0.0011380910873413086,0.009202122688293457,-0.014066159725189209,0.0785495936870575,-0.035668015480041504,-0.0029763267375528812,-1.2138875074778852,-0.7247489125084269,1.2581018034155373
1687014265.821045,-0.7020730376243591,0.6621358394622803,-0.2620489001274109,-0.060729146003723145,-0.02526456117630005,-0.023061513900756836,-0.005024973303079605,-0.009274316020309925,-0.013569915667176247,-1.2135606303276016,-0.7236653508062315,1.2602872709494128
1687014265.919837,-0.7015017867088318,0.6614030599594116,-0.26540765166282654,-0.030782759189605713,-0.0060991644859313965,-0.0041693150997161865,0.22066687047481537,0.0011476986110210419,0.03298527002334595,-1.2090988186590121,-0.7226878560850214,1.2669073935912354
1687014265.9372911,-0.7007423043251038,0.6610615253448486,-0.2682495713233948,-0.00018548965454101562,-0.026280701160430908,-0.02331531047821045,-0.16635479032993317,0.0632738322019577,0.022685494273900986,-1.20519817090845,-0.7222326206237115,1.2699721056158408
1687014265.972996,-0.7015629410743713,0.6611558198928833,-0.2658615708351135,0.028970777988433838,0.020179569721221924,-0.01929458975791931,0.012117484584450722,-0.01126857940107584,-0.05054650828242302,-1.2085617983092098,-0.722358300530188,1.2643934869915012
1687014266.0677772,-0.7038670182228088,0.6579926013946533,-0.26761314272880554,-0.005636155605316162,0.02906477451324463,0.018391460180282593,0.0393802635371685,0.01855296455323696,-0.11078401654958725,-1.2074709519862588,-0.7181498803603655,1.265293017081656
1687014266.08389,-0.7085524201393127,0.652874231338501,-0.26778504252433777,-0.02141284942626953,0.020053625106811523,0.0019922852516174316,-0.09609780460596085,0.024522174149751663,-0.22710803151130676,-1.2094571216880927,-0.7113727886063885,1.2606228414410676
1687014266.1232982,-0.7163580060005188,0.6453645825386047,-0.26520922780036926,0.014484107494354248,0.047155559062957764,-0.030918002128601074,-0.024106299504637718,0.00018940470181405544,-0.3141871988773346,-1.2162239279163973,-0.7015004330570033,1.248697061816906
1687014266.218886,-0.7282497882843018,0.6321275234222412,-0.2647016644477844,0.04473233222961426,0.04258549213409424,-0.03804787993431091,0.02292383834719658,-0.07437235862016678,-0.4295952022075653,-1.222166560900259,-0.6842958416658536,1.2418443513058466
1687014266.236703,-0.744354248046875,0.6152376532554626,-0.25965234637260437,0.0718536376953125,0.026485860347747803,-0.043799132108688354,-0.2575283646583557,-0.04540391266345978,-0.5453830361366272,-1.235165085086756,-0.6626874010520283,1.226757123354361
1687014266.2728682,-0.763847827911377,0.5964082479476929,-0.2466450035572052,0.05793046951293945,0.046215593814849854,-0.05729477107524872,-0.2272130399942398,-0.1637674868106842,-0.6540468335151672,-1.2584667132998133,-0.6390189226047376,1.1973981202628328
1687014266.366983,-0.7862476110458374,0.5710651278495789,-0.23600716888904572,0.11394530534744263,0.022959530353546143,-0.04396098852157593,-0.043619945645332336,-0.19614574313163757,-0.708197832107544,-1.2791844851214706,-0.6078027422130582,1.177885816184032
1687014266.383002,-0.8090221285820007,0.5436459183692932,-0.2234553098678589,0.03186148405075073,-0.024572551250457764,-0.013620421290397644,-0.2729250490665436,-0.2281247228384018,-0.7589715719223022,-1.3013109229316633,-0.5747749506872808,1.1583713245168858
1687014266.422879,-0.8307212591171265,0.5158243179321289,-0.20935043692588806,0.06103736162185669,-0.0030832886695861816,-0.028564512729644775,-0.13884752988815308,-0.22440801560878754,-0.7196562886238098,-1.3239263758056599,-0.541969559263171,1.1369647439111312
1687014266.517842,-0.8534182906150818,0.48528483510017395,-0.1901998221874237,0.10923182964324951,-0.019266188144683838,-0.019852638244628906,-0.26376599073410034,-0.3453149199485779,-0.8125171661376953,-1.351511854474315,-0.5066888874479143,1.1121807317906693
1687014266.535248,-0.875073254108429,0.4526534974575043,-0.17132341861724854,0.1123167872428894,-0.0041671693325042725,-0.025575950741767883,-0.4983212649822235,-0.2538585662841797,-0.8408207297325134,-1.3774599991946126,-0.4697389192094986,1.088407199086404
1687014266.574569,-0.8979686498641968,0.41577309370040894,-0.14417017996311188,0.04678761959075928,0.0525953471660614,-0.014872118830680847,-0.30461201071739197,-0.37005096673965454,-1.020046353340149,-1.4116034064355478,-0.42879267221794864,1.0495482763184514
1687014266.668047,-0.9218510389328003,0.36664724349975586,-0.12554128468036652,0.17009621858596802,0.044470250606536865,-0.04308348894119263,-0.006412346847355366,-0.5121099948883057,-1.142167568206787,-1.4354450516543575,-0.37540272014158743,1.037144665478576
1687014266.684542,-0.9469135999679565,0.306858628988266,-0.09587713330984116,0.017561793327331543,0.0021928250789642334,0.028204508125782013,0.02853875793516636,-0.6437225341796875,-1.4678356647491455,-1.4698879781225296,-0.311890645812275,1.0265943053880364
1687014266.7236838,-0.9686822891235352,0.2381412833929062,-0.0703100860118866,0.1221092939376831,-0.03793074190616608,0.08303599804639816,0.9425726532936096,-0.7450529336929321,-1.1725571155548096,-1.4983401625206934,-0.24045162283661767,1.0460471772677005
1687014266.882246,-0.9832668304443359,0.1758916974067688,-0.047418247908353806,0.06131553649902344,-0.12602603435516357,0.07686781883239746,-0.02085329405963421,-0.4456121027469635,-1.2091386318206787,-1.522608452915018,-0.17681151208408225,1.0668163309438672
1687014266.90081,-0.9919086694717407,0.12321893870830536,-0.030566126108169556,-0.06140553951263428,-0.07301759719848633,0.10859966278076172,0.3020192086696625,-0.16033582389354706,-1.0373786687850952,-1.539990610758282,-0.12353289298631129,1.0679406964335385
1687014266.934658,-0.9969367980957031,0.07399340718984604,-0.025342952460050583,-0.08640676736831665,-0.10626579821109772,0.11276060342788696,-0.14677350223064423,-0.026497600600123405,-0.9439274072647095,-1.545380979075502,-0.07406109043014608,1.0790989009455352
1687014266.938246,-0.999255895614624,0.027638841420412064,-0.026907283812761307,0.07341349124908447,0.026575569063425064,0.05336612090468407,0.45498955249786377,-0.0631832629442215,-0.8894643783569336,-1.5438755111160312,-0.027642361372553777,1.0695542217870093
1687014266.9413881,-0.9996528625488281,-0.013985750265419483,-0.02233223244547844,-0.07409298419952393,-0.10800834745168686,0.017907259985804558,0.4076807200908661,-0.03973981365561485,-0.8486089110374451,-1.5484600549398564,0.013986206278415134,1.1080863554511062
1687014266.992991,-0.9984079599380493,-0.05426916852593422,-0.015382440760731697,-0.08247894048690796,0.02568938210606575,0.024095237255096436,0.4474484622478485,-0.12834113836288452,-0.7917147874832153,-1.5553905758341973,0.05429584187590748,1.1233404493659267
1687014267.05479,-0.9952147603034973,-0.09714039415121078,-0.010551871731877327,0.07507926225662231,-0.00980851799249649,-0.02089637517929077,0.5499172210693359,-0.11160494387149811,-0.8983980417251587,-1.5601941164628963,0.09729381795423021,1.1476094894354332
1687014267.1162581,-0.9904119968414307,-0.13805098831653595,0.005085507407784462,-0.028829216957092285,-0.001261785626411438,-0.0030102734453976154,0.6938416361808777,-0.22108057141304016,-0.8791210055351257,-1.5759310208604704,0.13849329360776375,1.1805205526453328
1687014267.240742,-0.9832543730735779,-0.18097937107086182,0.02138514444231987,0.07680600881576538,-0.03758758306503296,0.006340146064758301,0.4008295238018036,-0.2997761070728302,-0.8422471284866333,-1.592542250296401,0.18198217890808438,1.213070179436504
1687014267.2595,-0.973656177520752,-0.22462274134159088,0.039220936596393585,0.10982561111450195,0.026472076773643494,-0.025396347045898438,0.43900907039642334,-0.3513144552707672,-0.967860221862793,-1.6110566833971791,0.22655587068055325,1.229110620482945
1687014267.3277268,-0.9608073234558105,-0.2702743411064148,0.06165200471878052,0.04778248071670532,0.0022841691970825195,0.03093838319182396,0.30207112431526184,-0.2580277621746063,-1.0189096927642822,-1.6348753539168486,0.2736779537064528,1.2559688563181677
1687014267.333839,-0.9441680908203125,-0.31993842124938965,0.07865190505981445,0.0953369140625,0.01802799105644226,-0.028023123741149902,0.2778342366218567,-0.32616156339645386,-1.101209044456482,-1.6539072942034814,0.32566448386687186,1.2734199616829713
1687014267.421047,-0.9223282933235168,-0.3736853301525116,0.09833571314811707,0.10756999254226685,0.006833463907241821,-0.0450366735458374,0.17508962750434875,-0.4367043077945709,-1.1595624685287476,-1.6770119082786008,0.38297901709904086,1.2881443157445436
1687014267.439014,-0.8954375982284546,-0.4286966919898987,0.12004406005144119,0.09288644790649414,-0.011977136135101318,-0.001971498131752014,-0.05008792504668236,-0.4153909385204315,-1.3708202838897705,-1.7040636290120625,0.44304967820747104,1.303926739764582
1687014267.503981,-0.8619996309280396,-0.48872196674346924,0.1345643252134323,0.05245983600616455,-0.01230040192604065,-0.02836310863494873,-0.2649073302745819,-0.3862680196762085,-1.3990751504898071,-1.7256536480474027,0.5106242508246948,1.3032111610324024
1687014267.508487,-0.8194513320922852,-0.5530073642730713,0.15060651302337646,0.04189401865005493,0.05375504493713379,0.07262967526912689,-0.11162319034337997,-0.44582316279411316,-1.5534780025482178,-1.7525573528618061,0.5859694545349117,1.3080788870498206
1687014267.56539,-0.765657901763916,-0.6261884570121765,0.14715895056724548,0.18315380811691284,0.033537089824676514,-0.007327333092689514,-0.3548193871974945,-0.18805667757987976,-1.9314861297607422,-1.760680143312708,0.6766549023196196,1.305947817664474
1687014267.657823,-0.7019539475440979,-0.6925795674324036,0.16611553728580475,-0.06716525554656982,-0.0008409023284912109,0.044287919998168945,0.16174909472465515,-0.4585743546485901,-1.896231770515442,-1.8031688545134323,0.7650589978776232,1.3323382272916016
1687014267.665122,-0.6273689866065979,-0.7586528658866882,0.17565320432186127,0.08862698078155518,-0.02651876211166382,0.045004263520240784,-0.4599559009075165,-0.5964604616165161,-1.889780044555664,-1.8437900736647685,0.8612428757686802,1.3548132635454617
1687014267.716486,-0.5444505214691162,-0.825107216835022,0.15090425312519073,0.05552840232849121,-0.029751360416412354,0.05370093882083893,-1.1152756214141846,-0.06278077512979507,-2.221604824066162,-1.8411769566631813,0.9703919246451697,1.3371776236692634
1687014267.8072891,-0.448618620634079,-0.8847787380218506,0.12612716853618622,0.03301507234573364,0.024350881576538086,0.05485737323760986,-0.05553830415010452,-0.22185200452804565,-2.195521831512451,-1.8448670672310266,1.0860190562206282,1.3297700766183063
1687014267.814462,-0.3424709439277649,-0.9323399066925049,0.11600048094987869,0.09703338146209717,-0.08496361970901489,0.02500605583190918,-0.9477455019950867,-0.3012872636318207,-2.3655121326446533,-1.897383685523191,1.2008309946675162,1.3776008652670206
1687014267.867259,-0.22755029797554016,-0.9712379574775696,0.07012780010700226,-0.15253080427646637,0.031540632247924805,0.02475142478942871,-0.7740853428840637,0.1537322700023651,-2.553023099899292,-1.8697461206077135,1.3303758358551614,1.3399854785226393
1687014267.958157,-0.0970979705452919,-0.9950783848762512,0.01977573148906231,-0.021966293454170227,-0.06539219617843628,0.0372769832611084,-1.2485644817352295,-0.03500844165682793,-2.652158498764038,-1.7717161301277384,1.4715425702973488,1.2439908971359663
1687014267.97615,0.03763503581285477,-0.9988614320755005,-0.02931774966418743,0.014031291007995605,0.008718609809875488,0.013341844081878662,-0.6933703422546387,0.31909608840942383,-2.803199529647827,0.9089911356763939,1.5230726463363828,-1.4259708307179098
1687014268.112428,0.16950909793376923,-0.9836143255233765,-0.06139744818210602,-0.019087865948677063,-0.1788765788078308,0.09066390246152878,-0.6993056535720825,0.29310452938079834,-2.521113872528076,1.223287972044102,1.3895197882118273,-1.7348102285096516
1687014268.205415,0.2936732769012451,-0.9533880352973938,-0.06933412700891495,0.12083175778388977,-0.015438199043273926,-0.09103565663099289,0.305461585521698,0.055843789130449295,-2.4303345680236816,1.338949060301272,1.2642717563474353,-1.835639680498802
1687014268.2254028,0.4027816355228424,-0.9130266308784485,-0.06441666185855865,0.013478189706802368,-0.1733991503715515,0.06481349468231201,-0.254054456949234,-0.011709155514836311,-2.3168156147003174,1.4122098068745361,1.1506435789864464,-1.9186131087740372
1687014268.229027,0.5001417398452759,-0.8626556992530823,-0.07538779079914093,0.10499131679534912,-0.11735522747039795,0.018945641815662384,-0.14324089884757996,-0.00641488004475832,-2.0228867530822754,1.4211897278997672,1.0404969444287966,-1.9289057711820168
1687014268.232696,0.5806230306625366,-0.8094226121902466,-0.08781704306602478,-0.03763902187347412,-0.16945910453796387,0.06218237429857254,-0.9004253149032593,0.3482026755809784,-1.901625633239746,1.420687793487893,0.9431682494429988,-1.9211720395576226
1687014268.318383,0.6520087718963623,-0.7480319142341614,-0.12382502108812332,0.1136772632598877,-0.06060749292373657,0.003433242440223694,-1.1762316226959229,0.2792186439037323,-1.7049758434295654,1.3831182237301507,0.845091648115563,-1.8512607453553902
1687014268.335232,0.7100239992141724,-0.689481258392334,-0.14311295747756958,0.018873095512390137,-0.00831836462020874,-0.02213965356349945,-0.5331245064735413,0.2587651312351227,-1.4695560932159424,1.3719005262927155,0.760772643776438,-1.81441138990187
1687014268.378088,0.7588605284690857,-0.6350990533828735,-0.1441524475812912,0.018574833869934082,-0.057634711265563965,0.07609832286834717,-0.37730133533477783,0.5114628672599792,-1.330416202545166,1.383073881756939,0.6881367609144802,-1.805295284549988
1687014268.382405,0.7988746762275696,-0.5828307271003723,-0.14868704974651337,0.09344422817230225,-0.055642783641815186,0.04581235349178314,-0.7144243717193604,0.1736840456724167,-1.1501367092132568,1.3867812435120985,0.6222079224196759,-1.7781381014269566
1687014268.433525,0.8328161835670471,-0.5347926616668701,-0.1428784430027008,-0.04184615612030029,-0.07114911079406738,-0.001301780343055725,-0.18882566690444946,0.5449458360671997,-1.07986581325531,1.4008897933286804,0.5642623872607964,-1.7707545978002401
1687014268.493239,0.8594352602958679,-0.4938545525074005,-0.13220718502998352,0.06393510103225708,-0.1499594748020172,0.04210413992404938,-1.1646603345870972,0.6883524060249329,-0.7213002443313599,1.4181624928193939,0.5165170334210817,-1.7465202037017347
1687014268.556572,0.8783366084098816,-0.4564436078071594,-0.14207084476947784,-0.06560766696929932,-0.23067492246627808,0.010982692241668701,-2.347667932510376,0.8673897981643677,-0.458730548620224,1.410435324323462,0.4739940134103985,-1.6501782185611271
1687014268.615613,0.8921002745628357,-0.4242498576641083,-0.15546409785747528,0.03661060333251953,-0.10684752464294434,-0.034843429923057556,-2.017169952392578,0.7855903506278992,-0.2503792643547058,1.3982614813069443,0.438133338220222,-1.5275025878111705
1687014268.71068,0.9009182453155518,-0.4033684730529785,-0.16012555360794067,-0.004464387893676758,-0.07043218612670898,-0.08879093825817108,-1.798325777053833,0.7028437256813049,-0.020465239882469177,1.394897248654209,0.4151950991664154,-1.4252116541642021
1687014268.7178469,0.9072979688644409,-0.38985973596572876,-0.1575426161289215,-0.019099175930023193,-0.18152081966400146,0.09760619699954987,-2.9079370498657227,1.2187272310256958,0.21320244669914246,1.398871190806564,0.4004792700921456,-1.3187059072922764
1687014268.801128,0.90973299741745,-0.3733149468898773,-0.18171900510787964,-0.013202846050262451,0.08165845274925232,0.1414511799812317,-2.9237308502197266,0.8483246564865112,0.2745911478996277,1.3736413374992267,0.38257974586753973,-1.1340253348982219
1687014268.820047,0.9123334288597107,-0.37238579988479614,-0.17022547125816345,0.06598395109176636,0.04859423637390137,-0.23257596790790558,-0.7662633061408997,0.5690116882324219,0.3929595649242401,1.3863348397991087,0.3815783814293125,-1.0422209438117822
1687014268.855905,0.9114696383476257,-0.38341233134269714,-0.14905759692192078,0.011046230792999268,0.10287949442863464,0.015543296933174133,0.03054114244878292,0.7849106788635254,0.2277519553899765,1.4086957824640194,0.3934881647539928,-1.0298895983474576
1687014268.949195,0.9110106825828552,-0.3880639672279358,-0.1395198553800583,0.056304931640625,0.02121216058731079,-0.10405604541301727,-1.4889862537384033,0.3535716235637665,0.20601962506771088,1.4188286582991738,0.3985300113598471,-0.9792531572349916
1687014268.964463,0.9112254977226257,-0.3881034851074219,-0.13799910247325897,-0.04994314908981323,0.057018280029296875,-0.1337597817182541,-0.32513660192489624,0.38849079608917236,0.060179270803928375,1.4204950261224054,0.39857289572893617,-0.9346413941417001
1687014269.0023022,0.9114440083503723,-0.388567179441452,-0.1352229118347168,0.03518068790435791,0.17973542213439941,-0.09616123139858246,0.5231332182884216,-0.09620743989944458,-0.07384883612394333,1.423509525743131,0.3990760777994248,-0.9322443687897292
1687014269.097004,0.9131033420562744,-0.3872253894805908,-0.12766695022583008,0.01656895875930786,-0.043118298053741455,-0.042376890778541565,0.05954088270664215,-0.12388549745082855,-0.11644050478935242,1.4318803312166448,0.397620288757933,-0.9617964166646019
1687014269.114184,0.9152851104736328,-0.3807031214237213,-0.13159899413585663,0.03146171569824219,0.07561886310577393,-0.013801917433738708,0.3714964985847473,-0.1399395614862442,-0.1557472199201584,1.4279957398886811,0.3905565565106484,-0.9667857891335102
1687014269.154001,0.9169555306434631,-0.3781426250934601,-0.1272825449705124,-0.03720998764038086,-0.009262800216674805,0.01786184310913086,0.579946756362915,-0.07154958695173264,-0.13222132623195648,1.4328677581058278,0.3877891178673989,-0.997733034362407
1687014269.243435,0.9185217022895813,-0.37520352005958557,-0.12466014176607132,0.011531949043273926,-0.04748019576072693,0.00951743870973587,0.36235085129737854,-0.15774457156658173,-0.12226543575525284,1.435902291208448,0.384616324989569,-1.0223995365694318
1687014269.249001,0.9191651940345764,-0.373993843793869,-0.1235470175743103,0.007028043270111084,-0.03553679585456848,-0.019885480403900146,0.3073022663593292,-0.11268600821495056,-0.01709400862455368,1.4371849134339751,0.38331164801756973,-1.0394870130846072
1687014269.30543,0.9190582633018494,-0.37556248903274536,-0.1195184588432312,-0.01552438735961914,-0.02083030343055725,0.0014460757374763489,0.39880478382110596,-0.05808020383119583,-0.05174925923347473,1.4414775712452739,0.3850036203072966,-1.0649551205277652
1687014269.4012241,0.9190270900726318,-0.37500688433647156,-0.12148711830377579,0.022119760513305664,0.00261610746383667,0.009853899478912354,0.10497183352708817,-0.11743247509002686,-0.019597047939896584,1.4393673318517826,0.38440421313577255,-1.0697371712539834
1687014269.421941,0.9193662405014038,-0.3741943836212158,-0.12142528593540192,-0.01990652084350586,-0.06214591860771179,0.014461301267147064,-0.06898677349090576,-0.012656530365347862,-0.02458881214261055,1.4394813649644609,0.3835278801027675,-1.0792069524695231
1687014269.453042,0.9188500046730042,-0.3748670518398285,-0.12324603646993637,0.012088775634765625,0.06291630864143372,-0.002333700656890869,0.3761102855205536,-0.05113432556390762,-0.008173951879143715,1.4374613924208925,0.38425335210100764,-1.0806754335032696
1687014269.543891,0.9185507893562317,-0.3761768043041229,-0.12147138267755508,0.002759575843811035,-0.05377006530761719,0.005504734814167023,-0.15710794925689697,-0.06294944137334824,0.0016254824586212635,1.4393168068929763,0.38566655540967926,-1.0903304062102033
1687014269.549838,0.9187642931938171,-0.3748888373374939,-0.12381675094366074,0.0010965466499328613,0.031718671321868896,-0.024147622287273407,0.09934133291244507,-0.042196936905384064,-0.04391084238886833,1.4368389532822825,0.3842768611257347,-1.0909191318000657
1687014269.639237,0.9182965159416199,-0.3756215274333954,-0.12505991756916046,-0.008170783519744873,0.024821937084197998,0.0020436644554138184,0.24778296053409576,-0.07718457281589508,-0.01659899577498436,1.4354421713214318,0.38506730967808434,-1.0977006831880167
1687014269.657971,0.9187687635421753,-0.374113529920578,-0.126107320189476,0.000680088996887207,-0.045442163944244385,0.0003292560577392578,-0.09923074394464493,-0.05848030000925064,-0.021785767748951912,1.4343917907372419,0.383440690895899,-1.1033061365543042
1687014269.6906629,0.9189292788505554,-0.37354761362075806,-0.12661464512348175,0.02482682466506958,0.030301153659820557,0.015317142009735107,0.3836502432823181,-0.07963813841342926,-0.0567563995718956,1.4338734864022458,0.382830558192172,-1.110602026413886
1687014269.787142,0.9196612238883972,-0.3717118501663208,-0.12670324742794037,-0.010328948497772217,-0.05828085541725159,-0.0015925765037536621,-0.10986647754907608,-0.04638822004199028,-0.01158938929438591,1.4338865637447284,0.38085230152460914,-1.11703975454664
1687014269.882578,0.919660747051239,-0.37148696184158325,-0.12736396491527557,-0.009916424751281738,4.225969314575195e-05,-0.0031290650367736816,0.24816791713237762,-0.025325898081064224,-0.00278777489438653,1.4331814991116734,0.38061009502579385,-1.1226585089914993
1687014269.9018002,0.9192821979522705,-0.37213194370269775,-0.12821142375469208,0.020384609699249268,-0.001967787742614746,0.012031078338623047,0.02186167985200882,-0.07639067620038986,-0.0019919557962566614,1.4322211522839352,0.38130487594055357,-1.1252846656027473
1687014269.963481,0.919226348400116,-0.3725702464580536,-0.12733586132526398,-0.012335479259490967,-0.008868962526321411,-0.029951632022857666,0.13995663821697235,-0.05013164505362511,-0.008349986746907234,1.4331472850491858,0.3817771487812791,-1.1340747238241469
1687014269.969693,0.9190707206726074,-0.3730829358100891,-0.12695834040641785,0.002743363380432129,0.039693623781204224,-0.023004963994026184,0.48623237013816833,-0.12695728242397308,-0.04398854449391365,1.4335273274729123,0.38232967165985543,-1.148241459817145
1687014270.0569901,0.9185475707054138,-0.3747645616531372,-0.1257857382297516,0.015061497688293457,0.0014277398586273193,-0.04016876220703125,0.4812646210193634,-0.20768140256404877,-0.029152538627386093,1.4347029889625544,0.384142806042904,-1.1749094744519801
1687014270.075327,0.9179243445396423,-0.376288503408432,-0.12578465044498444,0.0017228126525878906,0.0062781572341918945,-0.04709731042385101,0.7345380783081055,-0.2988778054714203,-0.056572042405605316,1.434612891670997,0.38578710740942507,-1.206923739048783
1687014270.1424751,0.9166251420974731,-0.37978461384773254,-0.12474886327981949,-0.013609826564788818,-0.0020513832569122314,-0.024695590138435364,1.097330927848816,-0.38528957962989807,-0.0564112551510334,1.4355315353822014,0.389563440370674,-1.2586547111421167
1687014270.158381,0.9147684574127197,-0.384365051984787,-0.12434782087802887,0.02485257387161255,-0.0239449143409729,-0.0013387203216552734,0.8163589835166931,-0.37884098291397095,0.012627999298274517,1.435690769697851,0.3945199280412663,-1.308731130200985
1687014270.2322211,0.9121779203414917,-0.3901078999042511,-0.12548786401748657,-0.007499575614929199,0.0012071430683135986,-0.016434013843536377,0.7808120846748352,-0.3663581609725952,0.022626705467700958,1.434084958711151,0.4007487844417353,-1.3509094133578052
1687014270.247036,0.908927857875824,-0.39792242646217346,-0.124530129134655,-0.01586151123046875,0.012058258056640625,-0.010433778166770935,1.160657286643982,-0.4219059944152832,0.023325582966208458,1.4346363451614967,0.4092511560379797,-1.4039173546930488
1687014270.293823,0.9058620929718018,-0.40527352690696716,-0.12315491586923599,0.04775112867355347,-0.02783188223838806,0.0034345462918281555,0.7736276984214783,-0.4205741584300995,0.0728522539138794,1.4356715074916757,0.41727802400376124,-1.4560330051079688
1687014270.38767,0.9021500945091248,-0.41297435760498047,-0.12480998039245605,0.011424243450164795,0.00040718913078308105,-0.04149545729160309,0.9358454942703247,-0.4561445116996765,0.04864931479096413,1.4333217422423952,0.42571750442981454,-1.49899579491209
1687014270.4047809,0.8974807262420654,-0.4237329959869385,-0.12238787114620209,-0.011631667613983154,-0.059085577726364136,-0.04330724477767944,1.2195498943328857,-0.4831797480583191,0.14226162433624268,1.4352640843589153,0.4375626405723734,-1.5619111933185599
1687014270.443128,0.8893131017684937,-0.4414113759994507,-0.11949143558740616,0.0031276941299438477,-0.05315643548965454,-0.05409245938062668,1.4261096715927124,-0.603539228439331,0.2785099446773529,1.4372325263430545,0.4571709633472243,-1.6284645304431775
1687014270.537564,0.879012405872345,-0.4635477364063263,-0.11162810027599335,0.028275251388549805,-0.11163225769996643,-0.07314050197601318,1.527214527130127,-0.6204786896705627,0.39574265480041504,1.4444798426222296,0.48199492663717847,-1.7113215023239436
1687014270.5544739,0.8619764447212219,-0.4965897798538208,-0.1019565686583519,-0.006065189838409424,-0.13014966249465942,-0.08026378601789474,1.6055911779403687,-0.619469404220581,0.7549388408660889,1.4530610480741455,0.519665435198841,-1.7933219791715331
1687014270.591642,0.8355246186256409,-0.5430790781974792,-0.08344998210668564,0.05418503284454346,-0.18156081438064575,-0.0770418718457222,1.725106954574585,-0.5685257911682129,1.0942716598510742,1.4712491155121343,0.574099740267647,-1.8847992144234404
1687014270.720241,0.7974872589111328,-0.600957453250885,-0.05351695790886879,0.04324144124984741,-0.12983161211013794,-0.03890543431043625,1.9655637741088867,-0.5269933938980103,1.386307954788208,1.5037898138053896,0.6446984797436527,-1.9913133784074102
1687014270.739544,0.7548203468322754,-0.6554881930351257,-0.02411358430981636,0.10981893539428711,-0.12946957349777222,-0.03847789764404297,1.4700578451156616,-0.66594398021698,1.27757728099823,1.5388610646460867,0.7148288887048501,-2.092944689825839
1687014270.803141,0.7061603665351868,-0.707963764667511,0.011173583567142487,0.07437247037887573,-0.04875004291534424,0.06354880332946777,1.8648996353149414,-0.3788749873638153,1.7079740762710571,1.5866180178026705,0.7866108406199965,-2.203596940483174
1687014270.8189368,0.6343740820884705,-0.7694728970527649,0.07403431832790375,0.08735144138336182,-0.11121857166290283,0.04173421859741211,1.595110297203064,0.10094016045331955,2.148045063018799,1.6869752880044482,0.8780154073050431,-2.3471159653538898
1687014270.8924031,0.5418478846549988,-0.8290068507194519,0.13837924599647522,0.22357887029647827,-0.023059308528900146,0.21535004675388336,1.3636956214904785,0.6147648692131042,2.4595401287078857,1.8208357796456647,0.977329391801444,-2.49459939218058
1687014270.896857,0.42611128091812134,-0.8856149911880493,0.1847032904624939,0.22640040516853333,-0.05200701951980591,0.08951246738433838,-0.30766355991363525,0.940022349357605,2.601010799407959,1.9798129598001761,1.0878166036982897,-2.6368092728651438
1687014270.988858,0.29057201743125916,-0.9371122717857361,0.19336055219173431,0.28204458951950073,0.12105709314346313,0.16427502036094666,0.6254602670669556,1.1088944673538208,2.940425157546997,2.1579547029699686,1.2142625086563787,-2.7805628538133567
1687014271.006304,0.1394052654504776,-0.9672175049781799,0.21226535737514496,0.20324616134166718,-0.11672109365463257,0.0071256160736083984,-0.41212713718414307,0.9220660328865051,3.074878215789795,2.5604868927884947,1.3140349442537067,3.138522267457432
1687014271.04253,-0.025387845933437347,-0.9772630333900452,0.210505872964859,0.1649142950773239,-0.10937643051147461,-0.005900740623474121,0.3798931837081909,0.7216966152191162,3.2663116455078125,-3.0215683661137724,1.3571439437407886,2.4598544065979895
1687014271.1337729,-0.18522776663303375,-0.9602017402648926,0.20905332267284393,-0.013685718178749084,-0.16859763860702515,-0.06684137880802155,-0.3705618679523468,0.35796645283699036,3.246190309524536,-2.416548952421553,1.287723630553614,1.8623598656501184
1687014271.150532,-0.338302880525589,-0.9206648468971252,0.19474922120571136,0.026199698448181152,-0.11792457103729248,0.0060565173625946045,-0.09954535216093063,0.36261749267578125,3.0775694847106934,-2.093130432923412,1.1697802056648905,1.540944280149356
1687014271.1922379,-0.4732123911380768,-0.8641965985298157,0.17098133265972137,-0.007912516593933105,-0.07177764177322388,0.0549556165933609,-0.6126095056533813,0.3373967409133911,2.9037959575653076,-1.9175204139501905,1.04355145321985,1.3611291493333115
1687014271.2865648,-0.5908757448196411,-0.7905309796333313,0.16101689636707306,0.10524964332580566,0.004398226737976074,0.020639047026634216,0.45866355299949646,0.3473031520843506,2.590684175491333,-1.8368419410453103,0.911675568455995,1.2869456281322686
1687014271.303031,-0.6825212836265564,-0.7154873609542847,0.149139404296875,0.14059019088745117,-0.06393158435821533,0.05374155938625336,-0.333790123462677,0.3680601119995117,2.261627435684204,-1.7859273246278102,0.7973214378326484,1.2453821929014122
1687014271.343971,-0.7598574757575989,-0.6345281600952148,0.14138968288898468,0.10684221982955933,-0.03548538684844971,0.023298516869544983,0.4756150543689728,0.4174880087375641,2.0645217895507812,-1.754766309092601,0.6873978609462992,1.2267556374752806
1687014271.432848,-0.8199049830436707,-0.5576152205467224,0.12969765067100525,0.15329420566558838,-0.14816492795944214,0.06329561769962311,-0.3569200336933136,0.3444019854068756,1.908081293106079,-1.7276825533279512,0.5915101397962194,1.2109236492454944
1687014271.448172,-0.8704513907432556,-0.48068347573280334,0.10610252618789673,0.11958175897598267,-0.05062761902809143,0.04442548006772995,0.04439690709114075,0.5139595866203308,1.7643482685089111,-1.6920916265716037,0.5014339628809124,1.1832390253642564
1687014271.521062,-0.9115330576896667,-0.404389888048172,0.07467451691627502,0.12097525596618652,-0.20838788151741028,0.14273285865783691,-0.9483120441436768,0.6297745108604431,1.7751178741455078,-1.6525356942428773,0.4163116282011315,1.1589149036925548
1687014271.6227899,-0.9452341198921204,-0.32521766424179077,0.027675926685333252,0.19729405641555786,-0.10631623864173889,0.03728079795837402,-0.7289074063301086,0.47835418581962585,1.7188485860824585,-1.6000674055377049,0.33124188293005624,1.0975733513101573
1687014271.642688,-0.9692317843437195,-0.24601611495018005,-0.008115164935588837,0.21897238492965698,-0.06910845637321472,0.07392638921737671,-0.5448856949806213,0.6196591258049011,1.656917691230774,-1.5624237415908642,0.24856789471278487,1.0676607969579919
1687014271.739153,-0.9856701493263245,-0.16457492113113403,-0.03700565919280052,0.18592655658721924,-0.012304991483688354,0.034610096365213394,-0.10249684751033783,0.5365947484970093,1.6395933628082275,-1.5332702976467008,0.16532704295269293,1.05154368701058
1687014271.755208,-0.9948581457138062,-0.08500799536705017,-0.05505354329943657,0.18653905391693115,-0.040159910917282104,0.10436999797821045,0.4646369516849518,0.3880613446235657,1.5648245811462402,-1.5155146289991848,0.08511071652731111,1.069183274973347
1687014271.7969642,-0.9968291521072388,-0.01539625320583582,-0.07806719094514847,0.20238035917282104,-0.09440606087446213,0.05179161578416824,-0.19818182289600372,0.45687997341156006,1.4595890045166016,-1.49264033138639,0.015396861319997011,1.0842871499696762
1687014271.801518,-0.9928857684135437,0.058622367680072784,-0.10364067554473877,0.13349545001983643,-0.045209962874650955,0.014605700969696045,-0.5687445998191833,0.5518914461135864,1.3757745027542114,-1.4667896996853076,-0.05865599674645297,1.0689900586271364
1687014271.8046541,-0.9835246801376343,0.13115450739860535,-0.12440866231918335,0.11215633153915405,-0.004613444209098816,0.008045203983783722,-0.14056389033794403,0.4125373661518097,1.4216322898864746,-1.4449719040031195,-0.13153344999539393,1.056240615618583
1687014271.853647,-0.9675121903419495,0.20458278059959412,-0.14854666590690613,0.2339916229248047,-0.1319967806339264,-0.02786010503768921,-0.6100623607635498,0.48608171939849854,1.6028422117233276,-1.4184512977200165,-0.20603745722486194,1.0524407678430248
1687014271.9158149,-0.9449425339698792,0.2832029461860657,-0.16395089030265808,0.12940597534179688,-0.00973498821258545,-0.046971261501312256,-0.4788697063922882,0.4359225034713745,1.5812748670578003,-1.3990030136103457,-0.2871321335750818,1.0336410605867596
1687014272.009767,-0.9178303480148315,0.35891762375831604,-0.16960415244102478,0.12808120250701904,-0.007004261016845703,-0.06086455285549164,-0.05977823585271835,0.08757766336202621,1.5541735887527466,-1.3880694218310452,-0.36710797946868945,1.0330934031879797
1687014272.101239,-0.8879846930503845,0.42508676648139954,-0.1754552572965622,0.08305299282073975,0.014610469341278076,-0.043248891830444336,0.22693166136741638,-0.006610178388655186,1.4639041423797607,-1.3757209222616735,-0.43905772593528586,1.057049821868219
1687014272.1199021,-0.856346607208252,0.48317989706993103,-0.1822296679019928,0.03788036108016968,0.011616796255111694,0.007089376449584961,0.39062726497650146,0.03437409549951553,1.3566794395446777,-1.361124910052268,-0.5042831029687317,1.0904284644722075
1687014272.1844568,-0.8219759464263916,0.5348547101020813,-0.19566772878170013,0.05592375993728638,-0.004520297050476074,-0.015590101480484009,0.4040968716144562,0.07961267977952957,1.2985098361968994,-1.3371001538899012,-0.5643357653069375,1.1293589414146545
1687014272.1992478,-0.7862476706504822,0.5805817246437073,-0.2115170955657959,0.019234120845794678,0.023117005825042725,0.021148502826690674,0.34906312823295593,0.1868772655725479,1.1843286752700806,-1.3079972419259764,-0.6194429446813928,1.170962281428797
1687014272.245127,-0.7498909831047058,0.6231222152709961,-0.2222212851047516,0.031781792640686035,0.02682584524154663,-0.0006638169288635254,-0.08568137884140015,0.22843535244464874,1.0610712766647339,-1.2827024252779669,-0.6727283520480231,1.1945627741651317
1687014272.339785,-0.716063916683197,0.6582947969436646,-0.23216499388217926,0.01472407579421997,0.02925097942352295,0.018938690423965454,-0.020058605819940567,0.31103000044822693,0.9160239100456238,-1.2572665932652223,-0.7185512422393251,1.2162345750587291
1687014272.356094,-0.6825006008148193,0.6920185089111328,-0.23516666889190674,0.09610527753829956,-0.04951673746109009,-0.03251819312572479,-0.3207033574581146,0.2804631292819977,0.8885357975959778,-1.238970432103002,-0.7642814686942005,1.220568485155971
1687014272.429401,-0.6518129706382751,0.7197061777114868,-0.23908814787864685,0.07623612880706787,0.08334869146347046,-0.06628599762916565,0.028561484068632126,0.16162526607513428,0.7262142896652222,-1.219229748749124,-0.8033790056510007,1.2322919883892307
1687014272.4337559,-0.6278529167175293,0.7412221431732178,-0.23746711015701294,0.030455946922302246,-0.03370261192321777,-0.05515065789222717,-0.17702896893024445,0.07456039637327194,0.5819916129112244,-1.2092048524076697,-0.8348892396610202,1.2403977085683562
1687014272.483196,-0.6129454970359802,0.7531252503395081,-0.2389565259218216,0.06723010540008545,0.16137969493865967,-0.08504849672317505,0.1863889843225479,-0.1425561159849167,0.23274245858192444,-1.1990708360000275,-0.8527997871969221,1.2566190618140332
1687014272.582257,-0.6155123710632324,0.7527047395706177,-0.2336241602897644,0.014590620994567871,0.22521579265594482,-0.07622075080871582,-0.0405312143266201,-0.15313944220542908,-0.2968921959400177,-1.2080334356182838,-0.852160786158921,1.253620368821032
1687014272.5899491,-0.6381335854530334,0.7368327379226685,-0.22330035269260406,0.13604307174682617,0.17846572399139404,-0.08633089065551758,-0.24461275339126587,-0.3067202866077423,-0.7771891951560974,-1.234186297063738,-0.8283735470087328,1.235566818510803
1687014272.6349092,-0.677644670009613,0.7060297727584839,-0.20571769773960114,0.09918391704559326,0.10511219501495361,-0.07557803392410278,-0.01746584102511406,-0.3777286112308502,-1.1751235723495483,-1.2760606258208087,-0.7838761591673565,1.2015089599919266
1687014272.759201,-0.7246937155723572,0.6616329550743103,-0.1925119012594223,0.2046283483505249,0.08830589056015015,-0.047005221247673035,-0.18681305646896362,-0.37177297472953796,-1.3410530090332031,-1.3111471915326718,-0.7229944829007674,1.1793220136619262
1687014272.778368,-0.773288905620575,0.6127294898033142,-0.16305476427078247,0.14870083332061768,0.05620044469833374,-0.010208651423454285,-0.6977654695510864,-0.19843226671218872,-1.5700616836547852,-1.3629817501584605,-0.6595097702761356,1.1189865338528187
1687014272.8446221,-0.8224364519119263,0.5506763458251953,-0.14266736805438995,0.215395987033844,0.05267137289047241,-0.04243689775466919,-0.35651400685310364,-0.21420510113239288,-1.7525672912597656,-1.3990363924587075,-0.5831742927413145,1.0718533802341252
1687014272.8603969,-0.8695305585861206,0.47658422589302063,-0.12955427169799805,0.15725016593933105,0.003945589065551758,0.03049425780773163,-0.1743742823600769,-0.14409248530864716,-1.8154500722885132,-1.4228910181138401,-0.4967651788559911,1.0428330443506197
1687014272.9342651,-0.9114896059036255,0.39541640877723694,-0.11328135430812836,0.1445675492286682,-0.032318294048309326,0.017364680767059326,-0.48284468054771423,-0.2464703470468521,-1.9669677019119263,-1.4471487776193148,-0.4065211508500376,1.00836481453341
1687014272.949367,-0.9453134536743164,0.31061333417892456,-0.0995081290602684,0.2049417495727539,-0.09203127026557922,0.04913897067308426,-0.010300606489181519,-0.22920890152454376,-1.6970380544662476,-1.4659178753722002,-0.3158382289634364,0.9848682278231755
1687014273.026305,-0.968514621257782,0.23141393065452576,-0.09179984033107758,0.1283808946609497,-0.13047711551189423,0.06665343046188354,-0.2398449033498764,-0.01712043210864067,-1.600902795791626,-1.4762945006705268,-0.233530816734196,0.9707359395272801
1687014273.042182,-0.98274827003479,0.16191917657852173,-0.08937497437000275,0.06839591264724731,-0.10501924157142639,0.041264064610004425,0.128932386636734,-0.0821336954832077,-1.385538101196289,-1.480101900310814,-0.16263518866962662,0.9538276257741866
1687014273.113755,-0.9919647574424744,0.09118365496397018,-0.08770105987787247,0.09602969884872437,-0.08771999180316925,0.08814364671707153,0.38468044996261597,-0.11315517127513885,-1.3174657821655273,-1.4826141423810784,-0.0913104902244374,0.9694778448884255
1687014273.1179218,-0.9955539703369141,0.0270741768181324,-0.09021758288145065,0.11878395080566406,-0.07587185502052307,0.04496008902788162,-0.6511568427085876,0.0582965612411499,-1.3879703283309937,-1.4804226886916108,-0.02707748558596084,0.9549752269006256
1687014273.174368,-0.9951435923576355,-0.03727123513817787,-0.09110436588525772,-0.10278725624084473,-0.015173278748989105,0.002374596893787384,0.009221340529620647,0.040229588747024536,-1.4014440774917603,-1.4795018484828053,0.03727987010007405,0.9332025006794411
1687014273.2717218,-0.9900916218757629,-0.11041884869337082,-0.08675413578748703,0.17702704668045044,0.02301643043756485,-0.005027413368225098,0.6280912756919861,-0.2410896122455597,-1.4100819826126099,-1.4833972147409167,0.11064446684314136,0.9396033273810596
1687014273.290767,-0.9794124364852905,-0.18493179976940155,-0.08094130456447601,0.13526570796966553,-0.061772361397743225,0.024087131023406982,-0.21148547530174255,-0.03249601647257805,-1.5667002201080322,-1.488340992864237,0.1860024656565122,0.947611504889958
1687014273.32371,-0.9615350961685181,-0.26178327202796936,-0.08318634331226349,-0.05468505620956421,0.018954873085021973,0.01960301399230957,-0.04305371642112732,0.15846861898899078,-1.7048768997192383,-1.484497102608333,0.26486946271516704,0.9317758671220021
1687014273.38583,-0.9351373314857483,-0.34256064891815186,-0.09039030224084854,0.1651940941810608,-0.06251448392868042,0.060116954147815704,-0.09128919988870621,0.008397000841796398,-1.635908603668213,-1.4744357582984846,0.3496410954204634,0.9221291825064638
1687014273.400166,-0.9024401307106018,-0.4191727340221405,-0.0994788408279419,0.14845764636993408,-0.05774080753326416,0.00200575590133667,0.038358185440301895,0.19857580959796906,-1.7271205186843872,-1.4610064233581421,0.43253395365142855,0.9064130511665492
1687014273.445643,-0.8631635904312134,-0.4939771890640259,-0.10457153618335724,-0.04467332363128662,-0.039912641048431396,0.02751469612121582,-0.12624895572662354,0.26057004928588867,-1.7512925863265991,-1.4502347173609444,0.5166580877538918,0.8996190733226209
1687014273.504091,-0.8139844536781311,-0.5692850351333618,-0.1155153438448906,0.03151381015777588,0.05506378412246704,0.052679724991321564,0.03746514022350311,0.23994490504264832,-1.8789063692092896,-1.4298242057696025,0.6056359278070893,0.8788439698295831
1687014273.566348,-0.7507748007774353,-0.6460135579109192,-0.13785356283187866,0.11913728713989258,-0.026578664779663086,0.027959823608398438,-0.4416176974773407,0.5638676285743713,-2.09110164642334,-1.3892039949229777,0.7023503574805641,0.8511958377783113
1687014273.628586,-0.6737269163131714,-0.7193052768707275,-0.16938722133636475,-0.1282445192337036,0.08347147703170776,0.03259223699569702,-0.4009915292263031,0.619541347026825,-2.3248000144958496,-1.3244833246370349,0.8028018007867629,0.7882425974639762
1687014273.711421,-0.575056254863739,-0.7910792231559753,-0.20857615768909454,0.2128889560699463,0.0033746957778930664,0.039890289306640625,-0.37689709663391113,0.6117638349533081,-2.4980599880218506,-1.22284759146535,0.9125712722264852,0.6989105937184289
1687014273.7289782,-0.4683680236339569,-0.8537054061889648,-0.22763659060001373,-0.007050007581710815,-0.047432899475097656,0.014822319149971008,-0.10350240767002106,0.6712850332260132,-2.5388927459716797,-1.118394489523574,1.0230597794096772,0.608063355307563
1687014273.772398,-0.34624919295310974,-0.90097576379776,-0.2614467740058899,0.01701033115386963,-0.07290136814117432,0.02528652548789978,-0.39353299140930176,0.5394706726074219,-2.5459699630737305,-0.9240502361115296,1.122013282200914,0.42257622350305785
1687014273.906028,-0.21952402591705322,-0.9401766061782837,-0.26053234934806824,0.0501973032951355,-0.10750710964202881,-2.6702880859375e-05,0.42717301845550537,0.5040577054023743,-2.590646743774414,-0.7001811005530171,1.2231483818371465,0.21226520830916148
1687014273.92514,-0.09605738520622253,-0.9563552141189575,-0.27596694231033325,-0.1359677016735077,-0.18423932790756226,0.04363667964935303,-0.8070385456085205,0.7377880215644836,-2.3375203609466553,-0.33495950316449374,1.2742629205332898,-0.14244499414640713
1687014273.9518209,0.021867360919713974,-0.951509416103363,-0.30684173107147217,0.0398850291967392,-0.12199229001998901,-0.014462560415267944,-0.2967246472835541,0.5818282961845398,-2.257777214050293,0.07114564503866182,1.2581059489418807,-0.5327230414979759
1687014274.085479,0.14103463292121887,-0.9387264847755432,-0.3144868314266205,-0.005048245191574097,-0.026895523071289062,0.015735089778900146,-0.4143158793449402,0.8340578079223633,-2.2658424377441406,0.42157215944160037,1.2189164954240113,-0.8659835272211195
1687014274.13988,0.2504805624485016,-0.9094344973564148,-0.3319466710090637,0.09064498543739319,-0.06738746166229248,0.036048293113708496,-0.43126553297042847,0.7359459400177002,-2.0633559226989746,0.6464263627578705,1.141922164979593,-1.0683909165301455
1687014274.156736,0.35482096672058105,-0.8752802014350891,-0.3286135494709015,0.0689462423324585,-0.02331000566482544,0.048309653997421265,-0.10607538372278214,0.8124310970306396,-2.027657985687256,0.8237260189348888,1.0660149371546337,-1.2240447753311436
1687014274.160233,0.4490528106689453,-0.8375735878944397,-0.3111620843410492,0.07195854187011719,-0.08166152238845825,-0.041437894105911255,0.38744378089904785,0.7854410409927368,-1.7486246824264526,0.9648312183662863,0.9928266817795013,-1.34177879058749
1687014274.174191,0.5303446054458618,-0.80145663022995,-0.2764093279838562,0.057637691497802734,-0.0982474684715271,0.047954827547073364,-0.13486286997795105,0.875874936580658,-1.7348463535308838,1.0903422033408874,0.9297268491061654,-1.4467787103946472
1687014274.254982,0.6050398349761963,-0.7449583411216736,-0.2810051739215851,-0.024809062480926514,-0.11351633071899414,-0.015717148780822754,-0.8912431001663208,0.8245446681976318,-1.632484793663025,1.1359985579630796,0.8404723957866478,-1.4526664790198875
1687014274.268146,0.6747488379478455,-0.683635950088501,-0.2781292796134949,0.12154638767242432,-0.06758475303649902,-0.07604235410690308,-0.8326799273490906,0.8160060048103333,-1.436041235923767,1.1798199013839283,0.7527330203593419,-1.4443193998171282
1687014274.3154268,0.7343674302101135,-0.6227831840515137,-0.2698991000652313,-0.00272369384765625,-0.011524617671966553,0.018525898456573486,-0.42156141996383667,1.0816748142242432,-1.4418609142303467,1.218594274184724,0.6722949833457253,-1.4408123606318983
1687014274.385046,0.7840663194656372,-0.56270432472229,-0.2619233727455139,0.025473475456237793,-0.15068984031677246,-0.02533853054046631,-1.4350776672363281,0.741199254989624,-1.2046862840652466,1.248394019648394,0.5976535589129058,-1.41726642370769
1687014274.46948,0.8256584405899048,-0.5005429983139038,-0.2602788209915161,0.11580890417098999,-0.08199179172515869,-0.009481191635131836,-1.4206699132919312,1.1033661365509033,-0.8480450510978699,1.265419104510059,0.524225868046988,-1.3559313405168247
1687014274.486846,0.8526520729064941,-0.4511891305446625,-0.26346316933631897,-0.12799692153930664,-0.09101670980453491,-0.07209277153015137,-1.6152483224868774,0.8980868458747864,-0.7034559845924377,1.2711100049862525,0.4680973411341254,-1.2820333910746045
1687014274.558645,0.8766621351242065,-0.40798208117485046,-0.2549790143966675,0.134965181350708,-0.12052136659622192,-0.05944356322288513,-1.9814075231552124,0.8250637054443359,-0.3514297604560852,1.2877530986769665,0.42024273991464506,-1.2041544444543333
1687014274.655768,0.8922719955444336,-0.3695838749408722,-0.2593422830104828,-0.1194753646850586,-0.04643175005912781,-0.08716943860054016,-1.7735151052474976,0.9929229021072388,-0.34191662073135376,1.2879358897719586,0.378561137436865,-1.1046708776200447
1687014274.675216,0.9051182270050049,-0.34091806411743164,-0.25403934717178345,0.12301903963088989,-0.13787221908569336,-0.0516093373298645,-2.487940788269043,0.7192822694778442,0.1173793151974678,1.2971666172473386,0.3478933052071022,-1.0074214796822702
1687014274.735347,0.9128904342651367,-0.31306329369544983,-0.2619587779045105,-0.06569194793701172,0.0008378922939300537,-0.02425020933151245,-2.4514248371124268,0.8164592981338501,0.09491507709026337,1.2913496793260997,0.31841675308736084,-0.8756031218173448
1687014274.750186,0.9180400371551514,-0.2943388521671295,-0.265644907951355,-0.013682067394256592,0.02358686923980713,-0.10898882150650024,-1.6254900693893433,0.3738766312599182,0.17889487743377686,1.2891284957927123,0.298763650364328,-0.7629141006053961
1687014274.829848,0.9225642085075378,-0.2884734272956848,-0.25623857975006104,0.08739972114562988,-0.07923287153244019,-0.028627663850784302,-1.0173615217208862,0.6345863342285156,0.37394630908966064,1.299878905968847,0.29263209783240857,-0.7069604842396098
1687014274.8343558,0.9217024445533752,-0.2920445203781128,-0.2552933096885681,-0.055430471897125244,-0.009072482585906982,0.09603744745254517,-1.5297269821166992,0.5305307507514954,0.4474146068096161,1.3005900834330602,0.29636385171570895,-0.628871242695272
1687014274.9187078,0.9244610667228699,-0.2911338806152344,-0.24619624018669128,-0.027824223041534424,-0.05893328785896301,0.009425729513168335,-1.5276503562927246,0.5752227902412415,0.36757463216781616,1.3105239196297616,0.295411832029322,-0.5540862758459348
1687014274.93609,0.9256523251533508,-0.29128772020339966,-0.2414936125278473,0.0020667314529418945,-0.01742812991142273,0.024864688515663147,-1.4677222967147827,0.7086523175239563,0.49926310777664185,1.3155946256408633,0.29557264899643226,-0.4689740114824947
1687014274.97506,0.9246202111244202,-0.3005964457988739,-0.23392197489738464,0.005723476409912109,0.015119701623916626,-0.02958202362060547,-1.2287042140960693,0.5521817207336426,0.542880117893219,1.323003180839913,0.3053179651419981,-0.3923249911470187
1687014275.069504,0.924273669719696,-0.3099457323551178,-0.22282671928405762,-0.01074528694152832,0.03693541884422302,-0.059811756014823914,-1.0636950731277466,0.5860475301742554,0.35938116908073425,1.3342275329890723,0.3151359476356424,-0.333228550563661
1687014275.0864859,0.9241414070129395,-0.3142814040184021,-0.21723201870918274,0.02353614568710327,0.06969821453094482,-0.0647502988576889,-0.7525837421417236,0.4056246280670166,0.2789899706840515,1.339924091151732,0.31969959272704046,-0.27862772228466115
1687014275.124979,0.924088180065155,-0.3193712830543518,-0.2099122554063797,0.042388319969177246,0.024617165327072144,-0.05658239126205444,-0.7709240913391113,0.30935966968536377,0.26146629452705383,1.3474306270107828,0.32506594651280507,-0.24196165445004317
1687014275.216449,0.9234496355056763,-0.32274264097213745,-0.20755286514759064,0.04632282257080078,0.0540199875831604,-0.02448752522468567,-0.6095666289329529,0.29975658655166626,0.2014778107404709,1.3497120586822609,0.3286257659788033,-0.2003199108028368
1687014275.2232208,0.924115002155304,-0.3217606246471405,-0.2061104029417038,-8.857250213623047e-05,0.05229035019874573,-0.03076694905757904,-0.3616507053375244,0.15608863532543182,-0.058158889412879944,1.351352552417438,0.32758840785792226,-0.17434439011671285
1687014275.308116,0.9267982840538025,-0.31561508774757385,-0.20354844629764557,0.03709930181503296,0.04097208380699158,-0.032138749957084656,-0.1861819326877594,0.03637794777750969,-0.07350495457649231,1.3546033618866582,0.3211048106940796,-0.16423161146550316
1687014275.32906,0.9282065629959106,-0.31092569231987,-0.20434752106666565,-0.0032798051834106445,0.03570285439491272,0.0039844512939453125,-0.09237311035394669,0.04447777196764946,-0.047651052474975586,1.3541000250860187,0.3161668495821938,-0.15395710848118563
1687014275.36173,0.9292529225349426,-0.30825796723365784,-0.2036316990852356,-0.05065196752548218,0.009155124425888062,0.02568379044532776,-0.072471484541893,0.11433666199445724,-0.07350315898656845,1.3550713825972502,0.3133612834535305,-0.15611417983426287
1687014275.4584599,0.930025041103363,-0.3059496283531189,-0.20358800888061523,0.026914536952972412,0.05376756191253662,0.0011344850063323975,0.011460925452411175,0.0007668666075915098,0.038294415920972824,1.3552897999032105,0.31093573041808026,-0.14694611258545184
1687014275.48068,0.9305586814880371,-0.30821406841278076,-0.1976478546857834,-0.01596212387084961,-0.011564463376998901,-0.007842183113098145,-0.17059268057346344,0.1626611351966858,-0.03252902626991272,1.3615095020227752,0.31331513847990194,-0.15331128879540806
1687014275.5136409,0.9327346086502075,-0.2990850508213043,-0.20138044655323029,0.04123377799987793,0.061292052268981934,-0.022679537534713745,-0.11520979553461075,-0.05428440123796463,-0.1265067160129547,1.3581569740307722,0.30373368170149506,-0.13361376770463979
1687014275.6071038,0.9341493248939514,-0.294992059469223,-0.20086030662059784,0.04461050033569336,-0.06157541275024414,-0.007238984107971191,-0.1044284775853157,-0.0092364102602005,-0.11069519817829132,1.3590015391575045,0.29944720316496487,-0.14158053204241247
1687014275.623702,0.9357296228408813,-0.28630897402763367,-0.20600250363349915,0.0408327579498291,0.01673191785812378,-0.0697999894618988,-0.32725635170936584,-0.025390613824129105,-0.09133129566907883,1.3541012915659276,0.2903723227424303,-0.12294719130276761
