Timestamp,gravityX,gravityY,gravityZ,accelerationX,accelerationY,accelerationZ,rotationRateX,rotationRateY,rotationRateZ,attitudeRoll,attitudePitch,attitudeYaw
1687012405.514756,0.05224453657865524,-0.26043692231178284,-0.9640762805938721,-0.009962420910596848,0.004287689924240112,-0.0029951930046081543,-0.007376810535788536,0.0014316632878035307,0.0063797468319535255,0.05413833247346553,0.26347472309295633,0.37838291021600284
1687012405.600838,0.052093230187892914,-0.2599673569202423,-0.9642112255096436,-0.0035855285823345184,0.003970682621002197,-0.004096269607543945,0.004256675485521555,-0.005111191421747208,0.022339539602398872,0.05397430769868024,0.26298840159635617,0.3787872124495369
1687012405.617498,0.05177509784698486,-0.2596219480037689,-0.9643214344978333,0.004072081297636032,-0.005941957235336304,0.006176292896270752,-0.0037764832377433777,0.0015086284838616848,0.000602152431383729,0.05363920417332022,0.2626307189811576,0.37924393940173157
1687012405.6936731,0.051719918847084045,-0.259841650724411,-0.9642651677131653,0.00037359073758125305,-0.0072481632232666016,-0.009443879127502441,-0.010169711895287037,-0.006644728127866983,-0.011796792969107628,0.05358526611916844,0.2628582055946141,0.3790553394766403
1687012405.7092109,0.0517645999789238,-0.25968000292778015,-0.9643063545227051,0.0003594346344470978,-0.008905172348022461,-0.0016665458679199219,-0.01649303361773491,0.0030789170414209366,-0.007680478040128946,0.053629187408814956,0.26269081731681404,0.37880050066349225
1687012405.712836,0.05220825597643852,-0.2590114176273346,-0.9644622206687927,-0.0012133754789829254,-0.0024173855781555176,0.0003203749656677246,-0.019924737513065338,0.022125400602817535,-0.004254121799021959,0.05407920458661513,0.2619985535417172,0.37873853931769164
1687012405.7472548,0.05356692522764206,-0.25833460688591003,-0.9645692706108093,-0.007012356072664261,-0.002972126007080078,0.002853572368621826,-0.025321589782834053,0.04374583065509796,-0.00571586424484849,0.05547756990757258,0.2612978852726964,0.3787868578871181
1687012405.8099542,0.055116817355155945,-0.2575940191745758,-0.9646799564361572,-0.0068379975855350494,0.004908472299575806,0.0033457279205322266,-0.004553282633423805,0.03229033201932907,-0.019704250618815422,0.05707277160452463,0.2605313540060136,0.37835963677318807
1687012405.875111,0.05647179111838341,-0.25671958923339844,-0.9648346900939941,0.005662009119987488,0.003149062395095825,-0.01203298568725586,-0.005216632038354874,0.01619107834994793,-0.0033606314100325108,0.058463318008843655,0.2596265029743181,0.37795262929247414
1687012405.996533,0.056951072067022324,-0.2567911148071289,-0.964787483215332,0.008112411946058273,-0.013167351484298706,-0.0029249191284179688,-0.018766086548566818,0.004593101795762777,-0.0018060109578073025,0.058961235188590914,0.2597005229388243,0.3774906375400753
1687012406.013526,0.05750330537557602,-0.2561059296131134,-0.9649368524551392,0.0057596489787101746,-0.011777341365814209,0.00436556339263916,-0.020855868235230446,0.002204512245953083,-0.01734182797372341,0.0595224233048982,0.25899161516652686,0.3770704834356984
1687012406.081905,0.057858411222696304,-0.25536149740219116,-0.9651129245758057,0.004931516945362091,0.00342366099357605,0.000986337661743164,-0.014533701352775097,0.005562669597566128,-0.020176229998469353,0.059878222720917425,0.25822158251766336,0.37642482928616805
1687012406.095324,0.058383964002132416,-0.25447529554367065,-0.9653152823448181,0.0028343014419078827,0.00514674186706543,0.0011734962463378906,-0.014437028206884861,0.012539619579911232,-0.002984459977596998,0.06040817017619201,0.25730510558795444,0.376348272663266
1687012406.174087,0.05868794023990631,-0.25409090518951416,-0.9653981328010559,-0.006518129259347916,0.0005051195621490479,0.0018818974494934082,-0.012195090763270855,0.002951884176582098,-0.021758412942290306,0.06071671781167498,0.25690764795473614,0.37584816169799146
1687012406.187926,0.059248778969049454,-0.25279444456100464,-0.9657042026519775,-0.0003803633153438568,0.0012685656547546387,-0.007440328598022461,-0.01789429970085621,0.015804210677742958,0.0015048973727971315,0.06127612041611092,0.2555674135864998,0.37544104471989653
1687012406.262593,0.06022684648633003,-0.251685231924057,-0.9659333825111389,0.006103120744228363,0.0011054277420043945,-0.012185513973236084,-0.030492028221488,0.013524988666176796,-0.009572122246026993,0.06227032304303846,0.2544211421018772,0.3755578816920304
1687012406.2768722,0.06116819009184837,-0.25106364488601685,-0.9660359621047974,0.006443515419960022,-0.005924850702285767,0.0021077394485473633,-0.024932723492383957,0.013370969332754612,-0.016723308712244034,0.0632343303723414,0.2537789354645976,0.37476436877765434
1687012406.351996,0.06141214817762375,-0.2512895166873932,-0.965961754322052,-0.0014145784080028534,-0.009727299213409424,-0.003017127513885498,-0.010487648658454418,0.00226256949827075,-0.0030286682303994894,0.06349071866335708,0.25401230116949836,0.3745064451994276
1687012406.358989,0.0615951232612133,-0.25075188279151917,-0.9660897850990295,-0.0015670396387577057,0.0032543838024139404,-0.012715697288513184,0.0023281918838620186,-0.0005901199765503407,-0.0038479899521917105,0.06367096048599129,0.25345688416318074,0.3743266683415915
1687012406.445146,0.06177834793925285,-0.2503717839717865,-0.9661766886711121,0.001515112817287445,0.0002955198287963867,0.0007989406585693359,-0.020266199484467506,0.01206921599805355,0.00556475343182683,0.06385411859632871,0.25306423989278365,0.3742490787649164
1687012406.598411,0.061929699033498764,-0.2495090663433075,-0.9663901329040527,-0.0018710941076278687,0.003339052200317383,0.0010581016540527344,-0.013279530219733715,0.0010586429852992296,0.0009032227098941803,0.06399602679814259,0.25217326124020095,0.37465049932973826
1687012406.617587,0.06159251555800438,-0.2499276101589203,-0.9663035273551941,0.004676420241594315,0.0012551546096801758,0.003138244152069092,0.00550516601651907,-0.009001802653074265,0.0035175150260329247,0.06365422540753303,0.25260549344111377,0.37457588440631245
1687012406.6524072,0.06139356270432472,-0.24982084333896637,-0.9663438200950623,0.0035173334181308746,-0.007655933499336243,-0.020365774631500244,-0.0047463178634643555,-0.004175711423158646,0.004977593198418617,0.06344652993291122,0.25249523287358416,0.37482946029793346
1687012406.6571841,0.06140562519431114,-0.24963778257369995,-0.9663903713226318,0.006663840264081955,-0.008006840944290161,-0.012460947036743164,-0.026536567136645317,0.0011223810724914074,0.0069579193368554115,0.06345591455687177,0.25230617141495026,0.37487264247344815
1687012406.660809,0.06160162016749382,-0.24587967991828918,-0.967340886592865,0.005292918533086777,0.0018916726112365723,0.00551837682723999,-0.07301667332649231,0.009263221174478531,0.01912277191877365,0.06359552232467038,0.24842713336750546,0.3758888499653725
1687012406.746347,0.061737410724163055,-0.24349389970302582,-0.9679355621337891,-0.00022922083735466003,-0.0008908510208129883,-0.0009212493896484375,-0.059482935816049576,0.005790103692561388,0.014501523226499557,0.06369628109552146,0.24596654636124152,0.3770472570925777
1687012406.8380442,0.06164206191897392,-0.24167940020561218,-0.9683962464332581,0.0006290674209594727,0.0027725696563720703,0.008954107761383057,-0.039080630987882614,0.006914667785167694,0.008003409951925278,0.06356799485236131,0.2440961819414636,0.3775225969241851
1687012406.845927,0.06121814623475075,-0.24013106524944305,-0.9688082337379456,-0.005599848926067352,0.005634009838104248,0.007809698581695557,-3.871973603963852e-07,-0.003580938559025526,-0.004242004826664925,0.06310522534693895,0.242500859953546,0.3782515249814291
1687012406.928874,0.06112853065133095,-0.23848159611225128,-0.9692212343215942,0.000867936760187149,-0.0007151663303375244,-0.0020922422409057617,-0.051666513085365295,0.003577904775738716,0.0022495838347822428,0.062986312882371,0.2408020265315254,0.3785330419955667
1687012406.943808,0.06140964850783348,-0.23577119410037994,-0.9698663949966431,0.004782985895872116,-0.0026473701000213623,-0.0022710561752319336,-0.05935683473944664,0.01782199926674366,0.0265573188662529,0.06323322626565163,0.23801205266564376,0.37981906755913897
1687012407.013041,0.062058109790086746,-0.23214609920978546,-0.9706991910934448,-0.0030523650348186493,-0.010316029191017151,-0.0043678879737854,-0.14147984981536865,0.015520406886935234,0.005030190572142601,0.06384446016002547,0.23428347822549833,0.3810234462645592
1687012407.0269752,0.06237926706671715,-0.22540178894996643,-0.9722668528556824,0.003859151154756546,0.00034993886947631836,-0.007774651050567627,-0.12180867046117783,0.006947691086679697,0.028052285313606262,0.06407076868487786,0.22735541823962827,0.3824339273487244
1687012407.1010861,0.06301325559616089,-0.221735417842865,-0.9730687141418457,-0.0013677403330802917,0.003153294324874878,0.012482166290283203,-0.06869840621948242,0.018022002652287483,-0.00788747239857912,0.06466695552542367,0.2235938379569071,0.3831379235928627
1687012407.117056,0.06366802006959915,-0.2179771363735199,-0.9738749265670776,-0.007408857345581055,-0.002817496657371521,0.005246996879577637,-0.07304925471544266,0.017798207700252533,-0.011645525693893433,0.06528307073633857,0.21974129162194253,0.38297538068740195
1687012407.158762,0.06409382075071335,-0.214802086353302,-0.9745522141456604,0.0026328787207603455,0.0004618912935256958,-0.0048484206199646,-0.06806278973817825,0.0011379164643585682,-0.005106732714921236,0.06567287628766424,0.21648918225101138,0.3829593617373401
1687012407.2570481,0.06415950506925583,-0.21059994399547577,-0.9754646420478821,-0.0005608648061752319,-0.002077043056488037,-0.01505964994430542,-0.0772470161318779,-0.0033187060616910458,0.010591736063361168,0.06567867745096088,0.2121886199001754,0.3831949935406797
1687012407.2726889,0.06409426778554916,-0.2085239142179489,-0.9759147763252258,0.003898896276950836,-0.0270565003156662,-0.0024939775466918945,-0.052318185567855835,-0.009704877622425556,-0.01164758950471878,0.06558190831698676,0.2100654469848148,0.38351137090654214
1687012407.309987,0.06331169605255127,-0.20789192616939545,-0.9761006832122803,0.006375201046466827,-0.0066008418798446655,-0.0034830570220947266,-0.04014834016561508,-0.0200994610786438,-0.01158047839999199,0.06477111850443952,0.20941930369118048,0.3829991497052186
1687012407.4667401,0.06227026507258415,-0.20567749440670013,-0.9766366481781006,0.007264047861099243,-0.001124843955039978,-0.001909494400024414,-0.03008980304002762,-0.02144107222557068,0.006620430387556553,0.0636737184102577,0.2071559571478715,0.3828674977531343
1687012407.48205,0.06100181117653847,-0.2035212516784668,-0.9771683216094971,-0.008099578320980072,-0.0036320388317108154,0.0032303333282470703,-0.0841788724064827,-0.019669538363814354,0.021950118243694305,0.06234622019998469,0.20495311613502903,0.38334994318848414
1687012407.524877,0.059566814452409744,-0.20051588118076324,-0.9778779149055481,-0.005886390805244446,-0.007308796048164368,-0.018963515758514404,-0.045690640807151794,-0.03774316981434822,0.006274818442761898,0.06083919563489922,0.20188447135491977,0.38430738191359315
1687012407.536545,0.058784134685993195,-0.19618737697601318,-0.9788028001785278,0.0081714428961277,0.010701566934585571,-0.020068049430847168,-0.08035784959793091,-0.0026622372679412365,0.017067212611436844,0.05998512626091263,0.19746821274940468,0.38500556538902664
1687012407.539985,0.05838301405310631,-0.1921849250793457,-0.9796205163002014,0.011776909232139587,-0.0010370910167694092,-0.007073819637298584,-0.1108761727809906,-0.008575697429478168,0.014314834959805012,0.05952717066309436,0.19338809854585848,0.38567136433396637
1687012407.5789099,0.058619823306798935,-0.18722717463970184,-0.9805660247802734,-0.022914249449968338,-0.001661345362663269,-0.025400161743164062,-0.09241140633821487,0.007752676028758287,0.008734048344194889,0.059710555354740194,0.18833864762281652,0.3868620103113629
1687012407.704237,0.05949130654335022,-0.1832849681377411,-0.9812580943107605,0.009646274149417877,0.013683557510375977,0.000499427318572998,-0.0693679228425026,0.01739509403705597,-0.0008689778042025864,0.06055346654691842,0.1843269964015244,0.3870596612733501
1687012407.8008451,0.05984164774417877,-0.17992299795150757,-0.9818587899208069,0.010791294276714325,-0.021752402186393738,0.012864649295806885,-0.1258210390806198,0.041413165628910065,0.024771470576524734,0.060872010198489514,0.18090816556262748,0.38760026047377777
1687012407.81888,0.06155520677566528,-0.17677617073059082,-0.9823243618011475,-0.01310853660106659,0.011554032564163208,-0.01572251319885254,-0.044348277151584625,0.029074743390083313,0.009960699826478958,0.06258098545405724,0.1777100624320707,0.38892301503928917
1687012407.823618,0.06260387599468231,-0.1743934154510498,-0.9826838970184326,0.002413831651210785,-0.004927843809127808,0.013872861862182617,-0.05045943334698677,0.02002825029194355,-0.005326110403984785,0.06362105309614116,0.17528971137357655,0.3892994952557459
1687012407.9204369,0.06308803707361221,-0.17150481045246124,-0.983161211013794,0.0027231350541114807,0.01290498673915863,-0.017830610275268555,-0.04438183456659317,0.024149758741259575,0.025937004014849663,0.06408069793963882,0.17235691048921567,0.39032605112226
1687012407.976757,0.0640127882361412,-0.1700371354818344,-0.9833563566207886,-0.003237023949623108,-0.0222998708486557,-0.0011559724807739258,-0.07013948261737823,0.011950439773499966,-0.0020974273793399334,0.06500451105850802,0.17086735850051651,0.39070559116751513
1687012407.990511,0.06494487076997757,-0.16640500724315643,-0.9839164018630981,-0.010669350624084473,0.005409553647041321,-0.00235062837600708,-0.02901122160255909,0.030404280871152878,0.029612697660923004,0.06591088046958161,0.16718270799951485,0.39220754447039435
1687012407.9948502,0.06573980301618576,-0.16593089699745178,-0.9839437007904053,-0.009541675448417664,-0.008583858609199524,0.0053060054779052734,-0.04401560500264168,0.01453157514333725,0.010520030744373798,0.06671341836140487,0.16670191530142248,0.3932232686484142
1687012408.027991,0.06607911735773087,-0.16369964182376862,-0.9842946529388428,-0.005440674722194672,-0.006115391850471497,0.0048482418060302734,-0.04349189251661301,0.020281871780753136,0.015812329947948456,0.06703288548015841,0.1644397276451257,0.39388931338543215
1687012408.2172132,0.06633339077234268,-0.16229598224163055,-0.9845100045204163,0.006176382303237915,-0.004986092448234558,0.009397029876708984,-0.057559508830308914,0.01916547492146492,0.022960521280765533,0.06727538488372548,0.16301703776895568,0.3945860627552121
1687012408.306124,0.0667177215218544,-0.16042405366897583,-0.9847908020019531,-0.0140291228890419,0.004235133528709412,-0.003566741943359375,-0.02358480915427208,0.005914561916142702,-0.0023181368596851826,0.06764475341134875,0.16112025633853985,0.39527217877291676
1687012408.314534,0.06714312732219696,-0.15907973051071167,-0.9849799275398254,0.0005601271986961365,-0.005471035838127136,-0.01331108808517456,-0.015754804015159607,-0.00619687233120203,0.005960232578217983,0.06806171145966473,0.1597584357482933,0.39568987992056387
1687012408.3202271,0.06678133457899094,-0.15899479389190674,-0.985018253326416,0.007620535790920258,0.012968212366104126,-0.024228572845458984,0.016529541462659836,-0.012254944071173668,-0.010716748423874378,0.06769346427037794,0.15967241841048443,0.39571176453852697
1687012408.331805,0.06702319532632828,-0.15818831324577332,-0.9851316213607788,0.01209363341331482,0.0009007304906845093,0.006799101829528809,-0.010778910480439663,0.009308405220508575,-0.008800270967185497,0.06793008177742281,0.15885559109129682,0.39539395292885104
1687012408.4246922,0.06740422546863556,-0.15701830387115479,-0.9852927923202515,-0.007864415645599365,0.004323616623878479,0.0005973577499389648,-0.018139531835913658,0.011170133017003536,0.005161750130355358,0.06830392646979887,0.1576707779805099,0.3955341540731135
1687012408.4381409,0.06763355433940887,-0.15646059811115265,-0.9853658080101013,0.0029078349471092224,0.0026978105306625366,-0.0028696656227111816,-0.013491694815456867,0.002604519482702017,0.005674808286130428,0.06853053351912317,0.15710609334449147,0.3955592608201069
1687012408.512611,0.06769785284996033,-0.1556997299194336,-0.9854819178581238,-0.00547250360250473,0.012450248003005981,-0.0023568272590637207,-0.019783413037657738,0.006592070683836937,-0.0017760505434125662,0.06858742174215694,0.1563357876828959,0.3956522382567988
1687012408.526231,0.06776437163352966,-0.1552857607603073,-0.9855426549911499,0.004638589918613434,0.0023469477891921997,-0.004203438758850098,-0.01368730328977108,0.002531814854592085,-0.002180518116801977,0.0686503853102698,0.15591671568007293,0.39570141125365493
1687012408.635251,0.0679832473397255,-0.1545345038175583,-0.9856456518173218,-0.012914270162582397,0.004494845867156982,-0.023051857948303223,-0.015409614890813828,0.0031639602966606617,-7.295893738046288e-05,0.0688642525218382,0.15515627975460164,0.39606722893584184
1687012408.650456,0.0686246007680893,-0.15299348533153534,-0.9858415722846985,0.012338541448116302,-0.000754043459892273,-0.006620526313781738,-0.043653327971696854,0.008499426767230034,0.012703555636107922,0.06949805909686667,0.15359670856261343,0.3962204768420118
1687012408.726108,0.06895624846220016,-0.15197743475437164,-0.9859756231307983,-0.012224063277244568,0.010269075632095337,-0.01565706729888916,0.01925613172352314,0.010791342705488205,0.004056804813444614,0.069823382971075,0.152568639669191,0.39684475934393765
1687012408.739927,0.06943535804748535,-0.15133260190486908,-0.9860411882400513,0.036338575184345245,0.006511464715003967,0.01889336109161377,-0.030986221507191658,0.01122499443590641,-0.0029388531111180782,0.07030226366516425,0.15191626238038977,0.3964628582139942
1687012408.81268,0.06910809129476547,-0.15071406960487366,-0.9861589074134827,-0.01793012022972107,0.007617190480232239,-0.008164823055267334,0.012438972480595112,0.0041126674041152,-0.0013162557734176517,0.06996367375389075,0.1512905535188151,0.3969336929653278
1687012408.826386,0.0693272054195404,-0.15083760023117065,-0.9861246347427368,0.012993969023227692,-0.000300675630569458,0.005213379859924316,-0.044503893703222275,-0.009366301819682121,0.009397441521286964,0.07018720022566262,0.15141550721727584,0.3964066873515261
1687012408.902598,0.06849464029073715,-0.15099725127220154,-0.9861583709716797,-0.0018594935536384583,-0.0035589933395385742,-0.009630203247070312,0.01570902206003666,-0.013200631365180016,0.0007580138044431806,0.06934465711192792,0.15157701395160486,0.3966468117706186
1687012408.918933,0.06831400096416473,-0.15215805172920227,-0.985992431640625,-0.010467931628227234,-0.004442855715751648,-0.005660951137542725,0.03217863291501999,-0.001689472934231162,-0.004153787158429623,0.06917396136819708,0.15275138947212813,0.3965036879891553
1687012408.9920092,0.06818561255931854,-0.15448559820652008,-0.9856393337249756,0.0012113675475120544,-0.0007115304470062256,-0.008180856704711914,0.059313978999853134,-0.0010204871650785208,-0.0044542583636939526,0.06906902735020937,0.15510677700408215,0.3961245299284465
1687012409.005931,0.06767226755619049,-0.15781717002391815,-0.9851468205451965,-0.007888339459896088,-0.0028730928897857666,-0.003058135509490967,0.11107233911752701,-0.009454273618757725,-0.008572837337851524,0.06858483477967614,0.15847972620885611,0.3957199950906308
1687012409.050354,0.06770575791597366,-0.1604183316230774,-0.9847242832183838,0.027905821800231934,0.016390636563301086,0.005232095718383789,0.06332230567932129,-8.838041685521603e-05,-0.010730263777077198,0.06864801815952537,0.16111445447741748,0.3947834314421519
1687012409.234352,0.06750297546386719,-0.16356800496578217,-0.9842199087142944,-0.005979530513286591,0.006433025002479553,-0.0013147592544555664,0.05527476593852043,0.0032245919574052095,-0.0002625760971568525,0.0684780195637459,0.16430629339403913,0.3941489171786457
1687012409.2503772,0.06804625689983368,-0.16601848602294922,-0.9837720990180969,-0.0034405365586280823,0.0013456642627716064,-0.011497676372528076,0.06081822142004967,0.003479367820546031,-0.011773156933486462,0.06905872535642145,0.1667907437304583,0.3934889803394593
1687012409.291273,0.06842546164989471,-0.16818606853485107,-0.9833775758743286,0.0019480884075164795,0.007038027048110962,-0.018117785453796387,0.05504550784826279,0.003917102236300707,-0.0018279156647622585,0.06947011083525426,0.16898923200573387,0.3930590296131653
1687012409.3029752,0.0685521811246872,-0.1711207628250122,-0.9828622937202454,-0.009042896330356598,0.002221241593360901,-0.01722925901412964,0.07975862920284271,-0.001885037636384368,-0.012785558588802814,0.06963471869105153,0.17196709379644382,0.3927139751384937
1687012409.306106,0.06876577436923981,-0.17419973015785217,-0.9823063015937805,0.02303110808134079,-0.020792290568351746,0.001959681510925293,0.017866982147097588,0.01063599158078432,0.001530197449028492,0.06989038683604169,0.17509301651369,0.392016833656012
1687012409.41215,0.06901703774929047,-0.17673741281032562,-0.9818353056907654,-0.0028854385018348694,0.00879921019077301,-0.007071554660797119,0.07999662309885025,0.005961256101727486,-0.008423433639109135,0.07017847116840185,0.1776706898350989,0.3918193678834536
1687012409.4264898,0.0696607455611229,-0.17842607200145721,-0.9814843535423279,0.008952543139457703,-0.003107711672782898,0.01236814260482788,0.010673473589122295,0.021021965891122818,-0.010019599460065365,0.07085607483607975,0.17938662190121957,0.39118148019109555
1687012409.534297,0.06981062144041061,-0.1817871332168579,-0.980856716632843,-0.014802679419517517,-0.014303535223007202,0.007468044757843018,0.018775075674057007,0.004008892923593521,-0.011529877781867981,0.07105329254365428,0.1828035689963103,0.39044026231761475
1687012409.549912,0.07019273936748505,-0.1838938146829605,-0.9804366827011108,-0.0023826733231544495,0.002497360110282898,-0.01619112491607666,0.07646974921226501,-0.00813467800617218,-0.01842300407588482,0.07147140267750064,0.18494636465211814,0.3896530143342776
1687012409.628767,0.07010132074356079,-0.18602341413497925,-0.9800413846969604,0.005856938660144806,0.003955557942390442,-0.01684582233428955,0.06227634847164154,0.0008000500965863466,-0.01617276668548584,0.07140732593108297,0.18711335315199312,0.38888554015093296
1687012409.643146,0.07055389881134033,-0.18884210288524628,-0.9794696569442749,-0.007763974368572235,-0.008209869265556335,0.0013049840927124023,0.031806278973817825,0.01712780073285103,-0.017888840287923813,0.07190855739394815,0.18998290595899067,0.38807529265849666
1687012409.7462149,0.07118089497089386,-0.19174548983573914,-0.9788600206375122,-0.006392069160938263,-0.008938074111938477,-0.008276820182800293,0.06957371532917023,0.006160815246403217,-0.02385498769581318,0.07259038172664507,0.1929403356989943,0.38739647100123836
1687012409.760401,0.07154271006584167,-0.19576020538806915,-0.9780386686325073,-0.006998017430305481,-0.007776767015457153,-0.0016518831253051758,0.07145702093839645,-0.007854246534407139,-0.003458502236753702,0.07301911055442137,0.19703259529391193,0.38642273067835115
1687012409.8327289,0.07139520347118378,-0.198883056640625,-0.9774191975593567,0.00256415456533432,0.012893706560134888,-0.00948876142501831,0.1088910698890686,-0.006998040713369846,0.005319742485880852,0.07291511258197449,0.20021807828485938,0.3857636023067378
1687012409.846528,0.07088838517665863,-0.20565801858901978,-0.9760530591011047,-0.0035208389163017273,-0.006484895944595337,0.012094378471374512,0.1183435246348381,-0.005087045021355152,-0.013637970201671124,0.07250029993150615,0.20713604452287682,0.38434224427767
1687012409.850244,0.07113145291805267,-0.2078218311071396,-0.9755769371986389,0.0021565183997154236,0.002713218331336975,-0.014703154563903809,0.06282815337181091,-0.007336173206567764,-0.01677330955862999,0.07278339234866295,0.20934763769599307,0.3833879832776287
1687012409.891501,0.07114091515541077,-0.2116081863641739,-0.9747620224952698,0.0031846463680267334,-0.00979679822921753,-0.007781922817230225,0.05658787861466408,-0.005800239741802216,-0.010510020889341831,0.07285368941837617,0.21322011169694227,0.3821644747055009
1687012409.983554,0.0709540843963623,-0.21317794919013977,-0.9744335412979126,0.01040579378604889,-0.005785644054412842,0.0019298791885375977,0.03439118713140488,-0.004730802495032549,-0.004881895612925291,0.0726874394984954,0.2148265318583217,0.3817782689355393
1687012409.999054,0.07082948833703995,-0.21391259133815765,-0.9742815494537354,0.0043047890067100525,-0.0031283795833587646,-0.003654181957244873,0.0073571279644966125,-0.008914983831346035,-0.004313244018703699,0.07257152986519463,0.21557852248013676,0.3815102603789841
1687012410.077354,0.07050204277038574,-0.2142064869403839,-0.974240779876709,8.512288331985474e-05,-0.002803981304168701,-0.004808902740478516,0.008429272100329399,-0.005011943634599447,-0.012819048017263412,0.07224021214136933,0.21587939255379773,0.3811901446779686
1687012410.1671262,0.07024945318698883,-0.2144341766834259,-0.9742088913917542,-0.00022687017917633057,0.001726686954498291,0.00739675760269165,0.0209196750074625,0.00024016504175961018,-0.00366496411152184,0.0719846366432933,0.21611249183915238,0.3808286373627048
1687012410.1826,0.07004428654909134,-0.21456071734428406,-0.9741958379745483,0.0033352449536323547,0.0009377002716064453,-0.00207674503326416,-0.008743411861360073,-0.003511696355417371,0.009931538254022598,0.07177608004181521,0.21624205266810576,0.38115106551849504
1687012410.253258,0.06987875699996948,-0.21491923928260803,-0.9741286635398865,0.009817898273468018,-0.00929337739944458,-0.01149749755859375,0.007634895388036966,-0.008504324592649937,0.011950280517339706,0.07161196106285952,0.21660913302423945,0.3813247188195549
1687012410.27121,0.06964676827192307,-0.21524204313755035,-0.9740740060806274,0.012704923748970032,-0.0015548020601272583,-0.005738615989685059,0.017864231020212173,-0.011071078479290009,-0.006747439969331026,0.07137901838395497,0.21693968189026827,0.38132450794917616
1687012410.404142,0.06899315118789673,-0.2163161188364029,-0.9738825559616089,0.004096455872058868,-0.014488279819488525,-0.002344191074371338,-0.015433450229465961,-0.012873861938714981,-0.004609054885804653,0.07072523618933087,0.218039671397362,0.380916332282853
1687012410.4212232,0.06872491538524628,-0.21667753159999847,-0.973821222782135,3.1188130378723145e-05,-0.0015231072902679443,0.0015159249305725098,0.026586394757032394,-0.005862646736204624,0.005295840557664633,0.07045560307122373,0.21840985928422124,0.38094068415746163
1687012410.498149,0.0682971328496933,-0.21643748879432678,-0.9739046692848206,-0.0010516420006752014,0.0019294768571853638,0.0017367005348205566,-0.007420042995363474,-0.004915094003081322,0.005690387450158596,0.07001250406845806,0.21816398574789136,0.381152052940131
1687012410.512158,0.06810616701841354,-0.2167355716228485,-0.97385174036026,-0.0006928220391273499,-0.0028536319732666016,-0.0018257498741149902,-0.006793622858822346,-0.002680346602573991,-0.0009452108643017709,0.06982116110322004,0.2184693170288707,0.3811516084569132
1687012410.516176,0.06816188246011734,-0.2159818857908249,-0.9740152955055237,0.0016623437404632568,-0.002310320734977722,-0.006712853908538818,-0.01257716491818428,0.009461626410484314,0.01741308905184269,0.06986640205294557,0.2176973417024179,0.3816754987413043
1687012410.579598,0.06827649474143982,-0.21552899479866028,-0.974107563495636,0.008856691420078278,-0.008042752742767334,0.00027638673782348633,-0.017051231116056442,-0.0005464442074298859,0.004447690211236477,0.06997688395194711,0.21723352812123528,0.38218684948758314
1687012410.5905561,0.06829740107059479,-0.21484315395355225,-0.9742575883865356,0.007798187434673309,-0.0027776509523391724,-0.0072640180587768555,-0.0026675874833017588,-0.0016401158645749092,-0.0005382797680795193,0.06998749566741597,0.21653123779540118,0.3824035079968851
1687012410.6784492,0.06829718500375748,-0.2143915444612503,-0.9743571281433105,0.0002147778868675232,-0.0017491728067398071,-0.003014087677001953,-0.025742458179593086,-0.0036327815614640713,0.007691554259508848,0.06998015528245052,0.21606884063253873,0.3827755377369209
1687012410.692079,0.06806503236293793,-0.21372674405574799,-0.9745193719863892,0.0016066059470176697,0.0045745521783828735,-0.0006850957870483398,0.01582753285765648,-0.00011439109221100807,0.005329463165253401,0.06973147961055827,0.21538827300639302,0.3830576788518709
1687012410.765162,0.06792795658111572,-0.21353985369205475,-0.9745699167251587,-0.006999604403972626,0.0006187409162521362,-0.0009702444076538086,-0.020060913637280464,-0.0017090027686208487,-0.002953300718218088,0.06958790166231915,0.2151969669628728,0.3829911259819933
1687012410.856776,0.06779229640960693,-0.21317678689956665,-0.9746588468551636,0.0025354698300361633,0.0026970654726028442,0.006580233573913574,-0.006367250811308622,-0.005182120483368635,0.0030302228406071663,0.06944305875324654,0.21482533505050896,0.38303807027291137
1687012410.864939,0.06748529523611069,-0.21261586248874664,-0.9748026728630066,0.004566721618175507,-0.004013150930404663,-0.006444275379180908,-0.010773228481411934,-0.005720966495573521,-0.007740732282400131,0.06911941439557956,0.21425125527537042,0.383198917997381
1687012410.947709,0.06772959232330322,-0.2114701122045517,-0.9750348925590515,0.009098418056964874,-0.007432460784912109,-0.014024555683135986,-0.029646918177604675,0.004325542598962784,0.0021361997351050377,0.06935235753178517,0.21307884613080566,0.383206923325821
1687012410.961715,0.06787259131669998,-0.2111915946006775,-0.9750853180885315,0.006895482540130615,-0.008199229836463928,0.0014220476150512695,-0.008980300277471542,-0.012731026858091354,-0.009818930178880692,0.06949472795475325,0.21279389849254848,0.3831516143488536
1687012411.035676,0.06751380115747452,-0.21073801815509796,-0.9752084016799927,-0.002480842173099518,0.007246837019920349,-0.0034598112106323242,0.011510327458381653,-0.0028712062630802393,0.002865972463041544,0.06911984122324769,0.21232987395817654,0.38296449181206305
1687012411.0499802,0.06714748591184616,-0.21112588047981262,-0.9751497507095337,-0.002160295844078064,0.00917583703994751,-0.0007718801498413086,0.0013978168135508895,-0.0067105963826179504,-0.008243204094469547,0.06875011307904098,0.21272665796700013,0.38284905818667464
1687012411.1257892,0.06668378412723541,-0.21087665855884552,-0.9752355217933655,-0.006091125309467316,-0.011703267693519592,0.0034490227699279785,-0.02606128342449665,0.002763776108622551,0.006015293765813112,0.06827083957784658,0.2124717054691791,0.3829342814079928
1687012411.1386452,0.06690061092376709,-0.21079392731189728,-0.975238561630249,0.0007110908627510071,0.0047545284032821655,-0.0012018680572509766,0.022580644115805626,-0.001868881518021226,0.0012915116967633367,0.06849192563355198,0.21238707230571163,0.38313123149351624
1687012411.179656,0.06661800295114517,-0.21006669104099274,-0.9754148125648499,0.004838913679122925,-0.0020762234926223755,-0.012515485286712646,-0.03582114726305008,-0.006628483533859253,0.006365099921822548,0.06819120909751031,0.2116431682422837,0.3836192631959104
1687012411.3070068,0.06630893051624298,-0.20927488803863525,-0.9756060242652893,0.009267866611480713,-0.0020898431539535522,-0.008585870265960693,-0.020574770867824554,-0.005307199899107218,-0.0005597182316705585,0.06786254019440337,0.21083336592544613,0.38380377045472647
1687012411.31499,0.06590544432401657,-0.20869848132133484,-0.975756824016571,-0.005038134753704071,-0.00973103940486908,-0.0028045177459716797,-0.03395808860659599,-0.0050552645698189735,-0.0016375661361962557,0.06744046922005698,0.2102439529045467,0.3839235595643726
1687012411.395076,0.06599952280521393,-0.2056570202112198,-0.9763960838317871,0.0015053600072860718,0.007613241672515869,-0.0013260841369628906,-0.0178749468177557,0.0017936753574758768,1.3127690181136131e-05,0.0674923640041739,0.2071350339708284,0.3839418100661687
1687012411.408921,0.06583903729915619,-0.2048880010843277,-0.9765685200691223,-0.011075243353843689,0.0010306239128112793,0.00528562068939209,-0.03808470070362091,0.003942402545362711,0.005208022892475128,0.06731688778245061,0.20634928581807047,0.3841176026290015
1687012411.4847999,0.0660369023680687,-0.20335492491722107,-0.9768756031990051,-0.002072051167488098,-0.007323145866394043,-0.002845466136932373,-0.07260947674512863,-0.0011755716986954212,0.0006265868432819843,0.06749742170201763,0.20478323280655303,0.38406421880645086
1687012411.4979038,0.06570247560739517,-0.20141229033470154,-0.9773005247116089,-0.003782302141189575,0.0025597810745239258,-0.008401989936828613,-0.025946853682398796,-0.004217345267534256,0.009516019374132156,0.06712752050044486,0.20279954336961944,0.3847856944938593
1687012411.577487,0.06548768281936646,-0.20023907721042633,-0.9775559902191162,0.003741450607776642,-0.016191571950912476,-0.01609635353088379,-0.0600249283015728,0.004258697386831045,-0.0011078633833676577,0.06689129270718053,0.2016019334986796,0.3852580679310323
1687012411.590592,0.0654555931687355,-0.19743303954601288,-0.9781287312507629,0.0021255910396575928,-0.00585976243019104,-0.0075890421867370605,-0.07658597826957703,-0.00018993578851222992,0.0007974952459335327,0.06681957462120976,0.19873871856989064,0.38551688023649433
1687012411.6285582,0.06558279693126678,-0.19383440911769867,-0.9788396954536438,0.006316617131233215,0.002855435013771057,0.006076633930206299,-0.07576217502355576,0.0008619239088147879,0.007405729964375496,0.06690056582675213,0.19506918115426058,0.3861488886060274
1687012411.725512,0.06555028259754181,-0.18967942893505096,-0.9796555042266846,-0.00013584643602371216,-0.011706039309501648,0.0028488636016845703,-0.12358628958463669,0.013472258113324642,0.020090432837605476,0.0668119782204603,0.19083564254504584,0.38711370600835976
1687012411.733604,0.06552621722221375,-0.18640382587909698,-0.98028564453125,-0.009099200367927551,0.0025659650564193726,0.002716064453125,-0.032547011971473694,0.001538722077384591,0.009394511580467224,0.06674471463621932,0.187500538794788,0.3881616406676325
1687012411.780349,0.06580851972103119,-0.1838807463645935,-0.9807431697845459,-0.001721598207950592,0.010312050580978394,-0.0190432071685791,-0.05850351229310036,0.010562577284872532,0.014833752065896988,0.06700023406040567,0.1849330664419213,0.38898597359351594
1687012411.881544,0.06573135405778885,-0.18128922581672668,-0.9812306761741638,0.010120086371898651,0.0005488991737365723,-0.011597692966461182,-0.07920772582292557,0.004637576639652252,0.016213001683354378,0.06688875659055665,0.18229724696083935,0.3898041288635969
1687012411.8945,0.06564837694168091,-0.17799213528633118,-0.981839656829834,-0.008336350321769714,-0.0073410868644714355,-0.017885684967041016,-0.06265382468700409,-0.0022273429203778505,-0.0008520667906850576,0.06676325138555857,0.17894563048368,0.3906948581059846
1687012411.93029,0.06588280946016312,-0.17465688288211823,-0.9824227094650269,0.0064743757247924805,-0.017817452549934387,0.0065621137619018555,-0.09930908679962158,0.0010623715352267027,0.007859465666115284,0.06696131140465465,0.17555728468225973,0.391176480190383
1687012412.05654,0.06553399562835693,-0.17007862031459808,-0.9832490086555481,0.003954529762268066,0.0018505007028579712,-0.0006682276725769043,-0.10648465901613235,0.007863108068704605,0.014611445367336273,0.06655202941318472,0.17090944887302348,0.3921417060732354
1687012412.064475,0.06582356244325638,-0.16579708456993103,-0.9839606881141663,0.0009946823120117188,-0.010319828987121582,0.0030799508094787598,-0.11082916706800461,0.010119959712028503,0.006398655939847231,0.06679701293388024,0.1665662263288872,0.39273098965263004
1687012412.180955,0.06584279984235764,-0.1625443398952484,-0.9845019578933716,-0.007920429110527039,0.004600644111633301,0.014302372932434082,-0.045666806399822235,-0.0005934045184403658,-0.004747805185616016,0.06677985465204361,0.16326874013681217,0.39306727584655704
1687012412.1939769,0.0658564567565918,-0.1589559018611908,-0.9850867986679077,-0.008956417441368103,0.019170165061950684,-0.012929558753967285,-0.06475141644477844,-0.006103218533098698,0.010434675961732864,0.06675412224795284,0.159633020497775,0.3936341443465234
1687012412.198936,0.06555931270122528,-0.15737773478031158,-0.9853599667549133,0.012870877981185913,-0.002976849675178528,-0.00803297758102417,-0.06021539121866226,-0.01619899645447731,0.01093688141554594,0.0664354506996898,0.15803473948746277,0.3938966387507036
1687012412.2969599,0.06523630768060684,-0.15406066179275513,-0.9859054684638977,0.003550320863723755,-0.006019264459609985,-0.014384448528289795,-0.06831890344619751,-0.01052095927298069,0.011840558610856533,0.0660726105529263,0.15467669470627687,0.3945672303890724
1687012412.3102121,0.0654691681265831,-0.15152902901172638,-0.9862822890281677,-0.007836714386940002,-0.006841927766799927,0.011978089809417725,-0.04387405887246132,0.01404901035130024,0.009763626381754875,0.06628250803561922,0.15211498023937717,0.39504895585725286
1687012412.420848,0.06577695906162262,-0.14796125888824463,-0.9868033528327942,-0.0007897689938545227,-0.0018495023250579834,0.0069296956062316895,-0.09043125808238983,0.010949445888400078,0.01322214026004076,0.06655814490881946,0.14850652331238534,0.39589232460863594
1687012412.434696,0.0658947303891182,-0.1457492560148239,-0.9871246218681335,-0.016090035438537598,-0.0160549134016037,0.009967029094696045,-0.061097074300050735,0.003287264611572027,-0.0013436197768896818,0.06665532421722618,0.146270277991379,0.3963060089402838
1687012412.439198,0.06599363684654236,-0.14366772770881653,-0.9874231219291687,-0.0029748305678367615,0.0018372982740402222,0.004940211772918701,-0.04524132236838341,0.008170614019036293,0.008881720714271069,0.06673495582353332,0.14416659523024986,0.39671757344548675
1687012412.468423,0.06623018532991409,-0.14149269461631775,-0.98772132396698,-0.004981398582458496,0.016172289848327637,-0.02140343189239502,-0.013538256287574768,-0.006231493782252073,0.010504650883376598,0.06695329037040634,0.14196912337517492,0.3973778511941651
1687012412.565473,0.06647305190563202,-0.1399983912706375,-0.9879179000854492,0.011682473123073578,0.011824578046798706,-0.015210151672363281,-0.030253363773226738,0.007633898872882128,0.01665661856532097,0.06718473995353559,0.14045978869843706,0.3979948397647509
1687012412.580328,0.06675221025943756,-0.13903497159481049,-0.9880351424217224,-0.012537725269794464,7.320940494537354e-05,-0.016878187656402588,0.012904359959065914,-0.001036820700392127,-0.011351645924150944,0.06745805192061755,0.13948685379411818,0.3983941879492992
1687012412.6214209,0.06704144924879074,-0.13823866844177246,-0.9881272912025452,0.017431214451789856,0.0021608173847198486,0.009108126163482666,-0.03751256316900253,0.008358101360499859,0.013351037167012691,0.06774316249462792,0.13868279064738004,0.3981766177846061
1687012412.715997,0.06689818203449249,-0.1380416303873062,-0.9881645441055298,-0.012042827904224396,-0.004124492406845093,0.0008293390274047852,0.00388720678165555,0.005446999799460173,0.004872397985309362,0.06759629461257599,0.1384838347928345,0.3985737003889495
1687012412.731055,0.06742183864116669,-0.13813960552215576,-0.9881152510643005,-0.0008477270603179932,-0.0026837289333343506,0.007188737392425537,-0.005027769133448601,0.006734549533575773,0.0006620069034397602,0.06812716917124817,0.13858277103067856,0.3985121234937593
1687012412.768338,0.06719475984573364,-0.13790637254714966,-0.9881632924079895,-0.0032604262232780457,0.005276992917060852,-0.011439979076385498,0.019809892401099205,-0.0021533069666475058,0.00022877717856317759,0.06789513279714925,0.1383472784524626,0.3987375760917164
1687012412.8666859,0.0673086941242218,-0.1379391998052597,-0.988150954246521,0.011243566870689392,0.012984991073608398,-0.015205979347229004,0.010895270854234695,-0.0003193651791661978,0.012214399874210358,0.06801074417044928,0.13838042002769313,0.39879241774533475
1687012412.881433,0.06717652082443237,-0.13859178125858307,-0.9880686402320862,-0.0015179440379142761,-0.00017161667346954346,-0.005980432033538818,0.01264186017215252,-0.005497172009199858,-0.0026622838340699673,0.06788324244309843,0.13903933825278503,0.39918894802781163
1687012412.917728,0.0673007220029831,-0.13870280981063843,-0.9880446195602417,0.0006161555647850037,0.007919743657112122,-0.0029679536819458008,0.029662834480404854,0.0027485964819788933,-0.0016424263594672084,0.06801001695984696,0.13915144472952667,0.39922290762906487
1687012413.0166779,0.06734766811132431,-0.13973216712474823,-0.9878963828086853,-0.0004836469888687134,-0.007988139986991882,0.005413472652435303,0.008842283859848976,0.010876120068132877,0.002855319995433092,0.06806748710317893,0.1401909286766812,0.39931225099066553
1687012413.031169,0.0674651712179184,-0.14069150388240814,-0.9877521991729736,0.00028385967016220093,9.706616401672363e-05,-0.007517576217651367,0.027574071660637856,0.003150378353893757,-0.0018069430952891707,0.06819580327996061,0.1411598333799125,0.3992070683202245
1687012413.070416,0.06722355633974075,-0.14216694235801697,-0.9875573515892029,0.0009832307696342468,-0.005278691649436951,0.0025720596313476562,-0.004626653157174587,0.0019982061348855495,0.00965037476271391,0.06796568825236814,0.14265025537017156,0.3991502912833399
1687012413.227097,0.06718714535236359,-0.14303748309612274,-0.9874341487884521,-0.0048092082142829895,-0.004408165812492371,-0.011360406875610352,0.024763016030192375,0.0012476386036723852,0.009039312601089478,0.06793744015291732,0.14352978698230806,0.39939362447977744
1687012413.258704,0.0675414502620697,-0.1444821059703827,-0.987199604511261,0.0006958618760108948,0.004116535186767578,-0.015134990215301514,0.06447452306747437,0.0025047394447028637,0.009804106317460537,0.06831076186984646,0.14498957123942013,0.39986888244140856
1687012413.264484,0.06755439937114716,-0.14577363431453705,-0.9870088696479797,-0.003787912428379059,0.006781354546546936,-0.01672959327697754,0.035426221787929535,-0.011112002655863762,0.004726190585643053,0.06833698548588782,0.1462949162946402,0.40023250220324713
1687012413.269109,0.0677478089928627,-0.1480560451745987,-0.9866557717323303,0.003983758389949799,-0.008392289280891418,0.007224678993225098,0.04103422164916992,0.008573107421398163,0.0024507855996489525,0.06855646946372396,0.14860235885293582,0.4000891349574392
1687012413.277828,0.06771136075258255,-0.15007224678993225,-0.9863536357879639,-0.005089282989501953,0.005327403545379639,0.0007426738739013672,0.0666172131896019,0.006531261373311281,-0.006268071010708809,0.06854062522457594,0.1506413503902139,0.40008335029377406
1687012413.374228,0.06797479838132858,-0.15271897614002228,-0.9859291911125183,0.003955140709877014,-0.02301648259162903,0.01092308759689331,-0.01923941634595394,0.014662602916359901,0.005598375573754311,0.0688359795006112,0.153318934419716,0.3996924283683494
1687012413.469641,0.06802556663751602,-0.15423867106437683,-0.985689103603363,-0.004976250231266022,0.003970161080360413,0.0003070235252380371,0.057879868894815445,0.002689296379685402,-0.007002504542469978,0.06890395800886433,0.154856861222304,0.39956023534177976
1687012413.4840388,0.06815488636493683,-0.1554441601037979,-0.9854907393455505,0.010580472648143768,0.0101042240858078,-0.002134382724761963,0.028236886486411095,-0.0029640619177371264,0.00889263954013586,0.06904837697890501,0.15607706045940278,0.3993350745188344
1687012413.585643,0.06766198575496674,-0.15792496502399445,-0.985130250453949,-0.003651358187198639,0.0051387399435043335,-0.020118772983551025,0.07885700464248657,-0.017078638076782227,-0.010955899953842163,0.06857559533230088,0.15858889155111464,0.3993442542734422
1687012413.599903,0.06729347258806229,-0.16152028739452362,-0.9845724105834961,0.0032936930656433105,-0.013543769717216492,0.004134178161621094,0.036079276353120804,-0.006358971353620291,0.00017731147818267345,0.06824179020635543,0.16223097013141247,0.3985550047465935
1687012413.682517,0.06655070185661316,-0.1645955890417099,-0.9841134548187256,-0.008475743234157562,-0.0030984878540039062,0.001859426498413086,0.09058184921741486,-0.006805493962019682,-0.012789352796971798,0.06752222518639278,0.1653479929443463,0.39820288731921316
1687012413.6960921,0.06655748933553696,-0.1689603179693222,-0.9833730459213257,-2.9161572456359863e-05,-0.006759867072105408,-0.0034128427505493164,0.06599922478199005,-0.0005447575822472572,0.00035727466456592083,0.06757978284202486,0.16977472018776307,0.39748798128340607
1687012413.762948,0.06628721952438354,-0.17317798733711243,-0.9826573133468628,-0.001177959144115448,0.0025542229413986206,0.016348719596862793,0.07535282522439957,-0.0016927572432905436,0.006491533480584621,0.06735506754855644,0.17405549455349276,0.39709304878596696
1687012413.776361,0.06570828706026077,-0.1755160689353943,-0.9822812676429749,-0.0030404403805732727,0.008310288190841675,-0.012698531150817871,0.0841427594423294,-0.019085507839918137,-0.006685388274490833,0.06679404719951886,0.17642994508999385,0.39688277059809
1687012413.853356,0.06518613547086716,-0.18038074672222137,-0.9814344644546509,0.011779196560382843,-0.008034735918045044,-0.002711653709411621,0.05099581927061081,-0.008638814091682434,-0.0014790415298193693,0.06632183739676234,0.1813735307633538,0.39594085929970485
1687012413.8672729,0.0646369457244873,-0.18280448019504547,-0.9810222387313843,-0.002335295081138611,0.004291936755180359,-0.019023537635803223,0.08519555628299713,-0.018427085131406784,-0.015625154599547386,0.06579224728351109,0.18383825162961942,0.39551533238332226
1687012413.94377,0.06455542147159576,-0.18674133718013763,-0.9802858233451843,0.016407720744609833,-0.027812466025352478,0.005356013774871826,0.04310993105173111,0.000828723656013608,-0.01485157199203968,0.06575872736088766,0.1878440877795063,0.39439318014677216
1687012414.035696,0.06413167715072632,-0.18934407830238342,-0.9798142313957214,-0.009367868304252625,-0.0015433579683303833,-0.009565651416778564,0.06594782322645187,-0.009475934319198132,-0.009790168143808842,0.06535966103744338,0.19049410108055537,0.3939990173639382
1687012414.048712,0.06411746144294739,-0.192952960729599,-0.9791108965873718,0.0027618184685707092,-0.001978054642677307,0.015930354595184326,0.04384594038128853,-0.0027869613841176033,-0.009088624268770218,0.06539202862285165,0.19417077431047483,0.39305137133808304
1687012414.1339412,0.06349968165159225,-0.19554786384105682,-0.9786362051963806,-0.009956583380699158,0.004813045263290405,-0.009645044803619385,0.0779535323381424,-0.018048562109470367,-0.02109249122440815,0.06479506033457204,0.19681607478426036,0.3924335923263827
1687012414.146909,0.06339610368013382,-0.19904503226280212,-0.977937638759613,0.0028270483016967773,-0.01729404926300049,-0.006818830966949463,0.04202806577086449,-0.004369412083178759,0.0005584099562838674,0.0647357452714279,0.2003833652866747,0.39146724903676333
1687012414.2132468,0.06322744488716125,-0.20088154077529907,-0.9775729775428772,0.000508524477481842,0.01408347487449646,-0.013927876949310303,0.08935651928186417,-0.0179327130317688,-0.010126325301826,0.06458801672112767,0.20225772645481208,0.3909300327566142
1687012414.226081,0.06275550276041031,-0.20460394024848938,-0.9768310785293579,0.010746099054813385,-0.012467578053474426,-0.00560605525970459,0.023476842790842056,-0.014525199308991432,0.001095569459721446,0.06415579651352812,0.2060590637061102,0.3902946512014039
1687012414.3062692,0.062461115419864655,-0.2060093879699707,-0.9765545129776001,0.01052168384194374,-0.003707379102706909,0.0009533166885375977,0.0647207722067833,-0.0025639664381742477,-0.008001523092389107,0.06387369831117602,0.20749510277035105,0.38998264804610255
1687012414.31931,0.06261272728443146,-0.20956403017044067,-0.9757881760597229,-0.0012571290135383606,0.0026853829622268677,-0.0071219801902771,0.07486333698034286,-0.009585567750036716,-0.013991771265864372,0.06407846231179447,0.21112906576106077,0.38936738395197407
1687012414.362908,0.062190860509872437,-0.21313661336898804,-0.9750410914421082,-0.0019644126296043396,-0.010450392961502075,0.010349929332733154,0.0327998585999012,-0.002620958024635911,-0.006446635350584984,0.06369652522907208,0.2147842189158515,0.3884693161291761
1687012414.486298,0.06164669618010521,-0.21318605542182922,-0.9750648140907288,-0.005707964301109314,0.008428379893302917,-0.00476306676864624,0.029462341219186783,-0.012530135922133923,-0.007350179832428694,0.06313914039997597,0.2148348222047464,0.38819845226260313
1687012414.4995542,0.06143523380160332,-0.21512505412101746,-0.9746522307395935,-0.0005221404135227203,-0.021737083792686462,-0.007479727268218994,-0.014189798384904861,0.004202238284051418,0.006099049933254719,0.06294969988468896,0.2168198777956723,0.38773456329352224
1687012414.605653,0.061102062463760376,-0.2149491012096405,-0.9747119545936584,0.007440429180860519,0.0008072853088378906,-0.005802571773529053,0.03265272080898285,-0.011266377754509449,-0.015845930203795433,0.06260538112087163,0.21663970952134748,0.3873477086322997
1687012414.6179318,0.06078373268246651,-0.21715305745601654,-0.9742432236671448,0.00545467808842659,-0.0004219859838485718,0.005355894565582275,0.046647898852825165,-0.010724957101047039,-0.015070151537656784,0.062309950924161056,0.2188969877246424,0.38662671142938937
1687012414.698395,0.06061966344714165,-0.21833878755569458,-0.97398841381073,0.00426071509718895,0.0017708241939544678,0.0005997419357299805,0.019811976701021194,-0.01019880548119545,0.0026659024879336357,0.06215841050748425,0.22011186280766415,0.3860580855065336
1687012414.711831,0.06006087362766266,-0.2192060649394989,-0.9738281965255737,0.0009590312838554382,-3.218650817871094e-05,-0.0007659196853637695,0.024433095008134842,-0.007436308078467846,-0.009333635680377483,0.061596997839194444,0.22100067508008278,0.3857576226145667
1687012414.716751,0.0597858801484108,-0.22074739634990692,-0.9734969139099121,-0.0027942918241024017,0.0006698966026306152,-0.0023179054260253906,0.04266282916069031,-0.008112218230962753,-0.0016994846519082785,0.0613364937527483,0.22258069752218357,0.3854291165500633
1687012414.746264,0.0594862625002861,-0.22140784561634064,-0.9733652472496033,-0.0017775148153305054,0.001803383231163025,-0.003136157989501953,0.023394063115119934,-0.008447243832051754,-0.011952787637710571,0.06103810245631069,0.22325790542395554,0.38513982698925325
1687012414.814615,0.059391919523477554,-0.22272001206874847,-0.9730716347694397,7.15889036655426e-05,-0.004330754280090332,-0.011364400386810303,0.02708342671394348,0.003335556946694851,-0.0009001367725431919,0.06095988105355654,0.22460367637869882,0.38466383917421193
1687012414.905246,0.059303008019924164,-0.22375857830047607,-0.9728387594223022,0.004234600812196732,-0.013256177306175232,-0.002762436866760254,-0.008222541771829128,0.0007977418135851622,-0.0020150691270828247,0.060883382380532126,0.22566912761986388,0.3845932382088202
1687012414.9177299,0.05938037484884262,-0.22296985983848572,-0.9730151295661926,0.0036994703114032745,-0.0021582841873168945,-0.006339728832244873,-0.011088991537690163,-5.118479020893574e-05,0.0017676848219707608,0.060951594136181224,0.22485996849934675,0.38483236070229976
1687012414.995229,0.05940878018736839,-0.2240545004606247,-0.9727641940116882,-0.0039583295583724976,-0.0076044052839279175,0.0020000338554382324,0.012690506875514984,0.004152614623308182,0.004999497439712286,0.06099636880885314,0.2259727569120866,0.3849001407282862
1687012415.085784,0.059557218104600906,-0.22391165792942047,-0.9727879762649536,-0.00886751338839531,-0.0028796643018722534,-0.0017297863960266113,-0.008374608121812344,0.012902874499559402,-0.0005796253681182861,0.061146902832484785,0.2258262041301489,0.3848574630097164
1687012415.099133,0.05969766527414322,-0.22413742542266846,-0.9727274179458618,-0.002400904893875122,0.0007487684488296509,0.007029175758361816,0.007916169241070747,0.003707422874867916,-0.0027947761118412018,0.061294546874835404,0.22605784654747743,0.3847486263729611
1687012415.1698508,0.05972714349627495,-0.22439058125019073,-0.9726672172546387,-0.0007366538047790527,-0.0030416548252105713,-0.007587909698486328,0.007376435678452253,0.004894837737083435,-0.00366429821588099,0.061328519490138116,0.22631761744750475,0.38455748108557475
1687012415.1820831,0.06004411354660988,-0.22494609653949738,-0.9725193977355957,0.004897303879261017,-0.008025065064430237,-0.012267589569091797,-0.006578395143151283,0.011017179116606712,-0.0013752446975558996,0.0616625173128924,0.22688771892492224,0.38416479227443306
1687012415.267941,0.06076440587639809,-0.22509950399398804,-0.972439169883728,0.004329599440097809,-0.010297805070877075,-0.010928750038146973,0.006303359288722277,0.018183834850788116,-0.006403891835361719,0.06240545109094123,0.22704515866925964,0.38411758302443594
1687012415.280921,0.06132148206233978,-0.22541019320487976,-0.9723321795463562,0.0017430968582630157,-0.003593653440475464,-0.0014684200286865234,-0.015517161227762699,0.012812416069209576,-0.0006702394457533956,0.0629829766853463,0.2273640511005942,0.38382123165601667
1687012415.359936,0.061702001839876175,-0.2253149449825287,-0.9723302125930786,-0.0013992562890052795,-0.0021020174026489258,0.0007573366165161133,0.0024239325430244207,0.0029300462920218706,-0.0006703726248815656,0.0633728930978382,0.2272662783703799,0.38362414636613557
1687012415.3673968,0.06182435154914856,-0.22519700229167938,-0.9723497629165649,-0.004390262067317963,0.003242671489715576,0.0029894113540649414,0.00025536492466926575,0.008789089508354664,-0.004822174087166786,0.06349694604533672,0.2271452233455176,0.3836826589831289
1687012415.4445,0.06193246319890022,-0.2255546748638153,-0.9722599983215332,-0.019619829952716827,-0.0039985328912734985,0.0433354377746582,-0.0038181617856025696,0.011384428478777409,0.0017076971707865596,0.06361354078400652,0.22751233980842103,0.38368046127686867
1687012415.452714,0.061925869435071945,-0.22515465319156647,-0.9723531007766724,0.02590372785925865,0.001323506236076355,-0.008161425590515137,0.02331940457224846,-0.02014482393860817,-0.020805401727557182,0.06360071312303836,0.22710176045065095,0.38369617937723666
1687012415.501902,0.06221969425678253,-0.2258840799331665,-0.9721651673316956,0.014455728232860565,-0.006324157118797302,-0.015704095363616943,-0.011116554029285908,0.016081446781754494,0.01536172442138195,0.06391398479453295,0.227850470846921,0.3837246799275699
1687012415.595903,0.0621655248105526,-0.22572526335716248,-0.9722055196762085,-0.006226792931556702,0.006685376167297363,0.001914381980895996,0.01375719252973795,-0.001455292571336031,-0.00425871554762125,0.063855848702642,0.22768745017382552,0.38381924770906944
1687012415.609387,0.06235986948013306,-0.22610968351364136,-0.9721037149429321,0.007388066500425339,-0.0018871128559112549,0.003689408302307129,0.0018417213577777147,0.009396645240485668,0.0009014916140586138,0.06406161955407098,0.22808207748179754,0.38380966858108045
1687012415.714417,0.06240517273545265,-0.22646886110305786,-0.972017228603363,-0.004604868590831757,-0.00012414157390594482,-0.022291243076324463,0.0034458318259567022,-0.004996498115360737,0.0025037825107574463,0.06411372267875337,0.2284508133671781,0.3837889411400456
1687012415.7793012,0.06282395124435425,-0.22640547156333923,-0.9720050096511841,0.0005458071827888489,-0.0007063150405883789,0.020085453987121582,-0.0043120007030665874,0.019251761958003044,0.002746995771303773,0.06454358903923604,0.22838573348065122,0.3831378817870076
1687012415.7920132,0.06294628232717514,-0.22620515525341034,-0.9720436930656433,0.0069847553968429565,0.000924423336982727,-0.0005972385406494141,0.019631149247288704,-0.009195325896143913,-0.014239444397389889,0.06466634527337355,0.2281800810896958,0.38335383050376415
1687012415.79651,0.06329314410686493,-0.22624152898788452,-0.9720126986503601,0.010071121156215668,-0.00015307962894439697,-0.004732847213745117,-0.020079467445611954,0.007968569174408913,0.004830986261367798,0.06502375001825171,0.22821742514467833,0.38293634002177496
1687012415.895252,0.06336887925863266,-0.2259470373392105,-0.9720762968063354,0.009522363543510437,-0.015553772449493408,-0.003906369209289551,-0.004520880989730358,0.006038576364517212,0.01222665049135685,0.06509709723554605,0.22791510991902583,0.38327603156399515
1687012415.9859052,0.06420177221298218,-0.2257392257452011,-0.9720699191093445,0.014777734875679016,0.008316770195960999,-0.015250027179718018,0.015760822221636772,-0.009082851931452751,-0.014478396624326706,0.06595067079403318,0.22770178176807646,0.383307935933366
1687012415.998602,0.06393564492464066,-0.22627681493759155,-0.9719624519348145,-0.0014508962631225586,-0.0033679455518722534,0.008781909942626953,-0.008823174051940441,0.012922404333949089,0.017552241683006287,0.06568532172443035,0.2282536446360692,0.38323483501755956
1687012416.0768042,0.06434331834316254,-0.22582674026489258,-0.9720402359962463,0.00722040981054306,0.017864719033241272,0.006891310214996338,0.01684672385454178,0.004255323670804501,-0.010605961084365845,0.06609766223872475,0.22779161212995644,0.3832428280604893
1687012416.0836658,0.06390125304460526,-0.2243935465812683,-0.9724012613296509,-0.005322754383087158,-0.0009177029132843018,-0.005504012107849121,-0.0763179287314415,-0.008139205165207386,0.011268711648881435,0.06562054994348658,0.22632066744573814,0.3834345899448716
1687012416.088776,0.06453178077936172,-0.21485070884227753,-0.9745126366615295,0.001035243272781372,-0.024590179324150085,-0.014241635799407959,-0.3138371407985687,0.013818558305501938,0.005348038859665394,0.06612300460872712,0.21653896032628686,0.3845706106688355
1687012416.130322,0.06547728925943375,-0.1994473785161972,-0.9777184724807739,0.021497808396816254,0.035995274782180786,-0.009540379047393799,-0.2443709820508957,0.02322191372513771,0.02749701775610447,0.06686962372221025,0.200793937960429,0.3862413001892421
1687012416.1940389,0.06580190360546112,-0.19482208788394928,-0.9786288738250732,0.012841902673244476,-0.011919230222702026,0.0008761882781982422,-0.10798508673906326,-0.010511904954910278,-0.005301943048834801,0.06713782015345651,0.1960760529075915,0.38722437563208445
1687012416.255075,0.06597965955734253,-0.18897224962711334,-0.9797633290290833,0.008452728390693665,0.01503734290599823,-0.005618751049041748,-0.027383629232645035,0.008292587473988533,0.0006468934006989002,0.06724092064513586,0.19011544059556112,0.3878669323864527
1687012416.3800511,0.0661073625087738,-0.188491091132164,-0.9798473715782166,-0.0010743886232376099,-0.02250741422176361,0.006123006343841553,-0.07160665839910507,0.00817026011645794,0.0016927168471738696,0.06736491076409654,0.18962546435139452,0.38780703247120163
1687012416.386615,0.06628799438476562,-0.18586613237857819,-0.9803364872932434,-0.003101341426372528,0.006697475910186768,0.004094481468200684,-0.039840877056121826,0.007759067229926586,0.00858411192893982,0.06751482138649897,0.18695328701010264,0.38827116971337294
1687012416.467521,0.0662224292755127,-0.18247634172439575,-0.9809775352478027,-0.0013573095202445984,0.009685859084129333,-0.01023334264755249,-0.054447073489427567,-0.00802859477698803,0.007855471223592758,0.06740430187952885,0.18350449646787964,0.3893039945702704
1687012416.479278,0.06587214022874832,-0.18149743974208832,-0.9811826944351196,0.0024567246437072754,-0.007803052663803101,-0.0008271336555480957,-0.031105130910873413,-0.004098035395145416,0.004029241390526295,0.06703485186187243,0.18250897494511217,0.3894342223762363
1687012416.558357,0.06547791510820389,-0.17943288385868073,-0.9815887808799744,0.011228017508983612,0.013066351413726807,-0.020669519901275635,-0.03863490745425224,-0.0187597144395113,-0.006214275024831295,0.06660737913522403,0.1804099462040329,0.38978235306517234
1687012416.5706182,0.0655459612607956,-0.17742836475372314,-0.9819484949111938,0.00038726627826690674,-0.005005672574043274,-0.005935966968536377,-0.06408096849918365,0.006506582722067833,0.016447361558675766,0.06665203538938283,0.17837273483219596,0.39044248606461174
1687012416.6425161,0.06538284569978714,-0.17496807873249054,-0.9824007749557495,0.00047409534454345703,-0.008259445428848267,0.005227923393249512,-0.05101177096366882,-0.001158527098596096,0.009203696623444557,0.06645614440562957,0.17587334213759534,0.391326930572259
1687012416.648995,0.0651809424161911,-0.173815056681633,-0.9826188087463379,-0.006617702543735504,-0.022092506289482117,0.001555025577545166,-0.06745994091033936,0.007317338138818741,0.010649059899151325,0.06623686359850842,0.17470238444416306,0.39199642634552223
1687012416.703151,0.06536056846380234,-0.17171496152877808,-0.9829760789871216,-0.003592975437641144,0.008140772581100464,0.003926396369934082,-0.02782203070819378,-0.0013659873511642218,0.006926561240106821,0.0663947951906484,0.17257023154284054,0.39276679743930765
1687012416.798732,0.06548008322715759,-0.16962605714797974,-0.9833307266235352,0.002299465239048004,0.00664694607257843,-0.008795738220214844,-0.038451991975307465,0.0032245919574052095,0.0089684734120965,0.06649192340524877,0.17045021205806193,0.3934705978489858
1687012416.811619,0.06576472520828247,-0.1665305644273758,-0.9838407039642334,-0.0004723593592643738,0.01717756688594818,-0.011276483535766602,-0.043240804225206375,0.008714609779417515,0.00920895580202341,0.06674559527628915,0.1673100529372878,0.39432730971896285
1687012416.848483,0.06591903418302536,-0.16500689089298248,-0.9840871095657349,0.0002888590097427368,-0.01565714180469513,-0.00016582012176513672,-0.06415575742721558,0.006747954059392214,0.0043408311903476715,0.06688504267188533,0.16576499865839597,0.3946308305899222
1687012416.94385,0.06589401513338089,-0.16227920353412628,-0.9845422506332397,0.004326947033405304,0.010591596364974976,-0.002853989601135254,-0.03305567800998688,-0.00195694318972528,0.007631499785929918,0.06682891104146436,0.1630000407187818,0.3952785765813291
1687012416.952187,0.06613066047430038,-0.15958040952682495,-0.9849674105644226,-0.0019521936774253845,-0.008113637566566467,0.004941225051879883,-0.06159330904483795,0.007765991613268852,0.012267663143575191,0.06703933213762411,0.16026560587065075,0.395887962134737
1687012417.0700312,0.06644675880670547,-0.1569417268037796,-0.9853700399398804,-0.008707486093044281,0.009908050298690796,-0.006359696388244629,-0.044422447681427,0.005153430625796318,0.013344844803214073,0.06733136821328466,0.1575932408053882,0.396342434331168
1687012417.082581,0.06615732610225677,-0.1543910801410675,-0.9857923984527588,-0.020701386034488678,-0.014294818043708801,0.05947709083557129,-0.1253112554550171,0.029827706515789032,0.019221510738134384,0.06701033416742067,0.15501111088382544,0.39665866560912916
1687012417.184957,0.06625796854496002,-0.15072916448116302,-0.9863521456718445,-0.004353061318397522,-0.0026216208934783936,0.0012447834014892578,-0.0553399883210659,-0.008168322965502739,-0.01318276859819889,0.06707399231726126,0.1513058213278361,0.39715721807745713
1687012417.197052,0.0665980651974678,-0.14732661843299866,-0.9868432283401489,0.010779261589050293,0.006961032748222351,-0.029209017753601074,-0.06047873571515083,-0.0034258540254086256,0.0018710155272856355,0.06738379097690538,0.147864849604802,0.39769513644671695
1687012417.2751632,0.06679384410381317,-0.14442959427833557,-0.9872581362724304,0.0024352818727493286,0.011067807674407959,0.0014946460723876953,-0.04518064856529236,0.008552955463528633,0.005010882392525673,0.06755296116336909,0.14493649196232847,0.39793790792902944
1687012417.2871861,0.0673370212316513,-0.14138706028461456,-0.987661600112915,-0.01457212120294571,0.01408301293849945,0.00038743019104003906,-0.0521460585296154,0.02034374512732029,0.00571688637137413,0.06807288869781636,0.1418624152010273,0.39889078813931017
1687012417.368722,0.06766136735677719,-0.1394038051366806,-0.9879212975502014,0.021785669028759003,-0.00830124318599701,-0.003564298152923584,-0.06537766754627228,0.0010769299697130919,0.010953926481306553,0.06838183232429403,0.13985932105787577,0.39870544587853474
1687012417.380363,0.06792818009853363,-0.13739581406116486,-0.9881842732429504,-0.012706615030765533,-0.00892069935798645,0.00789862871170044,-0.03972268104553223,0.029414471238851547,0.011631101369857788,0.06863243237075804,0.13783180690725128,0.39932962410889467
1687012417.454224,0.06887995451688766,-0.13548123836517334,-0.9883826971054077,0.0006848722696304321,0.007872015237808228,-0.0027976632118225098,-0.03759530186653137,0.0022101053036749363,-0.014470607042312622,0.06957706604939701,0.13589916277542857,0.3994357797703233
1687012417.466989,0.06898865848779678,-0.135135218501091,-0.9884225130081177,0.0006677210330963135,-0.0030483603477478027,-0.015178561210632324,-0.01665104739367962,0.0037112399004399776,0.007793153636157513,0.06968371712465175,0.13554993047950756,0.3994591588171182
1687012417.545514,0.06899093091487885,-0.1347637176513672,-0.9884730577468872,-0.0029661431908607483,0.006193190813064575,-0.002386927604675293,-0.0015360102988779545,-0.006900391541421413,-0.013784309849143028,0.06968245697056441,0.13517500618330255,0.3994236572990568
1687012417.553691,0.06910265982151031,-0.1343052089214325,-0.9885276556015015,0.002094849944114685,-0.008562803268432617,-0.003919243812561035,-0.021091513335704803,0.00042614201083779335,-0.003658172907307744,0.0697910987745371,0.13471228918645317,0.39912214832658277
1687012417.634819,0.0694260373711586,-0.13368691504001617,-0.988588809967041,0.001115351915359497,-0.005030721426010132,-0.007123470306396484,-0.03272344544529915,0.006345195230096579,-0.0018422299763187766,0.07011230386852513,0.13408836614255773,0.3991057124361053
1687012417.6472569,0.06989818066358566,-0.13304470479488373,-0.988642156124115,-0.00745922327041626,-0.0013241618871688843,0.0034279823303222656,-0.019141368567943573,0.009092955850064754,0.0036079958081245422,0.07058374385157445,0.1334403587918067,0.3990690538261868
1687012417.6886039,0.06970079243183136,-0.1323036551475525,-0.9887555241584778,-0.00251634418964386,0.011743992567062378,0.011491179466247559,0.004941152408719063,0.004854712635278702,-0.007388995494693518,0.07037703270175343,0.1326927049776816,0.39901446185678374
1687012417.7873878,0.06983158737421036,-0.13231723010540009,-0.9887444972991943,-0.0010602250695228577,-0.00043420493602752686,-0.015390574932098389,-0.006064671091735363,0.0036705827806144953,-5.990953650325537e-05,0.07050944547895618,0.1327064045834115,0.39886376139030844
1687012417.79982,0.06972680985927582,-0.132602721452713,-0.9887136816978455,0.008047252893447876,0.0083809494972229,-0.02208954095840454,0.010789675638079643,-0.012997077777981758,-0.009639832191169262,0.07040618597687945,0.1329944334098029,0.39868461845082376
1687012417.839627,0.06959971785545349,-0.13333572447299957,-0.9886240363121033,-0.0009961947798728943,-0.00022442638874053955,0.0005411505699157715,0.025760725140571594,0.0024212049320340157,-0.009613866917788982,0.07028463264654414,0.1337340079315254,0.3984821148166317
1687012417.9344049,0.06955476850271225,-0.1338135153055191,-0.9885626435279846,-0.0006765797734260559,-0.003744453191757202,0.01019960641860962,0.002840939676389098,-0.0035689545329660177,-0.011895796284079552,0.07024373493919446,0.134216107941485,0.3983765444644822
1687012417.946741,0.06936223804950714,-0.13435226678848267,-0.988503098487854,-0.009990282356739044,-0.0016645491123199463,-0.0006173849105834961,0.028244566172361374,-0.007839599624276161,-0.0017695256974548101,0.07005414301559316,0.13475977092666316,0.39821659784476704
1687012418.0242581,0.06918705254793167,-0.13480135798454285,-0.9884542226791382,0.0021478012204170227,-0.0002541542053222656,0.0012868642807006836,-0.0028916033916175365,0.0028914306312799454,0.0008479621028527617,0.06988122414451314,0.13521299498908812,0.3982118999154783
1687012418.1165152,0.06922512501478195,-0.1353967785835266,-0.9883701801300049,-0.009410664439201355,0.006765201687812805,-0.006975889205932617,0.03054984286427498,0.003781192470341921,-0.005618525668978691,0.06992547926552477,0.13581391698730205,0.39807650824400864
1687012418.128351,0.06938710808753967,-0.13585373759269714,-0.9882960915565491,0.006098128855228424,-0.005396842956542969,0.005233407020568848,-0.01952734962105751,0.0050447736866772175,0.004487504251301289,0.07009380182623554,0.13627513305988154,0.3978611268608883
1687012418.2078729,0.06906560063362122,-0.1367206573486328,-0.9881990551948547,-0.002460986375808716,0.003496214747428894,-0.015569806098937988,0.0483558252453804,-0.01642456464469433,-0.0106646828353405,0.06977691108099779,0.13715022423048495,0.3977281266434758
1687012418.329237,0.06895390152931213,-0.1371878832578659,-0.9881421327590942,-0.0006250366568565369,-0.0016518086194992065,0.0036450624465942383,-0.014517721720039845,-0.006026342511177063,0.0019599650986492634,0.06966842460156997,0.1376218997440217,0.3976159206777556
1687012418.337112,0.06889718025922775,-0.1375679224729538,-0.9880932569503784,-0.009677805006504059,0.001352742314338684,-0.004689335823059082,0.028168754652142525,0.006173598580062389,0.0013658138923346996,0.06961473214176941,0.13800557576120975,0.39780667207999343
1687012418.342736,0.06911053508520126,-0.1389947086572647,-0.9878786206245422,0.006008483469486237,-0.011212781071662903,0.008462786674499512,-0.0005799353821203113,0.001650752266868949,-0.0003193679731339216,0.06984473041220286,0.13944619013084258,0.39741281007877777
1687012418.4132152,0.06884775310754776,-0.13978523015975952,-0.9877854585647583,-0.018081754446029663,0.01254221796989441,-0.005393862724304199,0.0508354976773262,0.0032362209167331457,0.004395092837512493,0.06958655745444312,0.1402445188340171,0.39777187358038996
1687012418.4195108,0.06881926208734512,-0.1415189653635025,-0.9875405430793762,0.01370028406381607,-0.00292070209980011,0.0036080479621887207,0.02613312378525734,-0.0006891896482557058,0.004542165901511908,0.06957504864344828,0.14199566131450342,0.39722648444104686
1687012418.506692,0.06861352920532227,-0.14382468163967133,-0.9872216582298279,-0.010248661041259766,0.008189335465431213,-0.025626182556152344,0.10651326924562454,-0.005009192042052746,-0.012205256149172783,0.06939006040037281,0.14432519681927383,0.39720075669602845
1687012418.518575,0.06875540316104889,-0.14668889343738556,-0.9867902994155884,0.017121069133281708,0.014563053846359253,-0.003856062889099121,0.05640070512890816,-0.004939417354762554,-0.007250377908349037,0.06956337281694917,0.14722011455349543,0.39627498023792235
1687012418.596111,0.06829097121953964,-0.15222236514091492,-0.9859841465950012,-0.0072405412793159485,-0.004790544509887695,-0.00820225477218628,0.1347416192293167,-0.006358793005347252,-0.005522585473954678,0.06915129667321701,0.15281646013830197,0.3957347958459557
1687012418.603887,0.0683196485042572,-0.15674790740013123,-0.9852728247642517,0.007852241396903992,-0.006765261292457581,0.014584958553314209,0.07300156354904175,-0.0018026570323854685,0.0018023058073595166,0.06923002622140864,0.15739698872124688,0.3945872849167901
1687012418.6886559,0.06805749237537384,-0.16000817716121674,-0.9847667813301086,0.0022702738642692566,0.0032088905572891235,-0.0020343661308288574,0.08078385144472122,-0.0035994919016957283,-0.0026843214873224497,0.06900054958932599,0.16069893351667014,0.3942007200148755
1687012418.7010322,0.06815516948699951,-0.16411738097667694,-0.9840835332870483,-0.012460581958293915,-0.02345888316631317,0.00683438777923584,0.020881060510873795,0.007924982346594334,-0.005020779557526112,0.06914709340689261,0.16486319758663906,0.39373659704454
1687012418.7721782,0.06852606683969498,-0.16483575105667114,-0.983937680721283,0.00419732928276062,0.01473507285118103,-0.009195864200592041,0.07891599833965302,-0.007000970654189587,-0.001096811261959374,0.06953244533061378,0.16559148435155976,0.39337094993816724
1687012418.7838469,0.06800411641597748,-0.16737109422683716,-0.9835457801818848,-0.006556972861289978,-0.00418342649936676,-0.006795346736907959,0.019523069262504578,0.001775388140231371,0.008896701037883759,0.06903192561488397,0.16816253615141458,0.3932956462885801
1687012418.828795,0.06830529123544693,-0.170004203915596,-0.9830732345581055,0.014443129301071167,0.001882895827293396,-0.010365486145019531,0.0845138356089592,-0.01944299228489399,-0.009719260968267918,0.0693699023940452,0.1708339352458619,0.39280306727630304
1687012418.923769,0.06796833872795105,-0.17287737131118774,-0.9825953841209412,-0.002508126199245453,0.0012007653713226318,0.0056514739990234375,0.0727730244398117,0.0026716310530900955,-0.00300942687317729,0.0690622423696894,0.1737502777810781,0.39238312355619503
1687012418.9374828,0.0686752200126648,-0.17616279423236847,-0.9819625020027161,0.004109211266040802,-0.01582324504852295,0.00417935848236084,0.03964511677622795,0.02155095711350441,0.008485241793096066,0.06982300948380264,0.1770869129628076,0.39189285663354245
1687012418.980814,0.06884174793958664,-0.17811372876167297,-0.9815988540649414,-0.008935727179050446,0.0011880993843078613,0.0006570816040039062,0.0700327605009079,0.00012964382767677307,-0.016985364258289337,0.0700176145884133,0.17906919716403033,0.39165127648244463
1687012419.067316,0.06929447501897812,-0.1808970719575882,-0.98105788230896,0.003901943564414978,-0.0048328787088394165,-0.0008909702301025391,0.04833460971713066,0.0015492858365178108,0.0003055428387597203,0.07051529067757374,0.181898491736622,0.3907401683785047
1687012419.083438,0.06900816410779953,-0.18324916064739227,-0.9806414246559143,-0.003822609782218933,0.004889205098152161,-0.006495416164398193,0.05306069925427437,-0.0017273786943405867,-0.005240290425717831,0.07025461943768689,0.18429056611753772,0.3903740986271591
1687012419.136255,0.06954294443130493,-0.1861780881881714,-0.9800517559051514,0.013556420803070068,-0.007547467947006226,-0.007710635662078857,0.0655030757188797,0.002626534551382065,-0.001323046744801104,0.07083970230735678,0.18727077722720298,0.38983493515659506
1687012419.193668,0.06943299621343613,-0.18842068314552307,-0.9796308875083923,0.002725832164287567,-0.013742998242378235,0.002671658992767334,0.010983065702021122,0.004090918228030205,-0.000977701391093433,0.07075836397440248,0.18955377469881193,0.3899431246473165
1687012419.210174,0.06976646184921265,-0.1902223378419876,-0.9792589545249939,-0.0034670159220695496,0.0008607804775238037,-0.011204302310943604,0.061441268771886826,-0.005597217474132776,-0.015691932290792465,0.07112396712883019,0.1913886137639235,0.38957820872761967
1687012419.2495341,0.06974721699953079,-0.19273515045642853,-0.9787688851356506,-0.0015709400177001953,0.012345761060714722,0.0033813118934631348,0.05442419648170471,0.013133769854903221,0.005571278277784586,0.07113990087270222,0.19394879545481772,0.38917545781124174
1687012419.308339,0.07004512846469879,-0.1951897293329239,-0.9782610535621643,-0.005332589149475098,0.0013878792524337769,-0.012934625148773193,0.06467217206954956,-0.006434072740375996,0.003789690090343356,0.0714796852797714,0.19645089266912055,0.3891448681474176
1687012419.369318,0.07025234401226044,-0.19764260947704315,-0.9777535796165466,-0.001160547137260437,0.007136672735214233,0.0009164214134216309,0.044382791966199875,0.008321527391672134,-0.007544856984168291,0.07172750761340255,0.1989525122463836,0.38844022152200064
1687012419.433541,0.07019440829753876,-0.1984381228685379,-0.9775965809822083,0.0008200034499168396,-0.0030236393213272095,-0.015384376049041748,0.016465049237012863,-0.016312891617417336,0.007725043222308159,0.07168002716899456,0.19976410199537406,0.38825952831249794
1687012419.558467,0.07007170468568802,-0.20063839852809906,-0.9771561622619629,0.008831508457660675,-0.003127455711364746,0.01472330093383789,0.05129009485244751,0.0030894808005541563,-0.0073903268203139305,0.0715872882156296,0.2020095254673621,0.3881734483937958
1687012419.57109,0.06952296942472458,-0.20346061885356903,-0.9766116738319397,0.0006979852914810181,-0.0011139363050460815,-0.016628682613372803,0.07678436487913132,-0.03692753240466118,-0.018471740186214447,0.0710680513757609,0.2048911812519037,0.38759771222186873
1687012419.645121,0.06923630088567734,-0.20675401389598846,-0.9759401082992554,0.01006363332271576,0.000974014401435852,0.006091475486755371,0.06918108463287354,0.0003450934309512377,-0.005207933019846678,0.07082452614956095,0.20825611512019776,0.38712802253148837
1687012419.653314,0.06823748350143433,-0.21136076748371124,-0.9750232100486755,-0.0007478445768356323,0.0007284581661224365,-0.002302229404449463,0.10591459274291992,-0.03129139542579651,-0.008406789042055607,0.06987156751743308,0.2129669641449135,0.38635043177747924
1687012419.7699199,0.06765810400247574,-0.21552368998527527,-0.9741519093513489,-0.006363533437252045,0.006218910217285156,0.014618217945098877,0.11954851448535919,0.0017373941373080015,0.004771663807332516,0.06934198436132197,0.21722808907170846,0.3857650393331881
1687012419.782421,0.06613485515117645,-0.21927466988563538,-0.9734191298484802,-0.004458814859390259,-0.0017030835151672363,-0.0031586289405822754,0.03354456648230553,-0.042757548391819,-0.0015734505141153932,0.06783653104248526,0.22107099029437388,0.38536032480400717
1687012419.855221,0.06517793983221054,-0.22076094150543213,-0.9731476902961731,0.009040817618370056,-0.007556304335594177,-0.011135756969451904,0.038261380046606064,-0.01468685269355774,0.006894469261169434,0.06687652976603009,0.2225945847035602,0.38512006742312804
1687012419.8675961,0.0639863982796669,-0.22413814067840576,-0.9724545478820801,0.004647642374038696,-0.004545301198959351,-0.009341716766357422,0.07998117059469223,-0.036888208240270615,-0.0038051127921789885,0.06570414874959711,0.22605859122984473,0.3850372931396192
1687012419.9451818,0.06306063383817673,-0.22598177194595337,-0.9720882773399353,0.0017129406332969666,0.003829076886177063,-0.0025058388710021973,0.021504372358322144,-0.020419307053089142,-0.01676325686275959,0.06478053183607638,0.22795075672550444,0.3847921549647348
1687012419.960863,0.061974525451660156,-0.22857502102851868,-0.9715516567230225,0.0015783384442329407,-0.0027634650468826294,0.003015279769897461,0.07581834495067596,-0.027488933876156807,0.001108086435124278,0.06370291309174508,0.23061369496091835,0.38416393200461885
1687012420.0345469,0.0611528642475605,-0.23093871772289276,-0.9710446000099182,-0.007289331406354904,-0.0003234446048736572,-0.002160966396331787,0.04596656933426857,-0.015690065920352936,-0.009922927245497704,0.0628933130468732,0.23304237663666638,0.38393462869267175
1687012420.047696,0.06014628708362579,-0.23329852521419525,-0.9705432653427124,-0.011531773954629898,0.002585664391517639,-0.009559273719787598,0.058470867574214935,-0.022403717041015625,-0.006131850183010101,0.061892621042608495,0.23546844535873387,0.38324297278967456
1687012420.12672,0.05967673286795616,-0.23451071977615356,-0.9702800512313843,0.004715368151664734,1.3679265975952148e-05,3.4689903259277344e-05,0.018705036491155624,-0.005890876054763794,0.012675327248871326,0.06142726763230441,0.2367152157135817,0.3830922139788981
1687012420.140503,0.05889550969004631,-0.2359524369239807,-0.9699782133102417,-0.002621084451675415,-0.0109042227268219,-0.010032713413238525,0.03896849602460861,-0.016353104263544083,-0.0013291719369590282,0.06064392861763908,0.2381985575315603,0.38332363563960264
1687012420.21749,0.05866919085383415,-0.23717501759529114,-0.9696937203407288,0.009354498237371445,-0.007804796099662781,-0.007555365562438965,0.00955547858029604,-0.00824031699448824,-0.007845394313335419,0.060429140935643284,0.23945685440873085,0.3831828532462747
